inst1_resp.keys,inst1_resp.rt,calibrationMouse.x,calibrationMouse.y,calibrationMouse.leftButton,calibrationMouse.midButton,calibrationMouse.rightButton,calibrationClick.x,calibrationClick.y,calibrationClick.leftButton,calibrationClick.midButton,calibrationClick.rightButton,calibrationClick.clicked_name,trialsc.thisRepN,trialsc.thisTrialN,trialsc.thisN,trialsc.thisIndex,trialsc.ran,calibration_x,calibration_y,participant,session,date,expName,psychopyVersion,OS,frameRate,ScreenRes_pixels,Camera_pixels,mouse_2.x,mouse_2.y,mouse_2.leftButton,mouse_2.midButton,mouse_2.rightButton,mouse_2.time,mouse_2.clicked_name,mouse.x,mouse.y,mouse.leftButton,mouse.midButton,mouse.rightButton,mouse.time,mouse.clicked_name,Choice,Trial,TrialDuration,MOUSE_GAZE,ET_GAZE,ET_GAZE_x_T,time,unixTime,ET_GAZE_NF,Loc_Bus_label,Loc_Metro_label,Loc_RH_label,Loc_Cost_label,Loc_Travel_label,Loc_Comfort_label,Loc_Bus_cost,Loc_Metro_cost,Loc_RH_cost,Loc_Bus_travel,Loc_Metro_travel,Loc_RH_travel,Loc_Bus_comfort,Loc_Metro_comfort,Loc_RH_comfort,trials.thisRepN,trials.thisTrialN,trials.thisN,trials.thisIndex,trials.ran,Block,Device,RH_cost,RH_travel_time,RH_Comfort,metro_cost,metro_travel_time,metro_Comfort,Bus_cost,Bus_travel_time,Bus_Comfort
space,10.244,-0.235416667,0.427777778,1,0,0,-0.669791667,-0.003703704,1,0,0,calibration_square,0,0,0,2,1,-0.67,0,48,001,2024-11-20_12h52.57.252,Attention_exp_legacy,2023.1.0,Win32,60.24096386,,,,,,,,,,,,,,,,,,,,,,,,,,,,,,,,,,,,,,,,,,,,,,,,,,,,,,,,
,,,,,,,-0.660416667,-0.322222222,1,0,0,calibration_square,0,1,1,1,1,-0.67,-0.33,48,001,2024-11-20_12h52.57.252,Attention_exp_legacy,2023.1.0,Win32,60.24096386,,,,,,,,,,,,,,,,,,,,,,,,,,,,,,,,,,,,,,,,,,,,,,,,,,,,,,,,
,,,,,,,0.330208333,0.67962963,1,0,0,calibration_square,0,2,2,18,1,0.33,0.67,48,001,2024-11-20_12h52.57.252,Attention_exp_legacy,2023.1.0,Win32,60.24096386,,,,,,,,,,,,,,,,,,,,,,,,,,,,,,,,,,,,,,,,,,,,,,,,,,,,,,,,
,,,,,,,0.670833333,0.662962963,1,0,0,calibration_square,0,3,3,19,1,0.67,0.67,48,001,2024-11-20_12h52.57.252,Attention_exp_legacy,2023.1.0,Win32,60.24096386,,,,,,,,,,,,,,,,,,,,,,,,,,,,,,,,,,,,,,,,,,,,,,,,,,,,,,,,
,,,,,,,-0.335416667,0.340740741,1,0,0,,0,4,4,7,1,-0.33,0.33,48,001,2024-11-20_12h52.57.252,Attention_exp_legacy,2023.1.0,Win32,60.24096386,,,,,,,,,,,,,,,,,,,,,,,,,,,,,,,,,,,,,,,,,,,,,,,,,,,,,,,,
,,,,,,,0.338541667,-0.327777778,1,0,0,calibration_square,0,5,5,15,1,0.33,-0.33,48,001,2024-11-20_12h52.57.252,Attention_exp_legacy,2023.1.0,Win32,60.24096386,,,,,,,,,,,,,,,,,,,,,,,,,,,,,,,,,,,,,,,,,,,,,,,,,,,,,,,,
,,,,,,,-0.007291667,0.327777778,1,0,0,calibration_square,0,6,6,12,1,0,0.33,48,001,2024-11-20_12h52.57.252,Attention_exp_legacy,2023.1.0,Win32,60.24096386,,,,,,,,,,,,,,,,,,,,,,,,,,,,,,,,,,,,,,,,,,,,,,,,,,,,,,,,
,,,,,,,-0.33125,-0.340740741,1,0,0,,0,7,7,5,1,-0.33,-0.33,48,001,2024-11-20_12h52.57.252,Attention_exp_legacy,2023.1.0,Win32,60.24096386,,,,,,,,,,,,,,,,,,,,,,,,,,,,,,,,,,,,,,,,,,,,,,,,,,,,,,,,
,,,,,,,0.008333333,-0.007407407,1,0,0,calibration_square,0,8,8,11,1,0,0,48,001,2024-11-20_12h52.57.252,Attention_exp_legacy,2023.1.0,Win32,60.24096386,,,,,,,,,,,,,,,,,,,,,,,,,,,,,,,,,,,,,,,,,,,,,,,,,,,,,,,,
,,,,,,,-0.677083333,0.337037037,1,0,0,calibration_square,0,9,9,3,1,-0.67,0.33,48,001,2024-11-20_12h52.57.252,Attention_exp_legacy,2023.1.0,Win32,60.24096386,,,,,,,,,,,,,,,,,,,,,,,,,,,,,,,,,,,,,,,,,,,,,,,,,,,,,,,,
,,,,,,,-0.34375,0.007407407,1,0,0,,0,10,10,6,1,-0.33,0,48,001,2024-11-20_12h52.57.252,Attention_exp_legacy,2023.1.0,Win32,60.24096386,,,,,,,,,,,,,,,,,,,,,,,,,,,,,,,,,,,,,,,,,,,,,,,,,,,,,,,,
,,,,,,,-0.684375,-0.674074074,1,0,0,,0,11,11,0,1,-0.67,-0.67,48,001,2024-11-20_12h52.57.252,Attention_exp_legacy,2023.1.0,Win32,60.24096386,,,,,,,,,,,,,,,,,,,,,,,,,,,,,,,,,,,,,,,,,,,,,,,,,,,,,,,,
,,,,,,,-0.001041667,-0.659259259,1,0,0,,0,12,12,9,1,0,-0.67,48,001,2024-11-20_12h52.57.252,Attention_exp_legacy,2023.1.0,Win32,60.24096386,,,,,,,,,,,,,,,,,,,,,,,,,,,,,,,,,,,,,,,,,,,,,,,,,,,,,,,,
,,,,,,,0.007291667,-0.335185185,1,0,0,calibration_square,0,13,13,10,1,0,-0.33,48,001,2024-11-20_12h52.57.252,Attention_exp_legacy,2023.1.0,Win32,60.24096386,,,,,,,,,,,,,,,,,,,,,,,,,,,,,,,,,,,,,,,,,,,,,,,,,,,,,,,,
,,,,,,,0.680208333,-0.675925926,1,0,0,,0,14,14,20,1,0.67,-0.67,48,001,2024-11-20_12h52.57.252,Attention_exp_legacy,2023.1.0,Win32,60.24096386,,,,,,,,,,,,,,,,,,,,,,,,,,,,,,,,,,,,,,,,,,,,,,,,,,,,,,,,
,,,,,,,0.3375,0.012962963,1,0,0,,0,15,15,16,1,0.33,0,48,001,2024-11-20_12h52.57.252,Attention_exp_legacy,2023.1.0,Win32,60.24096386,,,,,,,,,,,,,,,,,,,,,,,,,,,,,,,,,,,,,,,,,,,,,,,,,,,,,,,,
,,,,,,,0.325,0.32962963,1,0,0,calibration_square,0,16,16,17,1,0.33,0.33,48,001,2024-11-20_12h52.57.252,Attention_exp_legacy,2023.1.0,Win32,60.24096386,,,,,,,,,,,,,,,,,,,,,,,,,,,,,,,,,,,,,,,,,,,,,,,,,,,,,,,,
,,,,,,,-0.338541667,-0.683333333,1,0,0,,0,17,17,4,1,-0.33,-0.67,48,001,2024-11-20_12h52.57.252,Attention_exp_legacy,2023.1.0,Win32,60.24096386,,,,,,,,,,,,,,,,,,,,,,,,,,,,,,,,,,,,,,,,,,,,,,,,,,,,,,,,
,,,,,,,0.00625,0.681481481,1,0,0,,0,18,18,13,1,0,0.67,48,001,2024-11-20_12h52.57.252,Attention_exp_legacy,2023.1.0,Win32,60.24096386,,,,,,,,,,,,,,,,,,,,,,,,,,,,,,,,,,,,,,,,,,,,,,,,,,,,,,,,
,,,,,,,-0.334375,0.664814815,1,0,0,calibration_square,0,19,19,8,1,-0.33,0.67,48,001,2024-11-20_12h52.57.252,Attention_exp_legacy,2023.1.0,Win32,60.24096386,,,,,,,,,,,,,,,,,,,,,,,,,,,,,,,,,,,,,,,,,,,,,,,,,,,,,,,,
,,,,,,,0.321875,-0.688888889,1,0,0,,0,20,20,14,1,0.33,-0.67,48,001,2024-11-20_12h52.57.252,Attention_exp_legacy,2023.1.0,Win32,60.24096386,,,,,,,,,,,,,,,,,,,,,,,,,,,,,,,,,,,,,,,,,,,,,,,,,,,,,,,,
,,,,,,,,,,,,,,,,,,,,48,001,2024-11-20_12h52.57.252,Attention_exp_legacy,2023.1.0,Win32,60.24096386,"[1920,1080]","[640,480]",[0.065625],[-0.4962962962962963],[1],[0],[0],[3.150199999809267],"[""StartButton""]","[0.190625,0.18125]","[0.1925925925925926,0.14444444444444443]","[1,1]","[0,0]","[0,0]","[1.5461999998092608,2.5294000000953645]","[""RH_label"",""RH_label""]",RH_label,1,2.559,"[[0.328125,0.17962962962962964],[0.328125,0.17777777777777778],[0.328125,0.17777777777777778],[0.328125,0.17777777777777778],[0.328125,0.17777777777777778],[0.328125,0.17777777777777778],[0.328125,0.17777777777777778],[0.328125,0.17777777777777778],[0.328125,0.17777777777777778],[0.328125,0.17777777777777778],[0.328125,0.17777777777777778],[0.328125,0.17777777777777778],[0.3260416666666667,0.17777777777777778],[0.32395833333333335,0.1648148148148148],[0.3177083333333333,0.12407407407407407],[0.296875,0.046296296296296294],[0.2791666666666667,-0.03333333333333333],[0.2604166666666667,-0.11296296296296296],[0.24895833333333334,-0.16111111111111112],[0.23958333333333334,-0.1962962962962963],[0.2375,-0.2],[0.2375,-0.2],[0.2375,-0.2],[0.2375,-0.2],[0.2375,-0.2],[0.2375,-0.2],[0.2375,-0.19444444444444445],[0.24791666666666667,-0.17777777777777778],[0.27395833333333336,-0.15185185185185185],[0.31666666666666665,-0.1111111111111111],[0.36666666666666664,-0.06851851851851852],[0.3729166666666667,-0.05925925925925926],[0.37604166666666666,-0.053703703703703705],[0.37604166666666666,-0.053703703703703705],[0.37604166666666666,-0.05],[0.375,-0.05],[0.36666666666666664,-0.04814814814814815],[0.34791666666666665,-0.04814814814814815],[0.31875,-0.04814814814814815],[0.26875,-0.03888888888888889],[0.21875,-0.020370370370370372],[0.19375,-0.003703703703703704],[0.18020833333333333,0.016666666666666666],[0.17604166666666668,0.053703703703703705],[0.17604166666666668,0.07962962962962963],[0.178125,0.10185185185185185],[0.17916666666666667,0.12037037037037036],[0.17916666666666667,0.14074074074074075],[0.178125,0.15925925925925927],[0.17291666666666666,0.17037037037037037],[0.16979166666666667,0.17222222222222222],[0.16979166666666667,0.17407407407407408],[0.16979166666666667,0.17407407407407408],[0.16979166666666667,0.17407407407407408],[0.16979166666666667,0.17407407407407408],[0.184375,0.15185185185185185],[0.228125,0.09444444444444444],[0.2635416666666667,0.03148148148148148],[0.27708333333333335,-0.003703703703703704],[0.278125,-0.012962962962962963],[0.278125,-0.020370370370370372],[0.275,-0.025925925925925925],[0.26458333333333334,-0.027777777777777776],[0.24791666666666667,-0.018518518518518517],[0.22604166666666667,0.03333333333333333],[0.20520833333333333,0.11296296296296296],[0.19479166666666667,0.17592592592592593],[0.19375,0.19074074074074074],[0.190625,0.21481481481481482],[0.18958333333333333,0.21851851851851853],[0.18958333333333333,0.22037037037037038],[0.18958333333333333,0.22037037037037038],[0.18958333333333333,0.22037037037037038],[0.18958333333333333,0.22407407407407406],[0.18958333333333333,0.23148148148148148],[0.18958333333333333,0.2351851851851852],[0.18958333333333333,0.23703703703703705],[0.18958333333333333,0.23703703703703705],[0.18958333333333333,0.23703703703703705],[0.18958333333333333,0.23333333333333334],[0.190625,0.2222222222222222],[0.190625,0.2111111111111111],[0.190625,0.2037037037037037],[0.190625,0.2],[0.190625,0.19814814814814816],[0.190625,0.19444444444444445],[0.190625,0.19444444444444445],[0.190625,0.1925925925925926],[0.190625,0.1925925925925926],[0.190625,0.1925925925925926],[0.190625,0.1925925925925926],[0.190625,0.1925925925925926],[0.190625,0.1925925925925926],[0.190625,0.1925925925925926],[0.190625,0.1925925925925926],[0.190625,0.1925925925925926],[0.190625,0.1925925925925926],[0.190625,0.1925925925925926],[0.190625,0.1925925925925926],[0.190625,0.1925925925925926],[0.190625,0.1925925925925926],[0.190625,0.1925925925925926],[0.190625,0.1925925925925926],[0.190625,0.1925925925925926],[0.190625,0.1925925925925926],[0.190625,0.1925925925925926],[0.190625,0.1925925925925926],[0.190625,0.1925925925925926],[0.190625,0.1925925925925926],[0.190625,0.18888888888888888],[0.190625,0.17407407407407408],[0.190625,0.14814814814814814],[0.190625,0.12777777777777777],[0.190625,0.12037037037037036],[0.190625,0.12037037037037036],[0.190625,0.11851851851851852],[0.190625,0.11851851851851852],[0.18958333333333333,0.12962962962962962],[0.18854166666666666,0.14074074074074075],[0.18854166666666666,0.14444444444444443],[0.18854166666666666,0.14444444444444443],[0.18854166666666666,0.14629629629629629],[0.18854166666666666,0.14629629629629629],[0.18854166666666666,0.14629629629629629],[0.18854166666666666,0.14629629629629629],[0.19166666666666668,0.12962962962962962],[0.19791666666666666,0.08703703703703704],[0.20104166666666667,0.07037037037037037],[0.20104166666666667,0.06481481481481481],[0.20104166666666667,0.06296296296296296],[0.20104166666666667,0.05925925925925926],[0.20104166666666667,0.05925925925925926],[0.20104166666666667,0.05925925925925926],[0.20104166666666667,0.05925925925925926],[0.19895833333333332,0.05925925925925926],[0.19895833333333332,0.05925925925925926],[0.19895833333333332,0.05925925925925926],[0.19895833333333332,0.05925925925925926],[0.19583333333333333,0.05925925925925926],[0.19479166666666667,0.06296296296296296],[0.19166666666666668,0.07407407407407407],[0.190625,0.08333333333333333],[0.1875,0.09814814814814815],[0.18541666666666667,0.11296296296296296],[0.18333333333333332,0.1259259259259259],[0.18229166666666666,0.13703703703703704],[0.18229166666666666,0.1388888888888889],[0.18125,0.1425925925925926],[0.18125,0.14444444444444443],[0.18125,0.14444444444444443],[0.18125,0.14444444444444443],[0.18125,0.14444444444444443],[0.18125,0.14444444444444443]]","[[-0.07479166666666662,-0.08962962962962959],[-0.07479166666666662,-0.08962962962962959],[-0.004479166666666619,-0.0955555555555556],[0.051250000000000046,-0.07166666666666664],[0.08697916666666666,-0.06277777777777774],[0.08697916666666666,-0.06277777777777774],[0.10072916666666672,-0.0235185185185186],[0.12802083333333342,-0.04796296296296292],[0.12770833333333323,-0.06481481481481481],[0.12770833333333323,-0.06481481481481481],[0.09802083333333324,-0.10277777777777777],[0.11010416666666671,-0.14518518518518514],[0.11010416666666671,-0.14518518518518514],[0.16072916666666662,-0.08907407407407411],[0.15229166666666671,-0.09796296296296292],[0.18364583333333329,-0.04592592592592584],[0.22854166666666675,0.03759259259259251],[0.22145833333333323,0.0448148148148149],[0.22145833333333323,0.0448148148148149],[0.2326041666666666,0.03518518518518519],[0.2193749999999999,0.021481481481481525],[0.2864583333333333,0.10611111111111103],[0.2864583333333333,0.10611111111111103],[0.28958333333333336,0.09370370370370375],[0.28958333333333336,0.09370370370370375],[0.2867708333333333,0.1557407407407408],[0.3194791666666667,0.1866666666666666],[0.28458333333333335,0.13666666666666658],[0.24968750000000003,0.08666666666666659],[0.21427083333333338,0.03592592592592588],[0.2679166666666667,0.11388888888888889],[0.29447916666666674,0.13796296296296295],[0.3529166666666666,0.1764814814814814],[0.33468749999999997,0.16814814814814807],[0.3290625000000001,0.21425925925925934],[0.35125000000000006,0.16611111111111118],[0.2993750000000001,0.10407407407407415],[0.31489583333333326,0.12629629629629638],[0.3494791666666667,0.2051851851851851],[0.3540625000000001,0.18203703703703694],[0.30625,0.10351851851851848],[0.28270833333333345,0.07111111111111107],[0.28270833333333345,0.07111111111111107],[0.23864583333333325,0.06222222222222226],[0.23864583333333325,0.06222222222222226],[0.2140625,0.005370370370370328],[0.22177083333333342,-0.06425925925925924],[0.20822916666666677,-0.0801851851851852],[0.20906250000000004,-0.08537037037037042],[0.23145833333333338,-0.11518518518518517],[0.23479166666666676,-0.20166666666666663],[0.21927083333333333,-0.227962962962963],[0.20479166666666657,-0.25259259259259254],[0.21760416666666677,-0.2222222222222222],[0.22697916666666676,-0.20907407407407402],[0.24104166666666677,-0.18759259259259262],[0.25885416666666666,-0.16055555555555553],[0.2634375000000001,-0.1581481481481481],[0.2738541666666668,-0.13759259259259263],[0.2741666666666667,-0.10037037037037035],[0.2819791666666667,-0.06351851851851854],[0.31239583333333343,-0.03129629629629625],[0.30020833333333335,-0.0477777777777777],[0.30020833333333335,-0.0477777777777777],[0.2920833333333334,-0.050370370370370454],[0.26687500000000003,-0.09592592592592594],[0.2349999999999999,-0.14444444444444443],[0.2349999999999999,-0.14444444444444443],[0.2328125,-0.14240740740740737],[0.20989583333333334,-0.19185185185185188],[0.18114583333333342,-0.2594444444444445],[0.15177083333333338,-0.2929629629629629],[0.1165625000000001,-0.32944444444444443],[0.13562500000000005,-0.2953703703703704],[0.16260416666666658,-0.26740740740740737],[0.1642708333333334,-0.29129629629629633],[0.18135416666666657,-0.2855555555555555],[0.2265625,-0.23777777777777773],[0.23510416666666673,-0.22314814814814815],[0.2520833333333333,-0.17296296296296293],[0.234375,-0.152962962962963],[0.2459374999999999,-0.13574074074074077],[0.26927083333333335,-0.07537037037037035],[0.21729166666666658,-0.11500000000000005],[0.2367708333333333,-0.09870370370370372],[0.2587500000000001,-0.09111111111111109],[0.26843750000000005,-0.05462962962962963],[0.25104166666666666,-0.052962962962963],[0.2639583333333334,-0.03944444444444436],[0.2994791666666667,0.0016666666666666245],[0.3696875000000001,0.07296296296296292],[0.39572916666666674,0.08444444444444449],[0.39572916666666674,0.08444444444444449],[0.4083333333333333,0.05611111111111103],[0.44562499999999994,0.07574074074074069],[0.4176041666666668,0.06370370370370367],[0.38385416666666666,0.051111111111111156],[0.37947916666666665,0.022777777777777692],[0.38520833333333326,0.009074074074074031],[0.3664583333333333,0.005555555555555556],[0.33739583333333345,-0.009629629629629714],[0.33739583333333345,-0.009629629629629714],[0.3116666666666667,-0.048333333333333374],[0.3116666666666667,-0.048333333333333374],[0.28854166666666664,-0.0794444444444444],[0.28854166666666664,-0.0794444444444444],[0.2669791666666666,-0.06796296296296295],[0.2669791666666666,-0.06796296296296295],[0.21864583333333343,-0.09203703703703701],[0.21864583333333343,-0.09203703703703701],[0.25718750000000007,-0.05722222222222218],[0.25718750000000007,-0.05722222222222218],[0.2912499999999999,-0.03759259259259251],[0.2960416666666667,-0.02444444444444453],[0.2934375000000001,0.01796296296296305],[0.3030208333333334,0.01629629629629621],[0.29489583333333325,-0.003703703703703704],[0.28885416666666663,-0.006481481481481481],[0.2859375,0.0014814814814813973],[0.2890625,-0.018703703703703747],[0.3030208333333334,-0.022777777777777692],[0.2713541666666667,-0.05814814814814811],[0.24072916666666658,-0.07703703703703708],[0.2234375,-0.09148148148148144],[0.21458333333333332,-0.14166666666666666],[0.18072916666666666,-0.17462962962962966],[0.18072916666666666,-0.17592592592592593],[0.2131249999999999,-0.15703703703703706],[0.21979166666666666,-0.15407407407407406],[0.2078125,-0.15703703703703706],[0.22916666666666666,-0.15018518518518523],[0.240625,-0.14462962962962966],[0.21687500000000004,-0.1542592592592593],[0.21687500000000004,-0.1542592592592593],[0.22083333333333333,-0.13703703703703704],[0.24416666666666675,-0.11259259259259262],[0.2601041666666667,-0.09148148148148144],[0.2598958333333333,-0.08370370370370368],[0.221875,-0.08981481481481482],[0.21760416666666677,-0.0794444444444444],[0.2243750000000001,-0.07759259259259255],[0.2243750000000001,-0.07759259259259255],[0.2091666666666666,-0.08611111111111111],[0.2337500000000001,-0.034999999999999955],[0.2337500000000001,-0.034999999999999955],[0.29697916666666657,0.030000000000000086],[0.29739583333333336,0.008888888888888804],[0.25927083333333345,-0.018518518518518517],[0.23010416666666675,-0.06222222222222226],[0.24187500000000003,-0.07759259259259255],[0.24187500000000003,-0.07759259259259255],[0.26677083333333323,-0.05925925925925926],[0.2921875,-0.005185185185185101]]","[[-0.07479166666666662,-0.08962962962962959,0.00029999971388861013],[-0.07479166666666662,-0.08962962962962959,0.055699999809263545],[-0.004479166666666619,-0.0955555555555556,0.059900000095368],[0.051250000000000046,-0.07166666666666664,0.07579999971389384],[0.08697916666666666,-0.06277777777777774,0.09419999980926264],[0.08697916666666666,-0.06277777777777774,0.11290000009536527],[0.10072916666666672,-0.0235185185185186,0.12699999999999534],[0.12802083333333342,-0.04796296296296292,0.1424999999999983],[0.12770833333333323,-0.06481481481481481,0.15800000000000125],[0.12770833333333323,-0.06481481481481481,0.17229999971389987],[0.09802083333333324,-0.10277777777777777,0.18899999999999295],[0.11010416666666671,-0.14518518518518514,0.20559999990463496],[0.11010416666666671,-0.14518518518518514,0.22559999990463098],[0.16072916666666662,-0.08907407407407411,0.23919999980925866],[0.15229166666666671,-0.09796296296296292,0.25579999971390066],[0.18364583333333329,-0.04592592592592584,0.27249999999999375],[0.22854166666666675,0.03759259259259251,0.2919000000953673],[0.22145833333333323,0.0448148148148149,0.3064999999999998],[0.22145833333333323,0.0448148148148149,0.32269999980925945],[0.2326041666666666,0.03518518518518519,0.3391999998092672],[0.2193749999999999,0.021481481481481525,0.357599999904636],[0.2864583333333333,0.10611111111111103,0.37440000009536334],[0.2864583333333333,0.10611111111111103,0.3889999999999958],[0.28958333333333336,0.09370370370370375,0.40569999980925786],[0.28958333333333336,0.09370370370370375,0.42229999971389987],[0.2867708333333333,0.1557407407407408,0.4389000000953587],[0.3194791666666667,0.1866666666666666,0.4580999999046327],[0.28458333333333335,0.13666666666666658,0.4724000000953623],[0.24968750000000003,0.08666666666666659,0.4906999998092658],[0.21427083333333338,0.03592592592592588,0.5056999998092664],[0.2679166666666667,0.11388888888888889,0.525900000095362],[0.29447916666666674,0.13796296296296295,0.5394000000953696],[0.3529166666666666,0.1764814814814814,0.5557999997138978],[0.33468749999999997,0.16814814814814807,0.5722999997138913],[0.3290625000000001,0.21425925925925934,0.592099999904633],[0.35125000000000006,0.16611111111111118,0.6064999999999969],[0.2993750000000001,0.10407407407407415,0.6240999999046295],[0.31489583333333326,0.12629629629629638,0.6392999997138986],[0.3494791666666667,0.2051851851851851,0.6575999999046331],[0.3540625000000001,0.18203703703703694,0.6724000000953652],[0.30625,0.10351851851851848,0.6890999999046272],[0.28270833333333345,0.07111111111111107,0.7076999998092646],[0.28270833333333345,0.07111111111111107,0.7226999998092651],[0.23864583333333325,0.06222222222222226,0.7390999999046244],[0.23864583333333325,0.06222222222222226,0.7556999998092664],[0.2140625,0.005370370370370328,0.7742999997138895],[0.22177083333333342,-0.06425925925925924,0.7910999999046311],[0.20822916666666677,-0.0801851851851852,0.8056999998092635],[0.20906250000000004,-0.08537037037037042,0.8269999999999982],[0.23145833333333338,-0.11518518518518517,0.8416999998092649],[0.23479166666666676,-0.20166666666666663,0.8560999999046288],[0.21927083333333333,-0.227962962962963,0.8725000000000023],[0.20479166666666657,-0.25259259259259254,0.8889999999999958],[0.21760416666666677,-0.2222222222222222,0.9055999999046236],[0.22697916666666676,-0.20907407407407402,0.9257999997139024],[0.24104166666666677,-0.18759259259259262,0.9429000000953636],[0.25885416666666666,-0.16055555555555553,0.9579000000953641],[0.2634375000000001,-0.1581481481481481,0.9724999999999966],[0.2738541666666668,-0.13759259259259263,0.9890999999046244],[0.2741666666666667,-0.10037037037037035,1.0085999999046322],[0.2819791666666667,-0.06351851851851854,1.0245999999046234],[0.31239583333333343,-0.03129629629629625,1.0390999999046358],[0.30020833333333335,-0.0477777777777777,1.0612999997138957],[0.30020833333333335,-0.0477777777777777,1.072499999999991],[0.2920833333333334,-0.050370370370370454,1.0891999998092672],[0.26687500000000003,-0.09592592592592594,1.1056999998092607],[0.2349999999999999,-0.14444444444444443,1.1289000000953706],[0.2349999999999999,-0.14444444444444443,1.1392999997138986],[0.2328125,-0.14240740740740737,1.1557999997138921],[0.20989583333333334,-0.19185185185185188,1.1724999999999994],[0.18114583333333342,-0.2594444444444445,1.1924000000953612],[0.15177083333333338,-0.2929629629629629,1.2057999997138893],[0.1165625000000001,-0.32944444444444443,1.2264000000953672],[0.13562500000000005,-0.2953703703703704,1.2417999997138907],[0.16260416666666658,-0.26740740740740737,1.2557999997139007],[0.1642708333333334,-0.29129629629629633,1.2724000000953595],[0.18135416666666657,-0.2855555555555555,1.294400000095365],[0.2265625,-0.23777777777777773,1.3086999998092637],[0.23510416666666673,-0.22314814814814815,1.3259000000953591],[0.2520833333333333,-0.17296296296296293,1.3417999997138992],[0.234375,-0.152962962962963,1.359099999904629],[0.2459374999999999,-0.13574074074074077,1.3759000000953705],[0.26927083333333335,-0.07537037037037035,1.3929000000953664],[0.21729166666666658,-0.11500000000000005,1.408699999809258],[0.2367708333333333,-0.09870370370370372,1.4257999997139024],[0.2587500000000001,-0.09111111111111109,1.4396999998092639],[0.26843750000000005,-0.05462962962962963,1.455599999904635],[0.25104166666666666,-0.052962962962963,1.4750999999046286],[0.2639583333333334,-0.03944444444444436,1.4924999999999926],[0.2994791666666667,0.0016666666666666245,1.5057999997139007],[0.3696875000000001,0.07296296296296292,1.5222999997138942],[0.39572916666666674,0.08444444444444449,1.5389000000953672],[0.39572916666666674,0.08444444444444449,1.5555999999046293],[0.4083333333333333,0.05611111111111103,1.5722999997138913],[0.44562499999999994,0.07574074074074069,1.5891999998092672],[0.4176041666666668,0.06370370370370367,1.6055999999046264],[0.38385416666666666,0.051111111111111156,1.6269999999999953],[0.37947916666666665,0.022777777777777692,1.6426999998092668],[0.38520833333333326,0.009074074074074031,1.656499999999994],[0.3664583333333333,0.005555555555555556,1.6722999997138999],[0.33739583333333345,-0.009629629629629714,1.6951999998092617],[0.33739583333333345,-0.009629629629629714,1.7056999998092692],[0.3116666666666667,-0.048333333333333374,1.7224000000953623],[0.3116666666666667,-0.048333333333333374,1.7390000000000043],[0.28854166666666664,-0.0794444444444444,1.7556999998092664],[0.28854166666666664,-0.0794444444444444,1.7722999997138942],[0.2669791666666666,-0.06796296296296295,1.7890000000000015],[0.2669791666666666,-0.06796296296296295,1.8055999999046293],[0.21864583333333343,-0.09203703703703701,1.8224000000953708],[0.21864583333333343,-0.09203703703703701,1.8427999997138897],[0.25718750000000007,-0.05722222222222218,1.855799999713895],[0.25718750000000007,-0.05722222222222218,1.872400000095368],[0.2912499999999999,-0.03759259259259251,1.892400000095364],[0.2960416666666667,-0.02444444444444453,1.9076999998092674],[0.2934375000000001,0.01796296296296305,1.9251999998092657],[0.3030208333333334,0.01629629629629621,1.9429999999999978],[0.29489583333333325,-0.003703703703703704,1.9582999997139012],[0.28885416666666663,-0.006481481481481481,1.9727999997138994],[0.2859375,0.0014814814814813973,1.9890999999046244],[0.2890625,-0.018703703703703747,2.0097999997138913],[0.3030208333333334,-0.022777777777777692,2.026299999713899],[0.2713541666666667,-0.05814814814814811,2.042099999904636],[0.24072916666666658,-0.07703703703703708,2.058099999904627],[0.2234375,-0.09148148148148144,2.0729999999999933],[0.21458333333333332,-0.14166666666666666,2.089500000000001],[0.18072916666666666,-0.17462962962962966,2.108099999904624],[0.18072916666666666,-0.17592592592592593,2.125],[0.2131249999999999,-0.15703703703703706,2.1411999998092597],[0.21979166666666666,-0.15407407407407406,2.1591999998092604],[0.2078125,-0.15703703703703706,2.1746999998092633],[0.22916666666666666,-0.15018518518518523,2.191199999809257],[0.240625,-0.14462962962962966,2.2055000000000007],[0.21687500000000004,-0.1542592592592593,2.231499999999997],[0.21687500000000004,-0.1542592592592593,2.23890000009537],[0.22083333333333333,-0.13703703703703704,2.2585999999046322],[0.24416666666666675,-0.11259259259259262,2.2727999997138966],[0.2601041666666667,-0.09148148148148144,2.288900000095367],[0.2598958333333333,-0.08370370370370368,2.3055999999046293],[0.221875,-0.08981481481481482,2.326199999809262],[0.21760416666666677,-0.0794444444444444,2.341299999713897],[0.2243750000000001,-0.07759259259259255,2.3584999999999923],[0.2243750000000001,-0.07759259259259255,2.3725000000000023],[0.2091666666666666,-0.08611111111111111,2.3917999997138963],[0.2337500000000001,-0.034999999999999955,2.406099999904626],[0.2337500000000001,-0.034999999999999955,2.4224999999999994],[0.29697916666666657,0.030000000000000086,2.442999999999998],[0.29739583333333336,0.008888888888888804,2.458599999904635],[0.25927083333333345,-0.018518518518518517,2.472999999999999],[0.23010416666666675,-0.06222222222222226,2.4921999998092588],[0.24187500000000003,-0.07759259259259255,2.5061999998092688],[0.24187500000000003,-0.07759259259259255,2.522299999713894],[0.26677083333333323,-0.05925925925925926,2.538900000095367],[0.2921875,-0.005185185185185101,2.5589999999999975]]","[0.00029999971388861013,0.055699999809263545,0.059900000095368,0.07579999971389384,0.09419999980926264,0.11290000009536527,0.12699999999999534,0.1424999999999983,0.15800000000000125,0.17229999971389987,0.18899999999999295,0.20559999990463496,0.22559999990463098,0.23919999980925866,0.25579999971390066,0.27249999999999375,0.2919000000953673,0.3064999999999998,0.32269999980925945,0.3391999998092672,0.357599999904636,0.37440000009536334,0.3889999999999958,0.40569999980925786,0.42229999971389987,0.4389000000953587,0.4580999999046327,0.4724000000953623,0.4906999998092658,0.5056999998092664,0.525900000095362,0.5394000000953696,0.5557999997138978,0.5722999997138913,0.592099999904633,0.6064999999999969,0.6240999999046295,0.6392999997138986,0.6575999999046331,0.6724000000953652,0.6890999999046272,0.7076999998092646,0.7226999998092651,0.7390999999046244,0.7556999998092664,0.7742999997138895,0.7910999999046311,0.8056999998092635,0.8269999999999982,0.8416999998092649,0.8560999999046288,0.8725000000000023,0.8889999999999958,0.9055999999046236,0.9257999997139024,0.9429000000953636,0.9579000000953641,0.9724999999999966,0.9890999999046244,1.0085999999046322,1.0245999999046234,1.0390999999046358,1.0612999997138957,1.072499999999991,1.0891999998092672,1.1056999998092607,1.1289000000953706,1.1392999997138986,1.1557999997138921,1.1724999999999994,1.1924000000953612,1.2057999997138893,1.2264000000953672,1.2417999997138907,1.2557999997139007,1.2724000000953595,1.294400000095365,1.3086999998092637,1.3259000000953591,1.3417999997138992,1.359099999904629,1.3759000000953705,1.3929000000953664,1.408699999809258,1.4257999997139024,1.4396999998092639,1.455599999904635,1.4750999999046286,1.4924999999999926,1.5057999997139007,1.5222999997138942,1.5389000000953672,1.5555999999046293,1.5722999997138913,1.5891999998092672,1.6055999999046264,1.6269999999999953,1.6426999998092668,1.656499999999994,1.6722999997138999,1.6951999998092617,1.7056999998092692,1.7224000000953623,1.7390000000000043,1.7556999998092664,1.7722999997138942,1.7890000000000015,1.8055999999046293,1.8224000000953708,1.8427999997138897,1.855799999713895,1.872400000095368,1.892400000095364,1.9076999998092674,1.9251999998092657,1.9429999999999978,1.9582999997139012,1.9727999997138994,1.9890999999046244,2.0097999997138913,2.026299999713899,2.042099999904636,2.058099999904627,2.0729999999999933,2.089500000000001,2.108099999904624,2.125,2.1411999998092597,2.1591999998092604,2.1746999998092633,2.191199999809257,2.2055000000000007,2.231499999999997,2.23890000009537,2.2585999999046322,2.2727999997138966,2.288900000095367,2.3055999999046293,2.326199999809262,2.341299999713897,2.3584999999999923,2.3725000000000023,2.3917999997138963,2.406099999904626,2.4224999999999994,2.442999999999998,2.458599999904635,2.472999999999999,2.4921999998092588,2.5061999998092688,2.522299999713894,2.538900000095367,2.5589999999999975]","[1732078433706,1732078433752,1732078433757,1732078433773,1732078433791,1732078433810,1732078433824,1732078433839,1732078433855,1732078433869,1732078433886,1732078433902,1732078433922,1732078433936,1732078433953,1732078433969,1732078433989,1732078434003,1732078434020,1732078434036,1732078434054,1732078434071,1732078434086,1732078434102,1732078434119,1732078434136,1732078434155,1732078434169,1732078434187,1732078434203,1732078434223,1732078434236,1732078434253,1732078434269,1732078434289,1732078434303,1732078434321,1732078434336,1732078434354,1732078434369,1732078434386,1732078434405,1732078434419,1732078434436,1732078434453,1732078434471,1732078434488,1732078434503,1732078434524,1732078434538,1732078434553,1732078434569,1732078434586,1732078434602,1732078434623,1732078434640,1732078434655,1732078434669,1732078434686,1732078434705,1732078434721,1732078434736,1732078434758,1732078434769,1732078434786,1732078434803,1732078434826,1732078434836,1732078434853,1732078434869,1732078434889,1732078434903,1732078434923,1732078434939,1732078434953,1732078434969,1732078434991,1732078435006,1732078435023,1732078435039,1732078435056,1732078435073,1732078435090,1732078435105,1732078435123,1732078435136,1732078435152,1732078435172,1732078435189,1732078435203,1732078435219,1732078435236,1732078435253,1732078435269,1732078435286,1732078435302,1732078435324,1732078435340,1732078435353,1732078435369,1732078435392,1732078435402,1732078435419,1732078435436,1732078435452,1732078435469,1732078435486,1732078435502,1732078435519,1732078435540,1732078435553,1732078435569,1732078435589,1732078435605,1732078435622,1732078435640,1732078435655,1732078435670,1732078435686,1732078435707,1732078435723,1732078435739,1732078435755,1732078435770,1732078435786,1732078435805,1732078435822,1732078435838,1732078435856,1732078435871,1732078435888,1732078435902,1732078435928,1732078435936,1732078435955,1732078435970,1732078435986,1732078436002,1732078436023,1732078436038,1732078436055,1732078436069,1732078436089,1732078436103,1732078436119,1732078436140,1732078436155,1732078436170,1732078436189,1732078436203,1732078436219,1732078436236,1732078436256]","[[888.2,491.6],[888.2,491.6],[955.7,488.4],[1009.2,501.3],[1043.5,506.1],[1043.5,506.1],[1056.7,527.3],[1082.9,514.1],[1082.6,505],[1082.6,505],[1054.1,484.5],[1065.7,461.6],[1065.7,461.6],[1114.3,491.9],[1106.2,487.1],[1136.3,515.2],[1179.4,560.3],[1172.6,564.2],[1172.6,564.2],[1183.3,559],[1170.6,551.6],[1235,597.3],[1235,597.3],[1238,590.6],[1238,590.6],[1235.3,624.1],[1266.7,640.8],[1233.2,613.8],[1199.7,586.8],[1165.7,559.4],[1217.2,601.5],[1242.7,614.5],[1298.8,635.3],[1281.3,630.8],[1275.9,655.7],[1297.2,629.7],[1247.4,596.2],[1262.3,608.2],[1295.5,650.8],[1299.9,638.3],[1254,595.9],[1231.4,578.4],[1231.4,578.4],[1189.1,573.6],[1189.1,573.6],[1165.5,542.9],[1172.9,505.3],[1159.9,496.7],[1160.7,493.9],[1182.2,477.8],[1185.4,431.1],[1170.5,416.9],[1156.6,403.6],[1168.9,420],[1177.9,427.1],[1191.4,438.7],[1208.5,453.3],[1212.9,454.6],[1222.9,465.7],[1223.2,485.8],[1230.7,505.7],[1259.9,523.1],[1248.2,514.2],[1248.2,514.2],[1240.4,512.8],[1216.2,488.2],[1185.6,462],[1185.6,462],[1183.5,463.1],[1161.5,436.4],[1133.9,399.9],[1105.7,381.8],[1071.9,362.1],[1090.2,380.5],[1116.1,395.6],[1117.7,382.7],[1134.1,385.8],[1177.5,411.6],[1185.7,419.5],[1202,446.6],[1185,457.4],[1196.1,466.7],[1218.5,499.3],[1168.6,477.9],[1187.3,486.7],[1208.4,490.8],[1217.7,510.5],[1201,511.4],[1213.4,518.7],[1247.5,540.9],[1314.9,579.4],[1339.9,585.6],[1339.9,585.6],[1352,570.3],[1387.8,580.9],[1360.9,574.4],[1328.5,567.6],[1324.3,552.3],[1329.8,544.9],[1311.8,543],[1283.9,534.8],[1283.9,534.8],[1259.2,513.9],[1259.2,513.9],[1237,497.1],[1237,497.1],[1216.3,503.3],[1216.3,503.3],[1169.9,490.3],[1169.9,490.3],[1206.9,509.1],[1206.9,509.1],[1239.6,519.7],[1244.2,526.8],[1241.7,549.7],[1250.9,548.8],[1243.1,538],[1237.3,536.5],[1234.5,540.8],[1237.5,529.9],[1250.9,527.7],[1220.5,508.6],[1191.1,498.4],[1174.5,490.6],[1166,463.5],[1133.5,445.7],[1133.5,445],[1164.6,455.2],[1171,456.8],[1159.5,455.2],[1180,458.9],[1191,461.9],[1168.2,456.7],[1168.2,456.7],[1172,466],[1194.4,479.2],[1209.7,490.6],[1209.5,494.8],[1173,491.5],[1168.9,497.1],[1175.4,498.1],[1175.4,498.1],[1160.8,493.5],[1184.4,521.1],[1184.4,521.1],[1245.1,556.2],[1245.5,544.8],[1208.9,530],[1180.9,506.4],[1192.2,498.1],[1192.2,498.1],[1216.1,508],[1240.5,537.2]]","[-0.056692,0.170076]","[0.056692,0.170076]","[0.170076,0.170076]","[-0.170076,-0.056692]","[-0.170076,0.056692]","[-0.170076,-0.170076]","[-0.056692,-0.056692]","[0.056692,-0.056692]","[0.170076,-0.056692]","[-0.056692,0.056692]","[0.056692,0.056692]","[0.170076,0.056692]","[-0.056692,-0.170076]","[0.056692,-0.170076]","[0.170076,-0.170076]",0,0,0,0,1,2,Smartphone,15,20,8,3,70,4,3,60,4
,,,,,,,,,,,,,,,,,,,,48,001,2024-11-20_12h52.57.252,Attention_exp_legacy,2023.1.0,Win32,60.24096386,,,,,,,,,,[-0.046875],[0.16666666666666666],[1],[0],[0],[3.6983999996185304],"[""Bus_label""]",Bus_label,2,4.7162,"[[0.24479166666666666,-0.11296296296296296],[0.24375,-0.11296296296296296],[0.240625,-0.1111111111111111],[0.23958333333333334,-0.10925925925925926],[0.23854166666666668,-0.10555555555555556],[0.23645833333333333,-0.10185185185185185],[0.23541666666666666,-0.1],[0.234375,-0.0962962962962963],[0.234375,-0.0962962962962963],[0.234375,-0.09444444444444444],[0.234375,-0.09259259259259259],[0.234375,-0.09074074074074075],[0.234375,-0.09074074074074075],[0.234375,-0.08888888888888889],[0.234375,-0.08888888888888889],[0.234375,-0.08888888888888889],[0.234375,-0.08888888888888889],[0.234375,-0.08888888888888889],[0.234375,-0.08888888888888889],[0.234375,-0.08888888888888889],[0.23541666666666666,-0.08888888888888889],[0.23958333333333334,-0.08888888888888889],[0.2552083333333333,-0.08888888888888889],[0.29583333333333334,-0.08888888888888889],[0.3125,-0.08888888888888889],[0.3177083333333333,-0.08888888888888889],[0.31979166666666664,-0.08888888888888889],[0.3229166666666667,-0.08888888888888889],[0.32395833333333335,-0.08888888888888889],[0.32395833333333335,-0.0962962962962963],[0.325,-0.10185185185185185],[0.32708333333333334,-0.11666666666666667],[0.32708333333333334,-0.12222222222222222],[0.32708333333333334,-0.13703703703703704],[0.32708333333333334,-0.14814814814814814],[0.32708333333333334,-0.1648148148148148],[0.32708333333333334,-0.17037037037037037],[0.32708333333333334,-0.17592592592592593],[0.32708333333333334,-0.17962962962962964],[0.32708333333333334,-0.1814814814814815],[0.328125,-0.18518518518518517],[0.328125,-0.18703703703703703],[0.3302083333333333,-0.19074074074074074],[0.3302083333333333,-0.19074074074074074],[0.33125,-0.19444444444444445],[0.3333333333333333,-0.19814814814814816],[0.334375,-0.20185185185185187],[0.334375,-0.2037037037037037],[0.334375,-0.20555555555555555],[0.334375,-0.2074074074074074],[0.3333333333333333,-0.2111111111111111],[0.31979166666666664,-0.21666666666666667],[0.2947916666666667,-0.21666666666666667],[0.21666666666666667,-0.20925925925925926],[0.18645833333333334,-0.1962962962962963],[0.146875,-0.1685185185185185],[0.12291666666666666,-0.1425925925925926],[0.096875,-0.10740740740740741],[0.07708333333333334,-0.07962962962962963],[0.0625,-0.05740740740740741],[0.046875,-0.02962962962962963],[0.03958333333333333,-0.007407407407407408],[0.035416666666666666,0.012962962962962963],[0.03229166666666667,0.027777777777777776],[0.03229166666666667,0.044444444444444446],[0.03229166666666667,0.05925925925925926],[0.036458333333333336,0.07222222222222222],[0.03854166666666667,0.07592592592592592],[0.041666666666666664,0.07962962962962963],[0.042708333333333334,0.08148148148148149],[0.042708333333333334,0.08148148148148149],[0.042708333333333334,0.08148148148148149],[0.042708333333333334,0.08518518518518518],[0.04375,0.08703703703703704],[0.04375,0.08703703703703704],[0.03958333333333333,0.08888888888888889],[0.022916666666666665,0.0962962962962963],[-0.008333333333333333,0.10555555555555556],[-0.05416666666666667,0.11851851851851852],[-0.09895833333333333,0.13333333333333333],[-0.12604166666666666,0.14814814814814814],[-0.140625,0.1537037037037037],[-0.14479166666666668,0.15555555555555556],[-0.14479166666666668,0.15555555555555556],[-0.14479166666666668,0.15555555555555556],[-0.14479166666666668,0.15555555555555556],[-0.13958333333333334,0.15555555555555556],[-0.13645833333333332,0.15555555555555556],[-0.12916666666666668,0.15555555555555556],[-0.12083333333333333,0.16296296296296298],[-0.109375,0.17222222222222222],[-0.0875,0.18888888888888888],[-0.08020833333333334,0.19074074074074074],[-0.06041666666666667,0.19074074074074074],[-0.05416666666666667,0.19074074074074074],[-0.05,0.19074074074074074],[-0.04895833333333333,0.18888888888888888],[-0.04791666666666667,0.18518518518518517],[-0.04791666666666667,0.17592592592592593],[-0.04791666666666667,0.17037037037037037],[-0.04791666666666667,0.16666666666666666],[-0.04791666666666667,0.16666666666666666],[-0.04791666666666667,0.1648148148148148],[-0.04791666666666667,0.1648148148148148],[-0.04791666666666667,0.16296296296296298],[-0.04791666666666667,0.16111111111111112],[-0.04791666666666667,0.15925925925925927],[-0.04791666666666667,0.15925925925925927],[-0.04895833333333333,0.15185185185185185],[-0.051041666666666666,0.1425925925925926],[-0.052083333333333336,0.13333333333333333],[-0.05520833333333333,0.12037037037037036],[-0.05625,0.10555555555555556],[-0.06041666666666667,0.08333333333333333],[-0.06666666666666667,0.04814814814814815],[-0.07395833333333333,-0.012962962962962963],[-0.07395833333333333,-0.03148148148148148],[-0.07395833333333333,-0.06851851851851852],[-0.071875,-0.11481481481481481],[-0.06770833333333333,-0.13148148148148148],[-0.065625,-0.1425925925925926],[-0.06458333333333334,-0.14814814814814814],[-0.06354166666666666,-0.15],[-0.06354166666666666,-0.15],[-0.06354166666666666,-0.15],[-0.06354166666666666,-0.15],[-0.06354166666666666,-0.15],[-0.06354166666666666,-0.15185185185185185],[-0.06354166666666666,-0.1537037037037037],[-0.06354166666666666,-0.15555555555555556],[-0.06354166666666666,-0.15555555555555556],[-0.06354166666666666,-0.1574074074074074],[-0.06354166666666666,-0.15925925925925927],[-0.06354166666666666,-0.16111111111111112],[-0.06458333333333334,-0.16296296296296298],[-0.06458333333333334,-0.1648148148148148],[-0.065625,-0.16666666666666666],[-0.065625,-0.16666666666666666],[-0.065625,-0.16666666666666666],[-0.065625,-0.16666666666666666],[-0.065625,-0.1574074074074074],[-0.065625,-0.12037037037037036],[-0.06770833333333333,-0.06111111111111111],[-0.07291666666666667,-0.025925925925925925],[-0.07916666666666666,0.012962962962962963],[-0.08541666666666667,0.05],[-0.09375,0.09074074074074075],[-0.1,0.13148148148148148],[-0.10208333333333333,0.15925925925925927],[-0.10520833333333333,0.18333333333333332],[-0.10625,0.2],[-0.10625,0.21666666666666667],[-0.10625,0.22037037037037038],[-0.10625,0.2222222222222222],[-0.10625,0.2222222222222222],[-0.10625,0.22407407407407406],[-0.10625,0.22407407407407406],[-0.10625,0.22592592592592592],[-0.10625,0.22962962962962963],[-0.10520833333333333,0.23148148148148148],[-0.10520833333333333,0.23148148148148148],[-0.10520833333333333,0.23148148148148148],[-0.10520833333333333,0.23148148148148148],[-0.10520833333333333,0.23148148148148148],[-0.10520833333333333,0.23148148148148148],[-0.10520833333333333,0.23148148148148148],[-0.10520833333333333,0.23148148148148148],[-0.10208333333333333,0.23148148148148148],[-0.09479166666666666,0.22592592592592592],[-0.09479166666666666,0.22592592592592592],[-0.090625,0.22407407407407406],[-0.08645833333333333,0.22037037037037038],[-0.084375,0.22037037037037038],[-0.084375,0.22037037037037038],[-0.084375,0.22037037037037038],[-0.084375,0.22037037037037038],[-0.084375,0.22037037037037038],[-0.084375,0.22037037037037038],[-0.084375,0.22037037037037038],[-0.084375,0.22037037037037038],[-0.084375,0.22037037037037038],[-0.084375,0.22037037037037038],[-0.084375,0.22037037037037038],[-0.08333333333333333,0.22037037037037038],[-0.08020833333333334,0.2222222222222222],[-0.075,0.22592592592592592],[-0.06875,0.22962962962962963],[-0.06041666666666667,0.23703703703703705],[-0.05520833333333333,0.24074074074074073],[-0.051041666666666666,0.24444444444444444],[-0.04791666666666667,0.24814814814814815],[-0.046875,0.24814814814814815],[-0.04583333333333333,0.25],[-0.04479166666666667,0.25],[-0.04479166666666667,0.25],[-0.04375,0.25],[-0.042708333333333334,0.2518518518518518],[-0.041666666666666664,0.2537037037037037],[-0.03958333333333333,0.25555555555555554],[-0.035416666666666666,0.25925925925925924],[-0.03333333333333333,0.2611111111111111],[-0.03229166666666667,0.26296296296296295],[-0.03229166666666667,0.26296296296296295],[-0.03125,0.26296296296296295],[-0.03125,0.26296296296296295],[-0.030208333333333334,0.2518518518518518],[-0.036458333333333336,0.21481481481481482],[-0.041666666666666664,0.18703703703703703],[-0.04583333333333333,0.17407407407407408],[-0.046875,0.1685185185185185],[-0.046875,0.16666666666666666],[-0.046875,0.16666666666666666],[-0.046875,0.16666666666666666],[-0.046875,0.16666666666666666],[-0.046875,0.16666666666666666],[-0.046875,0.16666666666666666],[-0.046875,0.16666666666666666],[-0.046875,0.16666666666666666],[-0.046875,0.16666666666666666],[-0.046875,0.16666666666666666],[-0.046875,0.16666666666666666],[-0.046875,0.16666666666666666],[-0.046875,0.16666666666666666],[-0.046875,0.16666666666666666],[-0.046875,0.16666666666666666],[-0.046875,0.16666666666666666],[-0.046875,0.16666666666666666],[-0.046875,0.16666666666666666],[-0.046875,0.16666666666666666],[-0.046875,0.1648148148148148],[-0.046875,0.16296296296296298],[-0.046875,0.16296296296296298],[-0.046875,0.16296296296296298],[-0.046875,0.16296296296296298],[-0.046875,0.16296296296296298],[-0.046875,0.16296296296296298],[-0.046875,0.16296296296296298],[-0.046875,0.16296296296296298],[-0.046875,0.16296296296296298],[-0.046875,0.16296296296296298],[-0.046875,0.16296296296296298],[-0.046875,0.16296296296296298],[-0.046875,0.16296296296296298],[-0.046875,0.16296296296296298],[-0.046875,0.16296296296296298],[-0.046875,0.16296296296296298],[-0.046875,0.16296296296296298],[-0.04791666666666667,0.16111111111111112],[-0.04791666666666667,0.16111111111111112],[-0.04791666666666667,0.16111111111111112],[-0.04895833333333333,0.16111111111111112],[-0.04895833333333333,0.16111111111111112],[-0.04895833333333333,0.16111111111111112],[-0.04895833333333333,0.16111111111111112],[-0.04895833333333333,0.16111111111111112],[-0.04895833333333333,0.16111111111111112],[-0.05,0.16111111111111112],[-0.05,0.16296296296296298],[-0.051041666666666666,0.16296296296296298],[-0.051041666666666666,0.1648148148148148],[-0.051041666666666666,0.17222222222222222],[-0.052083333333333336,0.17592592592592593],[-0.053125,0.17962962962962964],[-0.05416666666666667,0.1814814814814815],[-0.05520833333333333,0.1814814814814815],[-0.057291666666666664,0.1814814814814815],[-0.059375,0.1814814814814815],[-0.0625,0.17037037037037037],[-0.06354166666666666,0.15925925925925927],[-0.065625,0.1425925925925926],[-0.065625,0.13518518518518519],[-0.06354166666666666,0.12777777777777777],[-0.0625,0.12777777777777777],[-0.0625,0.12777777777777777],[-0.0625,0.12777777777777777],[-0.0625,0.12777777777777777],[-0.0625,0.13333333333333333],[-0.0625,0.1425925925925926],[-0.06145833333333333,0.15],[-0.06041666666666667,0.15555555555555556],[-0.06041666666666667,0.15555555555555556],[-0.06041666666666667,0.15555555555555556],[-0.06041666666666667,0.15555555555555556],[-0.06041666666666667,0.15555555555555556]]","[[0.16822916666666668,0.14962962962962956],[0.1716666666666666,0.07333333333333338],[0.25760416666666663,0.02092592592592584],[0.2037499999999999,-0.11203703703703703],[0.20177083333333337,-0.21296296296296297],[0.20177083333333337,-0.21296296296296297],[0.15593750000000003,-0.24962962962962965],[0.15593750000000003,-0.24962962962962965],[0.2672916666666666,-0.20555555555555555],[0.24666666666666662,-0.21425925925925923],[0.24666666666666662,-0.21425925925925923],[0.2397916666666667,-0.23962962962962958],[0.2397916666666667,-0.23962962962962958],[0.2413541666666667,-0.22000000000000003],[0.2413541666666667,-0.22000000000000003],[0.21197916666666666,-0.22851851851851848],[0.21197916666666666,-0.22851851851851848],[0.20677083333333332,-0.18574074074074076],[0.19500000000000003,-0.14203703703703702],[0.28177083333333336,-0.01518518518518527],[0.3536458333333333,0.11388888888888889],[0.3536458333333333,0.11388888888888889],[0.37614583333333323,0.12962962962962962],[0.33791666666666675,0.11444444444444436],[0.33624999999999994,0.08314814814814811],[0.3820833333333333,0.14648148148148152],[0.41437499999999994,0.1814814814814815],[0.4317708333333333,0.21296296296296297],[0.4317708333333333,0.21296296296296297],[0.42083333333333334,0.18888888888888888],[0.42385416666666675,0.1712962962962963],[0.43208333333333326,0.16944444444444445],[0.43208333333333326,0.16944444444444445],[0.3571875000000001,0.10111111111111115],[0.3896874999999999,0.12240740740740745],[0.3629166666666668,0.14870370370370362],[0.4405208333333334,0.21907407407407398],[0.4096874999999999,0.18481481481481474],[0.3709374999999999,0.14037037037037028],[0.3709374999999999,0.14037037037037028],[0.37177083333333344,0.13351851851851856],[0.40031249999999996,0.16370370370370366],[0.4222916666666668,0.22444444444444453],[0.39604166666666674,0.2183333333333333],[0.4348958333333333,0.2412962962962962],[0.42333333333333345,0.20666666666666672],[0.44416666666666677,0.20833333333333334],[0.4331249999999999,0.23351851851851857],[0.4331249999999999,0.23351851851851857],[0.44552083333333337,0.24462962962962967],[0.4701041666666666,0.302962962962963],[0.44562499999999994,0.31240740740740747],[0.42552083333333335,0.3287037037037037],[0.403125,0.30111111111111116],[0.34479166666666666,0.2837037037037038],[0.30447916666666663,0.3037037037037037],[0.26239583333333344,0.29222222222222216],[0.25458333333333344,0.28777777777777774],[0.2117708333333333,0.24240740740740738],[0.1728125000000001,0.22388888888888886],[0.1728125000000001,0.22388888888888886],[0.15333333333333338,0.1725925925925927],[0.1865624999999999,0.18592592592592588],[0.1851041666666667,0.1581481481481481],[0.17083333333333334,0.14666666666666675],[0.15208333333333332,0.10129629629629638],[0.1853125000000001,0.0985185185185186],[0.18468749999999995,0.12481481481481477],[0.13875000000000004,0.08055555555555556],[0.1243750000000001,0.0801851851851851],[0.12333333333333343,0.05611111111111103],[0.11739583333333338,0.04055555555555551],[0.10374999999999991,0.01055555555555564],[0.07781250000000005,-0.035740740740740656],[0.07541666666666676,-0.032407407407407406],[0.07541666666666676,-0.032407407407407406],[0.06510416666666667,-0.05962962962962961],[0.02520833333333338,-0.07166666666666664],[0.043958333333333384,-0.07740740740740742],[0.043958333333333384,-0.07740740740740742],[0.05520833333333333,-0.05092592592592592],[0.05520833333333333,-0.05092592592592592],[0.014374999999999952,-0.10092592592592593],[-0.03218749999999997,-0.14740740740740746],[-0.07875000000000003,-0.19388888888888886],[-0.07875000000000003,-0.19388888888888886],[-0.13812500000000003,-0.24814814814814815],[-0.13812500000000003,-0.24814814814814815],[-0.16791666666666671,-0.24500000000000002],[-0.1883333333333333,-0.2759259259259259],[-0.1701041666666666,-0.25259259259259254],[-0.17374999999999996,-0.2753703703703704],[-0.20041666666666663,-0.3020370370370371],[-0.20270833333333335,-0.32629629629629625],[-0.1765625,-0.3164814814814814],[-0.12937500000000005,-0.22833333333333336],[-0.08218749999999998,-0.17462962962962966],[-0.08218749999999998,-0.17462962962962966],[-0.04874999999999995,-0.12462962962962965],[-0.04874999999999995,-0.12462962962962965],[-0.044062499999999956,-0.13574074074074077],[-0.0140625,-0.10981481481481484],[0.030624999999999975,-0.06370370370370367],[0.05135416666666662,-0.0242592592592593],[0.08895833333333343,0.01722222222222214],[0.10583333333333324,0.051666666666666625],[0.11833333333333323,0.08444444444444449],[0.12322916666666663,0.06722222222222214],[0.12322916666666663,0.06722222222222214],[0.10187499999999995,0.08796296296296297],[0.15875000000000009,0.1242592592592593],[0.20645833333333338,0.15648148148148147],[0.17864583333333334,0.1359259259259259],[0.23645833333333333,0.2733333333333334],[0.2833333333333333,0.39203703703703713],[0.22906250000000009,0.3611111111111111],[0.22906250000000009,0.3611111111111111],[0.1955208333333334,0.33722222222222226],[0.15614583333333343,0.33777777777777773],[0.13697916666666668,0.3425925925925926],[0.14364583333333342,0.3453703703703704],[0.08166666666666676,0.3170370370370371],[0.041562499999999974,0.3183333333333333],[0.022916666666666665,0.29518518518518516],[-0.12052083333333338,0.13333333333333333],[-0.12052083333333338,0.13333333333333333],[-0.2295833333333333,-0.014814814814814815],[-0.24312499999999998,-0.03092592592592601],[-0.24312499999999998,-0.03092592592592601],[-0.2319791666666667,0.0235185185185186],[-0.2319791666666667,0.0235185185185186],[-0.23572916666666663,-0.014814814814814815],[-0.23572916666666663,-0.014814814814814815],[-0.2560416666666666,-0.025],[-0.26239583333333333,-0.06018518518518518],[-0.26239583333333333,-0.06018518518518518],[-0.26885416666666667,-0.056666666666666705],[-0.26885416666666667,-0.056666666666666705],[-0.2612499999999999,-0.06296296296296296],[-0.24666666666666662,-0.03129629629629625],[-0.20864583333333328,-0.022777777777777692],[-0.20864583333333328,-0.022777777777777692],[-0.16760416666666664,0.004814814814814857],[-0.13343750000000001,0.04277777777777782],[-0.1202083333333333,-0.003703703703703704],[-0.08968750000000002,0.036481481481481566],[-0.0626041666666667,0.07777777777777778],[-0.0626041666666667,0.07777777777777778],[-0.04604166666666672,0.09592592592592585],[0.01083333333333331,0.1338888888888888],[0.04593750000000003,0.1485185185185186],[0.04489583333333336,0.13203703703703695],[0.042499999999999954,0.12685185185185185],[0.0296875,0.07888888888888893],[0.0296875,0.07888888888888893],[-0.016770833333333356,-0.016851851851851896],[-0.0036458333333333334,-0.0294444444444444],[-0.0036458333333333334,-0.0294444444444444],[0.0068750000000000235,-0.017407407407407365],[-0.005520833333333286,-0.08888888888888889],[-0.020937500000000022,-0.11370370370370367],[-0.09020833333333336,-0.17092592592592595],[-0.1063541666666667,-0.16592592592592598],[-0.0068750000000000235,-0.06870370370370374],[0.09395833333333338,0.01722222222222214],[0.2021874999999999,0.12685185185185185],[0.28020833333333334,0.23203703703703696],[0.28020833333333334,0.23203703703703696],[0.2553124999999999,0.225],[0.2553124999999999,0.225],[0.27281250000000007,0.20092592592592592],[0.31187500000000007,0.23259259259259263],[0.3758333333333333,0.2540740740740742],[0.45343749999999994,0.24944444444444452],[0.4705208333333334,0.202962962962963],[0.39260416666666675,0.09462962962962967],[0.3154166666666666,-0.01444444444444436],[0.22916666666666666,-0.11777777777777781],[0.16656250000000009,-0.19129629629629633],[0.14354166666666662,-0.22185185185185188],[0.09479166666666666,-0.2881481481481482],[0.05687500000000002,-0.3292592592592593],[-0.04760416666666671,-0.39277777777777784],[-0.10187499999999995,-0.4179629629629629],[-0.140625,-0.42407407407407405],[-0.13395833333333335,-0.3937037037037037],[-0.1280208333333333,-0.36259259259259263],[-0.1727083333333333,-0.3894444444444445],[-0.18156249999999996,-0.38870370370370366],[-0.19041666666666662,-0.38796296296296295],[-0.18958333333333333,-0.3542592592592593],[-0.18958333333333333,-0.3542592592592593],[-0.19958333333333336,-0.34574074074074074],[-0.15583333333333335,-0.3140740740740741],[-0.16843750000000005,-0.30351851851851847],[-0.17593749999999997,-0.30333333333333334],[-0.16656249999999997,-0.2718518518518519],[-0.22760416666666666,-0.32629629629629625],[-0.2169791666666666,-0.31611111111111106],[-0.21145833333333333,-0.32611111111111113],[-0.17687499999999995,-0.3024074074074074],[-0.17687499999999995,-0.3024074074074074],[-0.15854166666666672,-0.29888888888888887],[-0.16447916666666665,-0.2962962962962963],[-0.1622916666666666,-0.2640740740740741],[-0.16843750000000005,-0.25333333333333335],[-0.17572916666666671,-0.28888888888888886],[-0.2202083333333333,-0.3448148148148148],[-0.18500000000000003,-0.2705555555555556],[-0.16468750000000001,-0.2494444444444444],[-0.1328125,-0.20333333333333337],[-0.11000000000000003,-0.1816666666666667],[-0.1252083333333334,-0.2081481481481481],[-0.11614583333333334,-0.2337037037037037],[-0.12906249999999997,-0.23648148148148146],[-0.12906249999999997,-0.23648148148148146],[-0.12749999999999997,-0.23499999999999996],[-0.13270833333333332,-0.1992592592592593],[-0.12562500000000001,-0.1948148148148148],[-0.12562500000000001,-0.1948148148148148],[-0.1295833333333333,-0.24648148148148152],[-0.11843750000000004,-0.2611111111111111],[-0.07958333333333331,-0.27462962962962967],[-0.06072916666666662,-0.29740740740740745],[-0.07229166666666664,-0.30351851851851847],[-0.08385416666666666,-0.3096296296296296],[-0.06218750000000005,-0.287962962962963],[-0.04052083333333331,-0.2662962962962963],[-0.00635416666666669,-0.2631481481481482],[-0.00635416666666669,-0.2631481481481482],[-0.0006250000000000236,-0.259074074074074],[-0.0006250000000000236,-0.259074074074074],[0.004062499999999977,-0.2511111111111112],[0.04041666666666662,-0.20537037037037034],[0.042604166666666644,-0.1655555555555555],[-0.016875000000000046,-0.1985185185185185],[0.042812500000000024,-0.13944444444444445],[0.10250000000000009,-0.08037037037037033],[0.08312499999999995,-0.15259259259259256],[0.08406250000000005,-0.20425925925925928],[0.09885416666666676,-0.15925925925925927],[0.10927083333333343,-0.11981481481481479],[0.12197916666666657,-0.10277777777777777],[0.09083333333333338,-0.11981481481481479],[0.06906249999999996,-0.13407407407407404],[0.10895833333333324,-0.07555555555555557],[0.059062500000000046,-0.11796296296296294],[0.059062500000000046,-0.11796296296296294],[0.024687500000000046,-0.13444444444444448],[0.04645833333333336,-0.08740740740740739],[0.06291666666666665,-0.060370370370370414],[0.06291666666666665,-0.060370370370370414],[0.057395833333333354,-0.09370370370370375],[0.059791666666666646,-0.1264814814814815],[0.059791666666666646,-0.1264814814814815],[0.06291666666666665,-0.12888888888888894],[0.06291666666666665,-0.12888888888888894],[0.057604166666666616,-0.1507407407407407],[0.057604166666666616,-0.1507407407407407],[0.03177083333333333,-0.18796296296296297],[0.007708333333333309,-0.20240740740740742],[0.021458333333333357,-0.17611111111111116],[0.036666666666666715,-0.12388888888888884],[0.036666666666666715,-0.12388888888888884],[0.027708333333333356,-0.12851851851851848],[-0.01229166666666662,-0.1427777777777778],[0.002916666666666619,-0.1712962962962963],[-0.01114583333333338,-0.17962962962962964],[0.0067708333333333336,-0.16592592592592598],[0.04479166666666667,-0.11777777777777781],[0.04479166666666667,-0.11777777777777781],[0.008229166666666643,-0.0992592592592593],[0.027083333333333334,-0.05740740740740741],[0.04635416666666667,0.004444444444444402],[0.012916666666666642,-0.01592592592592597],[-0.0048958333333333805,0.017592592592592594],[-0.0026041666666666665,0.01907407407407399],[-0.0026041666666666665,0.01907407407407399],[-0.04666666666666662,0.009444444444444486],[-0.050312499999999954,-0.006666666666666709],[-0.050312499999999954,-0.006666666666666709],[-0.08270833333333331,-0.026111111111111154],[-0.10031249999999996,-0.01314814814814819],[-0.04677083333333331,0.002777777777777778]]","[[0.16822916666666668,0.14962962962962956,0.00019999980926854732],[0.1716666666666666,0.07333333333333338,0.019900000095375958],[0.25760416666666663,0.02092592592592584,0.033099999904635524],[0.2037499999999999,-0.11203703703703703,0.053400000095379596],[0.20177083333333337,-0.21296296296296297,0.0711999998092665],[0.20177083333333337,-0.21296296296296297,0.08299999999999841],[0.15593750000000003,-0.24962962962962965,0.09980000019073998],[0.15593750000000003,-0.24962962962962965,0.11690000009537016],[0.2672916666666666,-0.20555555555555555,0.13300000000000978],[0.24666666666666662,-0.21425925925925923,0.15619999980927446],[0.24666666666666662,-0.21425925925925923,0.1664999999999992],[0.2397916666666667,-0.23962962962962958,0.1830999999046412],[0.2397916666666667,-0.23962962962962958,0.1998000001907343],[0.2413541666666667,-0.22000000000000003,0.21919999980927685],[0.2413541666666667,-0.22000000000000003,0.2330000000000041],[0.21197916666666666,-0.22851851851851848,0.24969999980926616],[0.21197916666666666,-0.22851851851851848,0.26640000009537346],[0.20677083333333332,-0.18574074074074076,0.2830999999046355],[0.19500000000000003,-0.14203703703703702,0.2996999998092633],[0.28177083333333336,-0.01518518518518527,0.3199000000953731],[0.3536458333333333,0.11388888888888889,0.33800000000000807],[0.3536458333333333,0.11388888888888889,0.3500999999046428],[0.37614583333333323,0.12962962962962962,0.3665999999046363],[0.33791666666666675,0.11444444444444436,0.3840999999046346],[0.33624999999999994,0.08314814814814811,0.4016999998092672],[0.3820833333333333,0.14648148148148152,0.4200000000000017],[0.41437499999999994,0.1814814814814815,0.43469999980926843],[0.4317708333333333,0.21296296296296297,0.4558000001907345],[0.4317708333333333,0.21296296296296297,0.46659999990463064],[0.42083333333333334,0.18888888888888888,0.48319999980927264],[0.42385416666666675,0.1712962962962963,0.5001999998092685],[0.43208333333333326,0.16944444444444445,0.5216999998092717],[0.43208333333333326,0.16944444444444445,0.5331999998092698],[0.3571875000000001,0.10111111111111115,0.5499000000953771],[0.3896874999999999,0.12240740740740745,0.5666999998092734],[0.3629166666666668,0.14870370370370362,0.5849000000953737],[0.4405208333333334,0.21907407407407398,0.5999000000953743],[0.4096874999999999,0.18481481481481474,0.616500000000002],[0.3709374999999999,0.14037037037037028,0.6355999999046418],[0.3709374999999999,0.14037037037037028,0.6498000001907371],[0.37177083333333344,0.13351851851851856,0.6664999999999992],[0.40031249999999996,0.16370370370370366,0.6830999999046412],[0.4222916666666668,0.22444444444444453,0.7020999999046325],[0.39604166666666674,0.2183333333333333,0.716300000190742],[0.4348958333333333,0.2412962962962962,0.7330999999046384],[0.42333333333333345,0.20666666666666672,0.7545000000000073],[0.44416666666666677,0.20833333333333334,0.7690000000000055],[0.4331249999999999,0.23351851851851857,0.7845000000000084],[0.4331249999999999,0.23351851851851857,0.7999000000953771],[0.44552083333333337,0.24462962962962967,0.8196999998092735],[0.4701041666666666,0.302962962962963,0.8353000001907418],[0.44562499999999994,0.31240740740740747,0.8514000000953672],[0.42552083333333335,0.3287037037037037,0.869099999904634],[0.403125,0.30111111111111116,0.8870999999046347],[0.34479166666666666,0.2837037037037038,0.902000000000001],[0.30447916666666663,0.3037037037037037,0.9203000001907355],[0.26239583333333344,0.29222222222222216,0.9338000001907432],[0.25458333333333344,0.28777777777777774,0.9541999998092763],[0.2117708333333333,0.24240740740740738,0.9714000000953718],[0.1728125000000001,0.22388888888888886,0.9869000000953747],[0.1728125000000001,0.22388888888888886,1.002599999904632],[0.15333333333333338,0.1725925925925927,1.0165000000000077],[0.1865624999999999,0.18592592592592588,1.0353000001907446],[0.1851041666666667,0.1581481481481481,1.0500999999046314],[0.17083333333333334,0.14666666666666675,1.066900000095373],[0.15208333333333332,0.10129629629629638,1.0853000001907418],[0.1853125000000001,0.0985185185185186,1.1000999999046428],[0.18468749999999995,0.12481481481481477,1.116500000000002],[0.13875000000000004,0.08055555555555556,1.135300000190739],[0.1243750000000001,0.0801851851851851,1.150800000190742],[0.12333333333333343,0.05611111111111103,1.1663000001907449],[0.11739583333333338,0.04055555555555551,1.1851999998092708],[0.10374999999999991,0.01055555555555564,1.2015999999046443],[0.07781250000000005,-0.035740740740740656,1.2164000000953763],[0.07541666666666676,-0.032407407407407406,1.233000000000004],[0.07541666666666676,-0.032407407407407406,1.2528000001907458],[0.06510416666666667,-0.05962962962962961,1.2664000000953735],[0.02520833333333338,-0.07166666666666664,1.285499999999999],[0.043958333333333384,-0.07740740740740742,1.3045999999046387],[0.043958333333333384,-0.07740740740740742,1.3164000000953706],[0.05520833333333333,-0.05092592592592592,1.333199999809267],[0.05520833333333333,-0.05092592592592592,1.3500000000000085],[0.014374999999999952,-0.10092592592592593,1.370199999809273],[-0.03218749999999997,-0.14740740740740746,1.3855000000000075],[-0.07875000000000003,-0.19388888888888886,1.3998000001907371],[-0.07875000000000003,-0.19388888888888886,1.4163000001907449],[-0.13812500000000003,-0.24814814814814815,1.4364000000953752],[-0.13812500000000003,-0.24814814814814815,1.4510000000000076],[-0.16791666666666671,-0.24500000000000002,1.4665000000000106],[-0.1883333333333333,-0.2759259259259259,1.4830999999046384],[-0.1701041666666666,-0.25259259259259254,1.5026999998092663],[-0.17374999999999996,-0.2753703703703704,1.5190999999046397],[-0.20041666666666663,-0.3020370370370371,1.5345999999046427],[-0.20270833333333335,-0.32629629629629625,1.5551999998092754],[-0.1765625,-0.3164814814814814,1.5699000000953731],[-0.12937500000000005,-0.22833333333333336,1.586199999809267],[-0.08218749999999998,-0.17462962962962966,1.6008000001907448],[-0.08218749999999998,-0.17462962962962966,1.6200000000000045],[-0.04874999999999995,-0.12462962962962965,1.633099999904644],[-0.04874999999999995,-0.12462962962962965,1.6500000000000057],[-0.044062499999999956,-0.13574074074074077,1.669300000190745],[-0.0140625,-0.10981481481481484,1.6835999999046436],[0.030624999999999975,-0.06370370370370367,1.6998000001907343],[0.05135416666666662,-0.0242592592592593,1.716300000190742],[0.08895833333333343,0.01722222222222214,1.7364000000953723],[0.10583333333333324,0.051666666666666625,1.7540000000000049],[0.11833333333333323,0.08444444444444449,1.7700000000000102],[0.12322916666666663,0.06722222222222214,1.786599999904638],[0.12322916666666663,0.06722222222222214,1.8069000000953679],[0.10187499999999995,0.08796296296296297,1.8164000000953706],[0.15875000000000009,0.1242592592592593,1.8330999999046327],[0.20645833333333338,0.15648148148148147,1.8534000000953768],[0.17864583333333334,0.1359259259259259,1.8685000000000116],[0.23645833333333333,0.2733333333333334,1.883800000190746],[0.2833333333333333,0.39203703703703713,1.903400000095374],[0.22906250000000009,0.3611111111111111,1.920099999904636],[0.22906250000000009,0.3611111111111111,1.9333000001907408],[0.1955208333333334,0.33722222222222226,1.9500000000000028],[0.15614583333333343,0.33777777777777773,1.9693000001907421],[0.13697916666666668,0.3425925925925926,1.9864000000953723],[0.14364583333333342,0.3453703703703704,2.001800000190741],[0.08166666666666676,0.3170370370370371,2.0204000000953783],[0.041562499999999974,0.3183333333333333,2.035199999809265],[0.022916666666666665,0.29518518518518516,2.0539000000953678],[-0.12052083333333338,0.13333333333333333,2.0685999999046345],[-0.12052083333333338,0.13333333333333333,2.0829000000953783],[-0.2295833333333333,-0.014814814814814815,2.0995999999046404],[-0.24312499999999998,-0.03092592592592601,2.1218000001907455],[-0.24312499999999998,-0.03092592592592601,2.133099999904644],[-0.2319791666666667,0.0235185185185186,2.1499000000953714],[-0.2319791666666667,0.0235185185185186,2.166300000190745],[-0.23572916666666663,-0.014814814814814815,2.1891999998092757],[-0.23572916666666663,-0.014814814814814815,2.1998000001907343],[-0.2560416666666666,-0.025,2.2164000000953763],[-0.26239583333333333,-0.06018518518518518,2.2409999999999997],[-0.26239583333333333,-0.06018518518518518,2.2505000000000024],[-0.26885416666666667,-0.056666666666666705,2.2665000000000077],[-0.26885416666666667,-0.056666666666666705,2.282900000095367],[-0.2612499999999999,-0.06296296296296296,2.2995999999046433],[-0.24666666666666662,-0.03129629629629625,2.317300000190741],[-0.20864583333333328,-0.022777777777777692,2.3359999999999985],[-0.20864583333333328,-0.022777777777777692,2.3499000000953743],[-0.16760416666666664,0.004814814814814857,2.3664000000953678],[-0.13343750000000001,0.04277777777777782,2.3884000000953733],[-0.1202083333333333,-0.003703703703703704,2.403400000095374],[-0.08968750000000002,0.036481481481481566,2.4205999999046384],[-0.0626041666666667,0.07777777777777778,2.4380999999046367],[-0.0626041666666667,0.07777777777777778,2.4499000000953686],[-0.04604166666666672,0.09592592592592585,2.4665000000000106],[0.01083333333333331,0.1338888888888888,2.4831999998092726],[0.04593750000000003,0.1485185185185186,2.502199999809264],[0.04489583333333336,0.13203703703703695,2.5165000000000077],[0.042499999999999954,0.12685185185185185,2.5330999999046355],[0.0296875,0.07888888888888893,2.5560999999046317],[0.0296875,0.07888888888888893,2.5663000001907363],[-0.016770833333333356,-0.016851851851851896,2.5830999999046327],[-0.0036458333333333334,-0.0294444444444444,2.5995999999046404],[-0.0036458333333333334,-0.0294444444444444,2.6193000001907336],[0.0068750000000000235,-0.017407407407407365,2.633099999904644],[-0.005520833333333286,-0.08888888888888889,2.651199999809265],[-0.020937500000000022,-0.11370370370370367,2.6661999998092654],[-0.09020833333333336,-0.17092592592592595,2.6829000000953727],[-0.1063541666666667,-0.16592592592592598,2.6995999999046347],[-0.0068750000000000235,-0.06870370370370374,2.716300000190742],[0.09395833333333338,0.01722222222222214,2.73290000009537],[0.2021874999999999,0.12685185185185185,2.754000000000005],[0.28020833333333334,0.23203703703703696,2.7739000000953666],[0.28020833333333334,0.23203703703703696,2.8068000001907336],[0.2553124999999999,0.225,2.8159000000953682],[0.2553124999999999,0.225,2.8223000001907366],[0.27281250000000007,0.20092592592592592,2.8330999999046327],[0.31187500000000007,0.23259259259259263,2.8518000001907353],[0.3758333333333333,0.2540740740740742,2.867599999904641],[0.45343749999999994,0.24944444444444452,2.8829000000953755],[0.4705208333333334,0.202962962962963,2.899699999809272],[0.39260416666666675,0.09462962962962967,2.916300000190745],[0.3154166666666666,-0.01444444444444436,2.9335999999046436],[0.22916666666666666,-0.11777777777777781,2.950099999904637],[0.16656250000000009,-0.19129629629629633,2.966300000190742],[0.14354166666666662,-0.22185185185185188,2.98290000009537],[0.09479166666666666,-0.2881481481481482,2.999599999904632],[0.05687500000000002,-0.3292592592592593,3.016599999904642],[-0.04760416666666671,-0.39277777777777784,3.032900000095367],[-0.10187499999999995,-0.4179629629629629,3.052099999904641],[-0.140625,-0.42407407407407405,3.0664000000953706],[-0.13395833333333335,-0.3937037037037037,3.0829999999999984],[-0.1280208333333333,-0.36259259259259263,3.102099999904638],[-0.1727083333333333,-0.3894444444444445,3.116500000000002],[-0.18156249999999996,-0.38870370370370366,3.133199999809264],[-0.19041666666666662,-0.38796296296296295,3.153800000190742],[-0.18958333333333333,-0.3542592592592593,3.1674000000953697],[-0.18958333333333333,-0.3542592592592593,3.1833000001907408],[-0.19958333333333336,-0.34574074074074074,3.1999000000953686],[-0.15583333333333335,-0.3140740740740741,3.2188000001907398],[-0.16843750000000005,-0.30351851851851847,3.23290000009537],[-0.17593749999999997,-0.30333333333333334,3.2535999999046368],[-0.16656249999999997,-0.2718518518518519,3.2708000001907465],[-0.22760416666666666,-0.32629629629629625,3.285099999904631],[-0.2169791666666666,-0.31611111111111106,3.2996999998092633],[-0.21145833333333333,-0.32611111111111113,3.316500000000005],[-0.17687499999999995,-0.3024074074074074,3.3355000000000103],[-0.17687499999999995,-0.3024074074074074,3.3508000001907448],[-0.15854166666666672,-0.29888888888888887,3.3663000001907335],[-0.16447916666666665,-0.2962962962962963,3.387199999809269],[-0.1622916666666666,-0.2640740740740741,3.400400000095374],[-0.16843750000000005,-0.25333333333333335,3.417500000000004],[-0.17572916666666671,-0.28888888888888886,3.437199999809266],[-0.2202083333333333,-0.3448148148148148,3.4531999998092715],[-0.18500000000000003,-0.2705555555555556,3.468900000095374],[-0.16468750000000001,-0.2494444444444444,3.4849000000953794],[-0.1328125,-0.20333333333333337,3.499699999809266],[-0.11000000000000003,-0.1816666666666667,3.516300000190739],[-0.1252083333333334,-0.2081481481481481,3.532900000095367],[-0.11614583333333334,-0.2337037037037037,3.553699999809268],[-0.12906249999999997,-0.23648148148148146,3.567300000190741],[-0.12906249999999997,-0.23648148148148146,3.5829999999999984],[-0.12749999999999997,-0.23499999999999996,3.599500000000006],[-0.13270833333333332,-0.1992592592592593,3.616199999809268],[-0.12562500000000001,-0.1948148148148148,3.6328000001907412],[-0.12562500000000001,-0.1948148148148148,3.649699999809272],[-0.1295833333333333,-0.24648148148148152,3.666300000190745],[-0.11843750000000004,-0.2611111111111111,3.6840999999046318],[-0.07958333333333331,-0.27462962962962967,3.700099999904637],[-0.06072916666666662,-0.29740740740740745,3.716300000190742],[-0.07229166666666664,-0.30351851851851847,3.73290000009537],[-0.08385416666666666,-0.3096296296296296,3.752900000095366],[-0.06218750000000005,-0.287962962962963,3.766300000190739],[-0.04052083333333331,-0.2662962962962963,3.78619999980927],[-0.00635416666666669,-0.2631481481481482,3.7996999998092633],[-0.00635416666666669,-0.2631481481481482,3.819099999904637],[-0.0006250000000000236,-0.259074074074074,3.8330999999046327],[-0.0006250000000000236,-0.259074074074074,3.84980000019074],[0.004062499999999977,-0.2511111111111112,3.8663000001907335],[0.04041666666666662,-0.20537037037037034,3.883900000095366],[0.042604166666666644,-0.1655555555555555,3.899699999809272],[-0.016875000000000046,-0.1985185185185185,3.918599999904643],[0.042812500000000024,-0.13944444444444445,3.9335000000000093],[0.10250000000000009,-0.08037037037037033,3.9503000001907367],[0.08312499999999995,-0.15259259259259256,3.966300000190742],[0.08406250000000005,-0.20425925925925928,3.98290000009537],[0.09885416666666676,-0.15925925925925927,3.999500000000012],[0.10927083333333343,-0.11981481481481479,4.018500000000003],[0.12197916666666657,-0.10277777777777777,4.032900000095367],[0.09083333333333338,-0.11981481481481479,4.0530000000000115],[0.06906249999999996,-0.13407407407407404,4.066199999809271],[0.10895833333333324,-0.07555555555555557,4.082900000095378],[0.059062500000000046,-0.11796296296296294,4.099500000000006],[0.059062500000000046,-0.11796296296296294,4.120099999904639],[0.024687500000000046,-0.13444444444444448,4.1329000000953755],[0.04645833333333336,-0.08740740740740739,4.154699999809267],[0.06291666666666665,-0.060370370370370414,4.174500000000009],[0.06291666666666665,-0.060370370370370414,4.183000000000007],[0.057395833333333354,-0.09370370370370375,4.199599999904635],[0.059791666666666646,-0.1264814814814815,4.222599999904631],[0.059791666666666646,-0.1264814814814815,4.23290000009537],[0.06291666666666665,-0.12888888888888894,4.250699999809271],[0.06291666666666665,-0.12888888888888894,4.271099999904635],[0.057604166666666616,-0.1507407407407407,4.28319999980927],[0.057604166666666616,-0.1507407407407407,4.299699999809263],[0.03177083333333333,-0.18796296296296297,4.32050000000001],[0.007708333333333309,-0.20240740740740742,4.337099999904638],[0.021458333333333357,-0.17611111111111116,4.353900000095379],[0.036666666666666715,-0.12388888888888884,4.373900000095375],[0.036666666666666715,-0.12388888888888884,4.383099999904644],[0.027708333333333356,-0.12851851851851848,4.399800000190737],[-0.01229166666666662,-0.1427777777777778,4.416400000095379],[0.002916666666666619,-0.1712962962962963,4.435900000095373],[-0.01114583333333338,-0.17962962962962964,4.452900000095369],[0.0067708333333333336,-0.16592592592592598,4.469000000000008],[0.04479166666666667,-0.11777777777777781,4.490300000190743],[0.04479166666666667,-0.11777777777777781,4.499699999809266],[0.008229166666666643,-0.0992592592592593,4.516500000000008],[0.027083333333333334,-0.05740740740740741,4.533000000000001],[0.04635416666666667,0.004444444444444402,4.549800000190743],[0.012916666666666642,-0.01592592592592597,4.566199999809271],[-0.0048958333333333805,0.017592592592592594,4.582900000095378],[-0.0026041666666666665,0.01907407407407399,4.60469999980927],[-0.0026041666666666665,0.01907407407407399,4.616500000000002],[-0.04666666666666662,0.009444444444444486,4.633400000095378],[-0.050312499999999954,-0.006666666666666709,4.656800000190742],[-0.050312499999999954,-0.006666666666666709,4.666400000095379],[-0.08270833333333331,-0.026111111111111154,4.683000000000007],[-0.10031249999999996,-0.01314814814814819,4.699599999904635],[-0.04677083333333331,0.002777777777777778,4.716199999809277]]","[0.00019999980926854732,0.019900000095375958,0.033099999904635524,0.053400000095379596,0.0711999998092665,0.08299999999999841,0.09980000019073998,0.11690000009537016,0.13300000000000978,0.15619999980927446,0.1664999999999992,0.1830999999046412,0.1998000001907343,0.21919999980927685,0.2330000000000041,0.24969999980926616,0.26640000009537346,0.2830999999046355,0.2996999998092633,0.3199000000953731,0.33800000000000807,0.3500999999046428,0.3665999999046363,0.3840999999046346,0.4016999998092672,0.4200000000000017,0.43469999980926843,0.4558000001907345,0.46659999990463064,0.48319999980927264,0.5001999998092685,0.5216999998092717,0.5331999998092698,0.5499000000953771,0.5666999998092734,0.5849000000953737,0.5999000000953743,0.616500000000002,0.6355999999046418,0.6498000001907371,0.6664999999999992,0.6830999999046412,0.7020999999046325,0.716300000190742,0.7330999999046384,0.7545000000000073,0.7690000000000055,0.7845000000000084,0.7999000000953771,0.8196999998092735,0.8353000001907418,0.8514000000953672,0.869099999904634,0.8870999999046347,0.902000000000001,0.9203000001907355,0.9338000001907432,0.9541999998092763,0.9714000000953718,0.9869000000953747,1.002599999904632,1.0165000000000077,1.0353000001907446,1.0500999999046314,1.066900000095373,1.0853000001907418,1.1000999999046428,1.116500000000002,1.135300000190739,1.150800000190742,1.1663000001907449,1.1851999998092708,1.2015999999046443,1.2164000000953763,1.233000000000004,1.2528000001907458,1.2664000000953735,1.285499999999999,1.3045999999046387,1.3164000000953706,1.333199999809267,1.3500000000000085,1.370199999809273,1.3855000000000075,1.3998000001907371,1.4163000001907449,1.4364000000953752,1.4510000000000076,1.4665000000000106,1.4830999999046384,1.5026999998092663,1.5190999999046397,1.5345999999046427,1.5551999998092754,1.5699000000953731,1.586199999809267,1.6008000001907448,1.6200000000000045,1.633099999904644,1.6500000000000057,1.669300000190745,1.6835999999046436,1.6998000001907343,1.716300000190742,1.7364000000953723,1.7540000000000049,1.7700000000000102,1.786599999904638,1.8069000000953679,1.8164000000953706,1.8330999999046327,1.8534000000953768,1.8685000000000116,1.883800000190746,1.903400000095374,1.920099999904636,1.9333000001907408,1.9500000000000028,1.9693000001907421,1.9864000000953723,2.001800000190741,2.0204000000953783,2.035199999809265,2.0539000000953678,2.0685999999046345,2.0829000000953783,2.0995999999046404,2.1218000001907455,2.133099999904644,2.1499000000953714,2.166300000190745,2.1891999998092757,2.1998000001907343,2.2164000000953763,2.2409999999999997,2.2505000000000024,2.2665000000000077,2.282900000095367,2.2995999999046433,2.317300000190741,2.3359999999999985,2.3499000000953743,2.3664000000953678,2.3884000000953733,2.403400000095374,2.4205999999046384,2.4380999999046367,2.4499000000953686,2.4665000000000106,2.4831999998092726,2.502199999809264,2.5165000000000077,2.5330999999046355,2.5560999999046317,2.5663000001907363,2.5830999999046327,2.5995999999046404,2.6193000001907336,2.633099999904644,2.651199999809265,2.6661999998092654,2.6829000000953727,2.6995999999046347,2.716300000190742,2.73290000009537,2.754000000000005,2.7739000000953666,2.8068000001907336,2.8159000000953682,2.8223000001907366,2.8330999999046327,2.8518000001907353,2.867599999904641,2.8829000000953755,2.899699999809272,2.916300000190745,2.9335999999046436,2.950099999904637,2.966300000190742,2.98290000009537,2.999599999904632,3.016599999904642,3.032900000095367,3.052099999904641,3.0664000000953706,3.0829999999999984,3.102099999904638,3.116500000000002,3.133199999809264,3.153800000190742,3.1674000000953697,3.1833000001907408,3.1999000000953686,3.2188000001907398,3.23290000009537,3.2535999999046368,3.2708000001907465,3.285099999904631,3.2996999998092633,3.316500000000005,3.3355000000000103,3.3508000001907448,3.3663000001907335,3.387199999809269,3.400400000095374,3.417500000000004,3.437199999809266,3.4531999998092715,3.468900000095374,3.4849000000953794,3.499699999809266,3.516300000190739,3.532900000095367,3.553699999809268,3.567300000190741,3.5829999999999984,3.599500000000006,3.616199999809268,3.6328000001907412,3.649699999809272,3.666300000190745,3.6840999999046318,3.700099999904637,3.716300000190742,3.73290000009537,3.752900000095366,3.766300000190739,3.78619999980927,3.7996999998092633,3.819099999904637,3.8330999999046327,3.84980000019074,3.8663000001907335,3.883900000095366,3.899699999809272,3.918599999904643,3.9335000000000093,3.9503000001907367,3.966300000190742,3.98290000009537,3.999500000000012,4.018500000000003,4.032900000095367,4.0530000000000115,4.066199999809271,4.082900000095378,4.099500000000006,4.120099999904639,4.1329000000953755,4.154699999809267,4.174500000000009,4.183000000000007,4.199599999904635,4.222599999904631,4.23290000009537,4.250699999809271,4.271099999904635,4.28319999980927,4.299699999809263,4.32050000000001,4.337099999904638,4.353900000095379,4.373900000095375,4.383099999904644,4.399800000190737,4.416400000095379,4.435900000095373,4.452900000095369,4.469000000000008,4.490300000190743,4.499699999809266,4.516500000000008,4.533000000000001,4.549800000190743,4.566199999809271,4.582900000095378,4.60469999980927,4.616500000000002,4.633400000095378,4.656800000190742,4.666400000095379,4.683000000000007,4.699599999904635,4.716199999809277]","[1732078437271,1732078437289,1732078437302,1732078437323,1732078437341,1732078437352,1732078437369,1732078437386,1732078437402,1732078437426,1732078437436,1732078437453,1732078437469,1732078437489,1732078437502,1732078437519,1732078437536,1732078437552,1732078437569,1732078437589,1732078437607,1732078437619,1732078437636,1732078437653,1732078437671,1732078437689,1732078437704,1732078437725,1732078437736,1732078437753,1732078437770,1732078437791,1732078437803,1732078437819,1732078437836,1732078437854,1732078437869,1732078437886,1732078437905,1732078437919,1732078437936,1732078437952,1732078437971,1732078437986,1732078438002,1732078438024,1732078438038,1732078438054,1732078438069,1732078438089,1732078438105,1732078438121,1732078438138,1732078438156,1732078438171,1732078438190,1732078438203,1732078438224,1732078438241,1732078438256,1732078438272,1732078438286,1732078438305,1732078438319,1732078438336,1732078438355,1732078438369,1732078438386,1732078438405,1732078438420,1732078438436,1732078438455,1732078438471,1732078438486,1732078438502,1732078438522,1732078438536,1732078438555,1732078438574,1732078438586,1732078438603,1732078438619,1732078438640,1732078438655,1732078438669,1732078438686,1732078438706,1732078438720,1732078438736,1732078438753,1732078438772,1732078438788,1732078438804,1732078438825,1732078438839,1732078438856,1732078438870,1732078438889,1732078438902,1732078438919,1732078438939,1732078438953,1732078438969,1732078438986,1732078439006,1732078439023,1732078439039,1732078439056,1732078439076,1732078439086,1732078439102,1732078439123,1732078439138,1732078439153,1732078439173,1732078439190,1732078439203,1732078439219,1732078439239,1732078439256,1732078439271,1732078439290,1732078439305,1732078439323,1732078439338,1732078439352,1732078439369,1732078439391,1732078439402,1732078439419,1732078439436,1732078439459,1732078439469,1732078439486,1732078439510,1732078439520,1732078439536,1732078439552,1732078439569,1732078439587,1732078439605,1732078439619,1732078439636,1732078439658,1732078439673,1732078439690,1732078439708,1732078439719,1732078439736,1732078439753,1732078439772,1732078439786,1732078439802,1732078439825,1732078439836,1732078439853,1732078439869,1732078439889,1732078439902,1732078439921,1732078439936,1732078439952,1732078439969,1732078439986,1732078440002,1732078440023,1732078440043,1732078440076,1732078440085,1732078440092,1732078440102,1732078440121,1732078440137,1732078440152,1732078440169,1732078440186,1732078440203,1732078440220,1732078440236,1732078440252,1732078440269,1732078440286,1732078440302,1732078440321,1732078440336,1732078440352,1732078440371,1732078440386,1732078440403,1732078440423,1732078440437,1732078440453,1732078440469,1732078440488,1732078440502,1732078440523,1732078440540,1732078440554,1732078440569,1732078440586,1732078440605,1732078440620,1732078440636,1732078440657,1732078440670,1732078440687,1732078440707,1732078440723,1732078440738,1732078440754,1732078440769,1732078440786,1732078440802,1732078440823,1732078440837,1732078440852,1732078440869,1732078440886,1732078440902,1732078440919,1732078440936,1732078440954,1732078440970,1732078440986,1732078441002,1732078441022,1732078441036,1732078441056,1732078441069,1732078441088,1732078441102,1732078441119,1732078441136,1732078441153,1732078441169,1732078441188,1732078441203,1732078441220,1732078441236,1732078441252,1732078441269,1732078441288,1732078441302,1732078441322,1732078441336,1732078441352,1732078441369,1732078441390,1732078441402,1732078441424,1732078441444,1732078441452,1732078441469,1732078441492,1732078441502,1732078441520,1732078441540,1732078441553,1732078441569,1732078441590,1732078441607,1732078441623,1732078441643,1732078441652,1732078441669,1732078441686,1732078441705,1732078441722,1732078441738,1732078441760,1732078441769,1732078441786,1732078441802,1732078441819,1732078441836,1732078441852,1732078441874,1732078441886,1732078441903,1732078441926,1732078441936,1732078441952,1732078441969,1732078441986]","[[1121.5,620.8],[1124.8,579.6],[1207.3,551.3],[1155.6,479.5],[1153.7,425],[1153.7,425],[1109.7,405.2],[1109.7,405.2],[1216.6,429],[1196.8,424.3],[1196.8,424.3],[1190.2,410.6],[1190.2,410.6],[1191.7,421.2],[1191.7,421.2],[1163.5,416.6],[1163.5,416.6],[1158.5,439.7],[1147.2,463.3],[1230.5,531.8],[1299.5,601.5],[1299.5,601.5],[1321.1,610],[1284.4,601.8],[1282.8,584.9],[1326.8,619.1],[1357.8,638],[1374.5,655],[1374.5,655],[1364,642],[1366.9,632.5],[1374.8,631.5],[1374.8,631.5],[1302.9,594.6],[1334.1,606.1],[1308.4,620.3],[1382.9,658.3],[1353.3,639.8],[1316.1,615.8],[1316.1,615.8],[1316.9,612.1],[1344.3,628.4],[1365.4,661.2],[1340.2,657.9],[1377.5,670.3],[1366.4,651.6],[1386.4,652.5],[1375.8,666.1],[1375.8,666.1],[1387.7,672.1],[1411.3,703.6],[1387.8,708.7],[1368.5,717.5],[1347,702.6],[1291,693.2],[1252.3,704],[1211.9,697.8],[1204.4,695.4],[1163.3,670.9],[1125.9,660.9],[1125.9,660.9],[1107.2,633.2],[1139.1,640.4],[1137.7,625.4],[1124,619.2],[1106,594.7],[1137.9,593.2],[1137.3,607.4],[1093.2,583.5],[1079.4,583.3],[1078.4,570.3],[1072.7,561.9],[1059.6,545.7],[1034.7,520.7],[1032.4,522.5],[1032.4,522.5],[1022.5,507.8],[984.2,501.3],[1002.2,498.2],[1002.2,498.2],[1013,512.5],[1013,512.5],[973.8,485.5],[929.1,460.4],[884.4,435.3],[884.4,435.3],[827.4,406],[827.4,406],[798.8,407.7],[779.2,391],[796.7,403.6],[793.2,391.3],[767.6,376.9],[765.4,363.8],[790.5,369.1],[835.8,416.7],[881.1,445.7],[881.1,445.7],[913.2,472.7],[913.2,472.7],[917.7,466.7],[946.5,480.7],[989.4,505.6],[1009.3,526.9],[1045.4,549.3],[1061.6,567.9],[1073.6,585.6],[1078.3,576.3],[1078.3,576.3],[1057.8,587.5],[1112.4,607.1],[1158.2,624.5],[1131.5,613.4],[1187,687.6],[1232,751.7],[1179.9,735],[1179.9,735],[1147.7,722.1],[1109.9,722.4],[1091.5,725],[1097.9,726.5],[1038.4,711.2],[999.9,711.9],[982,699.4],[844.3,612],[844.3,612],[739.6,532],[726.6,523.3],[726.6,523.3],[737.3,552.7],[737.3,552.7],[733.7,532],[733.7,532],[714.2,526.5],[708.1,507.5],[708.1,507.5],[701.9,509.4],[701.9,509.4],[709.2,506],[723.2,523.1],[759.7,527.7],[759.7,527.7],[799.1,542.6],[831.9,563.1],[844.6,538],[873.9,559.7],[899.9,582],[899.9,582],[915.8,591.8],[970.4,612.3],[1004.1,620.2],[1003.1,611.3],[1000.8,608.5],[988.5,582.6],[988.5,582.6],[943.9,530.9],[956.5,524.1],[956.5,524.1],[966.6,530.6],[954.7,492],[939.9,478.6],[873.4,447.7],[857.9,450.4],[953.4,502.9],[1050.2,549.3],[1154.1,608.5],[1229,665.3],[1229,665.3],[1205.1,661.5],[1205.1,661.5],[1221.9,648.5],[1259.4,665.6],[1320.8,677.2],[1395.3,674.7],[1411.7,649.6],[1336.9,591.1],[1262.8,532.2],[1180,476.4],[1119.9,436.7],[1097.8,420.2],[1051,384.4],[1014.6,362.2],[914.3,327.9],[862.2,314.3],[825,311],[831.4,327.4],[837.1,344.2],[794.2,329.7],[785.7,330.1],[777.2,330.5],[778,348.7],[778,348.7],[768.4,353.3],[810.4,370.4],[798.3,376.1],[791.1,376.2],[800.1,393.2],[741.5,363.8],[751.7,369.3],[757,363.9],[790.2,376.7],[790.2,376.7],[807.8,378.6],[802.1,380],[804.2,397.4],[798.3,403.2],[791.3,384],[748.6,353.8],[782.4,393.9],[801.9,405.3],[832.5,430.2],[854.4,441.9],[839.8,427.6],[848.5,413.8],[836.1,412.3],[836.1,412.3],[837.6,413.1],[832.6,432.4],[839.4,434.8],[839.4,434.8],[835.6,406.9],[846.3,399],[883.6,391.7],[901.7,379.4],[890.6,376.1],[879.5,372.8],[900.3,384.5],[921.1,396.2],[953.9,397.9],[953.9,397.9],[959.4,400.1],[959.4,400.1],[963.9,404.4],[998.8,429.1],[1000.9,450.6],[943.8,432.8],[1001.1,464.7],[1058.4,496.6],[1039.8,457.6],[1040.7,429.7],[1054.9,454],[1064.9,475.3],[1077.1,484.5],[1047.2,475.3],[1026.3,467.6],[1064.6,499.2],[1016.7,476.3],[1016.7,476.3],[983.7,467.4],[1004.6,492.8],[1020.4,507.4],[1020.4,507.4],[1015.1,489.4],[1017.4,471.7],[1017.4,471.7],[1020.4,470.4],[1020.4,470.4],[1015.3,458.6],[1015.3,458.6],[990.5,438.5],[967.4,430.7],[980.6,444.9],[995.2,473.1],[995.2,473.1],[986.6,470.6],[948.2,462.9],[962.8,447.5],[949.3,443],[966.5,450.4],[1003,476.4],[1003,476.4],[967.9,486.4],[986,509],[1004.5,542.4],[972.4,531.4],[955.3,549.5],[957.5,550.3],[957.5,550.3],[915.2,545.1],[911.7,536.4],[911.7,536.4],[880.6,525.9],[863.7,532.9],[915.1,541.5]]","[-0.056692,0.170076]","[0.056692,0.170076]","[0.170076,0.170076]","[-0.170076,0.056692]","[-0.170076,-0.170076]","[-0.170076,-0.056692]","[-0.056692,0.056692]","[0.056692,0.056692]","[0.170076,0.056692]","[-0.056692,-0.170076]","[0.056692,-0.170076]","[0.170076,-0.170076]","[-0.056692,-0.056692]","[0.056692,-0.056692]","[0.170076,-0.056692]",0,1,1,1,1,2,Smartphone,20,20,7,3,70,6,3,60,3
