inst1_resp.keys,inst1_resp.rt,calibrationMouse.x,calibrationMouse.y,calibrationMouse.leftButton,calibrationMouse.midButton,calibrationMouse.rightButton,calibrationClick.x,calibrationClick.y,calibrationClick.leftButton,calibrationClick.midButton,calibrationClick.rightButton,calibrationClick.clicked_name,trialsc.thisRepN,trialsc.thisTrialN,trialsc.thisN,trialsc.thisIndex,trialsc.ran,calibration_x,calibration_y,participant,session,date,expName,psychopyVersion,OS,frameRate,ScreenRes_pixels,Camera_pixels,mouse_2.x,mouse_2.y,mouse_2.leftButton,mouse_2.midButton,mouse_2.rightButton,mouse_2.time,mouse_2.clicked_name,mouse.x,mouse.y,mouse.leftButton,mouse.midButton,mouse.rightButton,mouse.time,mouse.clicked_name,Choice,Trial,TrialDuration,MOUSE_GAZE,ET_GAZE,ET_GAZE_x_T,time,unixTime,ET_GAZE_NF,Loc_Bus_label,Loc_Metro_label,Loc_RH_label,Loc_Cost_label,Loc_Travel_label,Loc_Comfort_label,Loc_Bus_cost,Loc_Metro_cost,Loc_RH_cost,Loc_Bus_travel,Loc_Metro_travel,Loc_RH_travel,Loc_Bus_comfort,Loc_Metro_comfort,Loc_RH_comfort,trials.thisRepN,trials.thisTrialN,trials.thisN,trials.thisIndex,trials.ran,Block,Device,RH_cost,RH_travel_time,RH_Comfort,metro_cost,metro_travel_time,metro_Comfort,Bus_cost,Bus_travel_time,Bus_Comfort
space,1.4647,-0.194791667,-0.475925926,1,0,0,0.003125,0.333333333,1,0,0,calibration_square,0,0,0,12,1,0,0.33,10,001,2024-11-19_17h03.52.124,Attention_exp_legacy,2023.1.0,Win32,59.88023952,,,,,,,,,,,,,,,,,,,,,,,,,,,,,,,,,,,,,,,,,,,,,,,,,,,,,,,,
,,,,,,,-0.005208333,-0.648148148,1,0,0,,0,1,1,9,1,0,-0.67,10,001,2024-11-19_17h03.52.124,Attention_exp_legacy,2023.1.0,Win32,59.88023952,,,,,,,,,,,,,,,,,,,,,,,,,,,,,,,,,,,,,,,,,,,,,,,,,,,,,,,,
,,,,,,,0.002083333,0.007407407,1,0,0,calibration_square,0,2,2,11,1,0,0,10,001,2024-11-19_17h03.52.124,Attention_exp_legacy,2023.1.0,Win32,59.88023952,,,,,,,,,,,,,,,,,,,,,,,,,,,,,,,,,,,,,,,,,,,,,,,,,,,,,,,,
,,,,,,,0.329166667,0.340740741,1,0,0,,0,3,3,17,1,0.33,0.33,10,001,2024-11-19_17h03.52.124,Attention_exp_legacy,2023.1.0,Win32,59.88023952,,,,,,,,,,,,,,,,,,,,,,,,,,,,,,,,,,,,,,,,,,,,,,,,,,,,,,,,
,,,,,,,-0.685416667,0.003703704,1,0,0,,0,4,4,2,1,-0.67,0,10,001,2024-11-19_17h03.52.124,Attention_exp_legacy,2023.1.0,Win32,59.88023952,,,,,,,,,,,,,,,,,,,,,,,,,,,,,,,,,,,,,,,,,,,,,,,,,,,,,,,,
,,,,,,,0.334375,-0.311111111,1,0,0,,0,5,5,15,1,0.33,-0.33,10,001,2024-11-19_17h03.52.124,Attention_exp_legacy,2023.1.0,Win32,59.88023952,,,,,,,,,,,,,,,,,,,,,,,,,,,,,,,,,,,,,,,,,,,,,,,,,,,,,,,,
,,,,,,,-0.329166667,0.325925926,1,0,0,calibration_square,0,6,6,7,1,-0.33,0.33,10,001,2024-11-19_17h03.52.124,Attention_exp_legacy,2023.1.0,Win32,59.88023952,,,,,,,,,,,,,,,,,,,,,,,,,,,,,,,,,,,,,,,,,,,,,,,,,,,,,,,,
,,,,,,,0.670833333,0.675925926,1,0,0,calibration_square,0,7,7,19,1,0.67,0.67,10,001,2024-11-19_17h03.52.124,Attention_exp_legacy,2023.1.0,Win32,59.88023952,,,,,,,,,,,,,,,,,,,,,,,,,,,,,,,,,,,,,,,,,,,,,,,,,,,,,,,,
,,,,,,,-0.678125,-0.662962963,1,0,0,calibration_square,0,8,8,0,1,-0.67,-0.67,10,001,2024-11-19_17h03.52.124,Attention_exp_legacy,2023.1.0,Win32,59.88023952,,,,,,,,,,,,,,,,,,,,,,,,,,,,,,,,,,,,,,,,,,,,,,,,,,,,,,,,
,,,,,,,-0.004166667,-0.325925926,1,0,0,calibration_square,0,9,9,10,1,0,-0.33,10,001,2024-11-19_17h03.52.124,Attention_exp_legacy,2023.1.0,Win32,59.88023952,,,,,,,,,,,,,,,,,,,,,,,,,,,,,,,,,,,,,,,,,,,,,,,,,,,,,,,,
,,,,,,,0.329166667,0.02037037,1,0,0,,0,10,10,16,1,0.33,0,10,001,2024-11-19_17h03.52.124,Attention_exp_legacy,2023.1.0,Win32,59.88023952,,,,,,,,,,,,,,,,,,,,,,,,,,,,,,,,,,,,,,,,,,,,,,,,,,,,,,,,
,,,,,,,-0.3375,-0.662962963,1,0,0,calibration_square,0,11,11,4,1,-0.33,-0.67,10,001,2024-11-19_17h03.52.124,Attention_exp_legacy,2023.1.0,Win32,59.88023952,,,,,,,,,,,,,,,,,,,,,,,,,,,,,,,,,,,,,,,,,,,,,,,,,,,,,,,,
,,,,,,,-0.334375,-0.325925926,1,0,0,calibration_square,0,12,12,5,1,-0.33,-0.33,10,001,2024-11-19_17h03.52.124,Attention_exp_legacy,2023.1.0,Win32,59.88023952,,,,,,,,,,,,,,,,,,,,,,,,,,,,,,,,,,,,,,,,,,,,,,,,,,,,,,,,
,,,,,,,0.326041667,0.668518519,1,0,0,calibration_square,0,13,13,18,1,0.33,0.67,10,001,2024-11-19_17h03.52.124,Attention_exp_legacy,2023.1.0,Win32,59.88023952,,,,,,,,,,,,,,,,,,,,,,,,,,,,,,,,,,,,,,,,,,,,,,,,,,,,,,,,
,,,,,,,0.673958333,-0.67037037,1,0,0,calibration_square,0,14,14,20,1,0.67,-0.67,10,001,2024-11-19_17h03.52.124,Attention_exp_legacy,2023.1.0,Win32,59.88023952,,,,,,,,,,,,,,,,,,,,,,,,,,,,,,,,,,,,,,,,,,,,,,,,,,,,,,,,
,,,,,,,-0.667708333,0.324074074,1,0,0,calibration_square,0,15,15,3,1,-0.67,0.33,10,001,2024-11-19_17h03.52.124,Attention_exp_legacy,2023.1.0,Win32,59.88023952,,,,,,,,,,,,,,,,,,,,,,,,,,,,,,,,,,,,,,,,,,,,,,,,,,,,,,,,
,,,,,,,-0.679166667,-0.333333333,1,0,0,calibration_square,0,16,16,1,1,-0.67,-0.33,10,001,2024-11-19_17h03.52.124,Attention_exp_legacy,2023.1.0,Win32,59.88023952,,,,,,,,,,,,,,,,,,,,,,,,,,,,,,,,,,,,,,,,,,,,,,,,,,,,,,,,
,,,,,,,0.334375,-0.681481481,1,0,0,,0,17,17,14,1,0.33,-0.67,10,001,2024-11-19_17h03.52.124,Attention_exp_legacy,2023.1.0,Win32,59.88023952,,,,,,,,,,,,,,,,,,,,,,,,,,,,,,,,,,,,,,,,,,,,,,,,,,,,,,,,
,,,,,,,-0.330208333,-0.003703704,1,0,0,calibration_square,0,18,18,6,1,-0.33,0,10,001,2024-11-19_17h03.52.124,Attention_exp_legacy,2023.1.0,Win32,59.88023952,,,,,,,,,,,,,,,,,,,,,,,,,,,,,,,,,,,,,,,,,,,,,,,,,,,,,,,,
,,,,,,,-0.33125,0.664814815,1,0,0,calibration_square,0,19,19,8,1,-0.33,0.67,10,001,2024-11-19_17h03.52.124,Attention_exp_legacy,2023.1.0,Win32,59.88023952,,,,,,,,,,,,,,,,,,,,,,,,,,,,,,,,,,,,,,,,,,,,,,,,,,,,,,,,
,,,,,,,0.010416667,0.674074074,1,0,0,,0,20,20,13,1,0,0.67,10,001,2024-11-19_17h03.52.124,Attention_exp_legacy,2023.1.0,Win32,59.88023952,,,,,,,,,,,,,,,,,,,,,,,,,,,,,,,,,,,,,,,,,,,,,,,,,,,,,,,,
,,,,,,,,,,,,,,,,,,,,10,001,2024-11-19_17h03.52.124,Attention_exp_legacy,2023.1.0,Win32,59.88023952,"[1920,1080]","[640,480]",[0.03229166666666667],[-0.48703703703703705],[1],[0],[0],[1.0462999997139022],"[""StartButton""]",[0.153125],[0.3851851851851852],[1],[0],[0],[4.725099999904629],"[""Metro_label""]",Metro_label,1,5.7356,"[[0.014583333333333334,-0.37037037037037035],[0.014583333333333334,-0.37037037037037035],[0.014583333333333334,-0.37037037037037035],[0.014583333333333334,-0.37037037037037035],[0.014583333333333334,-0.37037037037037035],[0.014583333333333334,-0.37037037037037035],[0.014583333333333334,-0.37037037037037035],[0.014583333333333334,-0.37037037037037035],[0.014583333333333334,-0.37037037037037035],[0.014583333333333334,-0.37037037037037035],[0.014583333333333334,-0.37037037037037035],[0.014583333333333334,-0.37037037037037035],[0.014583333333333334,-0.37037037037037035],[0.014583333333333334,-0.37037037037037035],[0.014583333333333334,-0.37037037037037035],[0.014583333333333334,-0.37037037037037035],[0.014583333333333334,-0.37037037037037035],[0.014583333333333334,-0.37037037037037035],[0.014583333333333334,-0.37037037037037035],[0.014583333333333334,-0.37037037037037035],[0.014583333333333334,-0.37037037037037035],[0.014583333333333334,-0.37037037037037035],[0.014583333333333334,-0.37037037037037035],[0.014583333333333334,-0.37037037037037035],[0.014583333333333334,-0.37037037037037035],[0.014583333333333334,-0.37037037037037035],[0.014583333333333334,-0.37037037037037035],[0.014583333333333334,-0.37037037037037035],[0.014583333333333334,-0.37037037037037035],[0.014583333333333334,-0.37037037037037035],[0.014583333333333334,-0.37037037037037035],[0.014583333333333334,-0.37037037037037035],[0.014583333333333334,-0.37037037037037035],[0.014583333333333334,-0.37037037037037035],[0.014583333333333334,-0.37037037037037035],[0.014583333333333334,-0.37037037037037035],[0.014583333333333334,-0.37037037037037035],[0.014583333333333334,-0.37037037037037035],[0.014583333333333334,-0.37037037037037035],[0.014583333333333334,-0.37037037037037035],[0.015625,-0.37037037037037035],[0.017708333333333333,-0.37777777777777777],[0.022916666666666665,-0.39444444444444443],[0.041666666666666664,-0.4888888888888889],[0.06041666666666667,-0.5611111111111111],[0.08333333333333333,-0.6296296296296297],[0.096875,-0.6611111111111111],[0.103125,-0.674074074074074],[0.10520833333333333,-0.6777777777777778],[0.10625,-0.6796296296296296],[0.10625,-0.6796296296296296],[0.10625,-0.6796296296296296],[0.10625,-0.6796296296296296],[0.10625,-0.6796296296296296],[0.10625,-0.6796296296296296],[0.10625,-0.6796296296296296],[0.10625,-0.6796296296296296],[0.10625,-0.6796296296296296],[0.10625,-0.6796296296296296],[0.10625,-0.6796296296296296],[0.10625,-0.6796296296296296],[0.10625,-0.6796296296296296],[0.10625,-0.6796296296296296],[0.10625,-0.6796296296296296],[0.10625,-0.6796296296296296],[0.10625,-0.6796296296296296],[0.10625,-0.6796296296296296],[0.10625,-0.6796296296296296],[0.10625,-0.6796296296296296],[0.10625,-0.6796296296296296],[0.10625,-0.6796296296296296],[0.10625,-0.6796296296296296],[0.10625,-0.6796296296296296],[0.10625,-0.6796296296296296],[0.10625,-0.6796296296296296],[0.10625,-0.6796296296296296],[0.10729166666666666,-0.6796296296296296],[0.10729166666666666,-0.6796296296296296],[0.10729166666666666,-0.6796296296296296],[0.10833333333333334,-0.6777777777777778],[0.10833333333333334,-0.6777777777777778],[0.10833333333333334,-0.6777777777777778],[0.10833333333333334,-0.6777777777777778],[0.10833333333333334,-0.6777777777777778],[0.10833333333333334,-0.6777777777777778],[0.10833333333333334,-0.6777777777777778],[0.10833333333333334,-0.6777777777777778],[0.10833333333333334,-0.6777777777777778],[0.10833333333333334,-0.6777777777777778],[0.10833333333333334,-0.6777777777777778],[0.10833333333333334,-0.6777777777777778],[0.10833333333333334,-0.6777777777777778],[0.10833333333333334,-0.6777777777777778],[0.10833333333333334,-0.6777777777777778],[0.10833333333333334,-0.6777777777777778],[0.10833333333333334,-0.6777777777777778],[0.10833333333333334,-0.6777777777777778],[0.10833333333333334,-0.6777777777777778],[0.10833333333333334,-0.6777777777777778],[0.10833333333333334,-0.6777777777777778],[0.10833333333333334,-0.6777777777777778],[0.10833333333333334,-0.6777777777777778],[0.10833333333333334,-0.6777777777777778],[0.10833333333333334,-0.6777777777777778],[0.10833333333333334,-0.6777777777777778],[0.10833333333333334,-0.6777777777777778],[0.10833333333333334,-0.6777777777777778],[0.10833333333333334,-0.6777777777777778],[0.10833333333333334,-0.6777777777777778],[0.10833333333333334,-0.6777777777777778],[0.10833333333333334,-0.6777777777777778],[0.10833333333333334,-0.6777777777777778],[0.10833333333333334,-0.6777777777777778],[0.10833333333333334,-0.6777777777777778],[0.10833333333333334,-0.6777777777777778],[0.10833333333333334,-0.6777777777777778],[0.10833333333333334,-0.6777777777777778],[0.10833333333333334,-0.6777777777777778],[0.10833333333333334,-0.6777777777777778],[0.10833333333333334,-0.6777777777777778],[0.10833333333333334,-0.6777777777777778],[0.10833333333333334,-0.6777777777777778],[0.10833333333333334,-0.6777777777777778],[0.10833333333333334,-0.6777777777777778],[0.10833333333333334,-0.6777777777777778],[0.10833333333333334,-0.6777777777777778],[0.10833333333333334,-0.6777777777777778],[0.10833333333333334,-0.6777777777777778],[0.10833333333333334,-0.6777777777777778],[0.10833333333333334,-0.6777777777777778],[0.10833333333333334,-0.6777777777777778],[0.10833333333333334,-0.6777777777777778],[0.10833333333333334,-0.6777777777777778],[0.10833333333333334,-0.6777777777777778],[0.10833333333333334,-0.6777777777777778],[0.10833333333333334,-0.6777777777777778],[0.10833333333333334,-0.6777777777777778],[0.10833333333333334,-0.6777777777777778],[0.10833333333333334,-0.6777777777777778],[0.10833333333333334,-0.6777777777777778],[0.10833333333333334,-0.6777777777777778],[0.10833333333333334,-0.6777777777777778],[0.10833333333333334,-0.6777777777777778],[0.10833333333333334,-0.6777777777777778],[0.10833333333333334,-0.6777777777777778],[0.10833333333333334,-0.6777777777777778],[0.10833333333333334,-0.6777777777777778],[0.10833333333333334,-0.6777777777777778],[0.10833333333333334,-0.6777777777777778],[0.10833333333333334,-0.6777777777777778],[0.10833333333333334,-0.6777777777777778],[0.10833333333333334,-0.6777777777777778],[0.10833333333333334,-0.6777777777777778],[0.10833333333333334,-0.6777777777777778],[0.10833333333333334,-0.6777777777777778],[0.10833333333333334,-0.6777777777777778],[0.10833333333333334,-0.6777777777777778],[0.10833333333333334,-0.6777777777777778],[0.10833333333333334,-0.6777777777777778],[0.10833333333333334,-0.6777777777777778],[0.10833333333333334,-0.6777777777777778],[0.10833333333333334,-0.6777777777777778],[0.10833333333333334,-0.6777777777777778],[0.10833333333333334,-0.6777777777777778],[0.10833333333333334,-0.6777777777777778],[0.10833333333333334,-0.6777777777777778],[0.10833333333333334,-0.6777777777777778],[0.10833333333333334,-0.6777777777777778],[0.10833333333333334,-0.6777777777777778],[0.10833333333333334,-0.6777777777777778],[0.10833333333333334,-0.6777777777777778],[0.10833333333333334,-0.6777777777777778],[0.10833333333333334,-0.6777777777777778],[0.10833333333333334,-0.6777777777777778],[0.10833333333333334,-0.6777777777777778],[0.10833333333333334,-0.6777777777777778],[0.10833333333333334,-0.6777777777777778],[0.10833333333333334,-0.6777777777777778],[0.10833333333333334,-0.6777777777777778],[0.10833333333333334,-0.6777777777777778],[0.10833333333333334,-0.6777777777777778],[0.10833333333333334,-0.6777777777777778],[0.10833333333333334,-0.6777777777777778],[0.10833333333333334,-0.6777777777777778],[0.10833333333333334,-0.6777777777777778],[0.10833333333333334,-0.6777777777777778],[0.10833333333333334,-0.6777777777777778],[0.10833333333333334,-0.6777777777777778],[0.10833333333333334,-0.6777777777777778],[0.10833333333333334,-0.6777777777777778],[0.10833333333333334,-0.6777777777777778],[0.10833333333333334,-0.6777777777777778],[0.10833333333333334,-0.6777777777777778],[0.10833333333333334,-0.6777777777777778],[0.10833333333333334,-0.6777777777777778],[0.10833333333333334,-0.6777777777777778],[0.10833333333333334,-0.6777777777777778],[0.10833333333333334,-0.6777777777777778],[0.10833333333333334,-0.6777777777777778],[0.10833333333333334,-0.6777777777777778],[0.10833333333333334,-0.6777777777777778],[0.10833333333333334,-0.6777777777777778],[0.10833333333333334,-0.6777777777777778],[0.10833333333333334,-0.6777777777777778],[0.10833333333333334,-0.6777777777777778],[0.10833333333333334,-0.6777777777777778],[0.10833333333333334,-0.6777777777777778],[0.10833333333333334,-0.6777777777777778],[0.10833333333333334,-0.6777777777777778],[0.10833333333333334,-0.6777777777777778],[0.10833333333333334,-0.6777777777777778],[0.10833333333333334,-0.6777777777777778],[0.10833333333333334,-0.6777777777777778],[0.10833333333333334,-0.6777777777777778],[0.10833333333333334,-0.6777777777777778],[0.10833333333333334,-0.6777777777777778],[0.10833333333333334,-0.6777777777777778],[0.10833333333333334,-0.6777777777777778],[0.10833333333333334,-0.6777777777777778],[0.10833333333333334,-0.6777777777777778],[0.10833333333333334,-0.6777777777777778],[0.10833333333333334,-0.6777777777777778],[0.10833333333333334,-0.6777777777777778],[0.10833333333333334,-0.6777777777777778],[0.10833333333333334,-0.6777777777777778],[0.10833333333333334,-0.6777777777777778],[0.10833333333333334,-0.6777777777777778],[0.10833333333333334,-0.6777777777777778],[0.10833333333333334,-0.6777777777777778],[0.10833333333333334,-0.6777777777777778],[0.10833333333333334,-0.6777777777777778],[0.10833333333333334,-0.6777777777777778],[0.10833333333333334,-0.6777777777777778],[0.10833333333333334,-0.6777777777777778],[0.109375,-0.6685185185185185],[0.13125,-0.5777777777777777],[0.14583333333333334,-0.45],[0.153125,-0.32037037037037036],[0.153125,-0.17407407407407408],[0.153125,-0.02962962962962963],[0.15,0.08333333333333333],[0.146875,0.13148148148148148],[0.14479166666666668,0.17777777777777778],[0.14270833333333333,0.21481481481481482],[0.13854166666666667,0.2462962962962963],[0.1375,0.2740740740740741],[0.1375,0.3],[0.1375,0.3333333333333333],[0.13958333333333334,0.3611111111111111],[0.14270833333333333,0.3814814814814815],[0.14479166666666668,0.3925925925925926],[0.14583333333333334,0.39814814814814814],[0.14791666666666667,0.40185185185185185],[0.153125,0.4166666666666667],[0.1625,0.4388888888888889],[0.16875,0.45925925925925926],[0.17916666666666667,0.48148148148148145],[0.18333333333333332,0.49444444444444446],[0.18645833333333334,0.5037037037037037],[0.18645833333333334,0.5148148148148148],[0.18645833333333334,0.5222222222222223],[0.18645833333333334,0.5296296296296297],[0.18645833333333334,0.5314814814814814],[0.18645833333333334,0.5314814814814814],[0.18645833333333334,0.5314814814814814],[0.18645833333333334,0.5314814814814814],[0.18645833333333334,0.5314814814814814],[0.18541666666666667,0.5333333333333333],[0.17708333333333334,0.5277777777777778],[0.165625,0.5055555555555555],[0.15729166666666666,0.4888888888888889],[0.15208333333333332,0.4703703703703704],[0.15104166666666666,0.45740740740740743],[0.15104166666666666,0.44074074074074077],[0.15104166666666666,0.42407407407407405],[0.15104166666666666,0.4111111111111111],[0.15104166666666666,0.39444444444444443],[0.153125,0.3851851851851852],[0.153125,0.3851851851851852],[0.153125,0.3851851851851852],[0.153125,0.3851851851851852],[0.153125,0.3851851851851852],[0.153125,0.3851851851851852],[0.153125,0.3851851851851852],[0.153125,0.3851851851851852],[0.153125,0.3851851851851852],[0.153125,0.3851851851851852],[0.153125,0.3851851851851852],[0.153125,0.3851851851851852],[0.153125,0.3851851851851852],[0.153125,0.3851851851851852],[0.153125,0.3851851851851852],[0.153125,0.3851851851851852],[0.153125,0.3851851851851852],[0.153125,0.3851851851851852],[0.153125,0.3851851851851852],[0.153125,0.3851851851851852],[0.153125,0.3851851851851852],[0.153125,0.3851851851851852],[0.153125,0.3851851851851852],[0.153125,0.3851851851851852],[0.153125,0.3851851851851852],[0.153125,0.3851851851851852],[0.153125,0.3851851851851852],[0.153125,0.3851851851851852],[0.153125,0.3851851851851852],[0.153125,0.3851851851851852],[0.153125,0.3851851851851852],[0.153125,0.3851851851851852],[0.15104166666666666,0.3851851851851852],[0.14583333333333334,0.3851851851851852],[0.14166666666666666,0.3851851851851852],[0.13645833333333332,0.3851851851851852],[0.13125,0.3851851851851852],[0.128125,0.3851851851851852],[0.128125,0.3851851851851852],[0.12708333333333333,0.3851851851851852],[0.12708333333333333,0.3851851851851852],[0.12708333333333333,0.3851851851851852],[0.12708333333333333,0.3851851851851852],[0.12708333333333333,0.3851851851851852],[0.12708333333333333,0.3851851851851852],[0.12708333333333333,0.3851851851851852],[0.12708333333333333,0.3851851851851852],[0.12708333333333333,0.3851851851851852],[0.12708333333333333,0.3851851851851852],[0.12708333333333333,0.3851851851851852],[0.12708333333333333,0.3851851851851852],[0.12708333333333333,0.3851851851851852],[0.12708333333333333,0.3851851851851852],[0.12708333333333333,0.3851851851851852],[0.12708333333333333,0.3851851851851852],[0.12708333333333333,0.3851851851851852],[0.125,0.3888888888888889],[0.12395833333333334,0.3925925925925926],[0.12395833333333334,0.39444444444444443],[0.12291666666666666,0.39444444444444443],[0.12291666666666666,0.39444444444444443],[0.12291666666666666,0.39444444444444443],[0.12291666666666666,0.39444444444444443],[0.12291666666666666,0.39444444444444443],[0.12291666666666666,0.39444444444444443],[0.12291666666666666,0.39444444444444443],[0.12291666666666666,0.39444444444444443]]","[[-0.09624999999999997,-0.1962962962962963],[-0.09624999999999997,-0.1962962962962963],[-0.11468750000000003,-0.18907407407407412],[-0.11468750000000003,-0.18907407407407412],[-0.11614583333333334,-0.2111111111111111],[-0.11614583333333334,-0.2111111111111111],[-0.10218750000000003,-0.20629629629629626],[-0.10218750000000003,-0.20629629629629626],[-0.08489583333333334,-0.19703703703703698],[-0.0890625,-0.16722222222222224],[-0.08864583333333335,-0.13351851851851856],[-0.043229166666666666,-0.14500000000000002],[-0.025729166666666713,-0.15185185185185185],[-0.01572916666666669,-0.15037037037037035],[0.004062499999999977,-0.14981481481481476],[0.043958333333333384,-0.13703703703703704],[0.05375000000000003,-0.11648148148148144],[0.0626041666666667,-0.11888888888888886],[0.06927083333333334,-0.11166666666666669],[0.08791666666666677,-0.13222222222222219],[0.06656249999999998,-0.14722222222222223],[0.029270833333333357,-0.11648148148148144],[0.018333333333333358,-0.10648148148148148],[0.018333333333333358,-0.10648148148148148],[0.008229166666666643,-0.09814814814814815],[-0.034375,-0.09351851851851851],[-0.08062499999999997,-0.08648148148148146],[-0.11114583333333337,-0.07037037037037037],[-0.13208333333333327,-0.053703703703703705],[-0.15416666666666667,-0.051111111111111156],[-0.17625000000000005,-0.0485185185185186],[-0.17218749999999997,-0.05759259259259263],[-0.17062499999999994,-0.11166666666666669],[-0.16749999999999995,-0.14962962962962964],[-0.16520833333333335,-0.18592592592592588],[-0.14812500000000003,-0.21388888888888888],[-0.14479166666666668,-0.25999999999999995],[-0.1414583333333333,-0.3061111111111111],[-0.1404166666666666,-0.334074074074074],[-0.13937499999999994,-0.36203703703703705],[-0.18500000000000003,-0.3888888888888889],[-0.18500000000000003,-0.3888888888888889],[-0.16197916666666667,-0.3611111111111111],[-0.12427083333333329,-0.2959259259259259],[-0.09520833333333331,-0.2611111111111111],[-0.07302083333333335,-0.19092592592592597],[-0.03833333333333329,-0.14740740740740746],[0.019687499999999976,-0.11388888888888889],[0.019687499999999976,-0.11388888888888889],[0.05447916666666662,0.008703703703703788],[0.08312499999999995,0.07111111111111107],[0.10895833333333324,0.11944444444444445],[0.19822916666666662,0.18370370370370379],[0.228125,0.1955555555555556],[0.2384375000000001,0.20481481481481487],[0.2490624999999999,0.26351851851851843],[0.27218749999999997,0.2705555555555556],[0.19645833333333323,0.35185185185185186],[0.11291666666666676,0.4751851851851852],[0.04479166666666667,0.5518518518518518],[-0.034166666666666616,0.6503703703703705],[-0.10072916666666672,0.7768518518518519],[-0.20270833333333335,0.8994444444444445],[-0.20270833333333335,0.8994444444444445],[-0.3046875,1.0220370370370373],[-0.39562499999999995,1.1272222222222223],[-0.4869791666666667,1.2187037037037036],[-0.5839583333333334,1.3264814814814814],[-0.6080208333333333,1.3953703703703704],[-0.6302083333333334,1.4479629629629631],[-0.6486458333333334,1.4244444444444446],[-0.6573958333333334,1.4205555555555553],[-0.6620833333333334,1.375740740740741],[-0.6429166666666667,1.2994444444444446],[-0.6354166666666666,1.2520370370370368],[-0.6389583333333333,1.2220370370370373],[-0.626875,1.162777777777778],[-0.5484375,1.0896296296296297],[-0.4720833333333333,1.001666666666667],[-0.411875,0.956111111111111],[-0.3476041666666667,0.9442592592592595],[-0.26927083333333335,0.8842592592592593],[-0.22270833333333329,0.8594444444444445],[-0.18135416666666668,0.852962962962963],[-0.1297916666666667,0.843888888888889],[-0.0782291666666667,0.8348148148148147],[-0.026979166666666644,0.8881481481481482],[-0.04208333333333331,0.9553703703703705],[-0.07614583333333336,0.9924074074074076],[-0.09406249999999995,0.987037037037037],[-0.08374999999999998,0.9840740740740742],[-0.0875,1.029259259259259],[-0.10229166666666671,1.0781481481481483],[-0.1170833333333333,1.1270370370370368],[-0.12104166666666671,1.1298148148148146],[-0.11864583333333331,1.1085185185185185],[-0.1140625,1.0201851851851853],[-0.1094791666666667,0.9318518518518519],[-0.06343749999999998,0.9],[-0.01739583333333338,0.8681481481481481],[-0.01875,0.8301851851851851],[-0.01875,0.8301851851851851],[-0.01552083333333331,0.7874074074074074],[-0.01552083333333331,0.7874074074074074],[0.03895833333333331,0.6874074074074075],[0.07822916666666657,0.6127777777777778],[0.10197916666666676,0.5444444444444444],[0.12354166666666658,0.5122222222222222],[0.15697916666666673,0.45018518518518524],[0.19041666666666662,0.3881481481481482],[0.20447916666666663,0.2992592592592593],[0.21583333333333338,0.24018518518518528],[0.24333333333333323,0.1801851851851851],[0.26624999999999993,0.125],[0.25187499999999996,0.11074074074074065],[0.25270833333333326,0.07111111111111107],[0.2804166666666667,0.04129629629629621],[0.3039583333333333,-0.0005555555555554713],[0.32093749999999993,-0.0011111111111111532],[0.32093749999999993,-0.0011111111111111532],[0.33791666666666675,-0.0016666666666666245],[0.3603125000000001,0.012962962962962963],[0.3724999999999999,0.012592592592592508],[0.39010416666666664,0.005000000000000084],[0.3927083333333333,-0.013518518518518435],[0.4105208333333332,-0.02759259259259255],[0.40520833333333334,0.03777777777777774],[0.37916666666666665,0.10685185185185193],[0.3476041666666667,0.16018518518518518],[0.30197916666666674,0.23055555555555557],[0.30197916666666674,0.23055555555555557],[0.2520833333333333,0.2957407407407408],[0.20145833333333343,0.33425925925925926],[0.16375000000000003,0.35796296296296287],[0.16375000000000003,0.35796296296296287],[0.10635416666666657,0.4057407407407408],[0.07125000000000009,0.4553703703703703],[0.07125000000000009,0.4553703703703703],[0.01885416666666669,0.48037037037037034],[-0.019687499999999976,0.3948148148148149],[-0.059791666666666646,0.3388888888888889],[-0.09135416666666671,0.29685185185185176],[-0.12156250000000005,0.23499999999999996],[-0.14791666666666667,0.17629629629629637],[-0.17625000000000005,0.13759259259259252],[-0.2045833333333333,0.09888888888888885],[-0.21197916666666666,0.04870370370370362],[-0.22666666666666668,0.007592592592592635],[-0.26583333333333337,-0.009074074074074031],[-0.29572916666666665,0.005370370370370328],[-0.32406250000000003,-0.009814814814814731],[-0.36666666666666664,-0.012962962962962963],[-0.41437499999999994,-0.010925925925925884],[-0.44406249999999997,-0.013888888888888888],[-0.46364583333333337,-0.020555555555555598],[-0.4865625,-0.017407407407407365],[-0.4865625,-0.017407407407407365],[-0.5404166666666667,-0.022592592592592678],[-0.5745833333333333,-0.02444444444444453],[-0.5669791666666666,-0.026111111111111154],[-0.5669791666666666,-0.026111111111111154],[-0.5483333333333333,-0.0242592592592593],[-0.5483333333333333,-0.0242592592592593],[-0.48062499999999997,-0.0003703703703704546],[-0.3970833333333334,0.024629629629629547],[-0.3970833333333334,0.024629629629629547],[-0.30979166666666663,0.06425925925925935],[-0.2311458333333333,0.09814814814814815],[-0.18260416666666662,0.1346296296296297],[-0.12875000000000003,0.13722222222222227],[-0.04239583333333338,0.1557407407407408],[0.014583333333333334,0.1646296296296296],[0.07489583333333343,0.1816666666666667],[0.12416666666666672,0.19518518518518516],[0.12416666666666672,0.19518518518518516],[0.1554166666666667,0.20111111111111116],[0.1554166666666667,0.20111111111111116],[0.1881249999999999,0.18074074074074079],[0.1881249999999999,0.18074074074074079],[0.22083333333333333,0.1603703703703704],[0.22083333333333333,0.1603703703703704],[0.23166666666666677,0.15685185185185194],[0.23166666666666677,0.15685185185185194],[0.26510416666666664,0.1485185185185186],[0.29406249999999995,0.14888888888888885],[0.29406249999999995,0.14888888888888885],[0.3178124999999999,0.14092592592592595],[0.3178124999999999,0.14092592592592595],[0.3441666666666668,0.13740740740740748],[0.3611458333333334,0.12481481481481477],[0.3810416666666666,0.10833333333333334],[0.3515625,0.05925925925925926],[0.32479166666666665,0.04796296296296292],[0.29802083333333323,0.036666666666666584],[0.28854166666666664,0.018333333333333292],[0.27291666666666664,-0.018148148148148063],[0.27322916666666663,-0.03129629629629625],[0.2601041666666667,-0.023148148148148147],[0.2540625000000001,-0.01314814814814819],[0.24833333333333343,0.02907407407407416],[0.23208333333333328,0.06814814814814807],[0.22958333333333342,0.10740740740740741],[0.21833333333333324,0.12388888888888884],[0.21833333333333324,0.12388888888888884],[0.22999999999999995,0.15018518518518523],[0.2179166666666667,0.1735185185185186],[0.2209374999999999,0.22462962962962954],[0.21052083333333324,0.26777777777777784],[0.20635416666666656,0.2705555555555556],[0.20635416666666656,0.2705555555555556],[0.2021874999999999,0.2733333333333334],[0.18802083333333333,0.24222222222222214],[0.1794791666666666,0.2094444444444445],[0.17552083333333332,0.19462962962962968],[0.17374999999999996,0.15999999999999995],[0.17374999999999996,0.15999999999999995],[0.1490624999999999,0.11555555555555551],[0.1408333333333334,0.0801851851851851],[0.12104166666666671,0.04425925925925922],[0.1021874999999999,-0.005370370370370328],[0.1021874999999999,-0.005370370370370328],[0.08364583333333328,-0.02555555555555547],[0.06510416666666667,-0.045740740740740825],[0.06614583333333333,-0.06425925925925924],[0.0515625,-0.08981481481481482],[0.03697916666666667,-0.11537037037037039],[0.02020833333333331,-0.12111111111111107],[0.005624999999999976,-0.14370370370370375],[-0.0009374999999999763,-0.11870370370370374],[-0.013333333333333286,-0.10481481481481486],[-0.026145833333333358,-0.07388888888888885],[-0.03208333333333328,-0.05333333333333336],[-0.034687499999999954,-0.049629629629629544],[-0.04114583333333333,-0.044999999999999915],[-0.10239583333333328,-0.005555555555555556],[-0.08197916666666671,0.08222222222222218],[-0.08937499999999995,0.14425925925925923],[-0.10520833333333333,0.2272222222222223],[-0.10520833333333333,0.2272222222222223],[-0.11083333333333331,0.2522222222222223],[-0.11312500000000002,0.2814814814814815],[-0.1219791666666667,0.29740740740740745],[-0.11458333333333333,0.2729629629629629],[-0.11052083333333336,0.2653703703703703],[-0.10895833333333335,0.285],[-0.024374999999999977,0.24203703703703713],[-0.021458333333333357,0.1507407407407407],[0.017916666666666713,0.09000000000000004],[0.05645833333333338,-0.0007407407407406986],[0.08083333333333324,-0.045740740740740825],[0.09739583333333333,-0.11333333333333331],[0.12000000000000005,-0.17092592592592595],[0.12000000000000005,-0.17092592592592595],[0.1326041666666666,-0.1381481481481482],[0.17145833333333324,-0.12740740740740744],[0.21281249999999996,-0.14388888888888887],[0.23468749999999997,-0.18370370370370367],[0.25656249999999997,-0.2235185185185185],[0.27281250000000007,-0.28055555555555556],[0.27614583333333326,-0.2853703703703704],[0.27406249999999993,-0.3322222222222222],[0.2764583333333334,-0.36074074074074075],[0.2777083333333332,-0.38074074074074077],[0.2777083333333332,-0.38074074074074077],[0.2835416666666667,-0.47444444444444445],[0.2631249999999999,-0.5461111111111111],[0.25062499999999993,-0.5774074074074075],[0.24072916666666658,-0.5094444444444445],[0.24031250000000004,-0.45629629629629626],[0.23687500000000009,-0.3907407407407407],[0.2534374999999999,-0.3514814814814815],[0.26416666666666655,-0.3557407407407408],[0.29625000000000007,-0.36148148148148146],[0.30406250000000007,-0.35462962962962963],[0.29677083333333343,-0.3461111111111111],[0.2894791666666668,-0.3375925925925926],[0.2847916666666668,-0.367037037037037],[0.2741666666666667,-0.4101851851851852],[0.2525000000000001,-0.47259259259259256],[0.23083333333333325,-0.5349999999999999],[0.23083333333333325,-0.5349999999999999],[0.2423958333333334,-0.5996296296296296],[0.2423958333333334,-0.5996296296296296],[0.24177083333333324,-0.6305555555555555],[0.20593750000000005,-0.6327777777777778],[0.1974999999999999,-0.6507407407407407],[0.2091666666666666,-0.6416666666666667],[0.22083333333333333,-0.6325925925925926],[0.190625,-0.6253703703703704],[0.17260416666666673,-0.6368518518518518],[0.1818749999999999,-0.6151851851851852],[0.1818749999999999,-0.6151851851851852],[0.16677083333333323,-0.592037037037037],[0.11843750000000004,-0.5666666666666667],[0.09239583333333339,-0.527962962962963],[0.07062499999999995,-0.5218518518518519],[0.046875,-0.5211111111111111],[0.046875,-0.5211111111111111],[0.001979166666666643,-0.49074074074074076],[0.001979166666666643,-0.49074074074074076],[0.001979166666666643,-0.49074074074074076],[-0.044166666666666646,-0.49611111111111106],[-0.04072916666666669,-0.45314814814814813],[-0.024583333333333356,-0.40981481481481485],[0.019166666666666644,-0.3168518518518519],[0.09604166666666672,-0.2574074074074074],[0.1453125,-0.1675925925925926],[0.19458333333333327,-0.07777777777777778],[0.21749999999999994,-0.009074074074074031],[0.2633333333333333,0.056296296296296254],[0.26666666666666666,0.04870370370370362],[0.2712500000000001,0.06796296296296304],[0.27791666666666665,0.07574074074074069],[0.2782291666666666,0.044999999999999915],[0.21322916666666672,-0.04000000000000004],[0.13947916666666677,-0.09296296296296294],[0.09093749999999995,-0.16259259259259262],[0.052083333333333336,-0.23648148148148146],[0.05291666666666662,-0.28777777777777774],[0.009687499999999953,-0.3464814814814815],[0.029895833333333382,-0.37333333333333335],[0.05427083333333336,-0.3803703703703703],[0.05427083333333336,-0.3803703703703703],[0.058333333333333334,-0.42481481481481476],[0.06760416666666676,-0.4418518518518519],[0.08885416666666662,-0.45333333333333337],[0.08770833333333337,-0.4762962962962963],[0.09520833333333342,-0.5109259259259259],[0.0978125000000001,-0.5385185185185185],[0.09666666666666662,-0.5622222222222223],[0.11281249999999995,-0.5846296296296296],[0.10791666666666658,-0.5898148148148148],[0.09833333333333343,-0.5853703703703704],[0.08875000000000005,-0.580925925925926],[0.09291666666666672,-0.5488888888888889],[0.11197916666666667,-0.5253703703703704],[0.11270833333333338,-0.5198148148148148],[0.11822916666666666,-0.49444444444444446],[0.11979166666666667,-0.4675925925925926],[0.12135416666666667,-0.44074074074074077],[0.12135416666666667,-0.44074074074074077],[0.12510416666666657,-0.40703703703703703],[0.13427083333333342,-0.384074074074074],[0.13427083333333342,-0.384074074074074]]","[[-0.09624999999999997,-0.1962962962962963,0.00029999971389571556],[-0.09624999999999997,-0.1962962962962963,0.05099999999999483],[-0.11468750000000003,-0.18907407407407412,0.06079999971389327],[-0.11468750000000003,-0.18907407407407412,0.06890000009536124],[-0.11614583333333334,-0.2111111111111111,0.08549999999999613],[-0.11614583333333334,-0.2111111111111111,0.10249999999999915],[-0.10218750000000003,-0.20629629629629626,0.12449999999999761],[-0.10218750000000003,-0.20629629629629626,0.1355000000000004],[-0.08489583333333334,-0.19703703703703698,0.15219999980926247],[-0.0890625,-0.16722222222222224,0.16879999971389736],[-0.08864583333333335,-0.13351851851851856,0.18549999999999756],[-0.043229166666666666,-0.14500000000000002,0.20259999990462774],[-0.025729166666666713,-0.15185185185185185,0.21879999971389452],[-0.01572916666666669,-0.15037037037037035,0.2354999999999947],[0.004062499999999977,-0.14981481481481476,0.2521999998092639],[0.043958333333333384,-0.13703703703703704,0.2687999997138917],[0.05375000000000003,-0.11648148148148144,0.285499999999999],[0.0626041666666667,-0.11888888888888886,0.30209999990462677],[0.06927083333333334,-0.11166666666666669,0.31890000009536124],[0.08791666666666677,-0.13222222222222219,0.33549999999999613],[0.06656249999999998,-0.14722222222222223,0.3521999998092653],[0.029270833333333357,-0.11648148148148144,0.3687999997138931],[0.018333333333333358,-0.10648148148148148,0.3862999997138914],[0.018333333333333358,-0.10648148148148148,0.40240000009536203],[0.008229166666666643,-0.09814814814814815,0.41890000009536266],[-0.034375,-0.09351851851851851,0.43549999999999756],[-0.08062499999999997,-0.08648148148148146,0.4521999998092596],[-0.11114583333333337,-0.07037037037037037,0.4687999997138945],[-0.13208333333333327,-0.053703703703703705,0.4859999999999971],[-0.15416666666666667,-0.051111111111111156,0.5026999998092592],[-0.17625000000000005,-0.0485185185185186,0.5187999997138917],[-0.17218749999999997,-0.05759259259259263,0.5354000000953647],[-0.17062499999999994,-0.11166666666666669,0.5522999997138953],[-0.16749999999999995,-0.14962962962962964,0.5687999997138959],[-0.16520833333333335,-0.18592592592592588,0.5854999999999961],[-0.14812500000000003,-0.21388888888888888,0.6060999999046288],[-0.14479166666666668,-0.25999999999999995,0.622799999713898],[-0.1414583333333333,-0.3061111111111111,0.6389000000953615],[-0.1404166666666666,-0.334074074074074,0.6554999999999964],[-0.13937499999999994,-0.36203703703703705,0.6692999997138926],[-0.18500000000000003,-0.3888888888888889,0.6954000000953613],[-0.18500000000000003,-0.3888888888888889,0.7059000000953617],[-0.16197916666666667,-0.3611111111111111,0.7190999999046284],[-0.12427083333333329,-0.2959259259259259,0.739699999809261],[-0.09520833333333331,-0.2611111111111111,0.7552999997138983],[-0.07302083333333335,-0.19092592592592597,0.7690999999046326],[-0.03833333333333329,-0.14740740740740746,0.7857999997138947],[0.019687499999999976,-0.11388888888888889,0.8070999999046293],[0.019687499999999976,-0.11388888888888889,0.8196999998092593],[0.05447916666666662,0.008703703703703788,0.8359000000953642],[0.08312499999999995,0.07111111111111107,0.8521999998092653],[0.10895833333333324,0.11944444444444445,0.8690999999046269],[0.19822916666666662,0.18370370370370379,0.8856999998092618],[0.228125,0.1955555555555556,0.9026999998092649],[0.2384375000000001,0.20481481481481487,0.9187999997138974],[0.2490624999999999,0.26351851851851843,0.9354000000953633],[0.27218749999999997,0.2705555555555556,0.9521999998092596],[0.19645833333333323,0.35185185185185186,0.9687999997138945],[0.11291666666666676,0.4751851851851852,0.9854999999999947],[0.04479166666666667,0.5518518518518518,1.0060000000000002],[-0.034166666666666616,0.6503703703703705,1.0215999999046304],[-0.10072916666666672,0.7768518518518519,1.0379999999999967],[-0.20270833333333335,0.8994444444444445,1.0574999999999974],[-0.20270833333333335,0.8994444444444445,1.0689000000953612],[-0.3046875,1.0220370370370373,1.0854999999999961],[-0.39562499999999995,1.1272222222222223,1.1049000000953626],[-0.4869791666666667,1.2187037037037036,1.118799999713893],[-0.5839583333333334,1.3264814814814814,1.1355000000000004],[-0.6080208333333333,1.3953703703703704,1.1520999999046282],[-0.6302083333333334,1.4479629629629631,1.1687999997138974],[-0.6486458333333334,1.4244444444444446,1.1854999999999976],[-0.6573958333333334,1.4205555555555553,1.2021999998092596],[-0.6620833333333334,1.375740740740741,1.2187999997138945],[-0.6429166666666667,1.2994444444444446,1.2354999999999947],[-0.6354166666666666,1.2520370370370368,1.2521999998092639],[-0.6389583333333333,1.2220370370370373,1.268900000095364],[-0.626875,1.162777777777778,1.2896999998092653],[-0.5484375,1.0896296296296297,1.3051999998092612],[-0.4720833333333333,1.001666666666667,1.3219999999999956],[-0.411875,0.956111111111111,1.3369999999999962],[-0.3476041666666667,0.9442592592592595,1.352099999904631],[-0.26927083333333335,0.8842592592592593,1.3699000000953632],[-0.22270833333333329,0.8594444444444445,1.388699999809262],[-0.18135416666666668,0.852962962962963,1.406799999713897],[-0.1297916666666667,0.843888888888889,1.4229000000953675],[-0.0782291666666667,0.8348148148148147,1.4384000000953634],[-0.026979166666666644,0.8881481481481482,1.4520999999046325],[-0.04208333333333331,0.9553703703703705,1.4687999997138945],[-0.07614583333333336,0.9924074074074076,1.486699999809261],[-0.09406249999999995,0.987037037037037,1.5054000000953636],[-0.08374999999999998,0.9840740740740742,1.5190999999046326],[-0.0875,1.029259259259259,1.5354000000953647],[-0.10229166666666671,1.0781481481481483,1.552199999809261],[-0.1170833333333333,1.1270370370370368,1.568799999713896],[-0.12104166666666671,1.1298148148148146,1.5854999999999961],[-0.11864583333333331,1.1085185185185185,1.6064000000953627],[-0.1140625,1.0201851851851853,1.622099999904627],[-0.1094791666666667,0.9318518518518519,1.6365999999046323],[-0.06343749999999998,0.9,1.6521999998092625],[-0.01739583333333338,0.8681481481481481,1.6687999997138974],[-0.01875,0.8301851851851851,1.6904000000953658],[-0.01875,0.8301851851851851,1.702299999713894],[-0.01552083333333331,0.7874074074074074,1.718900000095367],[-0.01552083333333331,0.7874074074074074,1.7354000000953675],[0.03895833333333331,0.6874074074074075,1.7521999998092639],[0.07822916666666657,0.6127777777777778,1.7687999997138917],[0.10197916666666676,0.5444444444444444,1.7854000000953647],[0.12354166666666658,0.5122222222222222,1.8061999998092588],[0.15697916666666673,0.45018518518518524,1.8222999997138913],[0.19041666666666662,0.3881481481481482,1.8397999997138967],[0.20447916666666663,0.2992592592592593,1.8562999997138974],[0.21583333333333338,0.24018518518518528,1.8719999999999999],[0.24333333333333323,0.1801851851851851,1.8861999998092642],[0.26624999999999993,0.125,1.9051999998092626],[0.25187499999999996,0.11074074074074065,1.9221999998092656],[0.25270833333333326,0.07111111111111107,1.9409000000953611],[0.2804166666666667,0.04129629629629621,1.956799999713894],[0.3039583333333333,-0.0005555555555554713,1.9735999999046285],[0.32093749999999993,-0.0011111111111111532,1.9902999997138977],[0.32093749999999993,-0.0011111111111111532,2.0020999999046296],[0.33791666666666675,-0.0016666666666666245,2.0187999997138917],[0.3603125000000001,0.012962962962962963,2.035499999999999],[0.3724999999999999,0.012592592592592508,2.055499999999995],[0.39010416666666664,0.005000000000000084,2.073299999713896],[0.3927083333333333,-0.013518518518518435,2.0899999999999963],[0.4105208333333332,-0.02759259259259255,2.1067999997138926],[0.40520833333333334,0.03777777777777774,2.1225999999046294],[0.37916666666666665,0.10685185185185193,2.13909999990463],[0.3476041666666667,0.16018518518518518,2.156799999713897],[0.30197916666666674,0.23055555555555557,2.182299999713898],[0.30197916666666674,0.23055555555555557,2.189799999713898],[0.2520833333333333,0.2957407407407408,2.2032999997138916],[0.20145833333333343,0.33425925925925926,2.2227999997138923],[0.16375000000000003,0.35796296296296287,2.2409999999999997],[0.16375000000000003,0.35796296296296287,2.252199999809264],[0.10635416666666657,0.4057407407407408,2.268900000095364],[0.07125000000000009,0.4553703703703703,2.288799999713895],[0.07125000000000009,0.4553703703703703,2.3022999997138953],[0.01885416666666669,0.48037037037037034,2.3189000000953612],[-0.019687499999999976,0.3948148148148149,2.335799999713892],[-0.059791666666666646,0.3388888888888889,2.3522999997138925],[-0.09135416666666671,0.29685185185185176,2.3689999999999998],[-0.12156250000000005,0.23499999999999996,2.385400000095366],[-0.14791666666666667,0.17629629629629637,2.403400000095367],[-0.17625000000000005,0.13759259259259252,2.4187999997138974],[-0.2045833333333333,0.09888888888888885,2.4354000000953633],[-0.21197916666666666,0.04870370370370362,2.4520999999046325],[-0.22666666666666668,0.007592592592592635,2.4690999999046284],[-0.26583333333333337,-0.009074074074074031,2.4854000000953675],[-0.29572916666666665,0.005370370370370328,2.5057999997138936],[-0.32406250000000003,-0.009814814814814731,2.5220999999046327],[-0.36666666666666664,-0.012962962962962963,2.5390999999046286],[-0.41437499999999994,-0.010925925925925884,2.5559999999999974],[-0.44406249999999997,-0.013888888888888888,2.5724000000953637],[-0.46364583333333337,-0.020555555555555598,2.58919999980926],[-0.4865625,-0.017407407407407365,2.6147999997138953],[-0.4865625,-0.017407407407407365,2.6226999998092637],[-0.5404166666666667,-0.022592592592592678,2.6355000000000004],[-0.5745833333333333,-0.02444444444444453,2.6555999999046307],[-0.5669791666666666,-0.026111111111111154,2.674599999904629],[-0.5669791666666666,-0.026111111111111154,2.687900000095361],[-0.5483333333333333,-0.0242592592592593,2.7021999998092596],[-0.5483333333333333,-0.0242592592592593,2.7187999997138945],[-0.48062499999999997,-0.0003703703703704546,2.7354999999999947],[-0.3970833333333334,0.024629629629629547,2.7556999998092593],[-0.3970833333333334,0.024629629629629547,2.7687999997138917],[-0.30979166666666663,0.06425925925925935,2.785499999999999],[-0.2311458333333333,0.09814814814814815,2.805799999713898],[-0.18260416666666662,0.1346296296296297,2.822499999999998],[-0.12875000000000003,0.13722222222222227,2.8394000000953667],[-0.04239583333333338,0.1557407407407408,2.8554999999999993],[0.014583333333333334,0.1646296296296296,2.8735],[0.07489583333333343,0.1816666666666667,2.8902999997138963],[0.12416666666666672,0.19518518518518516,2.9077999997138946],[0.12416666666666672,0.19518518518518516,2.9187999997138974],[0.1554166666666667,0.20111111111111116,2.9354999999999976],[0.1554166666666667,0.20111111111111116,2.9520999999046325],[0.1881249999999999,0.18074074074074079,2.9687999997138945],[0.1881249999999999,0.18074074074074079,2.9854999999999947],[0.22083333333333333,0.1603703703703704,3.0024000000953635],[0.22083333333333333,0.1603703703703704,3.0190999999046326],[0.23166666666666677,0.15685185185185194,3.035599999904626],[0.23166666666666677,0.15685185185185194,3.0546999998092588],[0.26510416666666664,0.1485185185185186,3.0707999997138913],[0.29406249999999995,0.14888888888888885,3.0949000000953646],[0.29406249999999995,0.14888888888888885,3.1044999999999945],[0.3178124999999999,0.14092592592592595,3.118799999713893],[0.3178124999999999,0.14092592592592595,3.1355000000000004],[0.3441666666666668,0.13740740740740748,3.152099999904628],[0.3611458333333334,0.12481481481481477,3.168699999809263],[0.3810416666666666,0.10833333333333334,3.1854000000953633],[0.3515625,0.05925925925925926,3.2021999998092596],[0.32479166666666665,0.04796296296296292,3.218900000095367],[0.29802083333333323,0.036666666666666584,3.2354000000953675],[0.28854166666666664,0.018333333333333292,3.2520999999046296],[0.27291666666666664,-0.018148148148148063,3.2687999997138917],[0.27322916666666663,-0.03129629629629625,3.2854000000953647],[0.2601041666666667,-0.023148148148148147,3.3049000000953654],[0.2540625000000001,-0.01314814814814819,3.318799999713896],[0.24833333333333343,0.02907407407407416,3.335400000095362],[0.23208333333333328,0.06814814814814807,3.352099999904631],[0.22958333333333342,0.10740740740740741,3.368799999713893],[0.21833333333333324,0.12388888888888884,3.385400000095366],[0.21833333333333324,0.12388888888888884,3.4021999998092625],[0.22999999999999995,0.15018518518518523,3.418699999809263],[0.2179166666666667,0.1735185185185186,3.4354000000953633],[0.2209374999999999,0.22462962962962954,3.4520999999046325],[0.21052083333333324,0.26777777777777784,3.473400000095367],[0.20635416666666656,0.2705555555555556,3.4899000000953677],[0.20635416666666656,0.2705555555555556,3.502199999809264],[0.2021874999999999,0.2733333333333334,3.5187999997138917],[0.18802083333333333,0.24222222222222214,3.535499999999999],[0.1794791666666666,0.2094444444444445,3.552499999999995],[0.17552083333333332,0.19462962962962968,3.5689000000953612],[0.17374999999999996,0.15999999999999995,3.585400000095362],[0.17374999999999996,0.15999999999999995,3.602099999904631],[0.1490624999999999,0.11555555555555551,3.618799999713893],[0.1408333333333334,0.0801851851851851,3.6359999999999957],[0.12104166666666671,0.04425925925925922,3.651999999999994],[0.1021874999999999,-0.005370370370370328,3.6735999999046314],[0.1021874999999999,-0.005370370370370328,3.6884999999999977],[0.08364583333333328,-0.02555555555555547,3.7021999998092596],[0.06510416666666667,-0.045740740740740825,3.720099999904633],[0.06614583333333333,-0.06425925925925924,3.738900000095363],[0.0515625,-0.08981481481481482,3.754799999713896],[0.03697916666666667,-0.11537037037037039,3.7686999998092645],[0.02020833333333331,-0.12111111111111107,3.7854000000953647],[0.005624999999999976,-0.14370370370370375,3.8055999999046293],[-0.0009374999999999763,-0.11870370370370374,3.8197999997138936],[-0.013333333333333286,-0.10481481481481486,3.8359999999999985],[-0.026145833333333358,-0.07388888888888885,3.8519999999999968],[-0.03208333333333328,-0.05333333333333336,3.868799999713893],[-0.034687499999999954,-0.049629629629629544,3.8855000000000004],[-0.04114583333333333,-0.044999999999999915,3.9021999998092625],[-0.10239583333333328,-0.005555555555555556,3.924199999809261],[-0.08197916666666671,0.08222222222222218,3.9399000000953635],[-0.08937499999999995,0.14425925925925923,3.9559000000953617],[-0.10520833333333333,0.2272222222222223,3.9754000000953624],[-0.10520833333333333,0.2272222222222223,3.985599999904629],[-0.11083333333333331,0.2522222222222223,4.002299999713898],[-0.11312500000000002,0.2814814814814815,4.018999999999998],[-0.1219791666666667,0.29740740740740745,4.0397999997138925],[-0.11458333333333333,0.2729629629629629,4.054799999713893],[-0.11052083333333336,0.2653703703703703,4.069599999904632],[-0.10895833333333335,0.285,4.088999999999999],[-0.024374999999999977,0.24203703703703713,4.105699999809261],[-0.021458333333333357,0.1507407407407407,4.121599999904632],[0.017916666666666713,0.09000000000000004,4.14119999980926],[0.05645833333333338,-0.0007407407407406986,4.155599999904631],[0.08083333333333324,-0.045740740740740825,4.172099999904631],[0.09739583333333333,-0.11333333333333331,4.188499999999998],[0.12000000000000005,-0.17092592592592595,4.208099999904633],[0.12000000000000005,-0.17092592592592595,4.218900000095367],[0.1326041666666666,-0.1381481481481482,4.235599999904629],[0.17145833333333324,-0.12740740740740744,4.252599999904632],[0.21281249999999996,-0.14388888888888887,4.272999999999996],[0.23468749999999997,-0.18370370370370367,4.288400000095365],[0.25656249999999997,-0.2235185185185185,4.305199999809261],[0.27281250000000007,-0.28055555555555556,4.323499999999996],[0.27614583333333326,-0.2853703703703704,4.3396999998092625],[0.27406249999999993,-0.3322222222222222,4.354799999713897],[0.2764583333333334,-0.36074074074074075,4.369699999809264],[0.2777083333333332,-0.38074074074074077,4.397499999999994],[0.2777083333333332,-0.38074074074074077,4.40469999980926],[0.2835416666666667,-0.47444444444444445,4.418799999713897],[0.2631249999999999,-0.5461111111111111,4.435599999904632],[0.25062499999999993,-0.5774074074074075,4.45219999980926],[0.24072916666666658,-0.5094444444444445,4.472199999809263],[0.24031250000000004,-0.45629629629629626,4.4857999997138975],[0.23687500000000009,-0.3907407407407407,4.503],[0.2534374999999999,-0.3514814814814815,4.522900000095362],[0.26416666666666655,-0.3557407407407408,4.539099999904629],[0.29625000000000007,-0.36148148148148146,4.555599999904629],[0.30406250000000007,-0.35462962962962963,4.573099999904628],[0.29677083333333343,-0.3461111111111111,4.588699999809265],[0.2894791666666668,-0.3375925925925926,4.606199999809263],[0.2847916666666668,-0.367037037037037,4.6229999999999976],[0.2741666666666667,-0.4101851851851852,4.638400000095366],[0.2525000000000001,-0.47259259259259256,4.653499999999994],[0.23083333333333325,-0.5349999999999999,4.669799999713895],[0.23083333333333325,-0.5349999999999999,4.685400000095363],[0.2423958333333334,-0.5996296296296296,4.70219999980926],[0.2423958333333334,-0.5996296296296296,4.7187999997138945],[0.24177083333333324,-0.6305555555555555,4.735499999999995],[0.20593750000000005,-0.6327777777777778,4.75209999990463],[0.1974999999999999,-0.6507407407407407,4.7686999998092645],[0.2091666666666666,-0.6416666666666667,4.785400000095365],[0.22083333333333333,-0.6325925925925926,4.802199999809261],[0.190625,-0.6253703703703704,4.820699999809264],[0.17260416666666673,-0.6368518518518518,4.838699999809265],[0.1818749999999999,-0.6151851851851852,4.863400000095368],[0.1818749999999999,-0.6151851851851852,4.871099999904629],[0.16677083333333323,-0.592037037037037,4.8855],[0.11843750000000004,-0.5666666666666667,4.905299999713897],[0.09239583333333339,-0.527962962962963,4.9195999999046265],[0.07062499999999995,-0.5218518518518519,4.936299999713896],[0.046875,-0.5211111111111111,4.956499999999998],[0.046875,-0.5211111111111111,4.985499999999995],[0.001979166666666643,-0.49074074074074076,5.006099999904627],[0.001979166666666643,-0.49074074074074076,5.016900000095362],[0.001979166666666643,-0.49074074074074076,5.020799999713894],[-0.044166666666666646,-0.49611111111111106,5.035400000095365],[-0.04072916666666669,-0.45314814814814813,5.052499999999995],[-0.024583333333333356,-0.40981481481481485,5.069199999809264],[0.019166666666666644,-0.3168518518518519,5.085900000095364],[0.09604166666666672,-0.2574074074074074,5.102599999904626],[0.1453125,-0.1675925925925926,5.118799999713893],[0.19458333333333327,-0.07777777777777778,5.135699999809262],[0.21749999999999994,-0.009074074074074031,5.1521999998092625],[0.2633333333333333,0.056296296296296254,5.171599999904629],[0.26666666666666666,0.04870370370370362,5.185699999809259],[0.2712500000000001,0.06796296296296304,5.204199999809262],[0.27791666666666665,0.07574074074074069,5.221999999999994],[0.2782291666666666,0.044999999999999915,5.238599999904629],[0.21322916666666672,-0.04000000000000004,5.252599999904632],[0.13947916666666677,-0.09296296296296294,5.2686999998092645],[0.09093749999999995,-0.16259259259259262,5.288499999999999],[0.052083333333333336,-0.23648148148148146,5.302299999713895],[0.05291666666666662,-0.28777777777777774,5.323400000095361],[0.009687499999999953,-0.3464814814814815,5.338900000095364],[0.029895833333333382,-0.37333333333333335,5.352699999809261],[0.05427083333333336,-0.3803703703703703,5.368799999713893],[0.05427083333333336,-0.3803703703703703,5.385400000095366],[0.058333333333333334,-0.42481481481481476,5.402400000095362],[0.06760416666666676,-0.4418518518518519,5.422299999713893],[0.08885416666666662,-0.45333333333333337,5.438900000095366],[0.08770833333333337,-0.4762962962962963,5.452299999713894],[0.09520833333333342,-0.5109259259259259,5.4687999997138945],[0.0978125000000001,-0.5385185185185185,5.486900000095368],[0.09666666666666662,-0.5622222222222223,5.50209999990463],[0.11281249999999995,-0.5846296296296296,5.518900000095364],[0.10791666666666658,-0.5898148148148148,5.535499999999999],[0.09833333333333343,-0.5853703703703704,5.552199999809261],[0.08875000000000005,-0.580925925925926,5.571699999809262],[0.09291666666666672,-0.5488888888888889,5.585699999809265],[0.11197916666666667,-0.5253703703703704,5.602900000095367],[0.11270833333333338,-0.5198148148148148,5.622099999904627],[0.11822916666666666,-0.49444444444444446,5.63819999980926],[0.11979166666666667,-0.4675925925925926,5.6521999998092625],[0.12135416666666667,-0.44074074074074077,5.668699999809263],[0.12135416666666667,-0.44074074074074077,5.685699999809259],[0.12510416666666657,-0.40703703703703703,5.702400000095366],[0.13427083333333342,-0.384074074074074,5.7235999999046285],[0.13427083333333342,-0.384074074074074,5.735599999904629]]","[0.00029999971389571556,0.05099999999999483,0.06079999971389327,0.06890000009536124,0.08549999999999613,0.10249999999999915,0.12449999999999761,0.1355000000000004,0.15219999980926247,0.16879999971389736,0.18549999999999756,0.20259999990462774,0.21879999971389452,0.2354999999999947,0.2521999998092639,0.2687999997138917,0.285499999999999,0.30209999990462677,0.31890000009536124,0.33549999999999613,0.3521999998092653,0.3687999997138931,0.3862999997138914,0.40240000009536203,0.41890000009536266,0.43549999999999756,0.4521999998092596,0.4687999997138945,0.4859999999999971,0.5026999998092592,0.5187999997138917,0.5354000000953647,0.5522999997138953,0.5687999997138959,0.5854999999999961,0.6060999999046288,0.622799999713898,0.6389000000953615,0.6554999999999964,0.6692999997138926,0.6954000000953613,0.7059000000953617,0.7190999999046284,0.739699999809261,0.7552999997138983,0.7690999999046326,0.7857999997138947,0.8070999999046293,0.8196999998092593,0.8359000000953642,0.8521999998092653,0.8690999999046269,0.8856999998092618,0.9026999998092649,0.9187999997138974,0.9354000000953633,0.9521999998092596,0.9687999997138945,0.9854999999999947,1.0060000000000002,1.0215999999046304,1.0379999999999967,1.0574999999999974,1.0689000000953612,1.0854999999999961,1.1049000000953626,1.118799999713893,1.1355000000000004,1.1520999999046282,1.1687999997138974,1.1854999999999976,1.2021999998092596,1.2187999997138945,1.2354999999999947,1.2521999998092639,1.268900000095364,1.2896999998092653,1.3051999998092612,1.3219999999999956,1.3369999999999962,1.352099999904631,1.3699000000953632,1.388699999809262,1.406799999713897,1.4229000000953675,1.4384000000953634,1.4520999999046325,1.4687999997138945,1.486699999809261,1.5054000000953636,1.5190999999046326,1.5354000000953647,1.552199999809261,1.568799999713896,1.5854999999999961,1.6064000000953627,1.622099999904627,1.6365999999046323,1.6521999998092625,1.6687999997138974,1.6904000000953658,1.702299999713894,1.718900000095367,1.7354000000953675,1.7521999998092639,1.7687999997138917,1.7854000000953647,1.8061999998092588,1.8222999997138913,1.8397999997138967,1.8562999997138974,1.8719999999999999,1.8861999998092642,1.9051999998092626,1.9221999998092656,1.9409000000953611,1.956799999713894,1.9735999999046285,1.9902999997138977,2.0020999999046296,2.0187999997138917,2.035499999999999,2.055499999999995,2.073299999713896,2.0899999999999963,2.1067999997138926,2.1225999999046294,2.13909999990463,2.156799999713897,2.182299999713898,2.189799999713898,2.2032999997138916,2.2227999997138923,2.2409999999999997,2.252199999809264,2.268900000095364,2.288799999713895,2.3022999997138953,2.3189000000953612,2.335799999713892,2.3522999997138925,2.3689999999999998,2.385400000095366,2.403400000095367,2.4187999997138974,2.4354000000953633,2.4520999999046325,2.4690999999046284,2.4854000000953675,2.5057999997138936,2.5220999999046327,2.5390999999046286,2.5559999999999974,2.5724000000953637,2.58919999980926,2.6147999997138953,2.6226999998092637,2.6355000000000004,2.6555999999046307,2.674599999904629,2.687900000095361,2.7021999998092596,2.7187999997138945,2.7354999999999947,2.7556999998092593,2.7687999997138917,2.785499999999999,2.805799999713898,2.822499999999998,2.8394000000953667,2.8554999999999993,2.8735,2.8902999997138963,2.9077999997138946,2.9187999997138974,2.9354999999999976,2.9520999999046325,2.9687999997138945,2.9854999999999947,3.0024000000953635,3.0190999999046326,3.035599999904626,3.0546999998092588,3.0707999997138913,3.0949000000953646,3.1044999999999945,3.118799999713893,3.1355000000000004,3.152099999904628,3.168699999809263,3.1854000000953633,3.2021999998092596,3.218900000095367,3.2354000000953675,3.2520999999046296,3.2687999997138917,3.2854000000953647,3.3049000000953654,3.318799999713896,3.335400000095362,3.352099999904631,3.368799999713893,3.385400000095366,3.4021999998092625,3.418699999809263,3.4354000000953633,3.4520999999046325,3.473400000095367,3.4899000000953677,3.502199999809264,3.5187999997138917,3.535499999999999,3.552499999999995,3.5689000000953612,3.585400000095362,3.602099999904631,3.618799999713893,3.6359999999999957,3.651999999999994,3.6735999999046314,3.6884999999999977,3.7021999998092596,3.720099999904633,3.738900000095363,3.754799999713896,3.7686999998092645,3.7854000000953647,3.8055999999046293,3.8197999997138936,3.8359999999999985,3.8519999999999968,3.868799999713893,3.8855000000000004,3.9021999998092625,3.924199999809261,3.9399000000953635,3.9559000000953617,3.9754000000953624,3.985599999904629,4.002299999713898,4.018999999999998,4.0397999997138925,4.054799999713893,4.069599999904632,4.088999999999999,4.105699999809261,4.121599999904632,4.14119999980926,4.155599999904631,4.172099999904631,4.188499999999998,4.208099999904633,4.218900000095367,4.235599999904629,4.252599999904632,4.272999999999996,4.288400000095365,4.305199999809261,4.323499999999996,4.3396999998092625,4.354799999713897,4.369699999809264,4.397499999999994,4.40469999980926,4.418799999713897,4.435599999904632,4.45219999980926,4.472199999809263,4.4857999997138975,4.503,4.522900000095362,4.539099999904629,4.555599999904629,4.573099999904628,4.588699999809265,4.606199999809263,4.6229999999999976,4.638400000095366,4.653499999999994,4.669799999713895,4.685400000095363,4.70219999980926,4.7187999997138945,4.735499999999995,4.75209999990463,4.7686999998092645,4.785400000095365,4.802199999809261,4.820699999809264,4.838699999809265,4.863400000095368,4.871099999904629,4.8855,4.905299999713897,4.9195999999046265,4.936299999713896,4.956499999999998,4.985499999999995,5.006099999904627,5.016900000095362,5.020799999713894,5.035400000095365,5.052499999999995,5.069199999809264,5.085900000095364,5.102599999904626,5.118799999713893,5.135699999809262,5.1521999998092625,5.171599999904629,5.185699999809259,5.204199999809262,5.221999999999994,5.238599999904629,5.252599999904632,5.2686999998092645,5.288499999999999,5.302299999713895,5.323400000095361,5.338900000095364,5.352699999809261,5.368799999713893,5.385400000095366,5.402400000095362,5.422299999713893,5.438900000095366,5.452299999713894,5.4687999997138945,5.486900000095368,5.50209999990463,5.518900000095364,5.535499999999999,5.552199999809261,5.571699999809262,5.585699999809265,5.602900000095367,5.622099999904627,5.63819999980926,5.6521999998092625,5.668699999809263,5.685699999809259,5.702400000095366,5.7235999999046285,5.735599999904629]","[1732007073148,1732007073189,1732007073199,1732007073207,1732007073223,1732007073240,1732007073262,1732007073273,1732007073290,1732007073307,1732007073323,1732007073340,1732007073357,1732007073373,1732007073390,1732007073407,1732007073423,1732007073440,1732007073457,1732007073473,1732007073490,1732007073507,1732007073524,1732007073540,1732007073557,1732007073573,1732007073590,1732007073607,1732007073624,1732007073640,1732007073657,1732007073673,1732007073690,1732007073707,1732007073723,1732007073744,1732007073760,1732007073777,1732007073793,1732007073807,1732007073833,1732007073844,1732007073857,1732007073877,1732007073893,1732007073907,1732007073923,1732007073945,1732007073957,1732007073974,1732007073990,1732007074007,1732007074023,1732007074040,1732007074057,1732007074073,1732007074090,1732007074107,1732007074123,1732007074144,1732007074159,1732007074176,1732007074195,1732007074207,1732007074223,1732007074243,1732007074257,1732007074273,1732007074290,1732007074306,1732007074323,1732007074340,1732007074357,1732007074373,1732007074390,1732007074407,1732007074427,1732007074443,1732007074460,1732007074475,1732007074490,1732007074508,1732007074526,1732007074544,1732007074561,1732007074576,1732007074590,1732007074607,1732007074624,1732007074643,1732007074657,1732007074673,1732007074690,1732007074707,1732007074723,1732007074744,1732007074760,1732007074774,1732007074790,1732007074806,1732007074828,1732007074840,1732007074857,1732007074873,1732007074890,1732007074906,1732007074923,1732007074944,1732007074960,1732007074977,1732007074994,1732007075010,1732007075024,1732007075043,1732007075060,1732007075079,1732007075095,1732007075112,1732007075129,1732007075141,1732007075157,1732007075174,1732007075194,1732007075212,1732007075229,1732007075245,1732007075261,1732007075278,1732007075295,1732007075321,1732007075328,1732007075342,1732007075361,1732007075379,1732007075391,1732007075407,1732007075427,1732007075441,1732007075457,1732007075474,1732007075491,1732007075507,1732007075524,1732007075542,1732007075557,1732007075574,1732007075591,1732007075608,1732007075624,1732007075644,1732007075661,1732007075678,1732007075694,1732007075711,1732007075728,1732007075753,1732007075761,1732007075774,1732007075794,1732007075813,1732007075826,1732007075841,1732007075857,1732007075874,1732007075894,1732007075907,1732007075924,1732007075944,1732007075961,1732007075978,1732007075994,1732007076012,1732007076029,1732007076046,1732007076057,1732007076074,1732007076091,1732007076107,1732007076124,1732007076141,1732007076158,1732007076174,1732007076193,1732007076209,1732007076233,1732007076243,1732007076257,1732007076274,1732007076291,1732007076307,1732007076324,1732007076341,1732007076357,1732007076374,1732007076391,1732007076407,1732007076424,1732007076443,1732007076457,1732007076474,1732007076491,1732007076507,1732007076524,1732007076541,1732007076557,1732007076574,1732007076591,1732007076612,1732007076628,1732007076641,1732007076657,1732007076674,1732007076691,1732007076707,1732007076724,1732007076741,1732007076757,1732007076774,1732007076790,1732007076812,1732007076827,1732007076841,1732007076859,1732007076877,1732007076893,1732007076907,1732007076924,1732007076944,1732007076958,1732007076974,1732007076991,1732007077007,1732007077024,1732007077041,1732007077063,1732007077078,1732007077094,1732007077114,1732007077124,1732007077141,1732007077157,1732007077178,1732007077193,1732007077208,1732007077227,1732007077244,1732007077260,1732007077280,1732007077294,1732007077311,1732007077327,1732007077347,1732007077357,1732007077374,1732007077391,1732007077411,1732007077427,1732007077444,1732007077462,1732007077478,1732007077493,1732007077508,1732007077536,1732007077543,1732007077557,1732007077574,1732007077591,1732007077611,1732007077624,1732007077641,1732007077661,1732007077677,1732007077694,1732007077712,1732007077727,1732007077745,1732007077761,1732007077777,1732007077792,1732007077808,1732007077824,1732007077841,1732007077857,1732007077874,1732007077891,1732007077907,1732007077924,1732007077941,1732007077959,1732007077977,1732007078002,1732007078010,1732007078024,1732007078044,1732007078058,1732007078075,1732007078095,1732007078124,1732007078145,1732007078155,1732007078159,1732007078174,1732007078191,1732007078208,1732007078224,1732007078241,1732007078257,1732007078274,1732007078291,1732007078310,1732007078324,1732007078343,1732007078360,1732007078377,1732007078391,1732007078407,1732007078427,1732007078441,1732007078462,1732007078477,1732007078491,1732007078507,1732007078524,1732007078541,1732007078561,1732007078577,1732007078591,1732007078607,1732007078625,1732007078641,1732007078657,1732007078674,1732007078691,1732007078710,1732007078724,1732007078741,1732007078761,1732007078777,1732007078791,1732007078807,1732007078824,1732007078841,1732007078862,1732007078874]","[[867.6,434],[867.6,434],[849.9,437.9],[849.9,437.9],[848.5,426],[848.5,426],[861.9,428.6],[861.9,428.6],[878.5,433.6],[874.5,449.7],[874.9,467.9],[918.5,461.7],[935.3,458],[944.9,458.8],[963.9,459.1],[1002.2,466],[1011.6,477.1],[1020.1,475.8],[1026.5,479.7],[1044.4,468.6],[1023.9,460.5],[988.1,477.1],[977.6,482.5],[977.6,482.5],[967.9,487],[927,489.5],[882.6,493.3],[853.3,502],[833.2,511],[812,512.4],[790.8,513.8],[794.7,508.9],[796.2,479.7],[799.2,459.2],[801.4,439.6],[817.8,424.5],[821,399.6],[824.2,374.7],[825.2,359.6],[826.2,344.5],[782.4,330],[782.4,330],[804.5,345],[840.7,380.2],[868.6,399],[889.9,436.9],[923.2,460.4],[978.9,478.5],[978.9,478.5],[1012.3,544.7],[1039.8,578.4],[1064.6,604.5],[1150.3,639.2],[1179,645.6],[1188.9,650.6],[1199.1,682.3],[1221.3,686.1],[1148.6,730],[1068.4,796.6],[1003,838],[927.2,891.2],[863.3,959.5],[765.4,1025.7],[765.4,1025.7],[667.5,1091.9],[580.2,1148.7],[492.5,1198.1],[399.4,1256.3],[376.3,1293.5],[355,1321.9],[337.3,1309.2],[328.9,1307.1],[324.4,1282.9],[342.8,1241.7],[350,1216.1],[346.6,1199.9],[358.2,1167.9],[433.5,1128.4],[506.8,1080.9],[564.6,1056.3],[626.3,1049.9],[701.5,1017.5],[746.2,1004.1],[785.9,1000.6],[835.4,995.7],[884.9,990.8],[934.1,1019.6],[919.6,1055.9],[886.9,1075.9],[869.7,1073],[879.6,1071.4],[876,1095.8],[861.8,1122.2],[847.6,1148.6],[843.8,1150.1],[846.1,1138.6],[850.5,1090.9],[854.9,1043.2],[899.1,1026],[943.3,1008.8],[942,988.3],[942,988.3],[945.1,965.2],[945.1,965.2],[997.4,911.2],[1035.1,870.9],[1057.9,834],[1078.6,816.6],[1110.7,783.1],[1142.8,749.6],[1156.3,701.6],[1167.2,669.7],[1193.6,637.3],[1215.6,607.5],[1201.8,599.8],[1202.6,578.4],[1229.2,562.3],[1251.8,539.7],[1268.1,539.4],[1268.1,539.4],[1284.4,539.1],[1305.9,547],[1317.6,546.8],[1334.5,542.7],[1337,532.7],[1354.1,525.1],[1349,560.4],[1324,597.7],[1293.7,626.5],[1249.9,664.5],[1249.9,664.5],[1202,699.7],[1153.4,720.5],[1117.2,733.3],[1117.2,733.3],[1062.1,759.1],[1028.4,785.9],[1028.4,785.9],[978.1,799.4],[941.1,753.2],[902.6,723],[872.3,700.3],[843.3,666.9],[818,635.2],[790.8,614.3],[763.6,593.4],[756.5,566.3],[742.4,544.1],[704.8,535.1],[676.1,542.9],[648.9,534.7],[608,533],[562.2,534.1],[533.7,532.5],[514.9,528.9],[492.9,530.6],[492.9,530.6],[441.2,527.8],[408.4,526.8],[415.7,525.9],[415.7,525.9],[433.6,526.9],[433.6,526.9],[498.6,539.8],[578.8,553.3],[578.8,553.3],[662.6,574.7],[738.1,593],[784.7,612.7],[836.4,614.1],[919.3,624.1],[974,628.9],[1031.9,638.1],[1079.2,645.4],[1079.2,645.4],[1109.2,648.6],[1109.2,648.6],[1140.6,637.6],[1140.6,637.6],[1172,626.6],[1172,626.6],[1182.4,624.7],[1182.4,624.7],[1214.5,620.2],[1242.3,620.4],[1242.3,620.4],[1265.1,616.1],[1265.1,616.1],[1290.4,614.2],[1306.7,607.4],[1325.8,598.5],[1297.5,572],[1271.8,565.9],[1246.1,559.8],[1237,549.9],[1222,530.2],[1222.3,523.1],[1209.7,527.5],[1203.9,532.9],[1198.4,555.7],[1182.8,576.8],[1180.4,598],[1169.6,606.9],[1169.6,606.9],[1180.8,621.1],[1169.2,633.7],[1172.1,661.3],[1162.1,684.6],[1158.1,686.1],[1158.1,686.1],[1154.1,687.6],[1140.5,670.8],[1132.3,653.1],[1128.5,645.1],[1126.8,626.4],[1126.8,626.4],[1103.1,602.4],[1095.2,583.3],[1076.2,563.9],[1058.1,537.1],[1058.1,537.1],[1040.3,526.2],[1022.5,515.3],[1023.5,505.3],[1009.5,491.5],[995.5,477.7],[979.4,474.6],[965.4,462.4],[959.1,475.9],[947.2,483.4],[934.9,500.1],[929.2,511.2],[926.7,513.2],[920.5,515.7],[861.7,537],[881.3,584.4],[874.2,617.9],[859,662.7],[859,662.7],[853.6,676.2],[851.4,692],[842.9,700.6],[850,687.4],[853.9,683.3],[855.4,693.9],[936.6,670.7],[939.4,621.4],[977.2,588.6],[1014.2,539.6],[1037.6,515.3],[1053.5,478.8],[1075.2,447.7],[1075.2,447.7],[1087.3,465.4],[1124.6,471.2],[1164.3,462.3],[1185.3,440.8],[1206.3,419.3],[1221.9,388.5],[1225.1,385.9],[1223.1,360.6],[1225.4,345.2],[1226.6,334.4],[1226.6,334.4],[1232.2,283.8],[1212.6,245.1],[1200.6,228.2],[1191.1,264.9],[1190.7,293.6],[1187.4,329],[1203.3,350.2],[1213.6,347.9],[1244.4,344.8],[1251.9,348.5],[1244.9,353.1],[1237.9,357.7],[1233.4,341.8],[1223.2,318.5],[1202.4,284.8],[1181.6,251.1],[1181.6,251.1],[1192.7,216.2],[1192.7,216.2],[1192.1,199.5],[1157.7,198.3],[1149.6,188.6],[1160.8,193.5],[1172,198.4],[1143,202.3],[1125.7,196.1],[1134.6,207.8],[1134.6,207.8],[1120.1,220.3],[1073.7,234],[1048.7,254.9],[1027.8,258.2],[1005,258.6],[1005,258.6],[961.9,275],[961.9,275],[961.9,275],[917.6,272.1],[920.9,295.3],[936.4,318.7],[978.4,368.9],[1052.2,401],[1099.5,449.5],[1146.8,498],[1168.8,535.1],[1212.8,570.4],[1216,566.3],[1220.4,576.7],[1226.8,580.9],[1227.1,564.3],[1164.7,518.4],[1093.9,489.8],[1047.3,452.2],[1010,412.3],[1010.8,384.6],[969.3,352.9],[988.7,338.4],[1012.1,334.6],[1012.1,334.6],[1016,310.6],[1024.9,301.4],[1045.3,295.2],[1044.2,282.8],[1051.4,264.1],[1053.9,249.2],[1052.8,236.4],[1068.3,224.3],[1063.6,221.5],[1054.4,223.9],[1045.2,226.3],[1049.2,243.6],[1067.5,256.3],[1068.2,259.3],[1073.5,273],[1075,287.5],[1076.5,302],[1076.5,302],[1080.1,320.2],[1088.9,332.6],[1088.9,332.6]]","[-0.132282,0.39684600000000003]","[0.132282,0.39684600000000003]","[0.39684600000000003,0.39684600000000003]","[-0.39684600000000003,0.132282]","[-0.39684600000000003,-0.39684600000000003]","[-0.39684600000000003,-0.132282]","[-0.132282,0.132282]","[0.132282,0.132282]","[0.39684600000000003,0.132282]","[-0.132282,-0.39684600000000003]","[0.132282,-0.39684600000000003]","[0.39684600000000003,-0.39684600000000003]","[-0.132282,-0.132282]","[0.132282,-0.132282]","[0.39684600000000003,-0.132282]",0,0,0,0,1,2,Tablet,15,20,8,3,70,4,3,60,4
