inst1_resp.keys,inst1_resp.rt,calibrationMouse.x,calibrationMouse.y,calibrationMouse.leftButton,calibrationMouse.midButton,calibrationMouse.rightButton,calibrationClick.x,calibrationClick.y,calibrationClick.leftButton,calibrationClick.midButton,calibrationClick.rightButton,trialsc.thisRepN,trialsc.thisTrialN,trialsc.thisN,trialsc.thisIndex,trialsc.ran,calibration_x,calibration_y,participant,session,date,expName,psychopyVersion,OS,frameRate,calibrationClick.clicked_name,ScreenRes_pixels,Camera_pixels,mouse_2.x,mouse_2.y,mouse_2.leftButton,mouse_2.midButton,mouse_2.rightButton,mouse_2.time,mouse_2.clicked_name,mouse.x,mouse.y,mouse.leftButton,mouse.midButton,mouse.rightButton,mouse.time,mouse.clicked_name,Choice,Trial,TrialDuration,MOUSE_GAZE,ET_GAZE,ET_GAZE_x_T,time,unixTime,ET_GAZE_NF,Loc_Bus_label,Loc_Metro_label,Loc_RH_label,Loc_Cost_label,Loc_Travel_label,Loc_Comfort_label,Loc_Bus_cost,Loc_Metro_cost,Loc_RH_cost,Loc_Bus_travel,Loc_Metro_travel,Loc_RH_travel,Loc_Bus_comfort,Loc_Metro_comfort,Loc_RH_comfort,trials.thisRepN,trials.thisTrialN,trials.thisN,trials.thisIndex,trials.ran,Block,Device,RH_cost,RH_travel_time,RH_Comfort,metro_cost,metro_travel_time,metro_Comfort,Bus_cost,Bus_travel_time,Bus_Comfort
space,2.482,-0.382291667,-0.025925926,1,0,0,0.329166667,-0.659259259,1,0,0,0,0,0,14,1,0.33,-0.67,01,001,2024-11-19_14h30.10.738,Attention_exp_legacy,2023.1.0,Win32,60.24096386,,,,,,,,,,,,,,,,,,,,,,,,,,,,,,,,,,,,,,,,,,,,,,,,,,,,,,,,,
,,,,,,,-0.328125,-0.67962963,1,0,0,0,1,1,4,1,-0.33,-0.67,01,001,2024-11-19_14h30.10.738,Attention_exp_legacy,2023.1.0,Win32,60.24096386,calibration_square,,,,,,,,,,,,,,,,,,,,,,,,,,,,,,,,,,,,,,,,,,,,,,,,,,,,,,,,
,,,,,,,-0.330208333,0.664814815,1,0,0,0,2,2,8,1,-0.33,0.67,01,001,2024-11-19_14h30.10.738,Attention_exp_legacy,2023.1.0,Win32,60.24096386,calibration_square,,,,,,,,,,,,,,,,,,,,,,,,,,,,,,,,,,,,,,,,,,,,,,,,,,,,,,,,
,,,,,,,0.333333333,0,1,0,0,0,3,3,16,1,0.33,0,01,001,2024-11-19_14h30.10.738,Attention_exp_legacy,2023.1.0,Win32,60.24096386,calibration_square,,,,,,,,,,,,,,,,,,,,,,,,,,,,,,,,,,,,,,,,,,,,,,,,,,,,,,,,
,,,,,,,-0.323958333,0.335185185,1,0,0,0,4,4,7,1,-0.33,0.33,01,001,2024-11-19_14h30.10.738,Attention_exp_legacy,2023.1.0,Win32,60.24096386,calibration_square,,,,,,,,,,,,,,,,,,,,,,,,,,,,,,,,,,,,,,,,,,,,,,,,,,,,,,,,
,,,,,,,-0.327083333,-0.337037037,1,0,0,0,5,5,5,1,-0.33,-0.33,01,001,2024-11-19_14h30.10.738,Attention_exp_legacy,2023.1.0,Win32,60.24096386,calibration_square,,,,,,,,,,,,,,,,,,,,,,,,,,,,,,,,,,,,,,,,,,,,,,,,,,,,,,,,
,,,,,,,-0.002083333,-0.325925926,1,0,0,0,6,6,10,1,0,-0.33,01,001,2024-11-19_14h30.10.738,Attention_exp_legacy,2023.1.0,Win32,60.24096386,calibration_square,,,,,,,,,,,,,,,,,,,,,,,,,,,,,,,,,,,,,,,,,,,,,,,,,,,,,,,,
,,,,,,,-0.66875,-0.331481481,1,0,0,0,7,7,1,1,-0.67,-0.33,01,001,2024-11-19_14h30.10.738,Attention_exp_legacy,2023.1.0,Win32,60.24096386,calibration_square,,,,,,,,,,,,,,,,,,,,,,,,,,,,,,,,,,,,,,,,,,,,,,,,,,,,,,,,
,,,,,,,-0.002083333,0.662962963,1,0,0,0,8,8,13,1,0,0.67,01,001,2024-11-19_14h30.10.738,Attention_exp_legacy,2023.1.0,Win32,60.24096386,calibration_square,,,,,,,,,,,,,,,,,,,,,,,,,,,,,,,,,,,,,,,,,,,,,,,,,,,,,,,,
,,,,,,,0.669791667,-0.661111111,1,0,0,0,9,9,20,1,0.67,-0.67,01,001,2024-11-19_14h30.10.738,Attention_exp_legacy,2023.1.0,Win32,60.24096386,calibration_square,,,,,,,,,,,,,,,,,,,,,,,,,,,,,,,,,,,,,,,,,,,,,,,,,,,,,,,,
,,,,,,,0.328125,0.677777778,1,0,0,0,10,10,18,1,0.33,0.67,01,001,2024-11-19_14h30.10.738,Attention_exp_legacy,2023.1.0,Win32,60.24096386,calibration_square,,,,,,,,,,,,,,,,,,,,,,,,,,,,,,,,,,,,,,,,,,,,,,,,,,,,,,,,
,,,,,,,-0.665625,0.003703704,1,0,0,0,11,11,2,1,-0.67,0,01,001,2024-11-19_14h30.10.738,Attention_exp_legacy,2023.1.0,Win32,60.24096386,calibration_square,,,,,,,,,,,,,,,,,,,,,,,,,,,,,,,,,,,,,,,,,,,,,,,,,,,,,,,,
,,,,,,,-0.661458333,0.327777778,1,0,0,0,12,12,3,1,-0.67,0.33,01,001,2024-11-19_14h30.10.738,Attention_exp_legacy,2023.1.0,Win32,60.24096386,calibration_square,,,,,,,,,,,,,,,,,,,,,,,,,,,,,,,,,,,,,,,,,,,,,,,,,,,,,,,,
,,,,,,,0.320833333,-0.324074074,1,0,0,0,13,13,15,1,0.33,-0.33,01,001,2024-11-19_14h30.10.738,Attention_exp_legacy,2023.1.0,Win32,60.24096386,calibration_square,,,,,,,,,,,,,,,,,,,,,,,,,,,,,,,,,,,,,,,,,,,,,,,,,,,,,,,,
,,,,,,,-0.004166667,-0.674074074,1,0,0,0,14,14,9,1,0,-0.67,01,001,2024-11-19_14h30.10.738,Attention_exp_legacy,2023.1.0,Win32,60.24096386,calibration_square,,,,,,,,,,,,,,,,,,,,,,,,,,,,,,,,,,,,,,,,,,,,,,,,,,,,,,,,
,,,,,,,0,-0.014814815,1,0,0,0,15,15,11,1,0,0,01,001,2024-11-19_14h30.10.738,Attention_exp_legacy,2023.1.0,Win32,60.24096386,,,,,,,,,,,,,,,,,,,,,,,,,,,,,,,,,,,,,,,,,,,,,,,,,,,,,,,,,
,,,,,,,0.336458333,0.335185185,1,0,0,0,16,16,17,1,0.33,0.33,01,001,2024-11-19_14h30.10.738,Attention_exp_legacy,2023.1.0,Win32,60.24096386,calibration_square,,,,,,,,,,,,,,,,,,,,,,,,,,,,,,,,,,,,,,,,,,,,,,,,,,,,,,,,
,,,,,,,-0.005208333,0.338888889,1,0,0,0,17,17,12,1,0,0.33,01,001,2024-11-19_14h30.10.738,Attention_exp_legacy,2023.1.0,Win32,60.24096386,calibration_square,,,,,,,,,,,,,,,,,,,,,,,,,,,,,,,,,,,,,,,,,,,,,,,,,,,,,,,,
,,,,,,,-0.336458333,-0.001851852,1,0,0,0,18,18,6,1,-0.33,0,01,001,2024-11-19_14h30.10.738,Attention_exp_legacy,2023.1.0,Win32,60.24096386,calibration_square,,,,,,,,,,,,,,,,,,,,,,,,,,,,,,,,,,,,,,,,,,,,,,,,,,,,,,,,
,,,,,,,0.667708333,0.674074074,1,0,0,0,19,19,19,1,0.67,0.67,01,001,2024-11-19_14h30.10.738,Attention_exp_legacy,2023.1.0,Win32,60.24096386,calibration_square,,,,,,,,,,,,,,,,,,,,,,,,,,,,,,,,,,,,,,,,,,,,,,,,,,,,,,,,
,,,,,,,-0.666666667,-0.657407407,1,0,0,0,20,20,0,1,-0.67,-0.67,01,001,2024-11-19_14h30.10.738,Attention_exp_legacy,2023.1.0,Win32,60.24096386,,,,,,,,,,,,,,,,,,,,,,,,,,,,,,,,,,,,,,,,,,,,,,,,,,,,,,,,,
,,,,,,,,,,,,,,,,,,,01,001,2024-11-19_14h30.10.738,Attention_exp_legacy,2023.1.0,Win32,60.24096386,,"[1920,1080]","[640,480]",[-0.07708333333333334],[-0.512962962962963],[1],[0],[0],[7.294499999999999],"[""StartButton""]",[-0.057291666666666664],[0.18518518518518517],[1],[0],[0],[8.450299999713899],"[""Bus_label""]",Bus_label,1,9.4734,"[[-0.0875,-0.29259259259259257],[-0.0875,-0.29259259259259257],[-0.0875,-0.29259259259259257],[-0.0875,-0.29259259259259257],[-0.0875,-0.29259259259259257],[-0.0875,-0.29259259259259257],[-0.0875,-0.29259259259259257],[-0.0875,-0.29259259259259257],[-0.0875,-0.29259259259259257],[-0.0875,-0.29259259259259257],[-0.0875,-0.29259259259259257],[-0.0875,-0.29259259259259257],[-0.0875,-0.29259259259259257],[-0.0875,-0.29259259259259257],[-0.0875,-0.29259259259259257],[-0.0875,-0.29259259259259257],[-0.0875,-0.29259259259259257],[-0.0875,-0.29259259259259257],[-0.0875,-0.29259259259259257],[-0.0875,-0.29259259259259257],[-0.0875,-0.29259259259259257],[-0.0875,-0.29259259259259257],[-0.0875,-0.29259259259259257],[-0.0875,-0.29259259259259257],[-0.0875,-0.29259259259259257],[-0.0875,-0.29259259259259257],[-0.0875,-0.29259259259259257],[-0.0875,-0.29259259259259257],[-0.0875,-0.29259259259259257],[-0.0875,-0.29259259259259257],[-0.0875,-0.29259259259259257],[-0.0875,-0.29259259259259257],[-0.0875,-0.29259259259259257],[-0.0875,-0.29259259259259257],[-0.0875,-0.29259259259259257],[-0.0875,-0.29259259259259257],[-0.0875,-0.29259259259259257],[-0.0875,-0.29259259259259257],[-0.0875,-0.29259259259259257],[-0.0875,-0.29259259259259257],[-0.0875,-0.29259259259259257],[-0.0875,-0.29259259259259257],[-0.0875,-0.29259259259259257],[-0.0875,-0.29259259259259257],[-0.0875,-0.29259259259259257],[-0.0875,-0.29259259259259257],[-0.0875,-0.29259259259259257],[-0.0875,-0.29259259259259257],[-0.0875,-0.29259259259259257],[-0.0875,-0.29259259259259257],[-0.0875,-0.29259259259259257],[-0.0875,-0.29259259259259257],[-0.0875,-0.29259259259259257],[-0.0875,-0.29259259259259257],[-0.0875,-0.29259259259259257],[-0.0875,-0.29259259259259257],[-0.0875,-0.29259259259259257],[-0.0875,-0.29259259259259257],[-0.0875,-0.29259259259259257],[-0.0875,-0.29259259259259257],[-0.0875,-0.29259259259259257],[-0.0875,-0.29259259259259257],[-0.0875,-0.29259259259259257],[-0.0875,-0.29259259259259257],[-0.0875,-0.29259259259259257],[-0.0875,-0.29259259259259257],[-0.0875,-0.29259259259259257],[-0.0875,-0.29259259259259257],[-0.0875,-0.29259259259259257],[-0.0875,-0.29259259259259257],[-0.0875,-0.29259259259259257],[-0.0875,-0.29259259259259257],[-0.0875,-0.29259259259259257],[-0.0875,-0.29259259259259257],[-0.0875,-0.29259259259259257],[-0.0875,-0.29259259259259257],[-0.0875,-0.29259259259259257],[-0.0875,-0.29259259259259257],[-0.0875,-0.29259259259259257],[-0.0875,-0.29259259259259257],[-0.0875,-0.29259259259259257],[-0.0875,-0.29259259259259257],[-0.0875,-0.29259259259259257],[-0.0875,-0.29259259259259257],[-0.0875,-0.29259259259259257],[-0.0875,-0.29259259259259257],[-0.0875,-0.29259259259259257],[-0.0875,-0.29259259259259257],[-0.0875,-0.29259259259259257],[-0.0875,-0.29259259259259257],[-0.0875,-0.29259259259259257],[-0.0875,-0.29259259259259257],[-0.0875,-0.29259259259259257],[-0.0875,-0.29259259259259257],[-0.0875,-0.29259259259259257],[-0.0875,-0.29259259259259257],[-0.0875,-0.29259259259259257],[-0.0875,-0.29259259259259257],[-0.0875,-0.29259259259259257],[-0.0875,-0.29259259259259257],[-0.0875,-0.29259259259259257],[-0.0875,-0.29259259259259257],[-0.0875,-0.29259259259259257],[-0.0875,-0.29259259259259257],[-0.0875,-0.29259259259259257],[-0.0875,-0.29259259259259257],[-0.0875,-0.29259259259259257],[-0.0875,-0.29259259259259257],[-0.0875,-0.29259259259259257],[-0.0875,-0.29259259259259257],[-0.0875,-0.29259259259259257],[-0.0875,-0.29259259259259257],[-0.0875,-0.29259259259259257],[-0.0875,-0.29259259259259257],[-0.0875,-0.29259259259259257],[-0.0875,-0.29259259259259257],[-0.0875,-0.29259259259259257],[-0.0875,-0.29259259259259257],[-0.0875,-0.29259259259259257],[-0.0875,-0.29259259259259257],[-0.0875,-0.29259259259259257],[-0.0875,-0.29259259259259257],[-0.0875,-0.29259259259259257],[-0.0875,-0.29259259259259257],[-0.0875,-0.29259259259259257],[-0.0875,-0.29259259259259257],[-0.0875,-0.29259259259259257],[-0.0875,-0.29259259259259257],[-0.0875,-0.29259259259259257],[-0.0875,-0.29259259259259257],[-0.0875,-0.29259259259259257],[-0.0875,-0.29259259259259257],[-0.0875,-0.29259259259259257],[-0.0875,-0.29259259259259257],[-0.0875,-0.29259259259259257],[-0.0875,-0.29259259259259257],[-0.0875,-0.29259259259259257],[-0.0875,-0.29259259259259257],[-0.0875,-0.29259259259259257],[-0.0875,-0.29259259259259257],[-0.0875,-0.29259259259259257],[-0.0875,-0.29259259259259257],[-0.0875,-0.29259259259259257],[-0.0875,-0.29259259259259257],[-0.0875,-0.29259259259259257],[-0.0875,-0.29259259259259257],[-0.0875,-0.29259259259259257],[-0.0875,-0.29259259259259257],[-0.0875,-0.29259259259259257],[-0.0875,-0.29259259259259257],[-0.0875,-0.29259259259259257],[-0.0875,-0.29259259259259257],[-0.0875,-0.29259259259259257],[-0.0875,-0.29259259259259257],[-0.0875,-0.29259259259259257],[-0.0875,-0.29259259259259257],[-0.0875,-0.29259259259259257],[-0.0875,-0.29259259259259257],[-0.0875,-0.29259259259259257],[-0.0875,-0.29259259259259257],[-0.0875,-0.29259259259259257],[-0.0875,-0.29259259259259257],[-0.0875,-0.29259259259259257],[-0.0875,-0.29259259259259257],[-0.08333333333333333,-0.28888888888888886],[-0.08125,-0.28703703703703703],[-0.08020833333333334,-0.2833333333333333],[-0.08020833333333334,-0.2833333333333333],[-0.08020833333333334,-0.2796296296296296],[-0.07916666666666666,-0.2759259259259259],[-0.078125,-0.2740740740740741],[-0.07708333333333334,-0.2722222222222222],[-0.07395833333333333,-0.26296296296296295],[-0.07291666666666667,-0.26296296296296295],[-0.071875,-0.25925925925925924],[-0.07083333333333333,-0.25555555555555554],[-0.06979166666666667,-0.2518518518518518],[-0.06979166666666667,-0.25],[-0.06875,-0.24814814814814815],[-0.06875,-0.24814814814814815],[-0.06875,-0.24444444444444444],[-0.06770833333333333,-0.24074074074074073],[-0.06666666666666667,-0.2388888888888889],[-0.065625,-0.2388888888888889],[-0.065625,-0.2388888888888889],[-0.065625,-0.23703703703703705],[-0.065625,-0.2351851851851852],[-0.06458333333333334,-0.23333333333333334],[-0.06458333333333334,-0.23333333333333334],[-0.06458333333333334,-0.23148148148148148],[-0.06458333333333334,-0.23148148148148148],[-0.06458333333333334,-0.23148148148148148],[-0.06458333333333334,-0.23148148148148148],[-0.06354166666666666,-0.22962962962962963],[-0.06354166666666666,-0.22962962962962963],[-0.06354166666666666,-0.22962962962962963],[-0.06354166666666666,-0.22962962962962963],[-0.06354166666666666,-0.22777777777777777],[-0.0625,-0.22777777777777777],[-0.0625,-0.22777777777777777],[-0.0625,-0.22777777777777777],[-0.06145833333333333,-0.22777777777777777],[-0.06145833333333333,-0.22592592592592592],[-0.06145833333333333,-0.22592592592592592],[-0.06145833333333333,-0.22592592592592592],[-0.06041666666666667,-0.22592592592592592],[-0.06041666666666667,-0.22592592592592592],[-0.06041666666666667,-0.22592592592592592],[-0.059375,-0.22592592592592592],[-0.058333333333333334,-0.22592592592592592],[-0.057291666666666664,-0.22592592592592592],[-0.057291666666666664,-0.22592592592592592],[-0.05520833333333333,-0.22592592592592592],[-0.05416666666666667,-0.22592592592592592],[-0.05416666666666667,-0.22592592592592592],[-0.053125,-0.22407407407407406],[-0.052083333333333336,-0.22407407407407406],[-0.052083333333333336,-0.22407407407407406],[-0.051041666666666666,-0.22407407407407406],[-0.04895833333333333,-0.22407407407407406],[-0.046875,-0.2222222222222222],[-0.04583333333333333,-0.2222222222222222],[-0.042708333333333334,-0.2222222222222222],[-0.03958333333333333,-0.22037037037037038],[-0.0375,-0.22037037037037038],[-0.034375,-0.21851851851851853],[-0.03229166666666667,-0.21851851851851853],[-0.029166666666666667,-0.21851851851851853],[-0.026041666666666668,-0.21851851851851853],[-0.023958333333333335,-0.21481481481481482],[-0.01875,-0.21481481481481482],[-0.014583333333333334,-0.21296296296296297],[-0.008333333333333333,-0.20925925925925926],[-0.003125,-0.2074074074074074],[0.00625,-0.20185185185185187],[0.0125,-0.19814814814814816],[0.017708333333333333,-0.1925925925925926],[0.025,-0.18703703703703703],[0.029166666666666667,-0.1814814814814815],[0.034375,-0.17592592592592593],[0.03854166666666667,-0.17037037037037037],[0.04479166666666667,-0.1648148148148148],[0.04895833333333333,-0.15925925925925927],[0.05416666666666667,-0.15185185185185185],[0.059375,-0.14444444444444443],[0.06666666666666667,-0.13518518518518519],[0.07604166666666666,-0.11666666666666667],[0.08125,-0.10740740740740741],[0.08541666666666667,-0.0962962962962963],[0.08958333333333333,-0.08888888888888889],[0.09270833333333334,-0.07962962962962963],[0.09583333333333334,-0.07037037037037037],[0.09791666666666667,-0.06296296296296296],[0.1,-0.053703703703703705],[0.10208333333333333,-0.044444444444444446],[0.10208333333333333,-0.03518518518518519],[0.10520833333333333,-0.022222222222222223],[0.10520833333333333,-0.018518518518518517],[0.10625,-0.005555555555555556],[0.10625,0.001851851851851852],[0.10833333333333334,0.012962962962962963],[0.10833333333333334,0.018518518518518517],[0.10833333333333334,0.024074074074074074],[0.10833333333333334,0.03148148148148148],[0.10833333333333334,0.037037037037037035],[0.10833333333333334,0.040740740740740744],[0.10833333333333334,0.046296296296296294],[0.10833333333333334,0.05],[0.10833333333333334,0.05555555555555555],[0.10833333333333334,0.05925925925925926],[0.10833333333333334,0.06296296296296296],[0.10729166666666666,0.06851851851851852],[0.10729166666666666,0.07037037037037037],[0.10729166666666666,0.07407407407407407],[0.10729166666666666,0.07592592592592592],[0.10625,0.07962962962962963],[0.10520833333333333,0.08148148148148149],[0.10520833333333333,0.08333333333333333],[0.10416666666666667,0.08703703703703704],[0.10416666666666667,0.08888888888888889],[0.10416666666666667,0.09074074074074075],[0.10208333333333333,0.09444444444444444],[0.10208333333333333,0.09814814814814815],[0.10208333333333333,0.1],[0.10104166666666667,0.10185185185185185],[0.10104166666666667,0.1037037037037037],[0.10104166666666667,0.10740740740740741],[0.10104166666666667,0.10925925925925926],[0.1,0.1111111111111111],[0.09895833333333333,0.11296296296296296],[0.09895833333333333,0.11481481481481481],[0.09791666666666667,0.11851851851851852],[0.096875,0.12222222222222222],[0.09583333333333334,0.1259259259259259],[0.09479166666666666,0.1259259259259259],[0.09375,0.13148148148148148],[0.09166666666666666,0.13518518518518519],[0.08958333333333333,0.13703703703703704],[0.08541666666666667,0.14074074074074075],[0.08229166666666667,0.14444444444444443],[0.075,0.15],[0.06458333333333334,0.15555555555555556],[0.0625,0.1574074074074074],[0.05625,0.16296296296296298],[0.04791666666666667,0.1685185185185185],[0.042708333333333334,0.17407407407407408],[0.03958333333333333,0.17407407407407408],[0.03229166666666667,0.17962962962962964],[0.029166666666666667,0.17962962962962964],[0.025,0.1814814814814815],[0.022916666666666665,0.1814814814814815],[0.021875,0.18333333333333332],[0.01875,0.18518518518518517],[0.016666666666666666,0.18518518518518517],[0.014583333333333334,0.18518518518518517],[0.011458333333333333,0.18703703703703703],[0.009375,0.18703703703703703],[0.00625,0.18703703703703703],[0.003125,0.18703703703703703],[0.0020833333333333333,0.18703703703703703],[0,0.18703703703703703],[-0.0010416666666666667,0.18703703703703703],[-0.0020833333333333333,0.18703703703703703],[-0.003125,0.18703703703703703],[-0.004166666666666667,0.18703703703703703],[-0.004166666666666667,0.18703703703703703],[-0.00625,0.18703703703703703],[-0.00625,0.18703703703703703],[-0.007291666666666667,0.18703703703703703],[-0.007291666666666667,0.18703703703703703],[-0.009375,0.18703703703703703],[-0.010416666666666666,0.18703703703703703],[-0.010416666666666666,0.18703703703703703],[-0.011458333333333333,0.18703703703703703],[-0.013541666666666667,0.18703703703703703],[-0.013541666666666667,0.18703703703703703],[-0.015625,0.18703703703703703],[-0.015625,0.18703703703703703],[-0.017708333333333333,0.18703703703703703],[-0.01875,0.18703703703703703],[-0.019791666666666666,0.18703703703703703],[-0.020833333333333332,0.18703703703703703],[-0.022916666666666665,0.18703703703703703],[-0.025,0.18703703703703703],[-0.026041666666666668,0.18703703703703703],[-0.028125,0.18703703703703703],[-0.030208333333333334,0.18703703703703703],[-0.03229166666666667,0.18703703703703703],[-0.034375,0.18703703703703703],[-0.036458333333333336,0.18703703703703703],[-0.03854166666666667,0.18518518518518517],[-0.040625,0.18518518518518517],[-0.041666666666666664,0.18518518518518517],[-0.042708333333333334,0.18518518518518517],[-0.04583333333333333,0.18518518518518517],[-0.046875,0.18518518518518517],[-0.04895833333333333,0.18518518518518517],[-0.051041666666666666,0.18518518518518517],[-0.052083333333333336,0.18518518518518517],[-0.053125,0.18518518518518517],[-0.053125,0.18518518518518517],[-0.05416666666666667,0.18518518518518517],[-0.05625,0.18518518518518517],[-0.05625,0.18518518518518517],[-0.05625,0.18518518518518517],[-0.05625,0.18518518518518517],[-0.05625,0.18518518518518517],[-0.05625,0.18518518518518517],[-0.05625,0.18518518518518517],[-0.05625,0.18518518518518517],[-0.05625,0.18518518518518517],[-0.05625,0.18518518518518517],[-0.05625,0.18518518518518517],[-0.05625,0.18518518518518517],[-0.05625,0.18518518518518517],[-0.05625,0.18518518518518517],[-0.05625,0.18518518518518517],[-0.05625,0.18518518518518517],[-0.05625,0.18518518518518517],[-0.05625,0.18518518518518517],[-0.05625,0.18518518518518517],[-0.05625,0.18518518518518517],[-0.05625,0.18518518518518517],[-0.05625,0.18518518518518517],[-0.05625,0.18518518518518517],[-0.05625,0.18518518518518517],[-0.05625,0.18518518518518517],[-0.05625,0.18518518518518517],[-0.05625,0.18518518518518517],[-0.05625,0.18518518518518517],[-0.05625,0.18518518518518517],[-0.05625,0.18518518518518517],[-0.05625,0.18518518518518517],[-0.05625,0.18518518518518517],[-0.05625,0.18518518518518517],[-0.05625,0.18518518518518517],[-0.05625,0.18518518518518517],[-0.05625,0.18518518518518517],[-0.05625,0.18518518518518517],[-0.05625,0.18518518518518517],[-0.05625,0.18518518518518517],[-0.05625,0.18518518518518517],[-0.05625,0.18518518518518517],[-0.05625,0.18518518518518517],[-0.05625,0.18518518518518517],[-0.05625,0.18518518518518517],[-0.05625,0.18518518518518517],[-0.05625,0.18518518518518517],[-0.05625,0.18518518518518517],[-0.05625,0.18518518518518517],[-0.05625,0.18518518518518517],[-0.05625,0.18518518518518517],[-0.05625,0.18518518518518517],[-0.05625,0.18518518518518517],[-0.05625,0.18518518518518517],[-0.05625,0.18518518518518517],[-0.05625,0.18518518518518517],[-0.05625,0.18518518518518517],[-0.05625,0.18518518518518517],[-0.05625,0.18518518518518517],[-0.05625,0.18518518518518517],[-0.05625,0.18518518518518517],[-0.05625,0.18518518518518517],[-0.05625,0.18518518518518517],[-0.05625,0.18518518518518517],[-0.05625,0.18518518518518517],[-0.05625,0.18518518518518517],[-0.05625,0.18518518518518517],[-0.05625,0.18518518518518517],[-0.05625,0.18518518518518517],[-0.05625,0.18518518518518517],[-0.05625,0.18518518518518517],[-0.05625,0.18518518518518517],[-0.05625,0.18518518518518517],[-0.05625,0.18518518518518517],[-0.05625,0.18518518518518517],[-0.05625,0.18518518518518517],[-0.05625,0.18518518518518517],[-0.05625,0.18518518518518517],[-0.05625,0.18518518518518517],[-0.05625,0.18518518518518517],[-0.05625,0.18518518518518517],[-0.05625,0.18518518518518517],[-0.05625,0.18518518518518517],[-0.05625,0.18518518518518517],[-0.05625,0.18518518518518517],[-0.05625,0.18518518518518517],[-0.05625,0.18518518518518517],[-0.05625,0.18518518518518517],[-0.05625,0.18518518518518517],[-0.05625,0.18518518518518517],[-0.057291666666666664,0.18518518518518517],[-0.057291666666666664,0.18518518518518517],[-0.057291666666666664,0.18518518518518517],[-0.057291666666666664,0.18518518518518517],[-0.057291666666666664,0.18518518518518517],[-0.057291666666666664,0.18518518518518517],[-0.057291666666666664,0.18518518518518517],[-0.057291666666666664,0.18518518518518517],[-0.057291666666666664,0.18518518518518517],[-0.057291666666666664,0.18518518518518517],[-0.057291666666666664,0.18518518518518517],[-0.057291666666666664,0.18518518518518517],[-0.057291666666666664,0.18518518518518517],[-0.057291666666666664,0.18518518518518517],[-0.057291666666666664,0.18518518518518517],[-0.057291666666666664,0.18518518518518517],[-0.057291666666666664,0.18518518518518517],[-0.057291666666666664,0.18518518518518517],[-0.057291666666666664,0.18518518518518517],[-0.057291666666666664,0.18518518518518517],[-0.057291666666666664,0.18518518518518517],[-0.057291666666666664,0.18518518518518517],[-0.057291666666666664,0.18518518518518517],[-0.057291666666666664,0.18518518518518517],[-0.057291666666666664,0.18518518518518517],[-0.057291666666666664,0.18518518518518517],[-0.057291666666666664,0.18518518518518517],[-0.057291666666666664,0.18518518518518517],[-0.057291666666666664,0.18518518518518517],[-0.057291666666666664,0.18518518518518517],[-0.057291666666666664,0.18518518518518517],[-0.057291666666666664,0.18518518518518517],[-0.057291666666666664,0.18518518518518517],[-0.057291666666666664,0.18518518518518517],[-0.057291666666666664,0.18518518518518517],[-0.057291666666666664,0.18518518518518517],[-0.057291666666666664,0.18518518518518517],[-0.057291666666666664,0.18518518518518517],[-0.057291666666666664,0.18518518518518517],[-0.057291666666666664,0.18518518518518517],[-0.057291666666666664,0.18518518518518517],[-0.057291666666666664,0.18518518518518517],[-0.057291666666666664,0.18518518518518517],[-0.057291666666666664,0.18518518518518517],[-0.057291666666666664,0.18518518518518517],[-0.057291666666666664,0.18518518518518517],[-0.057291666666666664,0.18518518518518517],[-0.057291666666666664,0.18518518518518517],[-0.057291666666666664,0.18518518518518517],[-0.057291666666666664,0.18518518518518517],[-0.057291666666666664,0.18518518518518517],[-0.057291666666666664,0.18518518518518517],[-0.057291666666666664,0.18518518518518517],[-0.057291666666666664,0.18518518518518517],[-0.057291666666666664,0.18518518518518517],[-0.057291666666666664,0.18518518518518517],[-0.057291666666666664,0.18518518518518517],[-0.057291666666666664,0.18518518518518517],[-0.057291666666666664,0.18518518518518517],[-0.057291666666666664,0.18518518518518517],[-0.057291666666666664,0.18518518518518517],[-0.057291666666666664,0.18518518518518517],[-0.057291666666666664,0.18518518518518517],[-0.057291666666666664,0.18518518518518517],[-0.057291666666666664,0.18518518518518517],[-0.057291666666666664,0.18518518518518517],[-0.057291666666666664,0.18518518518518517],[-0.057291666666666664,0.18518518518518517],[-0.057291666666666664,0.18518518518518517],[-0.057291666666666664,0.18518518518518517],[-0.057291666666666664,0.18518518518518517],[-0.057291666666666664,0.18518518518518517],[-0.057291666666666664,0.18518518518518517],[-0.057291666666666664,0.18518518518518517],[-0.057291666666666664,0.18518518518518517],[-0.057291666666666664,0.18518518518518517],[-0.057291666666666664,0.18518518518518517],[-0.057291666666666664,0.18518518518518517],[-0.057291666666666664,0.18518518518518517],[-0.057291666666666664,0.18518518518518517],[-0.057291666666666664,0.18518518518518517],[-0.057291666666666664,0.18518518518518517],[-0.057291666666666664,0.18518518518518517],[-0.057291666666666664,0.18518518518518517],[-0.057291666666666664,0.18518518518518517],[-0.057291666666666664,0.18518518518518517],[-0.057291666666666664,0.18518518518518517],[-0.057291666666666664,0.18518518518518517],[-0.057291666666666664,0.18518518518518517],[-0.057291666666666664,0.18518518518518517],[-0.057291666666666664,0.18518518518518517],[-0.057291666666666664,0.18518518518518517],[-0.057291666666666664,0.18518518518518517],[-0.057291666666666664,0.18518518518518517],[-0.057291666666666664,0.18518518518518517],[-0.057291666666666664,0.18518518518518517],[-0.057291666666666664,0.18518518518518517],[-0.057291666666666664,0.18518518518518517],[-0.057291666666666664,0.18518518518518517],[-0.057291666666666664,0.18518518518518517],[-0.057291666666666664,0.18518518518518517],[-0.057291666666666664,0.18518518518518517],[-0.057291666666666664,0.18518518518518517],[-0.057291666666666664,0.18518518518518517],[-0.057291666666666664,0.18518518518518517],[-0.057291666666666664,0.18518518518518517],[-0.057291666666666664,0.18518518518518517],[-0.057291666666666664,0.18518518518518517],[-0.057291666666666664,0.18518518518518517],[-0.057291666666666664,0.18518518518518517],[-0.057291666666666664,0.18518518518518517],[-0.057291666666666664,0.18518518518518517],[-0.057291666666666664,0.18518518518518517],[-0.057291666666666664,0.18518518518518517],[-0.057291666666666664,0.18518518518518517],[-0.057291666666666664,0.18518518518518517]]","[[-0.21812499999999999,0.252962962962963],[-0.21812499999999999,0.252962962962963],[-0.18687499999999999,0.2522222222222223],[-0.18687499999999999,0.2522222222222223],[-0.1594791666666667,0.24981481481481477],[-0.1594791666666667,0.24981481481481477],[-0.17437499999999997,0.24888888888888885],[-0.17437499999999997,0.24888888888888885],[-0.1376041666666667,0.2572222222222222],[-0.1376041666666667,0.2572222222222222],[-0.12166666666666662,0.23333333333333334],[-0.10874999999999997,0.2294444444444444],[-0.10874999999999997,0.2294444444444444],[-0.10697916666666671,0.2270370370370371],[-0.08072916666666667,0.2361111111111111],[-0.07406250000000002,0.24740740740740744],[-0.07239583333333334,0.2418518518518519],[-0.05322916666666669,0.2511111111111112],[-0.03864583333333336,0.26722222222222214],[-0.004479166666666619,0.2698148148148149],[-0.024062500000000025,0.25],[-0.03302083333333338,0.2603703703703704],[-0.05552083333333328,0.2492592592592593],[-0.05562499999999997,0.23555555555555563],[-0.07270833333333329,0.21351851851851844],[-0.08979166666666671,0.19148148148148145],[-0.08541666666666667,0.19611111111111107],[-0.08104166666666662,0.2007407407407407],[-0.07322916666666662,0.1868518518518518],[-0.06541666666666662,0.17296296296296293],[-0.05135416666666662,0.17240740740740745],[-0.03729166666666662,0.17185185185185176],[-0.01864583333333331,0.16611111111111118],[0,0.1603703703703704],[0.01416666666666669,0.14518518518518514],[0.02833333333333338,0.1300000000000001],[0.02833333333333338,0.1300000000000001],[0.0328125,0.11555555555555551],[0.0328125,0.11555555555555551],[0.016770833333333356,0.10240740740740732],[0.016770833333333356,0.10240740740740732],[-0.008854166666666666,0.1111111111111111],[-0.02687499999999995,0.10777777777777786],[-0.04906250000000002,0.10425925925925918],[-0.036562500000000026,0.09722222222222222],[-0.019583333333333286,0.09574074074074082],[-0.00635416666666669,0.08833333333333342],[0.003854166666666714,0.08722222222222227],[-0.024791666666666618,0.1198148148148149],[-0.02635416666666662,0.12296296296296293],[-0.02947916666666662,0.125],[-0.018020833333333285,0.11851851851851852],[0.000416666666666643,0.1242592592592593],[0.017916666666666713,0.12981481481481486],[-0.017083333333333308,0.1361111111111111],[-0.052083333333333336,0.14240740740740737],[-0.11124999999999995,0.15777777777777785],[-0.11124999999999995,0.15777777777777785],[-0.13624999999999995,0.18000000000000008],[-0.14375,0.17092592592592584],[-0.19718749999999996,0.18518518518518517],[-0.22854166666666664,0.1992592592592593],[-0.26145833333333335,0.22111111111111106],[-0.30895833333333333,0.24277777777777781],[-0.33479166666666665,0.25092592592592594],[-0.3428125,0.26185185185185184],[-0.33218749999999997,0.2905555555555555],[-0.2835416666666667,0.3227777777777777],[-0.2716666666666666,0.31925925925925924],[-0.23843749999999997,0.3133333333333334],[-0.1814583333333334,0.2975925925925927],[-0.12447916666666667,0.2818518518518519],[-0.05625,0.2646296296296296],[0.012083333333333357,0.23796296296296296],[0.06447916666666664,0.2024074074074073],[0.11687500000000005,0.1668518518518519],[0.1476041666666667,0.12129629629629629],[0.16333333333333327,0.10055555555555547],[0.17645833333333344,0.10240740740740732],[0.18958333333333333,0.10425925925925918],[0.18093750000000006,0.09407407407407399],[0.17229166666666676,0.0838888888888888],[0.17229166666666676,0.0838888888888888],[0.18864583333333323,0.06296296296296296],[0.18260416666666662,0.06722222222222214],[0.17177083333333343,0.09407407407407399],[0.1490624999999999,0.11555555555555551],[0.12916666666666668,0.1257407407407407],[0.10416666666666667,0.105925925925926],[0.084375,0.09240740740740737],[0.08781249999999995,0.08481481481481473],[0.0865624999999999,0.10981481481481473],[0.10104166666666667,0.12462962962962955],[0.06604166666666664,0.15018518518518523],[0.071875,0.14833333333333337],[0.07770833333333324,0.14648148148148152],[0.09302083333333329,0.1609259259259259],[0.09302083333333329,0.1609259259259259],[0.10854166666666672,0.17888888888888893],[0.10854166666666672,0.17888888888888893],[0.12364583333333339,0.17037037037037037],[0.15927083333333342,0.16999999999999993],[0.15364583333333334,0.17685185185185184],[0.16281249999999994,0.1685185185185185],[0.15093750000000009,0.16666666666666666],[0.1538541666666667,0.15851851851851856],[0.1556250000000001,0.14333333333333328],[0.1556250000000001,0.14333333333333328],[0.1584374999999999,0.12833333333333324],[0.15052083333333333,0.12462962962962955],[0.1328125,0.1294444444444444],[0.12552083333333333,0.15925925925925927],[0.1118750000000001,0.17314814814814813],[0.11624999999999991,0.17388888888888884],[0.12802083333333342,0.1868518518518518],[0.14510416666666662,0.2035185185185185],[0.14947916666666666,0.21351851851851844],[0.13708333333333325,0.23777777777777773],[0.1310416666666666,0.24166666666666667],[0.14520833333333344,0.22537037037037044],[0.14520833333333344,0.22537037037037044],[0.15906250000000005,0.20888888888888882],[0.15906250000000005,0.20888888888888882],[0.17072916666666677,0.18851851851851845],[0.17072916666666677,0.18851851851851845],[0.16447916666666676,0.18518518518518517],[0.16447916666666676,0.18518518518518517],[0.1546875,0.17111111111111107],[0.1546875,0.17111111111111107],[0.14406249999999995,0.14425925925925923],[0.14406249999999995,0.14425925925925923],[0.13770833333333338,0.13796296296296295],[0.13770833333333338,0.13796296296296295],[0.13479166666666675,0.11388888888888889],[0.13291666666666657,0.10351851851851848],[0.12364583333333339,0.11333333333333341],[0.10302083333333342,0.12388888888888884],[0.09249999999999996,0.12611111111111115],[0.09291666666666672,0.12074074074074083],[0.09708333333333338,0.10611111111111103],[0.10843749999999991,0.11425925925925934],[0.11322916666666671,0.12296296296296293],[0.1015625,0.08740740740740749],[0.09916666666666671,0.07629629629629638],[0.12145833333333324,0.060370370370370414],[0.11510416666666666,0.03740740740740749],[0.12395833333333334,0.03814814814814819],[0.12395833333333334,0.03814814814814819],[0.1328125,0.03888888888888889],[0.1326041666666666,0.059999999999999956],[0.13489583333333333,0.09037037037037028],[0.12822916666666656,0.11777777777777781],[0.11666666666666667,0.1544444444444444],[0.11729166666666657,0.21481481481481482],[0.1009375000000001,0.26481481481481484],[0.08250000000000005,0.3],[0.08250000000000005,0.3],[0.06937499999999991,0.3479629629629629],[0.05302083333333331,0.38499999999999995],[0.05302083333333331,0.38499999999999995],[0.04072916666666669,0.41574074074074074],[0.020833333333333332,0.4377777777777777],[-0.003854166666666714,0.4696296296296297],[-0.02322916666666662,0.49240740740740735],[-0.03208333333333328,0.4977777777777777],[-0.02374999999999995,0.4759259259259259],[-0.0016666666666666904,0.47388888888888886],[-0.003854166666666714,0.48222222222222216],[-0.003854166666666714,0.48222222222222216],[0.02822916666666669,0.4762962962962964],[0.03937499999999995,0.44537037037037036],[0.04645833333333336,0.4207407407407408],[0.08114583333333343,0.39518518518518514],[0.11812500000000009,0.35055555555555545],[0.15135416666666662,0.30537037037037035],[0.14739583333333334,0.2735185185185186],[0.13697916666666668,0.30537037037037035],[0.14833333333333343,0.30537037037037035],[0.12468750000000005,0.2766666666666666],[0.09010416666666667,0.2564814814814815],[0.07989583333333337,0.25314814814814823],[0.0696875000000001,0.24981481481481477],[0.04375,0.247037037037037],[0.00947916666666669,0.23185185185185195],[-0.028645833333333332,0.22370370370370363],[-0.035208333333333286,0.2103703703703704],[-0.035208333333333286,0.2103703703703704],[-0.059791666666666646,0.17333333333333337],[-0.05437500000000005,0.15648148148148147],[-0.01395833333333331,0.16833333333333328],[-0.016770833333333356,0.19370370370370374],[-0.030729166666666665,0.2116666666666666],[-0.05447916666666662,0.20833333333333334],[-0.08218749999999998,0.2051851851851851],[-0.10322916666666669,0.2037037037037037],[-0.11666666666666667,0.19574074074074083],[-0.13395833333333335,0.18907407407407412],[-0.14395833333333338,0.16962962962962966],[-0.1742708333333333,0.17814814814814822],[-0.2045833333333333,0.1866666666666666],[-0.20385416666666673,0.15981481481481474],[-0.20385416666666673,0.15981481481481474],[-0.2123958333333333,0.1449999999999999],[-0.20281250000000003,0.17314814814814813],[-0.17479166666666662,0.18925925925925935],[-0.14510416666666662,0.2161111111111112],[-0.1125,0.23425925925925925],[-0.07604166666666666,0.2511111111111112],[-0.06739583333333338,0.26648148148148143],[-0.08770833333333337,0.2485185185185186],[-0.08770833333333337,0.2485185185185186],[-0.10395833333333329,0.27518518518518525],[-0.10395833333333329,0.27518518518518525],[-0.10979166666666665,0.2890740740740741],[-0.10979166666666665,0.2890740740740741],[-0.10354166666666664,0.2727777777777777],[-0.10354166666666664,0.2727777777777777],[-0.11187499999999997,0.26740740740740737],[-0.1319791666666667,0.2740740740740741],[-0.1319791666666667,0.2740740740740741],[-0.15208333333333332,0.2807407407407408],[-0.15208333333333332,0.2807407407407408],[-0.15427083333333336,0.2857407407407407],[-0.19333333333333336,0.30685185185185193],[-0.18791666666666665,0.3172222222222221],[-0.18177083333333333,0.3351851851851852],[-0.14291666666666672,0.30537037037037035],[-0.10229166666666671,0.3101851851851852],[-0.07770833333333335,0.31925925925925924],[-0.07322916666666662,0.294074074074074],[-0.049479166666666664,0.27870370370370373],[-0.025729166666666713,0.2633333333333334],[-0.025729166666666713,0.2633333333333334],[-0.03354166666666671,0.2507407407407407],[-0.004479166666666619,0.21888888888888897],[0.026250000000000048,0.20888888888888882],[0.042708333333333334,0.19685185185185178],[0.022395833333333334,0.18796296296296297],[0.012812499999999952,0.18981481481481483],[0.028854166666666715,0.18222222222222217],[0.050729166666666714,0.19037037037037027],[0.050729166666666714,0.19037037037037027],[0.04666666666666662,0.18870370370370365],[0.04666666666666662,0.18870370370370365],[0.05416666666666667,0.18296296296296288],[0.05416666666666667,0.18296296296296288],[0.058645833333333286,0.20111111111111116],[0.058645833333333286,0.20111111111111116],[0.07947916666666661,0.20388888888888893],[0.07947916666666661,0.20388888888888893],[0.07135416666666666,0.19092592592592597],[0.08427083333333343,0.17907407407407416],[0.08427083333333343,0.17907407407407416],[0.07729166666666672,0.15981481481481474],[0.0678124999999999,0.1205555555555556],[0.04593750000000003,0.10462962962962963],[0.04750000000000002,0.09574074074074082],[0.04906250000000002,0.0868518518518518],[0.0390625,0.07814814814814823],[0.034166666666666616,0.05814814814814811],[0.005312500000000024,0.059999999999999956],[-0.012916666666666642,0.06796296296296304],[-0.03197916666666671,0.07518518518518523],[-0.013750000000000047,0.07259259259259268],[-0.010625000000000048,0.08944444444444435],[-0.007500000000000047,0.10629629629629625],[-0.008854166666666666,0.08611111111111111],[-0.010208333333333286,0.06592592592592597],[-0.004166666666666667,0.03796296296296296],[0.011562500000000024,0.01907407407407399],[0.011562500000000024,0.01907407407407399],[0.02000000000000005,0.0014814814814813973],[0.000833333333333286,-0.003888888888888931],[0.019375000000000024,-0.02388888888888885],[0.011770833333333286,-0.024074074074074074],[0.011041666666666691,-0.034444444444444486],[0.029895833333333382,-0.04333333333333329],[0.052187500000000026,-0.014259259259259343],[0.036562500000000026,-0.005740740740740783],[0.036562500000000026,-0.005740740740740783],[0.03718750000000005,0.005370370370370328],[0.016562499999999977,0.03222222222222218],[0.018437500000000048,0.04537037037037037],[0.06031249999999998,0.02444444444444453],[0.05552083333333328,0.014259259259259343],[0.05947916666666669,0.0014814814814813973],[0.044270833333333336,0.024074074074074074],[0.03156249999999995,0.01444444444444436],[0.01864583333333331,-0.015000000000000043],[0.04364583333333331,-0.02388888888888885],[0.035520833333333356,-0.02111111111111107],[0.04760416666666671,-0.04814814814814815],[0.05437500000000005,-0.05611111111111113],[0.05385416666666672,-0.05851851851851856],[0.02781250000000005,-0.027037037037037078],[0.0017708333333333807,0.004444444444444402],[0.02177083333333331,-0.017407407407407365],[0.020833333333333332,-0.020185185185185143],[0.023958333333333335,0.000925925925925926],[0.027083333333333334,0.022037037037036994],[0.03864583333333336,0.032037037037036954],[0.042604166666666644,0.06185185185185181],[0.044270833333333336,0.0816666666666667],[0.04083333333333338,0.11777777777777781],[0.07062499999999995,0.09740740740740746],[0.13229166666666667,0.048333333333333374],[0.13229166666666667,0.048333333333333374],[0.14020833333333324,0.049074074074074076],[0.14427083333333332,0.062407407407407495],[0.14260416666666675,0.049629629629629544],[0.15854166666666672,0.05907407407407403],[0.13531250000000009,0.03518518518518519],[0.14739583333333334,0.0005555555555554713],[0.15947916666666656,-0.034074074074074034],[0.15499999999999994,-0.08055555555555556],[0.14583333333333334,-0.09888888888888885],[0.10635416666666657,-0.09740740740740746],[0.10635416666666657,-0.09740740740740746],[0.07489583333333343,-0.10981481481481484],[0.04239583333333338,-0.12981481481481486],[0.01593749999999995,-0.1388888888888889],[-0.007708333333333309,-0.167037037037037],[-0.0006250000000000236,-0.1764814814814815],[-0.025937499999999978,-0.19870370370370372],[-0.025937499999999978,-0.19870370370370372],[-0.04552083333333338,-0.22925925925925927],[-0.04135416666666671,-0.2175925925925926],[-0.03718750000000005,-0.2059259259259259],[-0.04760416666666671,-0.19796296296296292],[-0.030104166666666644,-0.2198148148148148],[-0.004999999999999952,-0.2368518518518518],[0.0140625,-0.26481481481481484],[0.0020833333333333333,-0.27462962962962967],[-0.000416666666666643,-0.26129629629629636],[-0.021145833333333287,-0.22999999999999998],[-0.04906250000000002,-0.20055555555555557],[-0.07218749999999995,-0.17777777777777778],[-0.07218749999999995,-0.17777777777777778],[-0.0796875,-0.18555555555555553],[-0.08791666666666664,-0.19185185185185188],[-0.08791666666666664,-0.19185185185185188],[-0.07520833333333338,-0.13703703703703704],[-0.05802083333333338,-0.12074074074074072],[-0.04489583333333336,-0.09351851851851851],[-0.02677083333333338,-0.09166666666666666],[-0.008645833333333287,-0.08981481481481482],[0.0265625,-0.09759259259259258],[0.05281250000000005,-0.10444444444444441],[0.07156250000000004,-0.08444444444444449],[0.11489583333333328,-0.0764814814814815],[0.15750000000000006,-0.04333333333333329],[0.1243750000000001,-0.09092592592592597],[0.1243750000000001,-0.09092592592592597],[0.09812500000000005,-0.1301851851851852],[0.08322916666666676,-0.11574074074074074],[0.06114583333333338,-0.10055555555555558],[0.024791666666666618,-0.0883333333333333],[0.012395833333333309,-0.09740740740740746],[-0.007395833333333357,-0.07851851851851847],[-0.03166666666666664,-0.11018518518518519],[-0.09020833333333336,-0.08185185185185183],[-0.09020833333333336,-0.08185185185185183],[-0.12291666666666666,-0.1037037037037037],[-0.12291666666666666,-0.1037037037037037],[-0.08687499999999998,-0.09203703703703701],[-0.08687499999999998,-0.09203703703703701],[-0.02302083333333336,-0.05333333333333336],[-0.02302083333333336,-0.05333333333333336],[0.03250000000000005,-0.06518518518518517],[0.03250000000000005,-0.06518518518518517],[0.06583333333333338,-0.06092592592592588],[0.06583333333333338,-0.06092592592592588],[0.12697916666666675,-0.0477777777777777],[0.1564583333333334,-0.019444444444444445],[0.1859375,-0.011481481481481566],[0.21541666666666662,-0.0035185185185184764],[0.2328125,-0.01777777777777782],[0.23885416666666662,0.004074074074074159],[0.2193749999999999,0.016666666666666666],[0.1568749999999999,0.03425925925925926],[0.09812500000000005,0.061666666666666585],[0.0743750000000001,0.07629629629629638],[0.02312500000000005,0.08555555555555563],[-0.014583333333333334,0.0962962962962963],[-0.03458333333333338,0.08277777777777787],[-0.05458333333333331,0.06925925925925921],[-0.05625,0.06296296296296296],[-0.05791666666666669,0.056666666666666705],[-0.04906250000000002,0.054074074074074156],[-0.05572916666666667,0.069074074074074],[-0.05802083333333338,0.03518518518518519],[-0.06031249999999998,0.0012962962962963806],[-0.07468750000000005,-0.027037037037037078],[-0.0890625,-0.05537037037037033],[-0.08927083333333338,-0.06111111111111111],[-0.08947916666666664,-0.0668518518518519],[-0.09395833333333338,-0.05407407407407405],[-0.09260416666666664,-0.05851851851851856],[-0.09635416666666667,-0.09148148148148144],[-0.08458333333333339,-0.14203703703703702],[-0.08458333333333339,-0.14203703703703702],[-0.07427083333333329,-0.12999999999999998],[-0.07156250000000004,-0.14722222222222223],[-0.042812500000000024,-0.1705555555555556],[-0.0003124999999999526,-0.16166666666666668],[-0.0003124999999999526,-0.16166666666666668],[0.028125,-0.14944444444444444],[0.05406249999999998,-0.14333333333333328],[0.08729166666666661,-0.12481481481481477],[0.103125,-0.10462962962962963],[0.11749999999999995,-0.06111111111111111],[0.11749999999999995,-0.06111111111111111],[0.13208333333333327,-0.01796296296296305],[0.15322916666666658,-0.0022222222222223064],[0.16520833333333323,0.04296296296296305],[0.17718749999999991,0.08814814814814818],[0.18635416666666677,0.10611111111111103],[0.17625000000000005,0.1175925925925926],[0.16916666666666677,0.1712962962962963],[0.146875,0.19166666666666668],[0.11270833333333338,0.21055555555555563],[0.10135416666666662,0.2116666666666666],[0.08458333333333339,0.2294444444444444],[0.05562499999999997,0.23703703703703705],[0.05697916666666671,0.24518518518518514],[0.05791666666666669,0.2564814814814815],[0.044479166666666715,0.2646296296296296],[0.06458333333333334,0.29499999999999993],[0.09458333333333328,0.2996296296296295],[0.1318749999999999,0.29000000000000004],[0.15635416666666657,0.3140740740740741],[0.14989583333333342,0.3501851851851852],[0.15229166666666671,0.3616666666666666],[0.1546875,0.3731481481481482],[0.13937499999999994,0.3737037037037036],[0.12447916666666667,0.37111111111111106],[0.12052083333333338,0.3762962962962964],[0.10229166666666671,0.36574074074074076],[0.08624999999999995,0.35592592592592603],[0.06291666666666665,0.3603703703703704],[0.06739583333333338,0.3253703703703705],[0.07645833333333343,0.3290740740740742],[0.10062499999999991,0.3418518518518519],[0.12479166666666662,0.35462962962962963],[0.1404166666666666,0.3755555555555555],[0.1560416666666666,0.39648148148148155],[0.18020833333333333,0.397037037037037],[0.20437500000000006,0.39759259259259266],[0.21687500000000004,0.368888888888889],[0.22937500000000005,0.34018518518518526],[0.24343750000000006,0.3375925925925925],[0.2595833333333334,0.31074074074074065],[0.2353125000000001,0.2542592592592592],[0.21104166666666657,0.1977777777777777],[0.21614583333333334,0.13759259259259252],[0.22125000000000009,0.07740740740740733],[0.21302083333333333,0.03185185185185194],[0.20479166666666657,-0.013703703703703662],[0.20479166666666657,-0.013703703703703662],[0.19541666666666657,-0.04203703703703712],[0.19541666666666657,-0.04203703703703712],[0.19166666666666668,-0.055185185185185205],[0.1790625000000001,-0.09388888888888887],[0.1664583333333333,-0.13259259259259262],[0.1881249999999999,-0.13222222222222219],[0.20979166666666677,-0.13185185185185183],[0.19833333333333342,-0.12259259259259257],[0.1868750000000001,-0.11333333333333331],[0.18781249999999997,-0.10259259259259255],[0.18875000000000006,-0.09185185185185189],[0.18218750000000009,-0.08518518518518518],[0.17000000000000004,-0.09370370370370375],[0.17239583333333333,-0.0653703703703704],[0.17479166666666662,-0.037037037037037035],[0.1466666666666666,-0.022037037037036994],[0.11854166666666661,-0.007037037037036953],[0.1203125,0.006481481481481481],[0.12208333333333338,0.019999999999999917],[0.11041666666666666,0.022777777777777692],[0.09874999999999995,0.02555555555555547],[0.09874999999999995,0.02555555555555547],[0.09802083333333324,0.03722222222222227],[0.09802083333333324,0.03722222222222227],[0.09760416666666671,0.060370370370370414],[0.0953125,0.06351851851851843],[0.0953125,0.06351851851851843],[0.0931250000000001,0.06370370370370367],[0.11166666666666672,0.08648148148148156],[0.11166666666666672,0.08648148148148156],[0.10166666666666657,0.06814814814814807],[0.10166666666666657,0.06814814814814807],[0.0943749999999999,0.05962962962962971],[0.0943749999999999,0.05962962962962971],[0.0806250000000001,0.04537037037037037],[0.06739583333333338,0.03759259259259251],[0.05416666666666667,0.029814814814814856],[0.041458333333333285,0.022037037037036994],[0.027499999999999976,-0.0014814814814813973],[0.01427083333333338,-0.01703703703703712],[0.0009374999999999763,-0.02962962962962963],[-0.015104166666666667,-0.06166666666666669],[-0.0026041666666666665,-0.05259259259259255],[-0.0026041666666666665,-0.05018518518518523],[0.003854166666666714,-0.04203703703703712],[-0.001145833333333357,-0.044444444444444446],[-0.00614583333333331,-0.04685185185185177],[-0.008437500000000023,-0.04888888888888885],[-0.009791666666666643,-0.04666666666666675],[-0.003854166666666714,-0.04870370370370362],[0.0020833333333333333,-0.0507407407407407],[0.0014583333333333095,-0.05092592592592592],[0.000833333333333286,-0.051111111111111156],[0.02177083333333331,-0.022222222222222223],[0.042708333333333334,0.006666666666666709],[0.05927083333333331,0.06888888888888897],[0.05927083333333331,0.06888888888888897],[0.07229166666666677,0.0794444444444444],[0.09072916666666657,0.06388888888888888],[0.09072916666666657,0.06388888888888888],[0.10822916666666677,0.054259259259259174],[0.11666666666666667,0.05481481481481486],[0.11666666666666667,0.05481481481481486],[0.12041666666666657,0.08222222222222218],[0.12864583333333332,0.09407407407407399],[0.14895833333333333,0.12259259259259268],[0.14406249999999995,0.11722222222222214],[0.14364583333333342,0.12185185185185177],[0.1568749999999999,0.10259259259259255],[0.16281249999999994,0.11888888888888897],[0.1568749999999999,0.15703703703703695],[0.1553124999999999,0.2024074074074073],[0.1578125,0.23925925925925934],[0.15895833333333323,0.2433333333333333],[0.15895833333333323,0.2433333333333333],[0.16208333333333325,0.2611111111111111],[0.16072916666666662,0.2633333333333334],[0.16072916666666662,0.2633333333333334],[0.15177083333333338,0.24370370370370376],[0.14510416666666662,0.21129629629629634],[0.1384375000000001,0.17888888888888893],[0.14718749999999994,0.18129629629629626],[0.15593750000000003,0.18370370370370379],[0.16916666666666677,0.1772222222222223],[0.18239583333333323,0.17074074074074083],[0.19208333333333344,0.16148148148148156],[0.20177083333333337,0.15222222222222231],[0.20802083333333338,0.12407407407407407],[0.221875,0.11777777777777781],[0.2287499999999999,0.13185185185185194],[0.23562500000000006,0.14592592592592585],[0.24447916666666672,0.14611111111111108],[0.25333333333333335,0.14629629629629629],[0.24249999999999997,0.1581481481481481],[0.23166666666666677,0.16999999999999993],[0.23270833333333343,0.17907407407407416],[0.2337500000000001,0.1881481481481482],[0.2484375,0.20777777777777787],[0.2631249999999999,0.22740740740740734],[0.24177083333333324,0.22037037037037038],[0.22041666666666657,0.21333333333333343],[0.17072916666666677,0.15925925925925927],[0.12104166666666671,0.1051851851851851],[0.07822916666666657,0.04055555555555551],[0.035416666666666666,-0.024074074074074074],[-0.008437500000000023,-0.07148148148148152],[-0.052291666666666715,-0.11888888888888886],[-0.11437499999999995,-0.16518518518518516]]","[[-0.21812499999999999,0.252962962962963,0.0003000001907409455],[-0.21812499999999999,0.252962962962963,0.05500000000000682],[-0.18687499999999999,0.2522222222222223,0.07860000038147064],[-0.18687499999999999,0.2522222222222223,0.09650000000000603],[-0.1594791666666667,0.24981481481481477,0.11170000028610616],[-0.1594791666666667,0.24981481481481477,0.12450000000000472],[-0.17437499999999997,0.24888888888888885,0.14020000028610724],[-0.17437499999999997,0.24888888888888885,0.15700000000000358],[-0.1376041666666667,0.2572222222222222,0.1736000003814695],[-0.1376041666666667,0.2572222222222222,0.1902000002861044],[-0.12166666666666662,0.23333333333333334,0.20700000000000074],[-0.10874999999999997,0.2294444444444444,0.22800000000000153],[-0.10874999999999997,0.2294444444444444,0.24020000028610866],[-0.10697916666666671,0.2270370370370371,0.25690000009537073],[-0.08072916666666667,0.2361111111111111,0.2735000000000056],[-0.07406250000000002,0.24740740740740744,0.2902000002861058],[-0.07239583333333334,0.2418518518518519,0.3100000000000023],[-0.05322916666666669,0.2511111111111112,0.3265000000000029],[-0.03864583333333336,0.26722222222222214,0.340200000286103],[-0.004479166666666619,0.2698148148148149,0.35690000009537215],[-0.024062500000000025,0.25,0.3738000001907409],[-0.03302083333333338,0.2603703703703704,0.39020000028610724],[-0.05552083333333328,0.2492592592592593,0.4069000000953693],[-0.05562499999999997,0.23555555555555563,0.4237000002861038],[-0.07270833333333329,0.21351851851851844,0.4416000003814702],[-0.08979166666666671,0.19148148148148145,0.45690000009537357],[-0.08541666666666667,0.19611111111111107,0.47350000000000136],[-0.08104166666666662,0.2007407407407407,0.49020000028610866],[-0.07322916666666662,0.1868518518518518,0.5068000001907365],[-0.06541666666666662,0.17296296296296293,0.5269000000953739],[-0.05135416666666662,0.17240740740740745,0.5431000003814717],[-0.03729166666666662,0.17185185185185176,0.5588000001907361],[-0.01864583333333331,0.16611111111111118,0.5736000003814752],[0,0.1603703703703704,0.5909000000953739],[0.01416666666666669,0.14518518518518514,0.6068000001907379],[0.02833333333333338,0.1300000000000001,0.6238000001907409],[0.02833333333333338,0.1300000000000001,0.6402000002861072],[0.0328125,0.11555555555555551,0.6570000000000036],[0.0328125,0.11555555555555551,0.6737000002861038],[0.016770833333333356,0.10240740740740732,0.6903000001907387],[0.016770833333333356,0.10240740740740732,0.7068000001907393],[-0.008854166666666666,0.1111111111111111,0.7236000003814738],[-0.02687499999999995,0.10777777777777786,0.7402000002861087],[-0.04906250000000002,0.10425925925925918,0.7578000001907412],[-0.036562500000000026,0.09722222222222222,0.7735000000000056],[-0.019583333333333286,0.09574074074074082,0.7902000002861058],[-0.00635416666666669,0.08833333333333342,0.8069000000953679],[0.003854166666666714,0.08722222222222227,0.8236000003814752],[-0.024791666666666618,0.1198148148148149,0.8416000003814759],[-0.02635416666666662,0.12296296296296293,0.857200000286106],[-0.02947916666666662,0.125,0.8741000003814747],[-0.018020833333333285,0.11851851851851852,0.8903000001907415],[0.000416666666666643,0.1242592592592593,0.9069000000953693],[0.017916666666666713,0.12981481481481486,0.9237000002861038],[-0.017083333333333308,0.1361111111111111,0.9402000002861044],[-0.052083333333333336,0.14240740740740737,0.9568000001907393],[-0.11124999999999995,0.15777777777777785,0.9735000000000014],[-0.11124999999999995,0.15777777777777785,0.9902000002861087],[-0.13624999999999995,0.18000000000000008,1.0069000000953707],[-0.14375,0.17092592592592584,1.0235000000000056],[-0.19718749999999996,0.18518518518518517,1.0402000002861058],[-0.22854166666666664,0.1992592592592593,1.0569000000953679],[-0.26145833333333335,0.22111111111111106,1.0735000000000028],[-0.30895833333333333,0.24277777777777781,1.0904000000953715],[-0.33479166666666665,0.25092592592592594,1.1069000000953721],[-0.3428125,0.26185185185185184,1.124200000286109],[-0.33218749999999997,0.2905555555555555,1.1424000000953711],[-0.2835416666666667,0.3227777777777777,1.1573000001907374],[-0.2716666666666666,0.31925925925925924,1.1735000000000042],[-0.23843749999999997,0.3133333333333334,1.1902000002861044],[-0.1814583333333334,0.2975925925925927,1.2075000000000031],[-0.12447916666666667,0.2818518518518519,1.2235000000000014],[-0.05625,0.2646296296296296,1.2402000002861087],[0.012083333333333357,0.23796296296296296,1.2569000000953707],[0.06447916666666664,0.2024074074074073,1.273600000381471],[0.11687500000000005,0.1668518518518519,1.2902000002861058],[0.1476041666666667,0.12129629629629629,1.307300000190736],[0.16333333333333327,0.10055555555555547,1.3236000003814752],[0.17645833333333344,0.10240740740740732,1.340200000286103],[0.18958333333333333,0.10425925925925918,1.3595000000000041],[0.18093750000000006,0.09407407407407399,1.3754000000953681],[0.17229166666666676,0.0838888888888888,1.3902000002861072],[0.17229166666666676,0.0838888888888888,1.4069000000953693],[0.18864583333333323,0.06296296296296296,1.4236000003814695],[0.18260416666666662,0.06722222222222214,1.4403000001907387],[0.17177083333333343,0.09407407407407399,1.4573000001907417],[0.1490624999999999,0.11555555555555551,1.4756000003814762],[0.12916666666666668,0.1257407407407407,1.4905000000000044],[0.10416666666666667,0.105925925925926,1.5068000001907365],[0.084375,0.09240740740740737,1.523600000381471],[0.08781249999999995,0.08481481481481473,1.5420000000000016],[0.0865624999999999,0.10981481481481473,1.5574000000953703],[0.10104166666666667,0.12462962962962955,1.5735000000000028],[0.06604166666666664,0.15018518518518523,1.590200000286103],[0.071875,0.14833333333333337,1.6069000000953721],[0.07770833333333324,0.14648148148148152,1.624200000286109],[0.09302083333333329,0.1609259259259259,1.6432000002861074],[0.09302083333333329,0.1609259259259259,1.6569000000953693],[0.10854166666666672,0.17888888888888893,1.6737000002861038],[0.10854166666666672,0.17888888888888893,1.6902000002861044],[0.12364583333333339,0.17037037037037037,1.7069000000953736],[0.15927083333333342,0.16999999999999993,1.725900000095372],[0.15364583333333334,0.17685185185185184,1.740700000286104],[0.16281249999999994,0.1685185185185185,1.757000000000005],[0.15093750000000009,0.16666666666666666,1.7735000000000056],[0.1538541666666667,0.15851851851851856,1.7907000002861082],[0.1556250000000001,0.14333333333333328,1.8068000001907407],[0.1556250000000001,0.14333333333333328,1.8236000003814752],[0.1584374999999999,0.12833333333333324,1.840200000286103],[0.15052083333333333,0.12462962962962955,1.8593000001907356],[0.1328125,0.1294444444444444,1.8735],[0.12552083333333333,0.15925925925925927,1.8902000002861072],[0.1118750000000001,0.17314814814814813,1.9070000000000036],[0.11624999999999991,0.17388888888888884,1.9259000000953677],[0.12802083333333342,0.1868518518518518,1.9433000001907388],[0.14510416666666662,0.2035185185185185,1.9614000000953737],[0.14947916666666666,0.21351851851851844,1.9782000002861082],[0.13708333333333325,0.23777777777777773,1.9947000002861088],[0.1310416666666666,0.24166666666666667,2.011500000000005],[0.14520833333333344,0.22537037037037044,2.0297000002861054],[0.14520833333333344,0.22537037037037044,2.04030000019074],[0.15906250000000005,0.20888888888888882,2.056900000095368],[0.15906250000000005,0.20888888888888882,2.073500000000003],[0.17072916666666677,0.18851851851851845,2.0903000001907373],[0.17072916666666677,0.18851851851851845,2.106800000190738],[0.16447916666666676,0.18518518518518517,2.1235],[0.16447916666666676,0.18518518518518517,2.1402000002861072],[0.1546875,0.17111111111111107,2.1569000000953693],[0.1546875,0.17111111111111107,2.173500000000004],[0.14406249999999995,0.14425925925925923,2.1902000002861044],[0.14406249999999995,0.14425925925925923,2.2068000001907393],[0.13770833333333338,0.13796296296296295,2.2236000003814738],[0.13770833333333338,0.13796296296296295,2.2401000003814744],[0.13479166666666675,0.11388888888888889,2.2569000000953707],[0.13291666666666657,0.10351851851851848,2.273600000381471],[0.12364583333333339,0.11333333333333341,2.2901000003814715],[0.10302083333333342,0.12388888888888884,2.308700000286109],[0.09249999999999996,0.12611111111111115,2.3260000000000005],[0.09291666666666672,0.12074074074074083,2.340500000000006],[0.09708333333333338,0.10611111111111103,2.3589000000953675],[0.10843749999999991,0.11425925925925934,2.3735],[0.11322916666666671,0.12296296296296293,2.390100000381473],[0.1015625,0.08740740740740749,2.4070000000000036],[0.09916666666666671,0.07629629629629638,2.425700000286106],[0.12145833333333324,0.060370370370370414,2.4402000002861044],[0.11510416666666666,0.03740740740740749,2.4572000002861074],[0.12395833333333334,0.03814814814814819,2.4735000000000014],[0.12395833333333334,0.03814814814814819,2.4902000002861087],[0.1328125,0.03888888888888889,2.507000000000005],[0.1326041666666666,0.059999999999999956,2.5275000000000034],[0.13489583333333333,0.09037037037037028,2.543600000381474],[0.12822916666666656,0.11777777777777781,2.55910000038147],[0.11666666666666667,0.1544444444444444,2.574000000000005],[0.11729166666666657,0.21481481481481482,2.591600000381476],[0.1009375000000001,0.26481481481481484,2.6070000000000064],[0.08250000000000005,0.3,2.6251000003814724],[0.08250000000000005,0.3,2.6402000002861072],[0.06937499999999991,0.3479629629629629,2.6569000000953693],[0.05302083333333331,0.38499999999999995,2.678200000286104],[0.05302083333333331,0.38499999999999995,2.6906000003814725],[0.04072916666666669,0.41574074074074074,2.7068000001907393],[0.020833333333333332,0.4377777777777777,2.7242000002861033],[-0.003854166666666714,0.4696296296296297,2.7432000002861088],[-0.02322916666666662,0.49240740740740735,2.7575000000000003],[-0.03208333333333328,0.4977777777777777,2.777700000286103],[-0.02374999999999995,0.4759259259259259,2.79330000019074],[-0.0016666666666666904,0.47388888888888886,2.8115000000000023],[-0.003854166666666714,0.48222222222222216,2.829800000190737],[-0.003854166666666714,0.48222222222222216,2.843600000381471],[0.02822916666666669,0.4762962962962964,2.8571000003814717],[0.03937499999999995,0.44537037037037036,2.874300000190736],[0.04645833333333336,0.4207407407407408,2.8943000001907393],[0.08114583333333343,0.39518518518518514,2.9096000003814737],[0.11812500000000009,0.35055555555555545,2.9280000000000044],[0.15135416666666662,0.30537037037037035,2.9455000000000027],[0.14739583333333334,0.2735185185185186,2.961900000095369],[0.13697916666666668,0.30537037037037035,2.9772000002861034],[0.14833333333333343,0.30537037037037035,2.9955],[0.12468750000000005,0.2766666666666666,3.0104000000953732],[0.09010416666666667,0.2564814814814815,3.027300000190735],[0.07989583333333337,0.25314814814814823,3.04330000019074],[0.0696875000000001,0.24981481481481477,3.0612000002861066],[0.04375,0.247037037037037,3.0763000001907415],[0.00947916666666669,0.23185185185185195,3.093100000381476],[-0.028645833333333332,0.22370370370370363,3.1074000000953674],[-0.035208333333333286,0.2103703703703704,3.130500000000005],[-0.035208333333333286,0.2103703703703704,3.140500000000003],[-0.059791666666666646,0.17333333333333337,3.157100000381476],[-0.05437500000000005,0.15648148148148147,3.173500000000004],[-0.01395833333333331,0.16833333333333328,3.1943000001907365],[-0.016770833333333356,0.19370370370370374,3.2092000002861027],[-0.030729166666666665,0.2116666666666666,3.227000000000004],[-0.05447916666666662,0.20833333333333334,3.2420000000000044],[-0.08218749999999998,0.2051851851851851,3.2601000003814704],[-0.10322916666666669,0.2037037037037037,3.2749000000953714],[-0.11666666666666667,0.19574074074074083,3.292200000286101],[-0.13395833333333335,0.18907407407407412,3.3071000003814675],[-0.14395833333333338,0.16962962962962966,3.3274000000953663],[-0.1742708333333333,0.17814814814814822,3.3427000002861007],[-0.2045833333333333,0.1866666666666666,3.3574000000953674],[-0.20385416666666673,0.15981481481481474,3.373500000000007],[-0.20385416666666673,0.15981481481481474,3.3933000001907345],[-0.2123958333333333,0.1449999999999999,3.4069999999999965],[-0.20281250000000003,0.17314814814814813,3.4261000003814672],[-0.17479166666666662,0.18925925925925935,3.4421000003814726],[-0.14510416666666662,0.2161111111111112,3.4599000000953737],[-0.1125,0.23425925925925925,3.4754999999999967],[-0.07604166666666666,0.2511111111111112,3.4917000002861016],[-0.06739583333333338,0.26648148148148143,3.511400000095364],[-0.08770833333333337,0.2485185185185186,3.5293000001907444],[-0.08770833333333337,0.2485185185185186,3.5404000000953744],[-0.10395833333333329,0.27518518518518525,3.557000000000002],[-0.10395833333333329,0.27518518518518525,3.5944999999999965],[-0.10979166666666665,0.2890740740740741,3.600999999999999],[-0.10979166666666665,0.2890740740740741,3.607300000190733],[-0.10354166666666664,0.2727777777777777,3.623800000190741],[-0.10354166666666664,0.2727777777777777,3.6440000000000055],[-0.11187499999999997,0.26740740740740737,3.6569000000953764],[-0.1319791666666667,0.2740740740740741,3.6744000000953747],[-0.1319791666666667,0.2740740740740741,3.6905],[-0.15208333333333332,0.2807407407407408,3.7092000002861027],[-0.15208333333333332,0.2807407407407408,3.723700000286101],[-0.15427083333333336,0.2857407407407407,3.740400000095377],[-0.19333333333333336,0.30685185185185193,3.761400000095364],[-0.18791666666666665,0.3172222222222221,3.775500000000008],[-0.18177083333333333,0.3351851851851852,3.793900000095377],[-0.14291666666666672,0.30537037037037035,3.8092000002861113],[-0.10229166666666671,0.3101851851851852,3.8274000000953663],[-0.07770833333333335,0.31925925925925924,3.8419999999999987],[-0.07322916666666662,0.294074074074074,3.8569999999999993],[-0.049479166666666664,0.27870370370370373,3.873900000095375],[-0.025729166666666713,0.2633333333333334,3.8940000000000055],[-0.025729166666666713,0.2633333333333334,3.907100000381476],[-0.03354166666666671,0.2507407407407407,3.9240000000000066],[-0.004479166666666619,0.21888888888888897,3.942999999999998],[0.026250000000000048,0.20888888888888882,3.9594000000953713],[0.042708333333333334,0.19685185185185178,3.97480000019074],[0.022395833333333334,0.18796296296296297,3.990300000190743],[0.012812499999999952,0.18981481481481483,4.010200000286105],[0.028854166666666715,0.18222222222222217,4.025700000286108],[0.050729166666666714,0.19037037037037027,4.040400000095374],[0.050729166666666714,0.19037037037037027,4.05760000038147],[0.04666666666666662,0.18870370370370365,4.077500000000001],[0.04666666666666662,0.18870370370370365,4.090300000190737],[0.05416666666666667,0.18296296296296288,4.107100000381479],[0.05416666666666667,0.18296296296296288,4.128900000095371],[0.058645833333333286,0.20111111111111116,4.140300000190734],[0.058645833333333286,0.20111111111111116,4.1569999999999965],[0.07947916666666661,0.20388888888888893,4.173700000286104],[0.07947916666666661,0.20388888888888893,4.195100000381473],[0.07135416666666666,0.19092592592592597,4.207100000381473],[0.08427083333333343,0.17907407407407416,4.228100000381474],[0.08427083333333343,0.17907407407407416,4.242800000190741],[0.07729166666666672,0.15981481481481474,4.257000000000005],[0.0678124999999999,0.1205555555555556,4.273600000381478],[0.04593750000000003,0.10462962962962963,4.293999999999997],[0.04750000000000002,0.09574074074074082,4.3095],[0.04906250000000002,0.0868518518518518,4.323999999999998],[0.0390625,0.07814814814814823,4.34380000019074],[0.034166666666666616,0.05814814814814811,4.3596000003814765],[0.005312500000000024,0.059999999999999956,4.374100000381475],[-0.012916666666666642,0.06796296296296304,4.390300000190734],[-0.03197916666666671,0.07518518518518523,4.409500000000008],[-0.013750000000000047,0.07259259259259268,4.424100000381472],[-0.010625000000000048,0.08944444444444435,4.4407000002861],[-0.007500000000000047,0.10629629629629625,4.460000000000008],[-0.008854166666666666,0.08611111111111111,4.474700000286106],[-0.010208333333333286,0.06592592592592597,4.490400000095377],[-0.004166666666666667,0.03796296296296296,4.509500000000003],[0.011562500000000024,0.01907407407407399,4.524000000000001],[0.011562500000000024,0.01907407407407399,4.54030000019074],[0.02000000000000005,0.0014814814814813973,4.557000000000002],[0.000833333333333286,-0.003888888888888931,4.575800000190739],[0.019375000000000024,-0.02388888888888885,4.590300000190737],[0.011770833333333286,-0.024074074074074074,4.606999999999999],[0.011041666666666691,-0.034444444444444486,4.627400000095378],[0.029895833333333382,-0.04333333333333329,4.642499999999998],[0.052187500000000026,-0.014259259259259343,4.6599000000953765],[0.036562500000000026,-0.005740740740740783,4.680300000190741],[0.036562500000000026,-0.005740740740740783,4.6905],[0.03718750000000005,0.005370370370370328,4.707100000381473],[0.016562499999999977,0.03222222222222218,4.723700000286101],[0.018437500000000048,0.04537037037037037,4.743700000286111],[0.06031249999999998,0.02444444444444453,4.757500000000007],[0.05552083333333328,0.014259259259259343,4.773700000286112],[0.05947916666666669,0.0014814814814813973,4.79030000019074],[0.044270833333333336,0.024074074074074074,4.809200000286111],[0.03156249999999995,0.01444444444444436,4.82460000038148],[0.01864583333333331,-0.015000000000000043,4.840500000000006],[0.04364583333333331,-0.02388888888888885,4.860300000190733],[0.035520833333333356,-0.02111111111111107,4.874100000381475],[0.04760416666666671,-0.04814814814814815,4.890400000095369],[0.05437500000000005,-0.05611111111111113,4.910499999999999],[0.05385416666666672,-0.05851851851851856,4.925600000381479],[0.02781250000000005,-0.027037037037037078,4.940400000095366],[0.0017708333333333807,0.004444444444444402,4.957100000381473],[0.02177083333333331,-0.017407407407407365,4.976200000286099],[0.020833333333333332,-0.020185185185185143,4.991100000381479],[0.023958333333333335,0.000925925925925926,5.0092000002861],[0.027083333333333334,0.022037037037036994,5.0294000000953645],[0.03864583333333336,0.032037037037036954,5.043800000190743],[0.042604166666666644,0.06185185185185181,5.06040000009537],[0.044270833333333336,0.0816666666666667,5.075300000190737],[0.04083333333333338,0.11777777777777781,5.0937000002861055],[0.07062499999999995,0.09740740740740746,5.112000000000009],[0.13229166666666667,0.048333333333333374,5.1285000000000025],[0.13229166666666667,0.048333333333333374,5.143500000000003],[0.14020833333333324,0.049074074074074076,5.1569999999999965],[0.14427083333333332,0.062407407407407495,5.175400000095365],[0.14260416666666675,0.049629629629629544,5.190300000190732],[0.15854166666666672,0.05907407407407403,5.209600000381471],[0.13531250000000009,0.03518518518518519,5.227200000286103],[0.14739583333333334,0.0005555555555554713,5.24210000038147],[0.15947916666666656,-0.034074074074074034,5.2605000000000075],[0.15499999999999994,-0.08055555555555556,5.275400000095374],[0.14583333333333334,-0.09888888888888885,5.29030000019074],[0.10635416666666657,-0.09740740740740746,5.3071000003814675],[0.10635416666666657,-0.09740740740740746,5.329100000381473],[0.07489583333333343,-0.10981481481481484,5.3404000000953715],[0.04239583333333338,-0.12981481481481486,5.356999999999999],[0.01593749999999995,-0.1388888888888889,5.376400000095373],[-0.007708333333333309,-0.167037037037037,5.393600000381468],[-0.0006250000000000236,-0.1764814814814815,5.409100000381471],[-0.025937499999999978,-0.19870370370370372,5.42960000038147],[-0.025937499999999978,-0.19870370370370372,5.440300000190732],[-0.04552083333333338,-0.22925925925925927,5.456900000095374],[-0.04135416666666671,-0.2175925925925926,5.474400000095372],[-0.03718750000000005,-0.2059259259259259,5.490200000286109],[-0.04760416666666671,-0.19796296296296292,5.51100000000001],[-0.030104166666666644,-0.2198148148148148,5.528100000381471],[-0.004999999999999952,-0.2368518518518518,5.543200000286106],[0.0140625,-0.26481481481481484,5.562900000095368],[0.0020833333333333333,-0.27462962962962967,5.578300000190737],[-0.000416666666666643,-0.26129629629629636,5.593200000286103],[-0.021145833333333287,-0.22999999999999998,5.610200000286099],[-0.04906250000000002,-0.20055555555555557,5.6266000003814725],[-0.07218749999999995,-0.17777777777777778,5.64500000000001],[-0.07218749999999995,-0.17777777777777778,5.6569999999999965],[-0.0796875,-0.18555555555555553,5.673800000190738],[-0.08791666666666664,-0.19185185185185188,5.698400000095376],[-0.08791666666666664,-0.19185185185185188,5.71050000000001],[-0.07520833333333338,-0.13703703703703704,5.723800000190735],[-0.05802083333333338,-0.12074074074074072,5.74210000038147],[-0.04489583333333336,-0.09351851851851851,5.760400000095373],[-0.02677083333333338,-0.09166666666666666,5.775600000381473],[-0.008645833333333287,-0.08981481481481482,5.790700000286108],[0.0265625,-0.09759259259259258,5.809400000095366],[0.05281250000000005,-0.10444444444444441,5.826400000095376],[0.07156250000000004,-0.08444444444444449,5.842300000190733],[0.11489583333333328,-0.0764814814814815,5.856900000095365],[0.15750000000000006,-0.04333333333333329,5.8770000000000095],[0.1243750000000001,-0.09092592592592597,5.9018000001907325],[0.1243750000000001,-0.09092592592592597,5.909100000381471],[0.09812500000000005,-0.1301851851851852,5.928100000381477],[0.08322916666666676,-0.11574074074074074,5.945000000000007],[0.06114583333333338,-0.10055555555555558,5.959700000286105],[0.024791666666666618,-0.0883333333333333,5.977900000095374],[0.012395833333333309,-0.09740740740740746,5.9924000000953725],[-0.007395833333333357,-0.07851851851851847,6.006900000095371],[-0.03166666666666664,-0.11018518518518519,6.024700000286103],[-0.09020833333333336,-0.08185185185185183,6.044100000381476],[-0.09020833333333336,-0.08185185185185183,6.061600000381475],[-0.12291666666666666,-0.1037037037037037,6.0737000002861095],[-0.12291666666666666,-0.1037037037037037,6.090200000286103],[-0.08687499999999998,-0.09203703703703701,6.106800000190745],[-0.08687499999999998,-0.09203703703703701,6.123500000000007],[-0.02302083333333336,-0.05333333333333336,6.1402000002861],[-0.02302083333333336,-0.05333333333333336,6.156900000095376],[0.03250000000000005,-0.06518518518518517,6.1736000003814695],[0.03250000000000005,-0.06518518518518517,6.1902000002861115],[0.06583333333333338,-0.06092592592592588,6.206900000095374],[0.06583333333333338,-0.06092592592592588,6.223500000000001],[0.12697916666666675,-0.0477777777777777,6.240100000381474],[0.1564583333333334,-0.019444444444444445,6.2605000000000075],[0.1859375,-0.011481481481481566,6.275400000095374],[0.21541666666666662,-0.0035185185185184764,6.2901000003814715],[0.2328125,-0.01777777777777782,6.309400000095366],[0.23885416666666662,0.004074074074074159,6.327800000190734],[0.2193749999999999,0.016666666666666666,6.341999999999999],[0.1568749999999999,0.03425925925925926,6.357200000286099],[0.09812500000000005,0.061666666666666585,6.377400000095378],[0.0743750000000001,0.07629629629629638,6.3933000001907345],[0.02312500000000005,0.08555555555555563,6.409700000286108],[-0.014583333333333334,0.0962962962962963,6.425700000286099],[-0.03458333333333338,0.08277777777777787,6.440300000190732],[-0.05458333333333331,0.06925925925925921,6.457100000381473],[-0.05625,0.06296296296296296,6.473500000000001],[-0.05791666666666669,0.056666666666666705,6.490400000095377],[-0.04906250000000002,0.054074074074074156,6.506900000095371],[-0.05572916666666667,0.069074074074074,6.525500000000008],[-0.05802083333333338,0.03518518518518519,6.543999999999997],[-0.06031249999999998,0.0012962962962963806,6.560700000286104],[-0.07468750000000005,-0.027037037037037078,6.576600000381475],[-0.0890625,-0.05537037037037033,6.590700000286105],[-0.08927083333333338,-0.06111111111111111,6.606800000190745],[-0.08947916666666664,-0.0668518518518519,6.624200000286109],[-0.09395833333333338,-0.05407407407407405,6.643900000095371],[-0.09260416666666664,-0.05851851851851856,6.660100000381476],[-0.09635416666666667,-0.09148148148148144,6.676100000381467],[-0.08458333333333339,-0.14203703703703702,6.6965],[-0.08458333333333339,-0.14203703703703702,6.706900000095374],[-0.07427083333333329,-0.12999999999999998,6.723600000381467],[-0.07156250000000004,-0.14722222222222223,6.741500000000002],[-0.042812500000000024,-0.1705555555555556,6.758100000381475],[-0.0003124999999999526,-0.16166666666666668,6.775500000000008],[-0.0003124999999999526,-0.16166666666666668,6.792800000190738],[0.028125,-0.14944444444444444,6.80760000038147],[0.05406249999999998,-0.14333333333333328,6.823600000381475],[0.08729166666666661,-0.12481481481481477,6.840100000381469],[0.103125,-0.10462962962962963,6.856800000190745],[0.11749999999999995,-0.06111111111111111,6.873400000095373],[0.11749999999999995,-0.06111111111111111,6.89010000038148],[0.13208333333333327,-0.01796296296296305,6.906800000190742],[0.15322916666666658,-0.0022222222222223064,6.924000000000007],[0.16520833333333323,0.04296296296296305,6.940100000381477],[0.17718749999999991,0.08814814814814818,6.956800000190739],[0.18635416666666677,0.10611111111111103,6.973500000000001],[0.17625000000000005,0.1175925925925926,6.990100000381474],[0.16916666666666677,0.1712962962962963,7.0068000001907365],[0.146875,0.19166666666666668,7.025500000000008],[0.11270833333333338,0.21055555555555563,7.0401000003814715],[0.10135416666666662,0.2116666666666666,7.0582000002861065],[0.08458333333333339,0.2294444444444444,7.073400000095376],[0.05562499999999997,0.23703703703703705,7.090200000286103],[0.05697916666666671,0.24518518518518514,7.106999999999999],[0.05791666666666669,0.2564814814814815,7.123500000000007],[0.044479166666666715,0.2646296296296296,7.1402000002861],[0.06458333333333334,0.29499999999999993,7.156700000286108],[0.09458333333333328,0.2996296296296295,7.17340000009537],[0.1318749999999999,0.29000000000000004,7.190100000381477],[0.15635416666666657,0.3140740740740741,7.206800000190739],[0.14989583333333342,0.3501851851851852,7.223400000095367],[0.15229166666666671,0.3616666666666666,7.240100000381474],[0.1546875,0.3731481481481482,7.2568000001907365],[0.13937499999999994,0.3737037037037036,7.273400000095364],[0.12447916666666667,0.37111111111111106,7.2901000003814715],[0.12052083333333338,0.3762962962962964,7.306800000190734],[0.10229166666666671,0.36574074074074076,7.32350000000001],[0.08624999999999995,0.35592592592592603,7.340100000381469],[0.06291666666666665,0.3603703703703704,7.356700000286111],[0.06739583333333338,0.3253703703703705,7.373400000095373],[0.07645833333333343,0.3290740740740742,7.390500000000003],[0.10062499999999991,0.3418518518518519,7.406700000286108],[0.12479166666666662,0.35462962962962963,7.423800000190738],[0.1404166666666666,0.3755555555555555,7.440100000381477],[0.1560416666666666,0.39648148148148155,7.456700000286105],[0.18020833333333333,0.397037037037037,7.473400000095367],[0.20437500000000006,0.39759259259259266,7.490100000381474],[0.21687500000000004,0.368888888888889,7.509500000000003],[0.22937500000000005,0.34018518518518526,7.524900000095371],[0.24343750000000006,0.3375925925925925,7.541600000381479],[0.2595833333333334,0.31074074074074065,7.560700000286104],[0.2353125000000001,0.2542592592592592,7.575100000381468],[0.21104166666666657,0.1977777777777777,7.590100000381469],[0.21614583333333334,0.13759259259259252,7.606800000190745],[0.22125000000000009,0.07740740740740733,7.626700000286107],[0.21302083333333333,0.03185185185185194,7.64010000038148],[0.20479166666666657,-0.013703703703703662,7.6573000001907445],[0.20479166666666657,-0.013703703703703662,7.673500000000004],[0.19541666666666657,-0.04203703703703712,7.6902000002861115],[0.19541666666666657,-0.04203703703703712,7.706900000095374],[0.19166666666666668,-0.055185185185185205,7.723600000381467],[0.1790625000000001,-0.09388888888888887,7.740100000381474],[0.1664583333333333,-0.13259259259259262,7.7568000001907365],[0.1881249999999999,-0.13222222222222219,7.776300000190744],[0.20979166666666677,-0.13185185185185183,7.790500000000009],[0.19833333333333342,-0.12259259259259257,7.806800000190734],[0.1868750000000001,-0.11333333333333331,7.825400000095371],[0.18781249999999997,-0.10259259259259255,7.842100000381478],[0.18875000000000006,-0.09185185185185189,7.856700000286111],[0.18218750000000009,-0.08518518518518518,7.873500000000007],[0.17000000000000004,-0.09370370370370375,7.89010000038148],[0.17239583333333333,-0.0653703703703704,7.906800000190742],[0.17479166666666662,-0.037037037037037035,7.9262000002861015],[0.1466666666666666,-0.022037037037036994,7.942300000190741],[0.11854166666666661,-0.007037037037036953,7.9587000002861],[0.1203125,0.006481481481481481,7.973400000095367],[0.12208333333333338,0.019999999999999917,7.990100000381474],[0.11041666666666666,0.022777777777777692,8.006800000190736],[0.09874999999999995,0.02555555555555547,8.023499999999999],[0.09874999999999995,0.02555555555555547,8.040100000381472],[0.09802083333333324,0.03722222222222227,8.056800000190734],[0.09802083333333324,0.03722222222222227,8.07350000000001],[0.09760416666666671,0.060370370370370414,8.091000000000008],[0.0953125,0.06351851851851843,8.11110000038147],[0.0953125,0.06351851851851843,8.123500000000007],[0.0931250000000001,0.06370370370370367,8.1402000002861],[0.11166666666666672,0.08648148148148156,8.160800000190733],[0.11166666666666672,0.08648148148148156,8.17340000009537],[0.10166666666666657,0.06814814814814807,8.190100000381477],[0.10166666666666657,0.06814814814814807,8.20680000019074],[0.0943749999999999,0.05962962962962971,8.223600000381467],[0.0943749999999999,0.05962962962962971,8.240100000381474],[0.0806250000000001,0.04537037037037037,8.25690000009537],[0.06739583333333338,0.03759259259259251,8.273499999999999],[0.05416666666666667,0.029814814814814856,8.290100000381472],[0.041458333333333285,0.022037037037036994,8.307200000286102],[0.027499999999999976,-0.0014814814814813973,8.324300000190732],[0.01427083333333338,-0.01703703703703712,8.341999999999999],[0.0009374999999999763,-0.02962962962962963,8.358700000286106],[-0.015104166666666667,-0.06166666666666669,8.374200000286109],[-0.0026041666666666665,-0.05259259259259255,8.391500000000008],[-0.0026041666666666665,-0.05018518518518523,8.409000000000006],[0.003854166666666714,-0.04203703703703712,8.424200000286106],[-0.001145833333333357,-0.044444444444444446,8.44250000000001],[-0.00614583333333331,-0.04685185185185177,8.45980000019074],[-0.008437500000000023,-0.04888888888888885,8.47480000019074],[-0.009791666666666643,-0.04666666666666675,8.491800000190736],[-0.003854166666666714,-0.04870370370370362,8.5092000002861],[0.0020833333333333333,-0.0507407407407407,8.528999999999996],[0.0014583333333333095,-0.05092592592592592,8.54330000019074],[0.000833333333333286,-0.051111111111111156,8.560000000000002],[0.02177083333333331,-0.022222222222222223,8.574100000381478],[0.042708333333333334,0.006666666666666709,8.59080000019074],[0.05927083333333331,0.06888888888888897,8.608700000286106],[0.05927083333333331,0.06888888888888897,8.625500000000002],[0.07229166666666677,0.0794444444444444,8.64010000038148],[0.09072916666666657,0.06388888888888888,8.660800000190733],[0.09072916666666657,0.06388888888888888,8.67360000038147],[0.10822916666666677,0.054259259259259174,8.690200000286112],[0.11666666666666667,0.05481481481481486,8.712600000381471],[0.11666666666666667,0.05481481481481486,8.723500000000001],[0.12041666666666657,0.08222222222222218,8.740100000381474],[0.12864583333333332,0.09407407407407399,8.758800000190732],[0.14895833333333333,0.12259259259259268,8.775500000000008],[0.14406249999999995,0.11722222222222214,8.790600000381474],[0.14364583333333342,0.12185185185185177,8.806800000190734],[0.1568749999999999,0.10259259259259255,8.825000000000003],[0.16281249999999994,0.11888888888888897,8.842100000381478],[0.1568749999999999,0.15703703703703695,8.858600000381472],[0.1553124999999999,0.2024074074074073,8.873400000095373],[0.1578125,0.23925925925925934,8.89],[0.15895833333333323,0.2433333333333333,8.906800000190742],[0.15895833333333323,0.2433333333333333,8.923500000000004],[0.16208333333333325,0.2611111111111111,8.940100000381477],[0.16072916666666662,0.2633333333333334,8.95680000019074],[0.16072916666666662,0.2633333333333334,8.973500000000001],[0.15177083333333338,0.24370370370370376,8.990100000381474],[0.14510416666666662,0.21129629629629634,9.007200000286105],[0.1384375000000001,0.17888888888888893,9.023700000286112],[0.14718749999999994,0.18129629629629626,9.042100000381467],[0.15593750000000003,0.18370370370370379,9.0567000002861],[0.16916666666666677,0.1772222222222223,9.073400000095376],[0.18239583333333323,0.17074074074074083,9.090100000381469],[0.19208333333333344,0.16148148148148156,9.108200000286104],[0.20177083333333337,0.15222222222222231,9.125600000381468],[0.20802083333333338,0.12407407407407407,9.141900000095376],[0.221875,0.11777777777777781,9.157499999999999],[0.2287499999999999,0.13185185185185194,9.173500000000004],[0.23562500000000006,0.14592592592592585,9.191500000000005],[0.24447916666666672,0.14611111111111108,9.206700000286105],[0.25333333333333335,0.14629629629629629,9.223500000000001],[0.24249999999999997,0.1581481481481481,9.242500000000007],[0.23166666666666677,0.16999999999999993,9.25710000038147],[0.23270833333333343,0.17907407407407416,9.273400000095364],[0.2337500000000001,0.1881481481481482,9.290100000381472],[0.2484375,0.20777777777777787,9.3067000002861],[0.2631249999999999,0.22740740740740734,9.324200000286112],[0.24177083333333324,0.22037037037037038,9.342200000286113],[0.22041666666666657,0.21333333333333343,9.357600000381467],[0.17072916666666677,0.15925925925925927,9.373400000095373],[0.12104166666666671,0.1051851851851851,9.390300000190734],[0.07822916666666657,0.04055555555555551,9.407300000190745],[0.035416666666666666,-0.024074074074074074,9.423700000286104],[-0.008437500000000023,-0.07148148148148152,9.441800000190739],[-0.052291666666666715,-0.11888888888888886,9.456700000286105],[-0.11437499999999995,-0.16518518518518516,9.473400000095367]]","[0.0003000001907409455,0.05500000000000682,0.07860000038147064,0.09650000000000603,0.11170000028610616,0.12450000000000472,0.14020000028610724,0.15700000000000358,0.1736000003814695,0.1902000002861044,0.20700000000000074,0.22800000000000153,0.24020000028610866,0.25690000009537073,0.2735000000000056,0.2902000002861058,0.3100000000000023,0.3265000000000029,0.340200000286103,0.35690000009537215,0.3738000001907409,0.39020000028610724,0.4069000000953693,0.4237000002861038,0.4416000003814702,0.45690000009537357,0.47350000000000136,0.49020000028610866,0.5068000001907365,0.5269000000953739,0.5431000003814717,0.5588000001907361,0.5736000003814752,0.5909000000953739,0.6068000001907379,0.6238000001907409,0.6402000002861072,0.6570000000000036,0.6737000002861038,0.6903000001907387,0.7068000001907393,0.7236000003814738,0.7402000002861087,0.7578000001907412,0.7735000000000056,0.7902000002861058,0.8069000000953679,0.8236000003814752,0.8416000003814759,0.857200000286106,0.8741000003814747,0.8903000001907415,0.9069000000953693,0.9237000002861038,0.9402000002861044,0.9568000001907393,0.9735000000000014,0.9902000002861087,1.0069000000953707,1.0235000000000056,1.0402000002861058,1.0569000000953679,1.0735000000000028,1.0904000000953715,1.1069000000953721,1.124200000286109,1.1424000000953711,1.1573000001907374,1.1735000000000042,1.1902000002861044,1.2075000000000031,1.2235000000000014,1.2402000002861087,1.2569000000953707,1.273600000381471,1.2902000002861058,1.307300000190736,1.3236000003814752,1.340200000286103,1.3595000000000041,1.3754000000953681,1.3902000002861072,1.4069000000953693,1.4236000003814695,1.4403000001907387,1.4573000001907417,1.4756000003814762,1.4905000000000044,1.5068000001907365,1.523600000381471,1.5420000000000016,1.5574000000953703,1.5735000000000028,1.590200000286103,1.6069000000953721,1.624200000286109,1.6432000002861074,1.6569000000953693,1.6737000002861038,1.6902000002861044,1.7069000000953736,1.725900000095372,1.740700000286104,1.757000000000005,1.7735000000000056,1.7907000002861082,1.8068000001907407,1.8236000003814752,1.840200000286103,1.8593000001907356,1.8735,1.8902000002861072,1.9070000000000036,1.9259000000953677,1.9433000001907388,1.9614000000953737,1.9782000002861082,1.9947000002861088,2.011500000000005,2.0297000002861054,2.04030000019074,2.056900000095368,2.073500000000003,2.0903000001907373,2.106800000190738,2.1235,2.1402000002861072,2.1569000000953693,2.173500000000004,2.1902000002861044,2.2068000001907393,2.2236000003814738,2.2401000003814744,2.2569000000953707,2.273600000381471,2.2901000003814715,2.308700000286109,2.3260000000000005,2.340500000000006,2.3589000000953675,2.3735,2.390100000381473,2.4070000000000036,2.425700000286106,2.4402000002861044,2.4572000002861074,2.4735000000000014,2.4902000002861087,2.507000000000005,2.5275000000000034,2.543600000381474,2.55910000038147,2.574000000000005,2.591600000381476,2.6070000000000064,2.6251000003814724,2.6402000002861072,2.6569000000953693,2.678200000286104,2.6906000003814725,2.7068000001907393,2.7242000002861033,2.7432000002861088,2.7575000000000003,2.777700000286103,2.79330000019074,2.8115000000000023,2.829800000190737,2.843600000381471,2.8571000003814717,2.874300000190736,2.8943000001907393,2.9096000003814737,2.9280000000000044,2.9455000000000027,2.961900000095369,2.9772000002861034,2.9955,3.0104000000953732,3.027300000190735,3.04330000019074,3.0612000002861066,3.0763000001907415,3.093100000381476,3.1074000000953674,3.130500000000005,3.140500000000003,3.157100000381476,3.173500000000004,3.1943000001907365,3.2092000002861027,3.227000000000004,3.2420000000000044,3.2601000003814704,3.2749000000953714,3.292200000286101,3.3071000003814675,3.3274000000953663,3.3427000002861007,3.3574000000953674,3.373500000000007,3.3933000001907345,3.4069999999999965,3.4261000003814672,3.4421000003814726,3.4599000000953737,3.4754999999999967,3.4917000002861016,3.511400000095364,3.5293000001907444,3.5404000000953744,3.557000000000002,3.5944999999999965,3.600999999999999,3.607300000190733,3.623800000190741,3.6440000000000055,3.6569000000953764,3.6744000000953747,3.6905,3.7092000002861027,3.723700000286101,3.740400000095377,3.761400000095364,3.775500000000008,3.793900000095377,3.8092000002861113,3.8274000000953663,3.8419999999999987,3.8569999999999993,3.873900000095375,3.8940000000000055,3.907100000381476,3.9240000000000066,3.942999999999998,3.9594000000953713,3.97480000019074,3.990300000190743,4.010200000286105,4.025700000286108,4.040400000095374,4.05760000038147,4.077500000000001,4.090300000190737,4.107100000381479,4.128900000095371,4.140300000190734,4.1569999999999965,4.173700000286104,4.195100000381473,4.207100000381473,4.228100000381474,4.242800000190741,4.257000000000005,4.273600000381478,4.293999999999997,4.3095,4.323999999999998,4.34380000019074,4.3596000003814765,4.374100000381475,4.390300000190734,4.409500000000008,4.424100000381472,4.4407000002861,4.460000000000008,4.474700000286106,4.490400000095377,4.509500000000003,4.524000000000001,4.54030000019074,4.557000000000002,4.575800000190739,4.590300000190737,4.606999999999999,4.627400000095378,4.642499999999998,4.6599000000953765,4.680300000190741,4.6905,4.707100000381473,4.723700000286101,4.743700000286111,4.757500000000007,4.773700000286112,4.79030000019074,4.809200000286111,4.82460000038148,4.840500000000006,4.860300000190733,4.874100000381475,4.890400000095369,4.910499999999999,4.925600000381479,4.940400000095366,4.957100000381473,4.976200000286099,4.991100000381479,5.0092000002861,5.0294000000953645,5.043800000190743,5.06040000009537,5.075300000190737,5.0937000002861055,5.112000000000009,5.1285000000000025,5.143500000000003,5.1569999999999965,5.175400000095365,5.190300000190732,5.209600000381471,5.227200000286103,5.24210000038147,5.2605000000000075,5.275400000095374,5.29030000019074,5.3071000003814675,5.329100000381473,5.3404000000953715,5.356999999999999,5.376400000095373,5.393600000381468,5.409100000381471,5.42960000038147,5.440300000190732,5.456900000095374,5.474400000095372,5.490200000286109,5.51100000000001,5.528100000381471,5.543200000286106,5.562900000095368,5.578300000190737,5.593200000286103,5.610200000286099,5.6266000003814725,5.64500000000001,5.6569999999999965,5.673800000190738,5.698400000095376,5.71050000000001,5.723800000190735,5.74210000038147,5.760400000095373,5.775600000381473,5.790700000286108,5.809400000095366,5.826400000095376,5.842300000190733,5.856900000095365,5.8770000000000095,5.9018000001907325,5.909100000381471,5.928100000381477,5.945000000000007,5.959700000286105,5.977900000095374,5.9924000000953725,6.006900000095371,6.024700000286103,6.044100000381476,6.061600000381475,6.0737000002861095,6.090200000286103,6.106800000190745,6.123500000000007,6.1402000002861,6.156900000095376,6.1736000003814695,6.1902000002861115,6.206900000095374,6.223500000000001,6.240100000381474,6.2605000000000075,6.275400000095374,6.2901000003814715,6.309400000095366,6.327800000190734,6.341999999999999,6.357200000286099,6.377400000095378,6.3933000001907345,6.409700000286108,6.425700000286099,6.440300000190732,6.457100000381473,6.473500000000001,6.490400000095377,6.506900000095371,6.525500000000008,6.543999999999997,6.560700000286104,6.576600000381475,6.590700000286105,6.606800000190745,6.624200000286109,6.643900000095371,6.660100000381476,6.676100000381467,6.6965,6.706900000095374,6.723600000381467,6.741500000000002,6.758100000381475,6.775500000000008,6.792800000190738,6.80760000038147,6.823600000381475,6.840100000381469,6.856800000190745,6.873400000095373,6.89010000038148,6.906800000190742,6.924000000000007,6.940100000381477,6.956800000190739,6.973500000000001,6.990100000381474,7.0068000001907365,7.025500000000008,7.0401000003814715,7.0582000002861065,7.073400000095376,7.090200000286103,7.106999999999999,7.123500000000007,7.1402000002861,7.156700000286108,7.17340000009537,7.190100000381477,7.206800000190739,7.223400000095367,7.240100000381474,7.2568000001907365,7.273400000095364,7.2901000003814715,7.306800000190734,7.32350000000001,7.340100000381469,7.356700000286111,7.373400000095373,7.390500000000003,7.406700000286108,7.423800000190738,7.440100000381477,7.456700000286105,7.473400000095367,7.490100000381474,7.509500000000003,7.524900000095371,7.541600000381479,7.560700000286104,7.575100000381468,7.590100000381469,7.606800000190745,7.626700000286107,7.64010000038148,7.6573000001907445,7.673500000000004,7.6902000002861115,7.706900000095374,7.723600000381467,7.740100000381474,7.7568000001907365,7.776300000190744,7.790500000000009,7.806800000190734,7.825400000095371,7.842100000381478,7.856700000286111,7.873500000000007,7.89010000038148,7.906800000190742,7.9262000002861015,7.942300000190741,7.9587000002861,7.973400000095367,7.990100000381474,8.006800000190736,8.023499999999999,8.040100000381472,8.056800000190734,8.07350000000001,8.091000000000008,8.11110000038147,8.123500000000007,8.1402000002861,8.160800000190733,8.17340000009537,8.190100000381477,8.20680000019074,8.223600000381467,8.240100000381474,8.25690000009537,8.273499999999999,8.290100000381472,8.307200000286102,8.324300000190732,8.341999999999999,8.358700000286106,8.374200000286109,8.391500000000008,8.409000000000006,8.424200000286106,8.44250000000001,8.45980000019074,8.47480000019074,8.491800000190736,8.5092000002861,8.528999999999996,8.54330000019074,8.560000000000002,8.574100000381478,8.59080000019074,8.608700000286106,8.625500000000002,8.64010000038148,8.660800000190733,8.67360000038147,8.690200000286112,8.712600000381471,8.723500000000001,8.740100000381474,8.758800000190732,8.775500000000008,8.790600000381474,8.806800000190734,8.825000000000003,8.842100000381478,8.858600000381472,8.873400000095373,8.89,8.906800000190742,8.923500000000004,8.940100000381477,8.95680000019074,8.973500000000001,8.990100000381474,9.007200000286105,9.023700000286112,9.042100000381467,9.0567000002861,9.073400000095376,9.090100000381469,9.108200000286104,9.125600000381468,9.141900000095376,9.157499999999999,9.173500000000004,9.191500000000005,9.206700000286105,9.223500000000001,9.242500000000007,9.25710000038147,9.273400000095364,9.290100000381472,9.3067000002861,9.324200000286112,9.342200000286113,9.357600000381467,9.373400000095373,9.390300000190734,9.407300000190745,9.423700000286104,9.441800000190739,9.456700000286105,9.473400000095367]","[1731997862790,1731997862835,1731997862859,1731997862877,1731997862892,1731997862905,1731997862920,1731997862937,1731997862954,1731997862970,1731997862987,1731997863008,1731997863020,1731997863037,1731997863054,1731997863070,1731997863090,1731997863107,1731997863120,1731997863137,1731997863154,1731997863170,1731997863187,1731997863204,1731997863222,1731997863237,1731997863254,1731997863270,1731997863287,1731997863307,1731997863323,1731997863339,1731997863354,1731997863371,1731997863387,1731997863404,1731997863420,1731997863437,1731997863454,1731997863471,1731997863487,1731997863504,1731997863520,1731997863538,1731997863554,1731997863570,1731997863587,1731997863604,1731997863622,1731997863637,1731997863654,1731997863670,1731997863687,1731997863704,1731997863720,1731997863737,1731997863754,1731997863770,1731997863787,1731997863804,1731997863820,1731997863837,1731997863854,1731997863871,1731997863887,1731997863904,1731997863923,1731997863937,1731997863954,1731997863970,1731997863988,1731997864004,1731997864020,1731997864037,1731997864054,1731997864070,1731997864087,1731997864104,1731997864120,1731997864140,1731997864156,1731997864170,1731997864187,1731997864204,1731997864220,1731997864237,1731997864256,1731997864271,1731997864287,1731997864304,1731997864322,1731997864338,1731997864354,1731997864370,1731997864387,1731997864404,1731997864423,1731997864437,1731997864454,1731997864470,1731997864487,1731997864506,1731997864521,1731997864537,1731997864554,1731997864571,1731997864587,1731997864604,1731997864620,1731997864639,1731997864654,1731997864670,1731997864687,1731997864706,1731997864723,1731997864742,1731997864758,1731997864775,1731997864792,1731997864810,1731997864820,1731997864837,1731997864854,1731997864870,1731997864887,1731997864904,1731997864920,1731997864937,1731997864954,1731997864970,1731997864987,1731997865004,1731997865020,1731997865037,1731997865054,1731997865070,1731997865089,1731997865106,1731997865121,1731997865139,1731997865154,1731997865170,1731997865187,1731997865206,1731997865220,1731997865237,1731997865254,1731997865270,1731997865287,1731997865308,1731997865324,1731997865339,1731997865354,1731997865372,1731997865387,1731997865405,1731997865420,1731997865437,1731997865458,1731997865471,1731997865487,1731997865504,1731997865523,1731997865538,1731997865558,1731997865573,1731997865592,1731997865610,1731997865624,1731997865637,1731997865655,1731997865674,1731997865690,1731997865708,1731997865726,1731997865742,1731997865757,1731997865776,1731997865791,1731997865807,1731997865823,1731997865841,1731997865856,1731997865873,1731997865888,1731997865911,1731997865921,1731997865937,1731997865954,1731997865975,1731997865989,1731997866007,1731997866022,1731997866040,1731997866055,1731997866072,1731997866087,1731997866108,1731997866123,1731997866138,1731997866154,1731997866173,1731997866187,1731997866206,1731997866222,1731997866240,1731997866256,1731997866272,1731997866292,1731997866309,1731997866321,1731997866337,1731997866375,1731997866381,1731997866387,1731997866404,1731997866424,1731997866437,1731997866455,1731997866471,1731997866489,1731997866504,1731997866521,1731997866542,1731997866556,1731997866574,1731997866589,1731997866608,1731997866622,1731997866637,1731997866654,1731997866674,1731997866687,1731997866704,1731997866723,1731997866740,1731997866755,1731997866770,1731997866790,1731997866806,1731997866821,1731997866838,1731997866858,1731997866870,1731997866887,1731997866909,1731997866921,1731997866937,1731997866954,1731997866975,1731997866987,1731997867008,1731997867023,1731997867037,1731997867054,1731997867074,1731997867090,1731997867104,1731997867124,1731997867140,1731997867154,1731997867170,1731997867190,1731997867204,1731997867221,1731997867240,1731997867255,1731997867271,1731997867290,1731997867304,1731997867320,1731997867337,1731997867356,1731997867370,1731997867387,1731997867408,1731997867423,1731997867440,1731997867460,1731997867471,1731997867487,1731997867504,1731997867524,1731997867538,1731997867554,1731997867570,1731997867589,1731997867605,1731997867621,1731997867640,1731997867654,1731997867671,1731997867691,1731997867706,1731997867721,1731997867737,1731997867756,1731997867771,1731997867789,1731997867810,1731997867824,1731997867841,1731997867856,1731997867874,1731997867892,1731997867909,1731997867924,1731997867937,1731997867956,1731997867970,1731997867990,1731997868007,1731997868022,1731997868041,1731997868056,1731997868070,1731997868087,1731997868109,1731997868121,1731997868137,1731997868157,1731997868174,1731997868189,1731997868210,1731997868220,1731997868237,1731997868255,1731997868270,1731997868291,1731997868308,1731997868323,1731997868343,1731997868359,1731997868373,1731997868390,1731997868407,1731997868425,1731997868437,1731997868454,1731997868479,1731997868491,1731997868504,1731997868522,1731997868541,1731997868556,1731997868571,1731997868590,1731997868606,1731997868622,1731997868637,1731997868657,1731997868682,1731997868689,1731997868708,1731997868725,1731997868740,1731997868758,1731997868773,1731997868787,1731997868805,1731997868824,1731997868842,1731997868854,1731997868870,1731997868887,1731997868904,1731997868920,1731997868937,1731997868954,1731997868970,1731997868987,1731997869004,1731997869020,1731997869041,1731997869056,1731997869070,