inst1_resp.keys,inst1_resp.rt,calibrationMouse.x,calibrationMouse.y,calibrationMouse.leftButton,calibrationMouse.midButton,calibrationMouse.rightButton,calibrationClick.x,calibrationClick.y,calibrationClick.leftButton,calibrationClick.midButton,calibrationClick.rightButton,trialsc.thisRepN,trialsc.thisTrialN,trialsc.thisN,trialsc.thisIndex,trialsc.ran,calibration_x,calibration_y,participant,session,date,expName,psychopyVersion,OS,frameRate,calibrationClick.clicked_name,ScreenRes_pixels,mouse_2.x,mouse_2.y,mouse_2.leftButton,mouse_2.midButton,mouse_2.rightButton,mouse_2.time,mouse_2.clicked_name,Camera_pixels,mouse.x,mouse.y,mouse.leftButton,mouse.midButton,mouse.rightButton,mouse.time,mouse.clicked_name,Choice,Trial,TrialDuration,MOUSE_GAZE,ET_GAZE,ET_GAZE_x_T,time,unixTime,ET_GAZE_NF,Loc_Bus_label,Loc_Metro_label,Loc_RH_label,Loc_Cost_label,Loc_Travel_label,Loc_Comfort_label,Loc_Bus_cost,Loc_Metro_cost,Loc_RH_cost,Loc_Bus_travel,Loc_Metro_travel,Loc_RH_travel,Loc_Bus_comfort,Loc_Metro_comfort,Loc_RH_comfort,trials.thisRepN,trials.thisTrialN,trials.thisN,trials.thisIndex,trials.ran,Block,Device,RH_cost,RH_travel_time,RH_Comfort,metro_cost,metro_travel_time,metro_Comfort,Bus_cost,Bus_travel_time,Bus_Comfort
space,1.3516,-0.847916667,-0.131481481,1,0,0,0.251041667,0.02037037,0,0,0,0,0,0,11,1,0,0,13,001,2024-11-20_14h42.00.843,Attention_exp_legacy,2023.1.0,Win32,59.52380952,,,,,,,,,,,,,,,,,,,,,,,,,,,,,,,,,,,,,,,,,,,,,,,,,,,,,,,,,
,,,,,,,-0.677083333,0.009259259,1,0,0,0,1,1,2,1,-0.67,0,13,001,2024-11-20_14h42.00.843,Attention_exp_legacy,2023.1.0,Win32,59.52380952,calibration_square,,,,,,,,,,,,,,,,,,,,,,,,,,,,,,,,,,,,,,,,,,,,,,,,,,,,,,,,
,,,,,,,0.013541667,-0.688888889,1,0,0,0,2,2,9,1,0,-0.67,13,001,2024-11-20_14h42.00.843,Attention_exp_legacy,2023.1.0,Win32,59.52380952,,,,,,,,,,,,,,,,,,,,,,,,,,,,,,,,,,,,,,,,,,,,,,,,,,,,,,,,,
,,,,,,,-0.339583333,0.677777778,1,0,0,0,3,3,8,1,-0.33,0.67,13,001,2024-11-20_14h42.00.843,Attention_exp_legacy,2023.1.0,Win32,59.52380952,calibration_square,,,,,,,,,,,,,,,,,,,,,,,,,,,,,,,,,,,,,,,,,,,,,,,,,,,,,,,,
,,,,,,,-0.319791667,-0.32962963,1,0,0,0,4,4,5,1,-0.33,-0.33,13,001,2024-11-20_14h42.00.843,Attention_exp_legacy,2023.1.0,Win32,59.52380952,,,,,,,,,,,,,,,,,,,,,,,,,,,,,,,,,,,,,,,,,,,,,,,,,,,,,,,,,
,,,,,,,0.316666667,-0.703703704,1,0,0,0,5,5,14,1,0.33,-0.67,13,001,2024-11-20_14h42.00.843,Attention_exp_legacy,2023.1.0,Win32,59.52380952,,,,,,,,,,,,,,,,,,,,,,,,,,,,,,,,,,,,,,,,,,,,,,,,,,,,,,,,,
,,,,,,,-0.333333333,0.335185185,1,0,0,0,6,6,7,1,-0.33,0.33,13,001,2024-11-20_14h42.00.843,Attention_exp_legacy,2023.1.0,Win32,59.52380952,calibration_square,,,,,,,,,,,,,,,,,,,,,,,,,,,,,,,,,,,,,,,,,,,,,,,,,,,,,,,,
,,,,,,,0.676041667,-0.694444444,1,0,0,0,7,7,20,1,0.67,-0.67,13,001,2024-11-20_14h42.00.843,Attention_exp_legacy,2023.1.0,Win32,59.52380952,,,,,,,,,,,,,,,,,,,,,,,,,,,,,,,,,,,,,,,,,,,,,,,,,,,,,,,,,
,,,,,,,-0.689583333,-0.687037037,1,0,0,0,8,8,0,1,-0.67,-0.67,13,001,2024-11-20_14h42.00.843,Attention_exp_legacy,2023.1.0,Win32,59.52380952,,,,,,,,,,,,,,,,,,,,,,,,,,,,,,,,,,,,,,,,,,,,,,,,,,,,,,,,,
,,,,,,,0.353125,-0.007407407,1,0,0,0,9,9,16,1,0.33,0,13,001,2024-11-20_14h42.00.843,Attention_exp_legacy,2023.1.0,Win32,59.52380952,,,,,,,,,,,,,,,,,,,,,,,,,,,,,,,,,,,,,,,,,,,,,,,,,,,,,,,,,
,,,,,,,-0.03125,0.327777778,1,0,0,0,10,10,12,1,0,0.33,13,001,2024-11-20_14h42.00.843,Attention_exp_legacy,2023.1.0,Win32,59.52380952,,,,,,,,,,,,,,,,,,,,,,,,,,,,,,,,,,,,,,,,,,,,,,,,,,,,,,,,,
,,,,,,,-0.313541667,-0.005555556,1,0,0,0,11,11,6,1,-0.33,0,13,001,2024-11-20_14h42.00.843,Attention_exp_legacy,2023.1.0,Win32,59.52380952,,,,,,,,,,,,,,,,,,,,,,,,,,,,,,,,,,,,,,,,,,,,,,,,,,,,,,,,,
,,,,,,,-0.673958333,0.327777778,1,0,0,0,12,12,3,1,-0.67,0.33,13,001,2024-11-20_14h42.00.843,Attention_exp_legacy,2023.1.0,Win32,59.52380952,calibration_square,,,,,,,,,,,,,,,,,,,,,,,,,,,,,,,,,,,,,,,,,,,,,,,,,,,,,,,,
,,,,,,,0.351041667,-0.381481481,1,0,0,0,13,13,15,1,0.33,-0.33,13,001,2024-11-20_14h42.00.843,Attention_exp_legacy,2023.1.0,Win32,59.52380952,,,,,,,,,,,,,,,,,,,,,,,,,,,,,,,,,,,,,,,,,,,,,,,,,,,,,,,,,
,,,,,,,0.666666667,0.657407407,1,0,0,0,14,14,19,1,0.67,0.67,13,001,2024-11-20_14h42.00.843,Attention_exp_legacy,2023.1.0,Win32,59.52380952,,,,,,,,,,,,,,,,,,,,,,,,,,,,,,,,,,,,,,,,,,,,,,,,,,,,,,,,,
,,,,,,,0.327083333,0.316666667,1,0,0,0,15,15,17,1,0.33,0.33,13,001,2024-11-20_14h42.00.843,Attention_exp_legacy,2023.1.0,Win32,59.52380952,,,,,,,,,,,,,,,,,,,,,,,,,,,,,,,,,,,,,,,,,,,,,,,,,,,,,,,,,
,,,,,,,-0.686458333,-0.35,1,0,0,0,16,16,1,1,-0.67,-0.33,13,001,2024-11-20_14h42.00.843,Attention_exp_legacy,2023.1.0,Win32,59.52380952,,,,,,,,,,,,,,,,,,,,,,,,,,,,,,,,,,,,,,,,,,,,,,,,,,,,,,,,,
,,,,,,,0.011458333,-0.316666667,1,0,0,0,17,17,10,1,0,-0.33,13,001,2024-11-20_14h42.00.843,Attention_exp_legacy,2023.1.0,Win32,59.52380952,,,,,,,,,,,,,,,,,,,,,,,,,,,,,,,,,,,,,,,,,,,,,,,,,,,,,,,,,
,,,,,,,0.34375,0.698148148,1,0,0,0,18,18,18,1,0.33,0.67,13,001,2024-11-20_14h42.00.843,Attention_exp_legacy,2023.1.0,Win32,59.52380952,,,,,,,,,,,,,,,,,,,,,,,,,,,,,,,,,,,,,,,,,,,,,,,,,,,,,,,,,
,,,,,,,-0.007291667,0.690740741,1,0,0,0,19,19,13,1,0,0.67,13,001,2024-11-20_14h42.00.843,Attention_exp_legacy,2023.1.0,Win32,59.52380952,,,,,,,,,,,,,,,,,,,,,,,,,,,,,,,,,,,,,,,,,,,,,,,,,,,,,,,,,
,,,,,,,-0.326041667,-0.655555556,1,0,0,0,20,20,4,1,-0.33,-0.67,13,001,2024-11-20_14h42.00.843,Attention_exp_legacy,2023.1.0,Win32,59.52380952,,,,,,,,,,,,,,,,,,,,,,,,,,,,,,,,,,,,,,,,,,,,,,,,,,,,,,,,,
,,,,,,,,,,,,,,,,,,,13,001,2024-11-20_14h42.00.843,Attention_exp_legacy,2023.1.0,Win32,59.52380952,,"[1920,1080]",[0.005208333333333333],[-0.5111111111111111],[1],[0],[0],[0.6595999999046356],"[""StartButton""]","[640,480]",[-0.1875],[0.6277777777777778],[1],[0],[0],[10.434099999904632],"[""Bus_label""]",Bus_label,1,11.447,"[[0.12395833333333334,-0.06481481481481481],[0.12395833333333334,-0.06481481481481481],[0.12395833333333334,-0.06481481481481481],[0.12395833333333334,-0.06481481481481481],[0.12395833333333334,-0.06481481481481481],[0.12395833333333334,-0.06481481481481481],[0.12395833333333334,-0.06481481481481481],[0.12395833333333334,-0.06481481481481481],[0.12395833333333334,-0.06481481481481481],[0.12395833333333334,-0.06481481481481481],[0.12395833333333334,-0.06481481481481481],[0.12395833333333334,-0.06481481481481481],[0.12395833333333334,-0.06481481481481481],[0.12395833333333334,-0.06481481481481481],[0.12395833333333334,-0.06481481481481481],[0.12395833333333334,-0.06481481481481481],[0.12395833333333334,-0.06481481481481481],[0.12395833333333334,-0.06481481481481481],[0.12395833333333334,-0.06481481481481481],[0.12395833333333334,-0.06481481481481481],[0.12395833333333334,-0.06481481481481481],[0.12395833333333334,-0.06481481481481481],[0.12395833333333334,-0.06481481481481481],[0.12395833333333334,-0.06481481481481481],[0.12395833333333334,-0.06481481481481481],[0.12395833333333334,-0.06481481481481481],[0.12395833333333334,-0.06481481481481481],[0.12395833333333334,-0.06481481481481481],[0.12395833333333334,-0.06481481481481481],[0.12395833333333334,-0.06481481481481481],[0.12395833333333334,-0.06481481481481481],[0.12395833333333334,-0.06481481481481481],[0.12395833333333334,-0.06481481481481481],[0.12395833333333334,-0.06481481481481481],[0.12395833333333334,-0.06481481481481481],[0.12395833333333334,-0.06481481481481481],[0.12395833333333334,-0.06481481481481481],[0.12395833333333334,-0.06481481481481481],[0.12395833333333334,-0.06481481481481481],[0.12395833333333334,-0.06481481481481481],[0.12395833333333334,-0.06481481481481481],[0.12395833333333334,-0.06481481481481481],[0.12395833333333334,-0.06481481481481481],[0.12395833333333334,-0.06481481481481481],[0.12395833333333334,-0.06481481481481481],[0.12395833333333334,-0.06481481481481481],[0.12395833333333334,-0.06481481481481481],[0.12395833333333334,-0.06481481481481481],[0.12395833333333334,-0.06481481481481481],[0.12395833333333334,-0.06481481481481481],[0.12395833333333334,-0.06481481481481481],[0.12395833333333334,-0.06481481481481481],[0.12395833333333334,-0.06481481481481481],[0.12395833333333334,-0.06481481481481481],[0.12395833333333334,-0.06481481481481481],[0.12395833333333334,-0.06481481481481481],[0.12395833333333334,-0.06481481481481481],[0.12395833333333334,-0.06481481481481481],[0.12395833333333334,-0.06481481481481481],[0.12395833333333334,-0.06481481481481481],[0.12395833333333334,-0.06481481481481481],[0.12395833333333334,-0.06481481481481481],[0.12395833333333334,-0.06481481481481481],[0.12395833333333334,-0.06481481481481481],[0.12395833333333334,-0.06481481481481481],[0.12395833333333334,-0.06481481481481481],[0.12395833333333334,-0.06481481481481481],[0.12395833333333334,-0.06481481481481481],[0.12395833333333334,-0.06481481481481481],[0.12395833333333334,-0.06481481481481481],[0.12395833333333334,-0.06481481481481481],[0.12395833333333334,-0.06481481481481481],[0.12395833333333334,-0.06481481481481481],[0.12395833333333334,-0.06481481481481481],[0.12395833333333334,-0.06481481481481481],[0.12395833333333334,-0.06481481481481481],[0.12395833333333334,-0.06481481481481481],[0.12395833333333334,-0.06481481481481481],[0.12395833333333334,-0.06481481481481481],[0.12395833333333334,-0.06481481481481481],[0.12395833333333334,-0.06481481481481481],[0.12395833333333334,-0.06481481481481481],[0.12395833333333334,-0.06481481481481481],[0.12395833333333334,-0.06481481481481481],[0.12395833333333334,-0.06481481481481481],[0.12395833333333334,-0.06481481481481481],[0.12395833333333334,-0.06481481481481481],[0.12395833333333334,-0.06481481481481481],[0.12395833333333334,-0.06481481481481481],[0.12395833333333334,-0.06481481481481481],[0.12395833333333334,-0.06481481481481481],[0.12395833333333334,-0.06481481481481481],[0.12395833333333334,-0.06481481481481481],[0.12395833333333334,-0.06481481481481481],[0.12395833333333334,-0.06481481481481481],[0.12395833333333334,-0.06481481481481481],[0.12395833333333334,-0.06481481481481481],[0.12395833333333334,-0.06481481481481481],[0.12395833333333334,-0.06481481481481481],[0.12395833333333334,-0.06481481481481481],[0.12395833333333334,-0.06481481481481481],[0.12395833333333334,-0.06481481481481481],[0.12395833333333334,-0.06481481481481481],[0.12395833333333334,-0.06481481481481481],[0.12395833333333334,-0.06481481481481481],[0.12395833333333334,-0.06481481481481481],[0.12395833333333334,-0.06481481481481481],[0.12395833333333334,-0.06481481481481481],[0.12395833333333334,-0.06481481481481481],[0.12395833333333334,-0.06481481481481481],[0.12395833333333334,-0.06481481481481481],[0.12395833333333334,-0.06481481481481481],[0.12395833333333334,-0.06481481481481481],[0.12395833333333334,-0.06481481481481481],[0.12395833333333334,-0.06481481481481481],[0.12395833333333334,-0.06481481481481481],[0.12395833333333334,-0.06481481481481481],[0.12395833333333334,-0.06481481481481481],[0.12395833333333334,-0.06481481481481481],[0.12395833333333334,-0.06481481481481481],[0.12395833333333334,-0.06481481481481481],[0.12395833333333334,-0.06481481481481481],[0.12395833333333334,-0.06481481481481481],[0.12395833333333334,-0.06481481481481481],[0.12395833333333334,-0.06481481481481481],[0.12395833333333334,-0.06481481481481481],[0.12395833333333334,-0.06481481481481481],[0.12395833333333334,-0.06481481481481481],[0.12395833333333334,-0.06481481481481481],[0.12395833333333334,-0.06481481481481481],[0.12395833333333334,-0.06481481481481481],[0.12395833333333334,-0.06481481481481481],[0.12395833333333334,-0.06481481481481481],[0.12395833333333334,-0.06481481481481481],[0.12395833333333334,-0.06481481481481481],[0.12395833333333334,-0.06481481481481481],[0.12395833333333334,-0.06481481481481481],[0.12395833333333334,-0.06481481481481481],[0.12395833333333334,-0.06481481481481481],[0.12395833333333334,-0.06481481481481481],[0.12395833333333334,-0.06481481481481481],[0.12395833333333334,-0.06481481481481481],[0.12395833333333334,-0.06481481481481481],[0.12395833333333334,-0.06481481481481481],[0.12395833333333334,-0.06481481481481481],[0.12395833333333334,-0.06481481481481481],[0.12395833333333334,-0.06481481481481481],[0.12395833333333334,-0.06481481481481481],[0.12395833333333334,-0.06481481481481481],[0.12395833333333334,-0.06481481481481481],[0.12395833333333334,-0.06481481481481481],[0.12395833333333334,-0.06481481481481481],[0.12395833333333334,-0.06481481481481481],[0.12395833333333334,-0.06481481481481481],[0.12395833333333334,-0.06481481481481481],[0.12395833333333334,-0.06481481481481481],[0.12395833333333334,-0.06481481481481481],[0.12395833333333334,-0.06481481481481481],[0.12395833333333334,-0.06481481481481481],[0.12395833333333334,-0.06481481481481481],[0.12395833333333334,-0.06481481481481481],[0.12395833333333334,-0.06481481481481481],[0.12395833333333334,-0.06481481481481481],[0.12395833333333334,-0.06481481481481481],[0.12395833333333334,-0.06481481481481481],[0.12395833333333334,-0.06481481481481481],[0.12395833333333334,-0.06481481481481481],[0.12395833333333334,-0.06481481481481481],[0.12395833333333334,-0.06481481481481481],[0.12395833333333334,-0.06481481481481481],[0.12395833333333334,-0.06481481481481481],[0.12395833333333334,-0.06481481481481481],[0.12395833333333334,-0.06481481481481481],[0.12395833333333334,-0.06481481481481481],[0.12395833333333334,-0.06481481481481481],[0.12395833333333334,-0.06481481481481481],[0.12395833333333334,-0.06481481481481481],[0.12395833333333334,-0.06481481481481481],[0.12395833333333334,-0.06481481481481481],[0.12395833333333334,-0.06481481481481481],[0.12395833333333334,-0.06481481481481481],[0.12395833333333334,-0.06481481481481481],[0.12395833333333334,-0.06481481481481481],[0.12395833333333334,-0.06481481481481481],[0.12395833333333334,-0.06481481481481481],[0.12395833333333334,-0.06481481481481481],[0.12395833333333334,-0.06481481481481481],[0.12395833333333334,-0.06481481481481481],[0.12395833333333334,-0.06481481481481481],[0.12395833333333334,-0.06481481481481481],[0.12395833333333334,-0.06481481481481481],[0.12395833333333334,-0.06481481481481481],[0.12395833333333334,-0.06481481481481481],[0.12395833333333334,-0.06481481481481481],[0.12395833333333334,-0.06481481481481481],[0.12395833333333334,-0.06481481481481481],[0.12395833333333334,-0.06481481481481481],[0.12395833333333334,-0.06481481481481481],[0.12395833333333334,-0.06481481481481481],[0.12395833333333334,-0.06481481481481481],[0.12395833333333334,-0.06481481481481481],[0.12395833333333334,-0.06481481481481481],[0.12395833333333334,-0.06481481481481481],[0.12395833333333334,-0.06481481481481481],[0.12395833333333334,-0.06481481481481481],[0.12395833333333334,-0.06481481481481481],[0.12395833333333334,-0.06481481481481481],[0.12395833333333334,-0.06481481481481481],[0.12395833333333334,-0.06481481481481481],[0.12395833333333334,-0.06481481481481481],[0.12395833333333334,-0.06481481481481481],[0.12395833333333334,-0.06481481481481481],[0.12395833333333334,-0.06481481481481481],[0.12395833333333334,-0.06481481481481481],[0.12395833333333334,-0.06481481481481481],[0.12395833333333334,-0.06481481481481481],[0.12395833333333334,-0.06481481481481481],[0.12395833333333334,-0.06481481481481481],[0.12395833333333334,-0.06481481481481481],[0.12395833333333334,-0.06481481481481481],[0.12395833333333334,-0.06481481481481481],[0.12395833333333334,-0.06481481481481481],[0.12395833333333334,-0.06481481481481481],[0.12395833333333334,-0.06481481481481481],[0.12395833333333334,-0.06481481481481481],[0.12395833333333334,-0.06481481481481481],[0.12395833333333334,-0.06481481481481481],[0.12395833333333334,-0.06481481481481481],[0.12395833333333334,-0.06481481481481481],[0.12395833333333334,-0.06481481481481481],[0.12395833333333334,-0.06481481481481481],[0.12395833333333334,-0.06481481481481481],[0.12395833333333334,-0.06481481481481481],[0.12395833333333334,-0.06481481481481481],[0.12395833333333334,-0.06481481481481481],[0.12395833333333334,-0.06481481481481481],[0.12395833333333334,-0.06481481481481481],[0.12395833333333334,-0.06481481481481481],[0.12395833333333334,-0.06481481481481481],[0.12395833333333334,-0.06481481481481481],[0.12395833333333334,-0.06481481481481481],[0.12395833333333334,-0.06481481481481481],[0.12395833333333334,-0.06481481481481481],[0.12395833333333334,-0.06481481481481481],[0.12395833333333334,-0.06481481481481481],[0.12395833333333334,-0.06481481481481481],[0.12395833333333334,-0.06481481481481481],[0.12395833333333334,-0.06481481481481481],[0.12395833333333334,-0.06481481481481481],[0.12395833333333334,-0.06481481481481481],[0.12395833333333334,-0.06481481481481481],[0.12395833333333334,-0.06481481481481481],[0.12395833333333334,-0.06481481481481481],[0.12395833333333334,-0.06481481481481481],[0.12395833333333334,-0.06481481481481481],[0.12395833333333334,-0.06481481481481481],[0.12395833333333334,-0.06481481481481481],[0.12395833333333334,-0.06481481481481481],[0.12395833333333334,-0.06481481481481481],[0.12395833333333334,-0.06481481481481481],[0.12395833333333334,-0.06481481481481481],[0.12395833333333334,-0.06481481481481481],[0.12395833333333334,-0.06481481481481481],[0.12395833333333334,-0.06481481481481481],[0.12395833333333334,-0.06481481481481481],[0.12395833333333334,-0.06481481481481481],[0.12395833333333334,-0.06481481481481481],[0.12395833333333334,-0.06481481481481481],[0.12395833333333334,-0.06481481481481481],[0.12395833333333334,-0.06481481481481481],[0.12395833333333334,-0.06481481481481481],[0.12395833333333334,-0.06481481481481481],[0.12395833333333334,-0.06481481481481481],[0.12395833333333334,-0.06481481481481481],[0.12395833333333334,-0.06481481481481481],[0.12395833333333334,-0.06481481481481481],[0.12395833333333334,-0.06481481481481481],[0.12395833333333334,-0.06481481481481481],[0.12395833333333334,-0.06481481481481481],[0.12395833333333334,-0.06481481481481481],[0.12395833333333334,-0.06481481481481481],[0.12395833333333334,-0.06481481481481481],[0.12395833333333334,-0.06481481481481481],[0.12395833333333334,-0.06481481481481481],[0.12395833333333334,-0.06481481481481481],[0.12395833333333334,-0.06481481481481481],[0.12395833333333334,-0.06481481481481481],[0.12395833333333334,-0.06481481481481481],[0.12395833333333334,-0.06481481481481481],[0.12395833333333334,-0.06481481481481481],[0.12395833333333334,-0.06481481481481481],[0.12395833333333334,-0.06481481481481481],[0.12395833333333334,-0.06481481481481481],[0.12395833333333334,-0.06481481481481481],[0.12395833333333334,-0.06481481481481481],[0.12395833333333334,-0.06481481481481481],[0.12395833333333334,-0.06481481481481481],[0.12395833333333334,-0.06481481481481481],[0.12395833333333334,-0.06481481481481481],[0.12395833333333334,-0.06481481481481481],[0.12395833333333334,-0.06481481481481481],[0.12395833333333334,-0.06481481481481481],[0.12395833333333334,-0.06481481481481481],[0.12395833333333334,-0.06481481481481481],[0.12395833333333334,-0.06481481481481481],[0.12395833333333334,-0.06481481481481481],[0.12395833333333334,-0.06481481481481481],[0.12395833333333334,-0.06481481481481481],[0.12395833333333334,-0.06481481481481481],[0.12395833333333334,-0.06481481481481481],[0.12395833333333334,-0.06481481481481481],[0.12395833333333334,-0.06481481481481481],[0.12395833333333334,-0.06481481481481481],[0.12395833333333334,-0.06481481481481481],[0.12395833333333334,-0.06481481481481481],[0.12395833333333334,-0.06481481481481481],[0.12395833333333334,-0.06481481481481481],[0.12395833333333334,-0.06481481481481481],[0.12395833333333334,-0.06481481481481481],[0.12395833333333334,-0.06481481481481481],[0.12395833333333334,-0.06481481481481481],[0.12395833333333334,-0.06481481481481481],[0.12395833333333334,-0.06481481481481481],[0.12395833333333334,-0.06481481481481481],[0.12395833333333334,-0.06481481481481481],[0.12395833333333334,-0.06481481481481481],[0.12395833333333334,-0.06481481481481481],[0.12395833333333334,-0.06481481481481481],[0.12395833333333334,-0.06481481481481481],[0.12395833333333334,-0.06481481481481481],[0.12395833333333334,-0.06481481481481481],[0.12395833333333334,-0.06481481481481481],[0.12395833333333334,-0.06481481481481481],[0.12395833333333334,-0.06481481481481481],[0.12395833333333334,-0.06481481481481481],[0.12395833333333334,-0.06481481481481481],[0.12395833333333334,-0.06481481481481481],[0.12395833333333334,-0.06481481481481481],[0.12395833333333334,-0.06481481481481481],[0.12395833333333334,-0.06481481481481481],[0.12395833333333334,-0.06481481481481481],[0.12395833333333334,-0.06481481481481481],[0.12395833333333334,-0.06481481481481481],[0.12395833333333334,-0.06481481481481481],[0.12395833333333334,-0.06481481481481481],[0.12395833333333334,-0.06481481481481481],[0.12395833333333334,-0.06481481481481481],[0.12395833333333334,-0.06481481481481481],[0.12395833333333334,-0.06481481481481481],[0.12395833333333334,-0.06481481481481481],[0.12395833333333334,-0.06481481481481481],[0.12395833333333334,-0.06481481481481481],[0.12395833333333334,-0.06481481481481481],[0.12395833333333334,-0.06481481481481481],[0.12395833333333334,-0.06481481481481481],[0.12395833333333334,-0.06481481481481481],[0.12395833333333334,-0.06481481481481481],[0.12395833333333334,-0.06481481481481481],[0.12395833333333334,-0.06481481481481481],[0.12395833333333334,-0.06481481481481481],[0.12395833333333334,-0.06481481481481481],[0.12395833333333334,-0.06481481481481481],[0.12395833333333334,-0.06481481481481481],[0.12395833333333334,-0.06481481481481481],[0.12395833333333334,-0.06481481481481481],[0.12395833333333334,-0.06481481481481481],[0.12395833333333334,-0.06481481481481481],[0.12395833333333334,-0.06481481481481481],[0.12395833333333334,-0.06481481481481481],[0.12395833333333334,-0.06481481481481481],[0.12395833333333334,-0.06481481481481481],[0.12395833333333334,-0.06481481481481481],[0.12395833333333334,-0.06481481481481481],[0.12395833333333334,-0.06481481481481481],[0.12395833333333334,-0.06481481481481481],[0.12395833333333334,-0.06481481481481481],[0.12395833333333334,-0.06481481481481481],[0.12395833333333334,-0.06481481481481481],[0.12395833333333334,-0.06481481481481481],[0.12395833333333334,-0.06481481481481481],[0.12395833333333334,-0.06481481481481481],[0.12395833333333334,-0.06481481481481481],[0.12395833333333334,-0.06481481481481481],[0.12395833333333334,-0.06481481481481481],[0.12395833333333334,-0.06481481481481481],[0.12395833333333334,-0.06481481481481481],[0.12395833333333334,-0.06481481481481481],[0.12395833333333334,-0.06481481481481481],[0.12395833333333334,-0.06481481481481481],[0.12395833333333334,-0.06481481481481481],[0.12395833333333334,-0.06481481481481481],[0.12395833333333334,-0.06481481481481481],[0.12395833333333334,-0.06481481481481481],[0.12395833333333334,-0.06481481481481481],[0.12395833333333334,-0.06481481481481481],[0.12395833333333334,-0.06481481481481481],[0.12395833333333334,-0.06481481481481481],[0.12395833333333334,-0.06481481481481481],[0.12395833333333334,-0.06481481481481481],[0.12395833333333334,-0.06481481481481481],[0.12395833333333334,-0.06481481481481481],[0.12395833333333334,-0.06481481481481481],[0.12395833333333334,-0.06481481481481481],[0.12395833333333334,-0.06481481481481481],[0.12395833333333334,-0.06481481481481481],[0.12395833333333334,-0.06481481481481481],[0.12395833333333334,-0.06481481481481481],[0.12395833333333334,-0.06481481481481481],[0.12395833333333334,-0.06481481481481481],[0.12395833333333334,-0.06481481481481481],[0.12395833333333334,-0.06481481481481481],[0.12395833333333334,-0.06481481481481481],[0.12395833333333334,-0.06481481481481481],[0.12395833333333334,-0.06481481481481481],[0.12395833333333334,-0.06481481481481481],[0.12395833333333334,-0.06481481481481481],[0.12395833333333334,-0.06481481481481481],[0.12395833333333334,-0.06481481481481481],[0.12395833333333334,-0.06481481481481481],[0.12395833333333334,-0.06481481481481481],[0.12395833333333334,-0.06481481481481481],[0.12395833333333334,-0.06481481481481481],[0.12395833333333334,-0.06481481481481481],[0.12395833333333334,-0.06481481481481481],[0.12395833333333334,-0.06481481481481481],[0.12395833333333334,-0.06481481481481481],[0.12395833333333334,-0.06481481481481481],[0.12395833333333334,-0.06481481481481481],[0.12395833333333334,-0.06481481481481481],[0.12395833333333334,-0.06481481481481481],[0.12395833333333334,-0.06481481481481481],[0.12395833333333334,-0.06481481481481481],[0.12395833333333334,-0.06481481481481481],[0.12395833333333334,-0.06481481481481481],[0.12395833333333334,-0.06481481481481481],[0.12395833333333334,-0.06481481481481481],[0.12395833333333334,-0.06481481481481481],[0.12395833333333334,-0.06481481481481481],[0.12395833333333334,-0.06481481481481481],[0.12395833333333334,-0.06481481481481481],[0.12395833333333334,-0.06481481481481481],[0.12395833333333334,-0.06481481481481481],[0.12395833333333334,-0.06481481481481481],[0.12395833333333334,-0.06481481481481481],[0.12395833333333334,-0.06481481481481481],[0.12395833333333334,-0.06481481481481481],[0.12395833333333334,-0.06481481481481481],[0.12395833333333334,-0.06481481481481481],[0.12395833333333334,-0.06481481481481481],[0.12395833333333334,-0.06481481481481481],[0.12395833333333334,-0.06481481481481481],[0.12395833333333334,-0.06481481481481481],[0.12395833333333334,-0.06481481481481481],[0.12395833333333334,-0.06481481481481481],[0.12395833333333334,-0.06481481481481481],[0.12395833333333334,-0.06481481481481481],[0.12395833333333334,-0.06481481481481481],[0.12395833333333334,-0.06481481481481481],[0.12395833333333334,-0.06481481481481481],[0.12395833333333334,-0.06481481481481481],[0.12395833333333334,-0.06481481481481481],[0.12395833333333334,-0.06481481481481481],[0.12395833333333334,-0.06481481481481481],[0.12395833333333334,-0.06481481481481481],[0.12395833333333334,-0.06481481481481481],[0.12395833333333334,-0.06481481481481481],[0.12395833333333334,-0.06481481481481481],[0.12395833333333334,-0.06481481481481481],[0.12395833333333334,-0.06481481481481481],[0.12395833333333334,-0.06481481481481481],[0.12395833333333334,-0.06481481481481481],[0.12395833333333334,-0.06481481481481481],[0.12395833333333334,-0.06481481481481481],[0.12395833333333334,-0.06481481481481481],[0.12395833333333334,-0.06481481481481481],[0.12395833333333334,-0.06481481481481481],[0.12395833333333334,-0.06481481481481481],[0.12395833333333334,-0.06481481481481481],[0.12395833333333334,-0.06481481481481481],[0.12395833333333334,-0.06481481481481481],[0.12395833333333334,-0.06481481481481481],[0.12395833333333334,-0.06481481481481481],[0.12395833333333334,-0.06481481481481481],[0.12395833333333334,-0.06481481481481481],[0.12395833333333334,-0.06481481481481481],[0.12395833333333334,-0.06481481481481481],[0.12395833333333334,-0.06481481481481481],[0.12395833333333334,-0.06481481481481481],[0.12395833333333334,-0.06481481481481481],[0.12395833333333334,-0.06481481481481481],[0.12395833333333334,-0.06481481481481481],[0.12395833333333334,-0.06481481481481481],[0.12395833333333334,-0.06481481481481481],[0.12395833333333334,-0.06481481481481481],[0.12395833333333334,-0.06481481481481481],[0.12395833333333334,-0.06481481481481481],[0.12395833333333334,-0.06481481481481481],[0.12395833333333334,-0.06481481481481481],[0.12395833333333334,-0.06481481481481481],[0.12395833333333334,-0.06481481481481481],[0.12395833333333334,-0.06481481481481481],[0.12395833333333334,-0.06481481481481481],[0.12395833333333334,-0.06481481481481481],[0.12395833333333334,-0.06481481481481481],[0.12395833333333334,-0.06481481481481481],[0.12395833333333334,-0.06481481481481481],[0.12395833333333334,-0.06481481481481481],[0.12395833333333334,-0.06481481481481481],[0.12395833333333334,-0.06481481481481481],[0.12395833333333334,-0.06481481481481481],[0.12395833333333334,-0.06481481481481481],[0.12395833333333334,-0.06481481481481481],[0.12395833333333334,-0.06481481481481481],[0.12395833333333334,-0.06481481481481481],[0.12395833333333334,-0.06481481481481481],[0.12395833333333334,-0.06481481481481481],[0.12395833333333334,-0.06481481481481481],[0.12395833333333334,-0.06481481481481481],[0.12395833333333334,-0.06481481481481481],[0.12395833333333334,-0.06481481481481481],[0.12395833333333334,-0.06481481481481481],[0.12395833333333334,-0.06481481481481481],[0.12395833333333334,-0.06481481481481481],[0.12395833333333334,-0.06481481481481481],[0.12395833333333334,-0.06481481481481481],[0.12395833333333334,-0.06481481481481481],[0.12395833333333334,-0.06481481481481481],[0.12395833333333334,-0.06481481481481481],[0.12395833333333334,-0.06481481481481481],[0.12395833333333334,-0.06481481481481481],[0.12395833333333334,-0.06481481481481481],[0.12395833333333334,-0.06481481481481481],[0.12395833333333334,-0.06481481481481481],[0.12395833333333334,-0.06481481481481481],[0.12395833333333334,-0.06481481481481481],[0.12395833333333334,-0.06481481481481481],[0.12395833333333334,-0.06481481481481481],[0.12395833333333334,-0.06481481481481481],[0.12395833333333334,-0.06481481481481481],[0.12395833333333334,-0.06481481481481481],[0.12395833333333334,-0.06481481481481481],[0.12395833333333334,-0.06481481481481481],[0.12395833333333334,-0.06481481481481481],[0.12395833333333334,-0.06481481481481481],[0.12395833333333334,-0.06481481481481481],[0.12395833333333334,-0.06481481481481481],[0.12395833333333334,-0.06481481481481481],[0.12395833333333334,-0.06481481481481481],[0.12395833333333334,-0.06481481481481481],[0.12395833333333334,-0.06481481481481481],[0.12395833333333334,-0.06481481481481481],[0.12395833333333334,-0.06481481481481481],[0.12395833333333334,-0.06481481481481481],[0.12395833333333334,-0.06481481481481481],[0.12395833333333334,-0.06481481481481481],[0.12395833333333334,-0.06481481481481481],[0.12395833333333334,-0.06481481481481481],[0.12395833333333334,-0.06481481481481481],[0.12395833333333334,-0.06481481481481481],[0.12395833333333334,-0.06481481481481481],[0.12395833333333334,-0.06481481481481481],[0.12395833333333334,-0.06481481481481481],[0.12395833333333334,-0.06481481481481481],[0.12395833333333334,-0.06481481481481481],[0.12395833333333334,-0.06481481481481481],[0.12395833333333334,-0.06481481481481481],[0.12395833333333334,-0.06481481481481481],[0.12395833333333334,-0.06481481481481481],[0.12395833333333334,-0.06481481481481481],[0.12395833333333334,-0.06481481481481481],[0.12395833333333334,-0.06481481481481481],[0.12395833333333334,-0.06481481481481481],[0.121875,-0.05185185185185185],[0.11770833333333333,0.022222222222222223],[0.11770833333333333,0.07777777777777778],[0.11770833333333333,0.07777777777777778],[0.11770833333333333,0.07777777777777778],[0.11770833333333333,0.07777777777777778],[0.11770833333333333,0.07777777777777778],[0.11770833333333333,0.07777777777777778],[0.11770833333333333,0.07777777777777778],[0.11770833333333333,0.07777777777777778],[0.11770833333333333,0.07777777777777778],[0.11770833333333333,0.07777777777777778],[0.11770833333333333,0.07777777777777778],[0.11770833333333333,0.07777777777777778],[0.11770833333333333,0.07777777777777778],[0.11770833333333333,0.07777777777777778],[0.11770833333333333,0.07777777777777778],[0.11770833333333333,0.07777777777777778],[0.11770833333333333,0.07777777777777778],[0.11770833333333333,0.07777777777777778],[0.11770833333333333,0.07777777777777778],[0.12291666666666666,0.0962962962962963],[0.12395833333333334,0.10185185185185185],[0.121875,0.10555555555555556],[0.11666666666666667,0.11666666666666667],[0.10625,0.1388888888888889],[0.090625,0.1648148148148148],[0.059375,0.2074074074074074],[-0.003125,0.28703703703703703],[-0.07916666666666666,0.37592592592592594],[-0.15729166666666666,0.45185185185185184],[-0.20625,0.5018518518518519],[-0.23125,0.5259259259259259],[-0.23854166666666668,0.5314814814814814],[-0.23854166666666668,0.5314814814814814],[-0.23854166666666668,0.5314814814814814],[-0.23854166666666668,0.5314814814814814],[-0.23854166666666668,0.5314814814814814],[-0.23854166666666668,0.5314814814814814],[-0.23854166666666668,0.5314814814814814],[-0.23854166666666668,0.5296296296296297],[-0.23854166666666668,0.5296296296296297],[-0.23645833333333333,0.5296296296296297],[-0.23541666666666666,0.5277777777777778],[-0.228125,0.5277777777777778],[-0.21354166666666666,0.5537037037037037],[-0.20520833333333333,0.5777777777777777],[-0.196875,0.6018518518518519],[-0.19166666666666668,0.6148148148148148],[-0.190625,0.6166666666666667],[-0.190625,0.6203703703703703],[-0.190625,0.6203703703703703],[-0.1875,0.6277777777777778],[-0.1875,0.6277777777777778],[-0.1875,0.6277777777777778],[-0.1875,0.6277777777777778],[-0.1875,0.6277777777777778],[-0.1875,0.6277777777777778],[-0.1875,0.6277777777777778],[-0.18645833333333334,0.6314814814814815],[-0.18645833333333334,0.6314814814814815],[-0.18645833333333334,0.6314814814814815],[-0.18645833333333334,0.6314814814814815],[-0.18645833333333334,0.6314814814814815],[-0.18645833333333334,0.6314814814814815],[-0.18645833333333334,0.6314814814814815],[-0.18645833333333334,0.6314814814814815],[-0.18645833333333334,0.6314814814814815],[-0.18645833333333334,0.6314814814814815],[-0.17916666666666667,0.6351851851851852],[-0.1375,0.6370370370370371],[-0.06875,0.6407407407407407],[0.020833333333333332,0.6407407407407407],[0.121875,0.6240740740740741],[0.2125,0.5962962962962963],[0.26458333333333334,0.5685185185185185],[0.2833333333333333,0.5555555555555556],[0.2875,0.5518518518518518],[0.2875,0.55],[0.2875,0.5444444444444444],[0.2760416666666667,0.5351851851851852],[0.18958333333333333,0.49074074074074076],[0.10520833333333333,0.45],[0.020833333333333332,0.40555555555555556],[-0.05,0.37037037037037035],[-0.059375,0.37037037037037035],[-0.065625,0.37037037037037035],[-0.065625,0.37037037037037035],[-0.06666666666666667,0.37407407407407406],[-0.06666666666666667,0.39444444444444443],[-0.06354166666666666,0.4111111111111111],[-0.059375,0.4222222222222222],[-0.05625,0.42962962962962964],[-0.04479166666666667,0.45925925925925926],[-0.034375,0.4759259259259259],[-0.01875,0.5018518518518519],[-0.0010416666666666667,0.5370370370370371],[0.030208333333333334,0.6148148148148148],[0.03958333333333333,0.6351851851851852],[0.03958333333333333,0.6351851851851852],[0.03958333333333333,0.6351851851851852],[0.040625,0.6370370370370371],[0.040625,0.6370370370370371],[0.04375,0.6425925925925926],[0.04479166666666667,0.6444444444444445],[0.04479166666666667,0.6444444444444445],[0.04479166666666667,0.6444444444444445],[0.04479166666666667,0.6444444444444445],[0.04479166666666667,0.6444444444444445],[0.04479166666666667,0.6444444444444445],[0.04479166666666667,0.6444444444444445],[0.04479166666666667,0.6444444444444445],[0.04479166666666667,0.6444444444444445],[0.04479166666666667,0.6444444444444445]]","[[-0.049270833333333285,-0.03537037037037041],[-0.049270833333333285,-0.03537037037037041],[-0.049687500000000044,-0.04092592592592597],[-0.04552083333333338,-0.049074074074074076],[-0.04500000000000005,-0.07240740740740745],[-0.04500000000000005,-0.07240740740740745],[-0.043333333333333356,-0.10944444444444448],[-0.029270833333333357,-0.11555555555555551],[-0.029270833333333357,-0.11555555555555551],[-0.004270833333333357,-0.1398148148148148],[-0.004270833333333357,-0.1398148148148148],[0.008020833333333382,-0.14981481481481476],[0.02791666666666662,-0.152962962962963],[0.04770833333333328,-0.14685185185185187],[0.08916666666666657,-0.15481481481481485],[0.1087500000000001,-0.17259259259259258],[0.11395833333333343,-0.18333333333333332],[0.12270833333333328,-0.18351851851851855],[0.13145833333333337,-0.18370370370370367],[0.14500000000000005,-0.2014814814814815],[0.1476041666666667,-0.20111111111111116],[0.14770833333333327,-0.20018518518518522],[0.13604166666666656,-0.21425925925925923],[0.12947916666666662,-0.21277777777777773],[0.1171875,-0.2222222222222222],[0.11010416666666671,-0.21055555555555552],[0.11489583333333328,-0.21796296296296294],[0.11979166666666667,-0.2207407407407407],[0.11979166666666667,-0.2207407407407407],[0.14135416666666673,-0.2331481481481481],[0.1273958333333333,-0.23277777777777775],[0.11802083333333328,-0.2388888888888889],[0.11197916666666667,-0.2524074074074074],[0.11437499999999995,-0.25574074074074077],[0.11437499999999995,-0.25574074074074077],[0.11291666666666676,-0.25555555555555554],[0.11041666666666666,-0.2512962962962963],[0.11302083333333333,-0.25259259259259254],[0.11885416666666657,-0.2403703703703704],[0.12468750000000005,-0.22814814814814813],[0.12468750000000005,-0.22814814814814813],[0.11833333333333323,-0.21333333333333332],[0.11833333333333323,-0.21333333333333332],[0.12197916666666657,-0.19759259259259257],[0.10802083333333339,-0.16518518518518516],[0.12635416666666663,-0.08203703703703706],[0.1404166666666666,-0.000925925925925926],[0.16843750000000005,0.04407407407407399],[0.17614583333333325,0.09759259259259268],[0.20010416666666658,0.144074074074074],[0.20958333333333337,0.1816666666666667],[0.21906249999999997,0.2192592592592592],[0.21916666666666676,0.2687037037037037],[0.22083333333333333,0.3111111111111111],[0.23312499999999994,0.33833333333333343],[0.2257291666666667,0.31055555555555564],[0.2241666666666667,0.29499999999999993],[0.20895833333333325,0.2996296296296295],[0.20416666666666666,0.2601851851851852],[0.18614583333333337,0.24666666666666676],[0.18791666666666676,0.22555555555555548],[0.1712500000000001,0.22740740740740734],[0.16854166666666662,0.22296296296296292],[0.15677083333333333,0.21999999999999992],[0.15895833333333323,0.2361111111111111],[0.12760416666666666,0.23055555555555557],[0.09041666666666662,0.21277777777777773],[0.09041666666666662,0.21277777777777773],[0.03312499999999995,0.1985185185185186],[-0.0171875,0.21740740740740735],[-0.07052083333333338,0.21740740740740735],[-0.12302083333333336,0.21296296296296297],[-0.16135416666666663,0.18722222222222226],[-0.20874999999999996,0.16296296296296298],[-0.23864583333333336,0.1338888888888888],[-0.290625,0.10259259259259255],[-0.27145833333333336,0.11129629629629634],[-0.25718749999999996,0.11907407407407399],[-0.19812500000000005,0.11722222222222214],[-0.1420833333333333,0.1418518518518519],[-0.08510416666666672,0.15222222222222231],[-0.03999999999999997,0.1668518518518519],[0.008958333333333356,0.19685185185185178],[0.05791666666666669,0.22685185185185186],[0.08791666666666677,0.25277777777777777],[0.12843749999999995,0.2668518518518519],[0.14520833333333344,0.26351851851851843],[0.16083333333333344,0.27092592592592585],[0.15177083333333338,0.2844444444444445],[0.13812499999999991,0.2716666666666668],[0.12260416666666671,0.2772222222222223],[0.08572916666666662,0.2933333333333333],[0.049270833333333285,0.29240740740740734],[0.049270833333333285,0.29240740740740734],[0.03270833333333331,0.2794444444444444],[0.0078125,0.2933333333333333],[-0.013750000000000047,0.3116666666666666],[-0.04916666666666671,0.3290740740740742],[-0.04239583333333338,0.3274074074074073],[-0.035625000000000046,0.3257407407407407],[-0.035625000000000046,0.3257407407407407],[-0.02041666666666669,0.31240740740740747],[-0.0140625,0.30037037037037045],[0.01864583333333331,0.29296296296296304],[0.04093749999999995,0.2862962962962963],[0.043333333333333356,0.2916666666666667],[0.0655208333333333,0.28462962962962973],[0.084375,0.27314814814814814],[0.07947916666666661,0.2462962962962963],[0.03843749999999998,0.22870370370370371],[0.03843749999999998,0.22870370370370371],[0.0002083333333333807,0.20833333333333334],[-0.03677083333333329,0.17851851851851847],[-0.08343750000000003,0.15111111111111114],[-0.11572916666666669,0.11462962962962958],[-0.12572916666666673,0.09055555555555551],[-0.13572916666666662,0.06648148148148143],[-0.12395833333333334,-0.0020370370370370794],[-0.103125,-0.06740740740740736],[-0.103125,-0.06740740740740736],[-0.06604166666666664,-0.11592592592592597],[-0.06604166666666664,-0.11592592592592597],[-0.028958333333333287,-0.16444444444444448],[0.009895833333333333,-0.21388888888888888],[0.05010416666666669,-0.2207407407407407],[0.1,-0.2294444444444444],[0.12666666666666657,-0.25703703703703706],[0.1414583333333333,-0.2977777777777778],[0.1466666666666666,-0.32944444444444443],[0.12916666666666668,-0.3237037037037037],[0.10114583333333324,-0.28203703703703703],[0.06812500000000009,-0.2361111111111111],[0.04854166666666669,-0.18518518518518517],[0.024374999999999977,-0.13055555555555556],[-0.024479166666666666,-0.08888888888888889],[-0.024479166666666666,-0.08888888888888889],[-0.06583333333333338,-0.05018518518518523],[-0.09593750000000002,0.005555555555555556],[-0.12604166666666666,0.06129629629629634],[-0.12604166666666666,0.06129629629629634],[-0.153125,0.1007407407407407],[-0.16739583333333338,0.16055555555555565],[-0.18020833333333333,0.18129629629629626],[-0.1397916666666667,0.16648148148148145],[-0.11281249999999995,0.14666666666666675],[-0.0858333333333333,0.12685185185185185],[-0.053125,0.09462962962962967],[-0.0296875,0.08092592592592601],[0.011979166666666667,0.056666666666666705],[0.03947916666666664,0.03796296296296296],[0.058229166666666644,0.03796296296296296],[0.06416666666666669,0.017592592592592594],[0.07270833333333329,0.014259259259259343],[0.04052083333333331,0.040740740740740744],[0.021979166666666692,0.049629629629629544],[-0.022500000000000023,0.052037037037037076],[-0.034895833333333334,0.0477777777777777],[-0.035208333333333286,0.01777777777777782],[-0.05260416666666667,0.008333333333333333],[-0.05260416666666667,0.008333333333333333],[-0.04208333333333331,-0.015000000000000043],[-0.04208333333333331,-0.015000000000000043],[-0.049791666666666616,-0.028703703703703703],[-0.049791666666666616,-0.028703703703703703],[-0.0829166666666667,-0.03518518518518519],[-0.10791666666666669,-0.07370370370370373],[-0.13291666666666668,-0.11222222222222226],[-0.20906250000000004,-0.09814814814814815],[-0.24052083333333332,-0.09222222222222225],[-0.28968750000000004,-0.072037037037037],[-0.3233333333333333,-0.042407407407407366],[-0.3642708333333334,-0.004814814814814857],[-0.43729166666666663,0.05185185185185185],[-0.4767708333333333,0.08740740740740749],[-0.46697916666666667,0.05351851851851848],[-0.46791666666666665,0.03462962962962971],[-0.479375,0.013333333333333417],[-0.4545833333333333,-0.02444444444444453],[-0.4717708333333333,-0.03759259259259251],[-0.4834375,-0.0742592592592593],[-0.5007291666666667,-0.11203703703703703],[-0.5142708333333333,-0.15685185185185183],[-0.5097916666666666,-0.21203703703703702],[-0.5157291666666667,-0.26240740740740737],[-0.5185416666666667,-0.24314814814814817],[-0.525625,-0.22999999999999998],[-0.5221875,-0.21444444444444447],[-0.5048958333333333,-0.22759259259259254],[-0.46375000000000005,-0.23074074074074077],[-0.46375000000000005,-0.23074074074074077],[-0.4675,-0.19000000000000003],[-0.48843749999999997,-0.1425925925925926],[-0.509375,-0.09518518518518514],[-0.53,-0.04814814814814815],[-0.514375,-0.0022222222222223064],[-0.5257291666666667,0.03629629629629634],[-0.4782291666666667,0.03462962962962971],[-0.4584375,0.07462962962962955],[-0.44718749999999996,0.10537037037037032],[-0.4365625,0.11611111111111119],[-0.4084375,0.11999999999999991],[-0.3577083333333333,0.10462962962962963],[-0.3577083333333333,0.10462962962962963],[-0.30625,0.0801851851851851],[-0.2419791666666666,0.06870370370370374],[-0.2203125,0.05259259259259255],[-0.18562500000000004,0.027777777777777776],[-0.21364583333333337,0.06629629629629621],[-0.2139583333333333,0.06314814814814819],[-0.2123958333333333,0.07611111111111116],[-0.21083333333333332,0.08907407407407411],[-0.20604166666666662,0.11388888888888889],[-0.21708333333333332,0.14722222222222223],[-0.22281249999999997,0.18092592592592602],[-0.2413541666666667,0.20166666666666663],[-0.23145833333333338,0.18277777777777787],[-0.23635416666666664,0.21129629629629634],[-0.2313541666666667,0.18407407407407403],[-0.19135416666666671,0.15259259259259256],[-0.15395833333333328,0.12907407407407415],[-0.15395833333333328,0.12907407407407415],[-0.15093749999999997,0.1411111111111112],[-0.10541666666666671,0.10333333333333325],[-0.10541666666666671,0.10333333333333325],[-0.059895833333333336,0.06555555555555552],[-0.022291666666666644,0.02629629629629638],[0.020624999999999952,-0.009444444444444486],[0.051874999999999956,-0.004629629629629629],[0.08729166666666661,-0.03148148148148148],[0.11906249999999995,-0.01592592592592597],[0.11906249999999995,-0.01592592592592597],[0.11906249999999995,-0.01592592592592597],[0.07374999999999995,0.02555555555555547],[0.0359375,0.08129629629629626],[0.07125000000000009,0.06574074074074074],[0.06854166666666663,0.06296296296296296],[0.08093750000000005,0.08185185185185194],[0.08093750000000005,0.08185185185185194],[0.09895833333333333,0.1037037037037037],[0.10593750000000005,0.09537037037037037],[0.10989583333333333,0.09388888888888898],[0.11145833333333334,0.08537037037037042],[0.1304166666666667,0.06518518518518526],[0.1304166666666667,0.06518518518518526],[0.19145833333333329,0.023333333333333376],[0.21322916666666672,-0.03722222222222227],[0.2185416666666666,-0.04462962962962967],[0.21687500000000004,-0.0257407407407407],[0.19135416666666671,-0.041111111111111195],[0.1765625,-0.051666666666666625],[0.15656249999999997,-0.021481481481481525],[0.15364583333333334,-0.005000000000000084],[0.15364583333333334,-0.005000000000000084],[0.13510416666666672,0.007037037037036953],[0.13510416666666672,0.007037037037036953],[0.12770833333333323,0],[0.09520833333333342,0.015370370370370286],[0.08552083333333324,0.009999999999999959],[0.05677083333333333,0.0022222222222223064],[0.06197916666666667,-0.027222222222222307],[0.07593750000000009,-0.04407407407407399],[0.07114583333333328,-0.028703703703703703],[0.07729166666666672,-0.027407407407407325],[0.07020833333333343,-0.06129629629629634],[0.07604166666666666,-0.06833333333333329],[0.05520833333333333,-0.048333333333333374],[0.06843750000000005,-0.053703703703703705],[0.09885416666666676,-0.06851851851851852],[0.13010416666666677,-0.05907407407407403],[0.14854166666666657,-0.04259259259259259],[0.16104166666666658,-0.05259259259259255],[0.16104166666666658,-0.05259259259259255],[0.17781250000000004,-0.09240740740740737],[0.17781250000000004,-0.09240740740740737],[0.19583333333333333,-0.122037037037037],[0.22322916666666662,-0.1022222222222222],[0.2482291666666666,-0.10796296296296298],[0.2482291666666666,-0.10796296296296298],[0.27322916666666663,-0.11370370370370367],[0.3004166666666668,-0.10277777777777777],[0.3004166666666668,-0.10277777777777777],[0.31375000000000003,-0.06888888888888887],[0.31375000000000003,-0.06888888888888887],[0.2953125,-0.08333333333333333],[0.28885416666666663,-0.10185185185185185],[0.27885416666666674,-0.13129629629629624],[0.26885416666666656,-0.16074074074074077],[0.26885416666666656,-0.16074074074074077],[0.27666666666666656,-0.20907407407407402],[0.2742708333333333,-0.26481481481481484],[0.2752083333333334,-0.3205555555555556],[0.2752083333333334,-0.3205555555555556],[0.27614583333333326,-0.3762962962962963],[0.2603125000000001,-0.44351851851851853],[0.24697916666666658,-0.515925925925926],[0.2613541666666668,-0.5792592592592593],[0.2613541666666668,-0.5792592592592593],[0.2773958333333333,-0.6051851851851852],[0.2773958333333333,-0.6051851851851852],[0.3029166666666666,-0.6033333333333334],[0.3029166666666666,-0.6033333333333334],[0.3142708333333334,-0.5744444444444444],[0.3142708333333334,-0.5744444444444444],[0.31375000000000003,-0.5442592592592592],[0.31375000000000003,-0.5442592592592592],[0.31197916666666664,-0.5198148148148148],[0.31197916666666664,-0.5198148148148148],[0.3011458333333332,-0.47962962962962963],[0.30520833333333336,-0.4440740740740741],[0.30885416666666665,-0.4251851851851852],[0.3145833333333333,-0.38129629629629624],[0.34093749999999995,-0.3507407407407407],[0.3536458333333333,-0.35351851851851845],[0.3663541666666667,-0.3466666666666666],[0.37437500000000007,-0.3611111111111111],[0.37520833333333337,-0.36814814814814817],[0.36354166666666665,-0.37518518518518523],[0.36270833333333335,-0.3948148148148148],[0.35343749999999996,-0.41203703703703703],[0.3502083333333334,-0.4148148148148148],[0.3625,-0.43407407407407406],[0.3541666666666667,-0.44000000000000006],[0.3272916666666667,-0.43425925925925923],[0.3004166666666668,-0.42851851851851847],[0.2934375000000001,-0.4353703703703704],[0.2864583333333333,-0.44222222222222224],[0.29270833333333335,-0.44166666666666665],[0.30583333333333323,-0.4418518518518519],[0.3125,-0.4398148148148148],[0.3241666666666667,-0.43796296296296294],[0.3182291666666667,-0.4418518518518519],[0.3063541666666666,-0.45611111111111113],[0.31302083333333336,-0.48203703703703704],[0.3078125,-0.48222222222222216],[0.3015625,-0.47555555555555556],[0.3071875000000001,-0.4853703703703704],[0.3133333333333333,-0.4968518518518519],[0.31260416666666657,-0.5075925925925926],[0.3007291666666667,-0.5181481481481481],[0.2838541666666667,-0.5285185185185185],[0.27156250000000004,-0.5218518518518519],[0.2652083333333332,-0.5048148148148148],[0.2652083333333332,-0.5048148148148148],[0.26552083333333343,-0.4859259259259259],[0.26552083333333343,-0.4859259259259259],[0.2734375,-0.4935185185185185],[0.2734375,-0.4935185185185185],[0.27281250000000007,-0.462037037037037],[0.2796875,-0.39351851851851855],[0.2865624999999999,-0.325],[0.28968749999999993,-0.2551851851851852],[0.29229166666666656,-0.19296296296296295],[0.29489583333333325,-0.1307407407407408],[0.29791666666666666,-0.075],[0.3009375000000001,-0.019259259259259216],[0.28583333333333344,0.03851851851851843],[0.28583333333333344,0.03851851851851843],[0.27489583333333345,0.0816666666666667],[0.28177083333333336,0.09981481481481477],[0.2530208333333334,0.10407407407407415],[0.22427083333333328,0.10833333333333334],[0.19927083333333329,0.11129629629629634],[0.19343750000000004,0.13796296296296295],[0.18760416666666657,0.1646296296296296],[0.1554166666666667,0.21055555555555563],[0.12322916666666663,0.2564814814814815],[0.09958333333333323,0.3074074074074074],[0.07604166666666666,0.3737037037037036],[0.03760416666666669,0.4235185185185186],[0.026041666666666668,0.46703703703703714],[0.010520833333333358,0.5003703703703705],[-0.004999999999999952,0.5337037037037038],[-0.024166666666666715,0.5585185185185185],[-0.043333333333333356,0.5833333333333334],[-0.044062499999999956,0.6014814814814814],[-0.046875,0.6187037037037038],[-0.04677083333333331,0.6270370370370371],[-0.04614583333333329,0.6292592592592592],[-0.03989583333333328,0.6338888888888888],[-0.04520833333333331,0.643888888888889],[-0.04656250000000005,0.6640740740740741],[-0.04656250000000005,0.6640740740740741],[-0.052187500000000026,0.6898148148148148],[-0.05656249999999995,0.6953703703703704],[-0.0609375,0.700925925925926],[-0.0626041666666667,0.6927777777777778],[-0.05770833333333331,0.6975925925925927],[-0.05281250000000005,0.7024074074074074],[-0.04552083333333338,0.6864814814814816],[-0.03822916666666672,0.6705555555555556],[-0.03270833333333331,0.6381481481481482],[-0.027395833333333286,0.606111111111111],[-0.04229166666666669,0.5768518518518518],[-0.06229166666666662,0.5599999999999999],[-0.06354166666666666,0.5485185185185186],[-0.06479166666666672,0.5370370370370371],[-0.07749999999999997,0.5246296296296296],[-0.09020833333333336,0.5122222222222222],[-0.11604166666666664,0.5238888888888888],[-0.14187500000000006,0.5355555555555557],[-0.14187500000000006,0.5355555555555557],[-0.15760416666666663,0.5555555555555556],[-0.13187500000000002,0.5864814814814816],[-0.13187500000000002,0.5864814814814816],[-0.11124999999999995,0.6046296296296296],[-0.08250000000000005,0.6074074074074074],[-0.07250000000000002,0.6048148148148148],[-0.06364583333333336,0.6096296296296297],[-0.04781249999999997,0.6033333333333333],[-0.04781249999999997,0.6033333333333333],[-0.03197916666666671,0.597037037037037],[-0.012916666666666642,0.5935185185185186],[0.013333333333333286,0.5894444444444443],[0.03218749999999997,0.5877777777777777],[0.0078125,0.5733333333333334],[0.008749999999999977,0.5394444444444444],[-0.01072916666666662,0.5242592592592593],[-0.024583333333333356,0.5081481481481481],[-0.05604166666666662,0.475],[-0.0875,0.4418518518518519],[-0.10625,0.4005555555555555],[-0.11802083333333328,0.3592592592592593],[-0.14052083333333332,0.3514814814814814],[-0.16031249999999997,0.3290740740740742],[-0.1779166666666666,0.30685185185185193],[-0.18624999999999994,0.27981481481481485],[-0.18229166666666666,0.24944444444444452],[-0.16302083333333334,0.22074074074074082],[-0.13177083333333334,0.21851851851851853],[-0.1015625,0.2022222222222223],[-0.08395833333333336,0.1881481481481482],[-0.08395833333333336,0.1881481481481482],[-0.05447916666666662,0.17740740740740732],[-0.021458333333333357,0.1337037037037038],[-0.0002083333333333807,0.09907407407407408],[0.020833333333333332,0.06574074074074074],[0.04229166666666669,0.06777777777777783],[0.06375000000000004,0.0698148148148149],[0.08208333333333329,0.0705555555555556],[0.10718750000000009,0.0544444444444444],[0.1352083333333333,0.0338888888888888],[0.1631249999999999,0.019259259259259216],[0.19020833333333323,0.012222222222222264],[0.21729166666666658,0.005185185185185101],[0.24947916666666667,0.009814814814814731],[0.28447916666666656,-0.0014814814814813973],[0.3140625,-0.019444444444444445],[0.3140625,-0.019444444444444445],[0.3407291666666666,-0.051111111111111156],[0.35625,-0.07407407407407407],[0.35625,-0.07407407407407407],[0.37177083333333344,-0.09703703703703699],[0.3796875,-0.11537037037037039],[0.3796875,-0.11537037037037039],[0.38916666666666655,-0.1485185185185185],[0.3685416666666666,-0.18481481481481485],[0.34791666666666665,-0.22111111111111106],[0.33125,-0.26351851851851854],[0.3323958333333332,-0.2646296296296296],[0.33354166666666674,-0.2657407407407407],[0.33354166666666674,-0.2657407407407407],[0.3273958333333333,-0.27740740740740744],[0.3273958333333333,-0.27740740740740744],[0.3171875,-0.3125925925925926],[0.31239583333333343,-0.3388888888888889],[0.3133333333333333,-0.3512962962962963],[0.3120833333333332,-0.29888888888888887],[0.3167708333333332,-0.2683333333333333],[0.32145833333333323,-0.23777777777777773],[0.32145833333333323,-0.23777777777777773],[0.3258333333333333,-0.2081481481481481],[0.3095833333333334,-0.20388888888888893],[0.2873958333333334,-0.20055555555555557],[0.2795833333333334,-0.14666666666666664],[0.2691666666666668,-0.07740740740740742],[0.2507291666666667,-0.029259259259259176],[0.23229166666666667,0.018888888888888972],[0.23229166666666667,0.018888888888888972],[0.2195833333333333,0.02092592592592584],[0.22843749999999996,0.05],[0.23729166666666662,0.07907407407407416],[0.23729166666666662,0.07907407407407416],[0.24708333333333338,0.10314814814814824],[0.2568749999999999,0.12722222222222232],[0.2548958333333334,0.127962962962963],[0.24874999999999994,0.10240740740740732],[0.2515625,0.08555555555555563],[0.2569791666666667,0.08092592592592601],[0.24093749999999994,0.07814814814814823],[0.21979166666666666,0.07148148148148152],[0.19989583333333344,0.06388888888888888],[0.17999999999999997,0.056296296296296254],[0.1453125,0.04129629629629621],[0.11864583333333342,0.029259259259259176],[0.1046875,0.05314814814814823],[0.06281249999999995,0.06148148148148157],[0.011979166666666667,0.06111111111111111],[0.011979166666666667,0.06111111111111111],[-0.03968750000000002,0.05981481481481473],[-0.06489583333333329,0.06055555555555564],[-0.06489583333333329,0.06055555555555564],[-0.0936458333333333,0.05462962962962963],[-0.14291666666666672,0.037037037037037035],[-0.14291666666666672,0.037037037037037035],[-0.16979166666666667,0.01055555555555564],[-0.17979166666666668,-0.003333333333333249],[-0.17979166666666668,-0.003333333333333249],[-0.22927083333333337,-0.022777777777777692],[-0.26499999999999996,-0.03740740740740749],[-0.27281249999999996,-0.036481481481481566],[-0.2726041666666667,-0.04462962962962967],[-0.27156250000000004,-0.05185185185185185],[-0.3090625000000001,-0.06481481481481481],[-0.3363541666666666,-0.06796296296296295],[-0.33145833333333335,-0.06851851851851852],[-0.3608333333333333,-0.07000000000000002],[-0.3921875,-0.0544444444444444],[-0.3935416666666666,-0.05740740740740741],[-0.4036458333333333,-0.07685185185185185],[-0.4036458333333333,-0.07685185185185185],[-0.4163541666666667,-0.0787037037037037],[-0.4045833333333333,-0.06722222222222224],[-0.4045833333333333,-0.06722222222222224],[-0.3928125,-0.055740740740740785],[-0.3928125,-0.055740740740740785],[-0.3415625,-0.0418518518518519],[-0.3415625,-0.0418518518518519],[-0.3142708333333334,-0.0338888888888888],[-0.3142708333333334,-0.0338888888888888],[-0.31375000000000003,-0.019259259259259216],[-0.31375000000000003,-0.019259259259259216],[-0.271875,0.006851851851851936],[-0.271875,0.006851851851851936],[-0.21427083333333338,0.012962962962962963],[-0.21427083333333338,0.012962962962962963],[-0.1751041666666667,0.050370370370370454],[-0.12156250000000005,0.10129629629629638],[-0.06541666666666662,0.1346296296296297],[-0.06302083333333333,0.15777777777777785],[-0.057291666666666664,0.1757407407407407],[-0.04354166666666662,0.19703703703703698],[-0.0125,0.22111111111111106],[0.03677083333333329,0.2024074074074073],[0.05697916666666671,0.18944444444444436],[0.049687500000000044,0.1766666666666666],[0.049687500000000044,0.1766666666666666],[0.08260416666666662,0.16314814814814818],[0.1021874999999999,0.1398148148148148],[0.12177083333333343,0.11648148148148144],[0.13895833333333343,0.10351851851851848],[0.16083333333333344,0.09796296296296292],[0.16666666666666666,0.09685185185185177],[0.1724999999999999,0.09574074074074082],[0.16552083333333342,0.12777777777777777],[0.16437499999999997,0.16055555555555565],[0.16437499999999997,0.16055555555555565],[0.1742708333333333,0.19685185185185178],[0.14447916666666671,0.20500000000000007],[0.1259375000000001,0.2],[0.10739583333333323,0.19499999999999992],[0.0931250000000001,0.19611111111111107],[0.07083333333333333,0.19499999999999992],[0.07447916666666667,0.1735185185185186],[0.078125,0.15203703703703708],[0.06906249999999996,0.1301851851851851],[0.05395833333333329,0.09611111111111106],[0.03885416666666662,0.062037037037037036],[0.052083333333333336,0.026666666666666623],[0.05302083333333331,0.0007407407407406986],[0.05395833333333329,-0.025185185185185227],[0.08125,-0.052962962962963],[0.10843749999999991,-0.07740740740740742],[0.11177083333333329,-0.08981481481481482],[0.12197916666666657,-0.10314814814814813],[0.14489583333333325,-0.1161111111111111],[0.14489583333333325,-0.1161111111111111],[0.1525000000000001,-0.11574074074074074],[0.16010416666666671,-0.11537037037037039],[0.14249999999999996,-0.11888888888888886],[0.12489583333333343,-0.12240740740740745],[0.12489583333333343,-0.12240740740740745],[0.13333333333333333,-0.11314814814814819],[0.12333333333333343,-0.07370370370370373],[0.1134375000000001,-0.03759259259259251],[0.0962500000000001,0.0257407407407407],[0.0709374999999999,0.09148148148148144],[0.05239583333333329,0.12907407407407415],[0.04895833333333333,0.1574074074074074],[0.04583333333333333,0.22037037037037038],[0.058958333333333356,0.3072222222222222],[0.07270833333333329,0.3933333333333333],[0.06041666666666667,0.4666666666666667],[0.04520833333333331,0.490925925925926],[0.025312499999999953,0.4955555555555556],[0.036354166666666646,0.4316666666666667],[0.02645833333333331,0.3907407407407407],[0.009791666666666643,0.377962962962963],[0.016666666666666666,0.35240740740740734],[0.02322916666666662,0.29222222222222216],[0.02166666666666662,0.2448148148148149],[0.019479166666666714,0.19814814814814816],[0.011562500000000024,0.10796296296296289],[0.0140625,0.04981481481481477],[0.021249999999999977,0.011296296296296339],[-0.02312500000000005,0.02759259259259255],[-0.03260416666666662,-0.012407407407407492],[-0.03260416666666662,-0.012407407407407492],[-0.07593749999999998,-0.08388888888888892],[-0.09895833333333333,-0.15999999999999995],[-0.1219791666666667,-0.2361111111111111],[-0.17458333333333337,-0.2946296296296297],[-0.22718750000000001,-0.3531481481481481],[-0.27802083333333333,-0.37240740740740746],[-0.31229166666666663,-0.41148148148148145],[-0.34010416666666665,-0.45759259259259266],[-0.3188541666666667,-0.524074074074074],[-0.3123958333333333,-0.5651851851851851],[-0.27364583333333337,-0.5737037037037037],[-0.27875,-0.5648148148148148],[-0.2865625,-0.5553703703703703],[-0.25666666666666665,-0.5762962962962963],[-0.24927083333333327,-0.615],[-0.24927083333333327,-0.615],[-0.2172916666666667,-0.6288888888888889],[-0.20499999999999996,-0.6405555555555555],[-0.19177083333333336,-0.6503703703703704],[-0.17739583333333328,-0.6653703703703704],[-0.19239583333333338,-0.633888888888889],[-0.22270833333333329,-0.612037037037037],[-0.2760416666666667,-0.5914814814814814],[-0.2616666666666667,-0.600925925925926],[-0.2616666666666667,-0.600925925925926],[-0.25406249999999997,-0.5320370370370371],[-0.23479166666666665,-0.46351851851851855],[-0.24177083333333335,-0.4612962962962963],[-0.27708333333333335,-0.44648148148148153],[-0.30114583333333333,-0.4759259259259259],[-0.35260416666666666,-0.4816666666666667],[-0.3729166666666667,-0.5092592592592593],[-0.36604166666666665,-0.5509259259259259],[-0.3514583333333333,-0.5598148148148149],[-0.3514583333333333,-0.5598148148148149],[-0.35656249999999995,-0.5346296296296296],[-0.33375,-0.5994444444444444],[-0.33375,-0.5994444444444444],[-0.30010416666666667,-0.6461111111111111],[-0.28479166666666667,-0.6177777777777779],[-0.28479166666666667,-0.6177777777777779],[-0.2211458333333333,-0.6157407407407407],[-0.17614583333333336,-0.5642592592592592],[-0.11833333333333336,-0.5277777777777778],[-0.11833333333333336,-0.5277777777777778],[-0.0484375,-0.5381481481481482],[-0.019479166666666714,-0.5168518518518519],[0.036354166666666646,-0.49370370370370376],[0.06052083333333336,-0.47555555555555556],[0.05166666666666669,-0.4275925925925925],[0.05166666666666669,-0.4275925925925925],[0.05614583333333331,-0.4185185185185185],[0.05614583333333331,-0.4185185185185185],[0.08458333333333339,-0.43870370370370365],[0.07197916666666657,-0.40907407407407403],[0.08770833333333337,-0.40055555555555555],[0.09729166666666676,-0.34740740740740744],[0.09729166666666676,-0.34740740740740744],[0.08604166666666657,-0.3331481481481481],[0.11197916666666667,-0.21962962962962967],[0.1430208333333333,-0.14240740740740737],[0.12645833333333342,-0.16370370370370366],[0.13937499999999994,-0.21703703703703703],[0.13354166666666673,-0.2346296296296296],[0.13354166666666673,-0.2346296296296296],[0.09864583333333338,-0.2168518518518519],[0.09864583333333338,-0.2168518518518519],[0.10739583333333323,-0.2572222222222222],[0.10739583333333323,-0.2572222222222222],[0.035208333333333286,-0.2577777777777778],[-0.008854166666666666,-0.25925925925925924],[-0.03968750000000002,-0.21666666666666667],[-0.07708333333333334,-0.2824074074074074],[-0.13156249999999994,-0.34685185185185186],[-0.15208333333333332,-0.3124074074074074],[-0.19656250000000006,-0.2662962962962963],[-0.22822916666666668,-0.2207407407407407],[-0.22270833333333329,-0.1594444444444445],[-0.22270833333333329,-0.1594444444444445]]","[[-0.049270833333333285,-0.03537037037037041,0.00020000028610667187],[-0.049270833333333285,-0.03537037037037041,0.048599999904631375],[-0.049687500000000044,-0.04092592592592597,0.06070000028610423],[-0.04552083333333338,-0.049074074074074076,0.08009999990463257],[-0.04500000000000005,-0.07240740740740745,0.09470000028610315],[-0.04500000000000005,-0.07240740740740745,0.11070000028610139],[-0.043333333333333356,-0.10944444444444448,0.12730000019073628],[-0.029270833333333357,-0.11555555555555551,0.15009999990463285],[-0.029270833333333357,-0.11555555555555551,0.16080000019073992],[-0.004270833333333357,-0.1398148148148148,0.17740000009536772],[-0.004270833333333357,-0.1398148148148148,0.19390000009536834],[0.008020833333333382,-0.14981481481481476,0.21080000019073708],[0.02791666666666662,-0.152962962962963,0.2273000001907377],[0.04770833333333328,-0.14685185185185187,0.24399999999999977],[0.08916666666666657,-0.15481481481481485,0.2644999999999982],[0.1087500000000001,-0.17259259259259258,0.28040000009536925],[0.11395833333333343,-0.18333333333333332,0.29700000000000415],[0.12270833333333328,-0.18351851851851855,0.3117000002861019],[0.13145833333333337,-0.18370370370370367,0.32840000009537107],[0.14500000000000005,-0.2014814814814815,0.3440000000000012],[0.1476041666666667,-0.20111111111111116,0.3607000002861014],[0.14770833333333327,-0.20018518518518522,0.37959999990463444],[0.13604166666666656,-0.21425925925925923,0.39399999999999835],[0.12947916666666662,-0.21277777777777773,0.41070000028610565],[0.1171875,-0.2222222222222222,0.4305000000000021],[0.11010416666666671,-0.21055555555555552,0.4442000002861022],[0.11489583333333328,-0.21796296296296294,0.4607000002861028],[0.11979166666666667,-0.2207407407407407,0.4773000001907377],[0.11979166666666667,-0.2207407407407407,0.4939999999999998],[0.14135416666666673,-0.2331481481481481,0.5108000001907342],[0.1273958333333333,-0.23277777777777775,0.5278000001907373],[0.11802083333333328,-0.2388888888888889,0.544000000000004],[0.11197916666666667,-0.2524074074074074,0.5610999999046342],[0.11437499999999995,-0.25574074074074077,0.5779000000953687],[0.11437499999999995,-0.25574074074074077,0.5940000000000012],[0.11291666666666676,-0.25555555555555554,0.6105999999046361],[0.11041666666666666,-0.2512962962962963,0.6279000000953658],[0.11302083333333333,-0.25259259259259254,0.6439999999999984],[0.11885416666666657,-0.2403703703703704,0.6607000002861056],[0.12468750000000005,-0.22814814814814813,0.6803000001907336],[0.12468750000000005,-0.22814814814814813,0.6940000000000026],[0.11833333333333323,-0.21333333333333332,0.7107000002861028],[0.11833333333333323,-0.21333333333333332,0.727400000095372],[0.12197916666666657,-0.19759259259259257,0.744099999904634],[0.10802083333333339,-0.16518518518518516,0.7637000002861072],[0.12635416666666663,-0.08203703703703706,0.7775999999046306],[0.1404166666666666,-0.000925925925925926,0.794000000000004],[0.16843750000000005,0.04407407407407399,0.8105999999046318],[0.17614583333333325,0.09759259259259268,0.8273000001907391],[0.20010416666666658,0.144074074074074,0.8440000000000012],[0.20958333333333337,0.1816666666666667,0.8609000000953699],[0.21906249999999997,0.2192592592592592,0.8795999999046344],[0.21916666666666676,0.2687037037037037,0.894200000286105],[0.22083333333333333,0.3111111111111111,0.9107000002861056],[0.23312499999999994,0.33833333333333343,0.9273000001907334],[0.2257291666666667,0.31055555555555564,0.9439000000953683],[0.2241666666666667,0.29499999999999993,0.9612000002861052],[0.20895833333333325,0.2996296296296295,0.980000000000004],[0.20416666666666666,0.2601851851851852,0.9939000000953655],[0.18614583333333337,0.24666666666666676,1.0113000001907366],[0.18791666666666676,0.22555555555555548,1.0308000001907374],[0.1712500000000001,0.22740740740740734,1.0467000002861013],[0.16854166666666662,0.22296296296296292,1.0615000000000023],[0.15677083333333333,0.21999999999999992,1.0773000001907391],[0.15895833333333323,0.2361111111111111,1.0940999999046355],[0.12760416666666666,0.23055555555555557,1.110599999904636],[0.09041666666666662,0.21277777777777773,1.129800000190734],[0.09041666666666662,0.21277777777777773,1.1439000000953712],[0.03312499999999995,0.1985185185185186,1.1605999999046333],[-0.0171875,0.21740740740740735,1.1803000001907336],[-0.07052083333333338,0.21740740740740735,1.197499999999998],[-0.12302083333333336,0.21296296296296297,1.213400000095369],[-0.16135416666666663,0.18722222222222226,1.2280999999046358],[-0.20874999999999996,0.16296296296296298,1.244099999904634],[-0.23864583333333336,0.1338888888888888,1.2643000001907367],[-0.290625,0.10259259259259255,1.2815000000000012],[-0.27145833333333336,0.11129629629629634,1.2972000002861037],[-0.25718749999999996,0.11907407407407399,1.3150000000000048],[-0.19812500000000005,0.11722222222222214,1.3307000002861074],[-0.1420833333333333,0.1418518518518519,1.3448000001907374],[-0.08510416666666672,0.15222222222222231,1.3612000002861038],[-0.03999999999999997,0.1668518518518519,1.3780999999046344],[0.008958333333333356,0.19685185185185178,1.394200000286105],[0.05791666666666669,0.22685185185185186,1.4110000000000014],[0.08791666666666677,0.25277777777777777,1.4278000001907358],[0.12843749999999995,0.2668518518518519,1.4439000000953683],[0.14520833333333344,0.26351851851851843,1.4615999999046352],[0.16083333333333344,0.27092592592592585,1.4805999999046335],[0.15177083333333338,0.2844444444444445,1.4972000002861066],[0.13812499999999991,0.2716666666666668,1.5139000000953686],[0.12260416666666671,0.2772222222222223,1.530700000286103],[0.08572916666666662,0.2933333333333333,1.547300000190738],[0.049270833333333285,0.29240740740740734,1.566200000286102],[0.049270833333333285,0.29240740740740734,1.5772000002861049],[0.03270833333333331,0.2794444444444444,1.5940000000000012],[0.0078125,0.2933333333333333,1.6140999999046315],[-0.013750000000000047,0.3116666666666666,1.6300000000000026],[-0.04916666666666671,0.3290740740740742,1.6448000001907346],[-0.04239583333333338,0.3274074074074073,1.661200000286101],[-0.035625000000000046,0.3257407407407407,1.6825000000000045],[-0.035625000000000046,0.3257407407407407,1.6939000000953683],[-0.02041666666666669,0.31240740740740747,1.7107000002861028],[-0.0140625,0.30037037037037045,1.7314000000953698],[0.01864583333333331,0.29296296296296304,1.748900000095368],[0.04093749999999995,0.2862962962962963,1.765500000000003],[0.043333333333333356,0.2916666666666667,1.7820999999046307],[0.0655208333333333,0.28462962962962973,1.7970000000000041],[0.084375,0.27314814814814814,1.8134000000953705],[0.07947916666666661,0.2462962962962963,1.8299999999999983],[0.03843749999999998,0.22870370370370371,1.8582000002861037],[0.03843749999999998,0.22870370370370371,1.8678000001907336],[0.0002083333333333807,0.20833333333333334,1.8773000001907363],[-0.03677083333333329,0.17851851851851847,1.8939999999999984],[-0.08343750000000003,0.15111111111111114,1.911200000286101],[-0.11572916666666669,0.11462962962962958,1.928200000286104],[-0.12572916666666673,0.09055555555555551,1.9473000001907366],[-0.13572916666666662,0.06648148148148143,1.9647000002861006],[-0.12395833333333334,-0.0020370370370370794,1.9817000002861036],[-0.103125,-0.06740740740740736,1.9985999999046342],[-0.103125,-0.06740740740740736,2.023200000286103],[-0.06604166666666664,-0.11592592592592597,2.0364000000953695],[-0.06604166666666664,-0.11592592592592597,2.044000000000004],[-0.028958333333333287,-0.16444444444444448,2.0607000002861042],[0.009895833333333333,-0.21388888888888888,2.0774000000953663],[0.05010416666666669,-0.2207407407407407,2.0967000002861056],[0.1,-0.2294444444444444,2.110599999904636],[0.12666666666666657,-0.25703703703703706,2.1274000000953706],[0.1414583333333333,-0.2977777777777778,2.144200000286105],[0.1466666666666666,-0.32944444444444443,2.1607000002861056],[0.12916666666666668,-0.3237037037037037,2.1774000000953677],[0.10114583333333324,-0.28203703703703703,2.1939000000953683],[0.06812500000000009,-0.2361111111111111,2.2105999999046375],[0.04854166666666669,-0.18518518518518517,2.2272000002861034],[0.024374999999999977,-0.13055555555555556,2.2457000002861065],[-0.024479166666666666,-0.08888888888888889,2.2613000001907366],[-0.024479166666666666,-0.08888888888888889,2.277300000190735],[-0.06583333333333338,-0.05018518518518523,2.294000000000004],[-0.09593750000000002,0.005555555555555556,2.3138000001907386],[-0.12604166666666666,0.06129629629629634,2.327200000286105],[-0.12604166666666666,0.06129629629629634,2.343900000095367],[-0.153125,0.1007407407407407,2.3608000001907357],[-0.16739583333333338,0.16055555555555565,2.381599999904637],[-0.18020833333333333,0.18129629629629626,2.3947000002861003],[-0.1397916666666667,0.16648148148148145,2.413400000095372],[-0.11281249999999995,0.14666666666666675,2.4273000001907334],[-0.0858333333333333,0.12685185185185185,2.444599999904632],[-0.053125,0.09462962962962967,2.4613000001907395],[-0.0296875,0.08092592592592601,2.480700000286106],[0.011979166666666667,0.056666666666666705,2.4950000000000045],[0.03947916666666664,0.03796296296296296,2.5105000000000004],[0.058229166666666644,0.03796296296296296,2.527300000190735],[0.06416666666666669,0.017592592592592594,2.5439000000953698],[0.07270833333333329,0.014259259259259343,2.5635000000000048],[0.04052083333333331,0.040740740740740744,2.5774000000953663],[0.021979166666666692,0.049629629629629544,2.594000000000001],[-0.022500000000000023,0.052037037037037076,2.6140000000000043],[-0.034895833333333334,0.0477777777777777,2.6314000000953683],[-0.035208333333333286,0.01777777777777782,2.647599999904635],[-0.05260416666666667,0.008333333333333333,2.6633000001907376],[-0.05260416666666667,0.008333333333333333,2.6777000002861016],[-0.04208333333333331,-0.015000000000000043,2.694099999904637],[-0.04208333333333331,-0.015000000000000043,2.710700000286103],[-0.049791666666666616,-0.028703703703703703,2.727400000095372],[-0.049791666666666616,-0.028703703703703703,2.7439999999999998],[-0.0829166666666667,-0.03518518518518519,2.7605999999046347],[-0.10791666666666669,-0.07370370370370373,2.7802000002861007],[-0.13291666666666668,-0.11222222222222226,2.794000000000004],[-0.20906250000000004,-0.09814814814814815,2.810599999904632],[-0.24052083333333332,-0.09222222222222225,2.827300000190739],[-0.28968750000000004,-0.072037037037037,2.844000000000001],[-0.3233333333333333,-0.042407407407407366,2.861700000286106],[-0.3642708333333334,-0.004814814814814857,2.880800000190739],[-0.43729166666666663,0.05185185185185185,2.8948000001907346],[-0.4767708333333333,0.08740740740740749,2.9105999999046333],[-0.46697916666666667,0.05351851851851848,2.930099999904634],[-0.46791666666666665,0.03462962962962971,2.9475999999046323],[-0.479375,0.013333333333333417,2.9653000001907373],[-0.4545833333333333,-0.02444444444444453,2.9814000000953698],[-0.4717708333333333,-0.03759259259259251,2.9969000000953656],[-0.4834375,-0.0742592592592593,3.010700000286107],[-0.5007291666666667,-0.11203703703703703,3.0302000002861007],[-0.5142708333333333,-0.15685185185185183,3.047000000000004],[-0.5097916666666666,-0.21203703703703702,3.061400000095368],[-0.5157291666666667,-0.26240740740740737,3.078300000190737],[-0.5185416666666667,-0.24314814814814817,3.096499999999999],[-0.525625,-0.22999999999999998,3.113599999904636],[-0.5221875,-0.21444444444444447,3.1273000001907363],[-0.5048958333333333,-0.22759259259259254,3.145000000000003],[-0.46375000000000005,-0.23074074074074077,3.166400000095372],[-0.46375000000000005,-0.23074074074074077,3.177500000000002],[-0.4675,-0.19000000000000003,3.1939000000953683],[-0.48843749999999997,-0.1425925925925926,3.214099999904633],[-0.509375,-0.09518518518518514,3.228099999904636],[-0.53,-0.04814814814814815,3.2468000001907384],[-0.514375,-0.0022222222222223064,3.2639000000953686],[-0.5257291666666667,0.03629629629629634,3.2808000001907374],[-0.4782291666666667,0.03462962962962971,3.2968000001907356],[-0.4584375,0.07462962962962955,3.311700000286102],[-0.44718749999999996,0.10537037037037032,3.330200000286105],[-0.4365625,0.11611111111111119,3.347300000190735],[-0.4084375,0.11999999999999991,3.3644999999999996],[-0.3577083333333333,0.10462962962962963,3.3832000002861022],[-0.3577083333333333,0.10462962962962963,3.393900000095371],[-0.30625,0.0801851851851851,3.4107000002861056],[-0.2419791666666666,0.06870370370370374,3.430099999904634],[-0.2203125,0.05259259259259255,3.4469000000953685],[-0.18562500000000004,0.027777777777777776,3.4650999999046306],[-0.21364583333333337,0.06629629629629621,3.481200000286101],[-0.2139583333333333,0.06314814814814819,3.4950999999046317],[-0.2123958333333333,0.07611111111111116,3.5142000002861025],[-0.21083333333333332,0.08907407407407411,3.5302000002861007],[-0.20604166666666662,0.11388888888888889,3.5482000002861014],[-0.21708333333333332,0.14722222222222223,3.5655],[-0.22281249999999997,0.18092592592592602,3.5820000000000007],[-0.2413541666666667,0.20166666666666663,3.5985000000000014],[-0.23145833333333338,0.18277777777777787,3.615000000000002],[-0.23635416666666664,0.21129629629629634,3.630099999904637],[-0.2313541666666667,0.18407407407407403,3.6467000002861027],[-0.19135416666666671,0.15259259259259256,3.663099999904631],[-0.15395833333333328,0.12907407407407415,3.6780999999046315],[-0.15395833333333328,0.12907407407407415,3.694099999904637],[-0.15093749999999997,0.1411111111111112,3.7105999999046375],[-0.10541666666666671,0.10333333333333325,3.732300000190733],[-0.10541666666666671,0.10333333333333325,3.7439999999999998],[-0.059895833333333336,0.06555555555555552,3.760700000286107],[-0.022291666666666644,0.02629629629629638,3.777400000095369],[0.020624999999999952,-0.009444444444444486,3.7949000000953674],[0.051874999999999956,-0.004629629629629629,3.815000000000005],[0.08729166666666661,-0.03148148148148148,3.831700000286105],[0.11906249999999995,-0.01592592592592597,3.8618000001907333],[0.11906249999999995,-0.01592592592592597,3.870900000095368],[0.11906249999999995,-0.01592592592592597,3.8773000001907363],[0.07374999999999995,0.02555555555555547,3.893900000095371],[0.0359375,0.08129629629629626,3.913900000095367],[0.07125000000000009,0.06574074074074074,3.928300000190738],[0.06854166666666663,0.06296296296296296,3.944599999904632],[0.08093750000000005,0.08185185185185194,3.9669000000953716],[0.08093750000000005,0.08185185185185194,3.9773000001907377],[0.09895833333333333,0.1037037037037037,3.9939999999999998],[0.10593750000000005,0.09537037037037037,4.011200000286102],[0.10989583333333333,0.09388888888888898,4.030099999904635],[0.11145833333333334,0.08537037037037042,4.045200000286101],[0.1304166666666667,0.06518518518518526,4.065400000095366],[0.1304166666666667,0.06518518518518526,4.077300000190739],[0.19145833333333329,0.023333333333333376,4.094000000000001],[0.21322916666666672,-0.03722222222222227,4.1114999999999995],[0.2185416666666666,-0.04462962962962967,4.130000000000003],[0.21687500000000004,-0.0257407407407407,4.144599999904635],[0.19135416666666671,-0.041111111111111195,4.161500000000004],[0.1765625,-0.051666666666666625,4.180200000286106],[0.15656249999999997,-0.021481481481481525,4.196599999904635],[0.15364583333333334,-0.005000000000000084,4.213599999904638],[0.15364583333333334,-0.005000000000000084,4.227300000190738],[0.13510416666666672,0.007037037037036953,4.244],[0.13510416666666672,0.007037037037036953,4.261300000190737],[0.12770833333333323,0,4.277400000095369],[0.09520833333333342,0.015370370370370286,4.296300000190733],[0.08552083333333324,0.009999999999999959,4.313599999904632],[0.05677083333333333,0.0022222222222223064,4.3319000000953665],[0.06197916666666667,-0.027222222222222307,4.3478000001907375],[0.07593750000000009,-0.04407407407407399,4.364700000286106],[0.07114583333333328,-0.028703703703703703,4.383000000000003],[0.07729166666666672,-0.027407407407407325,4.3988000001907395],[0.07020833333333343,-0.06129629629629634,4.414700000286103],[0.07604166666666666,-0.06833333333333329,4.430099999904634],[0.05520833333333333,-0.048333333333333374,4.448599999904637],[0.06843750000000005,-0.053703703703703705,4.4654000000953715],[0.09885416666666676,-0.06851851851851852,4.481500000000004],[0.13010416666666677,-0.05907407407407403,4.4985],[0.14854166666666657,-0.04259259259259259,4.514499999999998],[0.16104166666666658,-0.05259259259259255,4.530700000286103],[0.16104166666666658,-0.05259259259259255,4.544000000000004],[0.17781250000000004,-0.09240740740740737,4.560700000286104],[0.17781250000000004,-0.09240740740740737,4.577200000286105],[0.19583333333333333,-0.122037037037037,4.593900000095367],[0.22322916666666662,-0.1022222222222222,4.610800000190736],[0.2482291666666666,-0.10796296296296298,4.627800000190739],[0.2482291666666666,-0.10796296296296298,4.643999999999998],[0.27322916666666663,-0.11370370370370367,4.660599999904633],[0.3004166666666668,-0.10277777777777777,4.680599999904636],[0.3004166666666668,-0.10277777777777777,4.693900000095368],[0.31375000000000003,-0.06888888888888887,4.710700000286103],[0.31375000000000003,-0.06888888888888887,4.727300000190738],[0.2953125,-0.08333333333333333,4.744099999904634],[0.28885416666666663,-0.10185185185185185,4.7645999999046325],[0.27885416666666674,-0.13129629629629624,4.781900000095369],[0.26885416666666656,-0.16074074074074077,4.800099999904631],[0.26885416666666656,-0.16074074074074077,4.810599999904632],[0.27666666666666656,-0.20907407407407402,4.827200000286105],[0.2742708333333333,-0.26481481481481484,4.846499999999999],[0.2752083333333334,-0.3205555555555556,4.868200000286102],[0.2752083333333334,-0.3205555555555556,4.877200000286102],[0.27614583333333326,-0.3762962962962963,4.893900000095371],[0.2603125000000001,-0.44351851851851853,4.911800000190738],[0.24697916666666658,-0.515925925925926,4.928200000286104],[0.2613541666666668,-0.5792592592592593,4.948900000095371],[0.2613541666666668,-0.5792592592592593,4.960700000286103],[0.2773958333333333,-0.6051851851851852,4.977300000190738],[0.2773958333333333,-0.6051851851851852,4.9939000000953655],[0.3029166666666666,-0.6033333333333334,5.010700000286107],[0.3029166666666666,-0.6033333333333334,5.027200000286101],[0.3142708333333334,-0.5744444444444444,5.044000000000004],[0.3142708333333334,-0.5744444444444444,5.0608000001907385],[0.31375000000000003,-0.5442592592592592,5.082999999999998],[0.31375000000000003,-0.5442592592592592,5.094000000000001],[0.31197916666666664,-0.5198148148148148,5.110700000286101],[0.31197916666666664,-0.5198148148148148,5.127200000286102],[0.3011458333333332,-0.47962962962962963,5.143900000095371],[0.30520833333333336,-0.4440740740740741,5.161300000190735],[0.30885416666666665,-0.4251851851851852,5.179800000190738],[0.3145833333333333,-0.38129629629629624,5.193900000095368],[0.34093749999999995,-0.3507407407407407,5.213500000000003],[0.3536458333333333,-0.35351851851851845,5.230400000095372],[0.3663541666666667,-0.3466666666666666,5.245800000190734],[0.37437500000000007,-0.3611111111111111,5.261300000190737],[0.37520833333333337,-0.36814814814814817,5.279700000286105],[0.36354166666666665,-0.37518518518518523,5.294200000286104],[0.36270833333333335,-0.3948148148148148,5.310599999904632],[0.35343749999999996,-0.41203703703703703,5.327400000095366],[0.3502083333333334,-0.4148148148148148,5.343900000095367],[0.3625,-0.43407407407407406,5.361099999904631],[0.3541666666666667,-0.44000000000000006,5.377300000190736],[0.3272916666666667,-0.43425925925925923,5.393900000095371],[0.3004166666666668,-0.42851851851851847,5.410499999999999],[0.2934375000000001,-0.4353703703703704,5.428200000286104],[0.2864583333333333,-0.44222222222222224,5.444000000000003],[0.29270833333333335,-0.44166666666666665,5.462700000286105],[0.30583333333333323,-0.4418518518518519,5.482099999904634],[0.3125,-0.4398148148148148,5.497200000286107],[0.3241666666666667,-0.43796296296296294,5.513300000190739],[0.3182291666666667,-0.4418518518518519,5.527300000190735],[0.3063541666666666,-0.45611111111111113,5.544700000286106],[0.31302083333333336,-0.48203703703703704,5.5625],[0.3078125,-0.48222222222222216,5.579700000286103],[0.3015625,-0.47555555555555556,5.59380000019074],[0.3071875000000001,-0.4853703703703704,5.610599999904636],[0.3133333333333333,-0.4968518518518519,5.627200000286102],[0.31260416666666657,-0.5075925925925926,5.643900000095371],[0.3007291666666667,-0.5181481481481481,5.664700000286103],[0.2838541666666667,-0.5285185185185185,5.681599999904634],[0.27156250000000004,-0.5218518518518519,5.698200000286107],[0.2652083333333332,-0.5048148148148148,5.715300000190737],[0.2652083333333332,-0.5048148148148148,5.7339000000953675],[0.26552083333333343,-0.4859259259259259,5.753099999904634],[0.26552083333333343,-0.4859259259259259,5.760599999904635],[0.2734375,-0.4935185185185185,5.777200000286101],[0.2734375,-0.4935185185185185,5.794000000000004],[0.27281250000000007,-0.462037037037037,5.8108000001907385],[0.2796875,-0.39351851851851855,5.827200000286105],[0.2865624999999999,-0.325,5.843900000095367],[0.28968749999999993,-0.2551851851851852,5.861900000095368],[0.29229166666666656,-0.19296296296296295,5.880200000286102],[0.29489583333333325,-0.1307407407407408,5.893900000095371],[0.29791666666666666,-0.075,5.91080000019074],[0.3009375000000001,-0.019259259259259216,5.927300000190733],[0.28583333333333344,0.03851851851851843,5.952200000286105],[0.28583333333333344,0.03851851851851843,5.960500000000003],[0.27489583333333345,0.0816666666666667,5.977400000095372],[0.28177083333333336,0.09981481481481477,5.9939000000953655],[0.2530208333333334,0.10407407407407415,6.0105],[0.22427083333333328,0.10833333333333334,6.027300000190735],[0.19927083333333329,0.11129629629629634,6.04390000009537],[0.19343750000000004,0.13796296296296295,6.060700000286104],[0.18760416666666657,0.1646296296296296,6.077200000286105],[0.1554166666666667,0.21055555555555563,6.093900000095367],[0.12322916666666663,0.2564814814814815,6.110500000000002],[0.09958333333333323,0.3074074074074074,6.127300000190736],[0.07604166666666666,0.3737037037037036,6.1444000000953665],[0.03760416666666669,0.4235185185185186,6.161500000000004],[0.026041666666666668,0.46703703703703714,6.177200000286106],[0.010520833333333358,0.5003703703703705,6.193900000095368],[-0.004999999999999952,0.5337037037037038,6.2105999999046375],[-0.024166666666666715,0.5585185185185185,6.227200000286103],[-0.043333333333333356,0.5833333333333334,6.2439000000953655],[-0.044062499999999956,0.6014814814814814,6.260599999904635],[-0.046875,0.6187037037037038,6.277999999999999],[-0.04677083333333331,0.6270370370370371,6.294200000286104],[-0.04614583333333329,0.6292592592592592,6.310599999904632],[-0.03989583333333328,0.6338888888888888,6.327400000095366],[-0.04520833333333331,0.643888888888889,6.343900000095367],[-0.04656250000000005,0.6640740740740741,6.360599999904636],[-0.04656250000000005,0.6640740740740741,6.378599999904637],[-0.052187500000000026,0.6898148148148148,6.393900000095371],[-0.05656249999999995,0.6953703703703704,6.410499999999999],[-0.0609375,0.700925925925926,6.427200000286106],[-0.0626041666666667,0.6927777777777778,6.443800000190734],[-0.05770833333333331,0.6975925925925927,6.4605999999046375],[-0.05281250000000005,0.7024074074074074,6.477900000095367],[-0.04552083333333338,0.6864814814814816,6.4939000000953655],[-0.03822916666666672,0.6705555555555556,6.510599999904635],[-0.03270833333333331,0.6381481481481482,6.527300000190735],[-0.027395833333333286,0.606111111111111,6.54390000009537],[-0.04229166666666669,0.5768518518518518,6.5634000000953705],[-0.06229166666666662,0.5599999999999999,6.579800000190737],[-0.06354166666666666,0.5485185185185186,6.594400000095369],[-0.06479166666666672,0.5370370370370371,6.610599999904636],[-0.07749999999999997,0.5246296296296296,6.627200000286102],[-0.09020833333333336,0.5122222222222222,6.643900000095371],[-0.11604166666666664,0.5238888888888888,6.660599999904633],[-0.14187500000000006,0.5355555555555557,6.677300000190733],[-0.14187500000000006,0.5355555555555557,6.694000000000003],[-0.15760416666666663,0.5555555555555556,6.710700000286103],[-0.13187500000000002,0.5864814814814816,6.73140000009537],[-0.13187500000000002,0.5864814814814816,6.7439000000953655],[-0.11124999999999995,0.6046296296296296,6.760599999904635],[-0.08250000000000005,0.6074074074074074,6.777400000095369],[-0.07250000000000002,0.6048148148148148,6.79390000009537],[-0.06364583333333336,0.6096296296296297,6.8108000001907385],[-0.04781249999999997,0.6033333333333333,6.831400000095371],[-0.04781249999999997,0.6033333333333333,6.844000000000001],[-0.03197916666666671,0.597037037037037,6.860700000286101],[-0.012916666666666642,0.5935185185185186,6.877300000190736],[0.013333333333333286,0.5894444444444443,6.897200000286105],[0.03218749999999997,0.5877777777777777,6.913400000095372],[0.0078125,0.5733333333333334,6.927200000286106],[0.008749999999999977,0.5394444444444444,6.943900000095368],[-0.01072916666666662,0.5242592592592593,6.963599999904638],[-0.024583333333333356,0.5081481481481481,6.980499999999999],[-0.05604166666666662,0.475,6.994],[-0.0875,0.4418518518518519,7.010599999904635],[-0.10625,0.4005555555555555,7.027300000190735],[-0.11802083333333328,0.3592592592592593,7.04390000009537],[-0.14052083333333332,0.3514814814814814,7.062900000095368],[-0.16031249999999997,0.3290740740740742,7.080599999904635],[-0.1779166666666666,0.30685185185185193,7.094500000000004],[-0.18624999999999994,0.27981481481481485,7.111700000286106],[-0.18229166666666666,0.24944444444444452,7.127300000190736],[-0.16302083333333334,0.22074074074074082,7.144099999904633],[-0.13177083333333334,0.21851851851851853,7.160499999999999],[-0.1015625,0.2022222222222223,7.180200000286106],[-0.08395833333333336,0.1881481481481482,7.193900000095368],[-0.08395833333333336,0.1881481481481482,7.2105999999046375],[-0.05447916666666662,0.17740740740740732,7.227200000286103],[-0.021458333333333357,0.1337037037037038,7.245099999904632],[-0.0002083333333333807,0.09907407407407408,7.263099999904632],[0.020833333333333332,0.06574074074074074,7.282499999999999],[0.04229166666666669,0.06777777777777783,7.298099999904636],[0.06375000000000004,0.0698148148148149,7.313800000190739],[0.08208333333333329,0.0705555555555556,7.329900000095371],[0.10718750000000009,0.0544444444444444,7.347000000000001],[0.1352083333333333,0.0338888888888888,7.365200000286102],[0.1631249999999999,0.019259259259259216,7.3825],[0.19020833333333323,0.012222222222222264,7.3980999999046375],[0.21729166666666658,0.005185185185185101,7.413599999904633],[0.24947916666666667,0.009814814814814731,7.4317000002861064],[0.28447916666666656,-0.0014814814814813973,7.448200000286107],[0.3140625,-0.019444444444444445,7.465599999904633],[0.3140625,-0.019444444444444445,7.477200000286103],[0.3407291666666666,-0.051111111111111156,7.494],[0.35625,-0.07407407407407407,7.513300000190739],[0.35625,-0.07407407407407407,7.527400000095369],[0.37177083333333344,-0.09703703703703699,7.54390000009537],[0.3796875,-0.11537037037037039,7.576599999904637],[0.3796875,-0.11537037037037039,7.585700000286103],[0.38916666666666655,-0.1485185185185185,7.599099999904631],[0.3685416666666666,-0.18481481481481485,7.614800000190733],[0.34791666666666665,-0.22111111111111106,7.6295],[0.33125,-0.26351851851851854,7.6480999999046375],[0.3323958333333332,-0.2646296296296296,7.663200000286103],[0.33354166666666674,-0.2657407407407407,7.68090000009537],[0.33354166666666674,-0.2657407407407407,7.694099999904637],[0.3273958333333333,-0.27740740740740744,7.710700000286103],[0.3273958333333333,-0.27740740740740744,7.727300000190738],[0.3171875,-0.3125925925925926,7.7439000000953655],[0.31239583333333343,-0.3388888888888889,7.763300000190739],[0.3133333333333333,-0.3512962962962963,7.7779000000953715],[0.3120833333333332,-0.29888888888888887,7.798300000190736],[0.3167708333333332,-0.2683333333333333,7.815700000286107],[0.32145833333333323,-0.23777777777777773,7.831800000190739],[0.32145833333333323,-0.23777777777777773,7.843900000095367],[0.3258333333333333,-0.2081481481481481,7.860800000190736],[0.3095833333333334,-0.20388888888888893,7.882099999904632],[0.2873958333333334,-0.20055555555555557,7.898599999904633],[0.2795833333333334,-0.14666666666666664,7.914700000286103],[0.2691666666666668,-0.07740740740740742,7.930800000190736],[0.2507291666666667,-0.029259259259259176,7.947099999904637],[0.23229166666666667,0.018888888888888972,7.9654000000953715],[0.23229166666666667,0.018888888888888972,7.977499999999999],[0.2195833333333333,0.02092592592592584,7.994],[0.22843749999999996,0.05,8.011499999999998],[0.23729166666666662,0.07907407407407416,8.028400000095367],[0.23729166666666662,0.07907407407407416,8.050200000286104],[0.24708333333333338,0.10314814814814824,8.060599999904632],[0.2568749999999999,0.12722222222222232,8.077700000286107],[0.2548958333333334,0.127962962962963,8.097700000286103],[0.24874999999999994,0.10240740740740732,8.115300000190736],[0.2515625,0.08555555555555563,8.130200000286102],[0.2569791666666667,0.08092592592592601,8.146800000190737],[0.24093749999999994,0.07814814814814823,8.165500000000002],[0.21979166666666666,0.07148148148148152,8.181200000286104],[0.19989583333333344,0.06388888888888888,8.197000000000003],[0.17999999999999997,0.056296296296296254,8.213900000095371],[0.1453125,0.04129629629629621,8.22990000009537],[0.11864583333333342,0.029259259259259176,8.244400000095368],[0.1046875,0.05314814814814823,8.262900000095371],[0.06281249999999995,0.06148148148148157,8.28130000019074],[0.011979166666666667,0.06111111111111111,8.299200000286106],[0.011979166666666667,0.06111111111111111,8.310599999904632],[-0.03968750000000002,0.05981481481481473,8.327200000286105],[-0.06489583333333329,0.06055555555555564,8.344099999904635],[-0.06489583333333329,0.06055555555555564,8.360500000000002],[-0.0936458333333333,0.05462962962962963,8.377300000190736],[-0.14291666666666672,0.037037037037037035,8.394800000190735],[-0.14291666666666672,0.037037037037037035,8.410499999999999],[-0.16979166666666667,0.01055555555555564,8.427300000190733],[-0.17979166666666668,-0.003333333333333249,8.454500000000003],[-0.17979166666666668,-0.003333333333333249,8.462499999999999],[-0.22927083333333337,-0.022777777777777692,8.477200000286103],[-0.26499999999999996,-0.03740740740740749,8.496599999904632],[-0.27281249999999996,-0.036481481481481566,8.514700000286105],[-0.2726041666666667,-0.04462962962962967,8.531500000000001],[-0.27156250000000004,-0.05185185185185185,8.547400000095372],[-0.3090625000000001,-0.06481481481481481,8.563500000000005],[-0.3363541666666666,-0.06796296296296295,8.582300000190735],[-0.33145833333333335,-0.06851851851851852,8.598700000286101],[-0.3608333333333333,-0.07000000000000002,8.6145],[-0.3921875,-0.0544444444444444,8.631700000286102],[-0.3935416666666666,-0.05740740740740741,8.648000000000003],[-0.4036458333333333,-0.07685185185185185,8.664800000190738],[-0.4036458333333333,-0.07685185185185185,8.677300000190733],[-0.4163541666666667,-0.0787037037037037,8.693900000095368],[-0.4045833333333333,-0.06722222222222224,8.714500000000001],[-0.4045833333333333,-0.06722222222222224,8.727300000190738],[-0.3928125,-0.055740740740740785,8.744],[-0.3928125,-0.055740740740740785,8.761599999904632],[-0.3415625,-0.0418518518518519,8.781200000286105],[-0.3415625,-0.0418518518518519,8.79390000009537],[-0.3142708333333334,-0.0338888888888888,8.810500000000005],[-0.3142708333333334,-0.0338888888888888,8.827200000286105],[-0.31375000000000003,-0.019259259259259216,8.843900000095367],[-0.31375000000000003,-0.019259259259259216,8.860700000286101],[-0.271875,0.006851851851851936,8.877700000286104],[-0.271875,0.006851851851851936,8.893900000095371],[-0.21427083333333338,0.012962962962962963,8.910499999999999],[-0.21427083333333338,0.012962962962962963,8.927200000286106],[-0.1751041666666667,0.050370370370370454,8.944000000000003],[-0.12156250000000005,0.10129629629629638,8.963400000095369],[-0.06541666666666662,0.1346296296296297,8.979500000000002],[-0.06302083333333333,0.15777777777777785,8.996099999904636],[-0.057291666666666664,0.1757407407407407,9.013700000286107],[-0.04354166666666662,0.19703703703703698,9.029400000095372],[-0.0125,0.22111111111111106,9.04390000009537],[0.03677083333333329,0.2024074074074073,9.063200000286102],[0.05697916666666671,0.18944444444444436,9.078400000095371],[0.049687500000000044,0.1766666666666666,9.099300000190738],[0.049687500000000044,0.1766666666666666,9.110599999904636],[0.08260416666666662,0.16314814814814818,9.127300000190736],[0.1021874999999999,0.1398148148148148,9.143900000095371],[0.12177083333333343,0.11648148148148144,9.16140000009537],[0.13895833333333343,0.10351851851851848,9.180200000286106],[0.16083333333333344,0.09796296296296292,9.194900000095366],[0.16666666666666666,0.09685185185185177,9.210999999999999],[0.1724999999999999,0.09574074074074082,9.227200000286103],[0.16552083333333342,0.12777777777777777,9.244400000095368],[0.16437499999999997,0.16055555555555565,9.264300000190737],[0.16437499999999997,0.16055555555555565,9.2772000002861],[0.1742708333333333,0.19685185185185178,9.29390000009537],[0.14447916666666671,0.20500000000000007,9.311400000095368],[0.1259375000000001,0.2,9.329599999904637],[0.10739583333333323,0.19499999999999992,9.346599999904633],[0.0931250000000001,0.19611111111111107,9.36390000009537],[0.07083333333333333,0.19499999999999992,9.381500000000003],[0.07447916666666667,0.1735185185185186,9.397900000095369],[0.078125,0.15203703703703708,9.415599999904636],[0.06906249999999996,0.1301851851851851,9.431099999904632],[0.05395833333333329,0.09611111111111106,9.447800000190739],[0.03885416666666662,0.062037037037037036,9.464500000000001],[0.052083333333333336,0.026666666666666623,9.480400000095372],[0.05302083333333331,0.0007407407407406986,9.494],[0.05395833333333329,-0.025185185185185227,9.5105],[0.08125,-0.052962962962963,9.5272000002861],[0.10843749999999991,-0.07740740740740742,9.543800000190735],[0.11177083333333329,-0.08981481481481482,9.565000000000005],[0.12197916666666657,-0.10314814814814813,9.581099999904637],[0.14489583333333325,-0.1161111111111111,9.59890000009537],[0.14489583333333325,-0.1161111111111111,9.617000000000004],[0.1525000000000001,-0.11574074074074074,9.632200000286105],[0.16010416666666671,-0.11537037037037039,9.646599999904637],[0.14249999999999996,-0.11888888888888886,9.664200000286101],[0.12489583333333343,-0.12240740740740745,9.680200000286106],[0.12489583333333343,-0.12240740740740745,9.693800000190734],[0.13333333333333333,-0.11314814814814819,9.710599999904638],[0.12333333333333343,-0.07370370370370373,9.729099999904633],[0.1134375000000001,-0.03759259259259251,9.746599999904632],[0.0962500000000001,0.0257407407407407,9.761700000286105],[0.0709374999999999,0.09148148148148144,9.777099999904635],[0.05239583333333329,0.12907407407407415,9.79390000009537],[0.04895833333333333,0.1574074074074074,9.810599999904632],[0.04583333333333333,0.22037037037037038,9.827400000095366],[0.058958333333333356,0.3072222222222222,9.843900000095367],[0.07270833333333329,0.3933333333333333,9.860599999904636],[0.06041666666666667,0.4666666666666667,9.877700000286104],[0.04520833333333331,0.490925925925926,9.893900000095371],[0.025312499999999953,0.4955555555555556,9.913200000286103],[0.036354166666666646,0.4316666666666667,9.927400000095368],[0.02645833333333331,0.3907407407407407,9.944099999904637],[0.009791666666666643,0.377962962962963,9.964500000000001],[0.016666666666666666,0.35240740740740734,9.979200000286106],[0.02322916666666662,0.29222222222222216,9.994200000286106],[0.02166666666666662,0.2448148148148149,10.010700000286107],[0.019479166666666714,0.19814814814814816,10.030300000190735],[0.011562500000000024,0.10796296296296289,10.044900000095367],[0.0140625,0.04981481481481477,10.060900000095366],[0.021249999999999977,0.011296296296296339,10.079999999999998],[-0.02312500000000005,0.02759259259259255,10.0942000002861],[-0.03260416666666662,-0.012407407407407492,10.110599999904636],[-0.03260416666666662,-0.012407407407407492,10.130200000286102],[-0.07593749999999998,-0.08388888888888892,10.143800000190737],[-0.09895833333333333,-0.15999999999999995,10.160499999999999],[-0.1219791666666667,-0.2361111111111111,10.177099999904634],[-0.17458333333333337,-0.2946296296296297,10.19440000009537],[-0.22718750000000001,-0.3531481481481481,10.210500000000003],[-0.27802083333333333,-0.37240740740740746,10.229500000000002],[-0.31229166666666663,-0.41148148148148145,10.243800000190738],[-0.34010416666666665,-0.45759259259259266,10.260700000286107],[-0.3188541666666667,-0.524074074074074,10.28040000009537],[-0.3123958333333333,-0.5651851851851851,10.294099999904631],[-0.27364583333333337,-0.5737037037037037,10.310800000190739],[-0.27875,-0.5648148148148148,10.329999999999998],[-0.2865625,-0.5553703703703703,10.346499999999999],[-0.25666666666666665,-0.5762962962962963,10.363200000286106],[-0.24927083333333327,-0.615,10.380000000000003],[-0.24927083333333327,-0.615,10.393900000095371],[-0.2172916666666667,-0.6288888888888889,10.410599999904633],[-0.204999