inst1_resp.keys,inst1_resp.rt,calibrationMouse.x,calibrationMouse.y,calibrationMouse.leftButton,calibrationMouse.midButton,calibrationMouse.rightButton,calibrationClick.x,calibrationClick.y,calibrationClick.leftButton,calibrationClick.midButton,calibrationClick.rightButton,calibrationClick.clicked_name,trialsc.thisRepN,trialsc.thisTrialN,trialsc.thisN,trialsc.thisIndex,trialsc.ran,calibration_x,calibration_y,participant,session,date,expName,psychopyVersion,OS,frameRate,ScreenRes_pixels,Camera_pixels,mouse_2.x,mouse_2.y,mouse_2.leftButton,mouse_2.midButton,mouse_2.rightButton,mouse_2.time,mouse_2.clicked_name,mouse.x,mouse.y,mouse.leftButton,mouse.midButton,mouse.rightButton,mouse.time,mouse.clicked_name,Choice,Trial,TrialDuration,MOUSE_GAZE,ET_GAZE,ET_GAZE_x_T,time,unixTime,ET_GAZE_NF,Loc_Bus_label,Loc_Metro_label,Loc_RH_label,Loc_Cost_label,Loc_Travel_label,Loc_Comfort_label,Loc_Bus_cost,Loc_Metro_cost,Loc_RH_cost,Loc_Bus_travel,Loc_Metro_travel,Loc_RH_travel,Loc_Bus_comfort,Loc_Metro_comfort,Loc_RH_comfort,trials.thisRepN,trials.thisTrialN,trials.thisN,trials.thisIndex,trials.ran,Block,Device,RH_cost,RH_travel_time,RH_Comfort,metro_cost,metro_travel_time,metro_Comfort,Bus_cost,Bus_travel_time,Bus_Comfort
space,2.4166,0.086458333,-0.085185185,1,0,0,-0.008333333,-0.668518519,1,0,0,calibration_square,0,0,0,9,1,0,-0.67,13,001,2024-11-20_12h11.58.714,Attention_exp_legacy,2023.1.0,Win32,59.88023952,,,,,,,,,,,,,,,,,,,,,,,,,,,,,,,,,,,,,,,,,,,,,,,,,,,,,,,,
,,,,,,,-0.670833333,-0.683333333,1,0,0,,0,1,1,0,1,-0.67,-0.67,13,001,2024-11-20_12h11.58.714,Attention_exp_legacy,2023.1.0,Win32,59.88023952,,,,,,,,,,,,,,,,,,,,,,,,,,,,,,,,,,,,,,,,,,,,,,,,,,,,,,,,
,,,,,,,-0.686458333,-0.331481481,1,0,0,,0,2,2,1,1,-0.67,-0.33,13,001,2024-11-20_12h11.58.714,Attention_exp_legacy,2023.1.0,Win32,59.88023952,,,,,,,,,,,,,,,,,,,,,,,,,,,,,,,,,,,,,,,,,,,,,,,,,,,,,,,,
,,,,,,,-0.004166667,-0.32962963,1,0,0,calibration_square,0,3,3,10,1,0,-0.33,13,001,2024-11-20_12h11.58.714,Attention_exp_legacy,2023.1.0,Win32,59.88023952,,,,,,,,,,,,,,,,,,,,,,,,,,,,,,,,,,,,,,,,,,,,,,,,,,,,,,,,
,,,,,,,0.326041667,0.674074074,1,0,0,calibration_square,0,4,4,18,1,0.33,0.67,13,001,2024-11-20_12h11.58.714,Attention_exp_legacy,2023.1.0,Win32,59.88023952,,,,,,,,,,,,,,,,,,,,,,,,,,,,,,,,,,,,,,,,,,,,,,,,,,,,,,,,
,,,,,,,-0.332291667,-0.677777778,1,0,0,calibration_square,0,5,5,4,1,-0.33,-0.67,13,001,2024-11-20_12h11.58.714,Attention_exp_legacy,2023.1.0,Win32,59.88023952,,,,,,,,,,,,,,,,,,,,,,,,,,,,,,,,,,,,,,,,,,,,,,,,,,,,,,,,
,,,,,,,0.31875,-0.67962963,1,0,0,,0,6,6,14,1,0.33,-0.67,13,001,2024-11-20_12h11.58.714,Attention_exp_legacy,2023.1.0,Win32,59.88023952,,,,,,,,,,,,,,,,,,,,,,,,,,,,,,,,,,,,,,,,,,,,,,,,,,,,,,,,
,,,,,,,0.333333333,0.001851852,1,0,0,calibration_square,0,7,7,16,1,0.33,0,13,001,2024-11-20_12h11.58.714,Attention_exp_legacy,2023.1.0,Win32,59.88023952,,,,,,,,,,,,,,,,,,,,,,,,,,,,,,,,,,,,,,,,,,,,,,,,,,,,,,,,
,,,,,,,0.322916667,0.32962963,1,0,0,calibration_square,0,8,8,17,1,0.33,0.33,13,001,2024-11-20_12h11.58.714,Attention_exp_legacy,2023.1.0,Win32,59.88023952,,,,,,,,,,,,,,,,,,,,,,,,,,,,,,,,,,,,,,,,,,,,,,,,,,,,,,,,
,,,,,,,-0.336458333,0.672222222,1,0,0,calibration_square,0,9,9,8,1,-0.33,0.67,13,001,2024-11-20_12h11.58.714,Attention_exp_legacy,2023.1.0,Win32,59.88023952,,,,,,,,,,,,,,,,,,,,,,,,,,,,,,,,,,,,,,,,,,,,,,,,,,,,,,,,
,,,,,,,0.679166667,-0.661111111,1,0,0,calibration_square,0,10,10,20,1,0.67,-0.67,13,001,2024-11-20_12h11.58.714,Attention_exp_legacy,2023.1.0,Win32,59.88023952,,,,,,,,,,,,,,,,,,,,,,,,,,,,,,,,,,,,,,,,,,,,,,,,,,,,,,,,
,,,,,,,-0.338541667,0.007407407,1,0,0,calibration_square,0,11,11,6,1,-0.33,0,13,001,2024-11-20_12h11.58.714,Attention_exp_legacy,2023.1.0,Win32,59.88023952,,,,,,,,,,,,,,,,,,,,,,,,,,,,,,,,,,,,,,,,,,,,,,,,,,,,,,,,
,,,,,,,0.3375,-0.333333333,1,0,0,calibration_square,0,12,12,15,1,0.33,-0.33,13,001,2024-11-20_12h11.58.714,Attention_exp_legacy,2023.1.0,Win32,59.88023952,,,,,,,,,,,,,,,,,,,,,,,,,,,,,,,,,,,,,,,,,,,,,,,,,,,,,,,,
,,,,,,,-0.005208333,-0.007407407,1,0,0,calibration_square,0,13,13,11,1,0,0,13,001,2024-11-20_12h11.58.714,Attention_exp_legacy,2023.1.0,Win32,59.88023952,,,,,,,,,,,,,,,,,,,,,,,,,,,,,,,,,,,,,,,,,,,,,,,,,,,,,,,,
,,,,,,,0.00625,0.674074074,1,0,0,calibration_square,0,14,14,13,1,0,0.67,13,001,2024-11-20_12h11.58.714,Attention_exp_legacy,2023.1.0,Win32,59.88023952,,,,,,,,,,,,,,,,,,,,,,,,,,,,,,,,,,,,,,,,,,,,,,,,,,,,,,,,
,,,,,,,-0.322916667,0.32962963,1,0,0,calibration_square,0,15,15,7,1,-0.33,0.33,13,001,2024-11-20_12h11.58.714,Attention_exp_legacy,2023.1.0,Win32,59.88023952,,,,,,,,,,,,,,,,,,,,,,,,,,,,,,,,,,,,,,,,,,,,,,,,,,,,,,,,
,,,,,,,-0.002083333,0.333333333,1,0,0,calibration_square,0,16,16,12,1,0,0.33,13,001,2024-11-20_12h11.58.714,Attention_exp_legacy,2023.1.0,Win32,59.88023952,,,,,,,,,,,,,,,,,,,,,,,,,,,,,,,,,,,,,,,,,,,,,,,,,,,,,,,,
,,,,,,,-0.672916667,0.322222222,1,0,0,calibration_square,0,17,17,3,1,-0.67,0.33,13,001,2024-11-20_12h11.58.714,Attention_exp_legacy,2023.1.0,Win32,59.88023952,,,,,,,,,,,,,,,,,,,,,,,,,,,,,,,,,,,,,,,,,,,,,,,,,,,,,,,,
,,,,,,,0.675,0.677777778,1,0,0,calibration_square,0,18,18,19,1,0.67,0.67,13,001,2024-11-20_12h11.58.714,Attention_exp_legacy,2023.1.0,Win32,59.88023952,,,,,,,,,,,,,,,,,,,,,,,,,,,,,,,,,,,,,,,,,,,,,,,,,,,,,,,,
,,,,,,,-0.676041667,0.001851852,1,0,0,calibration_square,0,19,19,2,1,-0.67,0,13,001,2024-11-20_12h11.58.714,Attention_exp_legacy,2023.1.0,Win32,59.88023952,,,,,,,,,,,,,,,,,,,,,,,,,,,,,,,,,,,,,,,,,,,,,,,,,,,,,,,,
,,,,,,,-0.339583333,-0.325925926,1,0,0,calibration_square,0,20,20,5,1,-0.33,-0.33,13,001,2024-11-20_12h11.58.714,Attention_exp_legacy,2023.1.0,Win32,59.88023952,,,,,,,,,,,,,,,,,,,,,,,,,,,,,,,,,,,,,,,,,,,,,,,,,,,,,,,,
,,,,,,,,,,,,,,,,,,,,13,001,2024-11-20_12h11.58.714,Attention_exp_legacy,2023.1.0,Win32,59.88023952,"[1920,1080]","[640,480]",[-0.003125],[-0.5037037037037037],[1],[0],[0],[1.314],"[""StartButton""]",[-0.09895833333333333],[0.39444444444444443],[1],[0],[0],[2.0035000000000025],"[""Bus_label""]",Bus_label,1,3.028,"[[0.026041666666666668,-0.19444444444444445],[0.026041666666666668,-0.19444444444444445],[0.026041666666666668,-0.19444444444444445],[0.026041666666666668,-0.19444444444444445],[0.026041666666666668,-0.19444444444444445],[0.026041666666666668,-0.19444444444444445],[0.026041666666666668,-0.19444444444444445],[0.026041666666666668,-0.19444444444444445],[0.026041666666666668,-0.19444444444444445],[0.026041666666666668,-0.19444444444444445],[0.026041666666666668,-0.19444444444444445],[0.026041666666666668,-0.19444444444444445],[0.026041666666666668,-0.19444444444444445],[0.026041666666666668,-0.19444444444444445],[0.026041666666666668,-0.19444444444444445],[0.026041666666666668,-0.19444444444444445],[0.026041666666666668,-0.1925925925925926],[0.027083333333333334,-0.18518518518518517],[0.027083333333333334,-0.1814814814814815],[0.027083333333333334,-0.17777777777777778],[0.028125,-0.17407407407407408],[0.028125,-0.17407407407407408],[0.028125,-0.17407407407407408],[0.028125,-0.17222222222222222],[0.028125,-0.17222222222222222],[0.028125,-0.17222222222222222],[0.028125,-0.17222222222222222],[0.028125,-0.17222222222222222],[0.028125,-0.17037037037037037],[0.028125,-0.1685185185185185],[0.028125,-0.16666666666666666],[0.029166666666666667,-0.16296296296296298],[0.029166666666666667,-0.16111111111111112],[0.029166666666666667,-0.1537037037037037],[0.030208333333333334,-0.14814814814814814],[0.03229166666666667,-0.13703703703703704],[0.034375,-0.1259259259259259],[0.036458333333333336,-0.11666666666666667],[0.03854166666666667,-0.0962962962962963],[0.042708333333333334,-0.07407407407407407],[0.04583333333333333,-0.046296296296296294],[0.04895833333333333,-0.022222222222222223],[0.05416666666666667,0.005555555555555556],[0.058333333333333334,0.03148148148148148],[0.06354166666666666,0.06111111111111111],[0.06666666666666667,0.08333333333333333],[0.071875,0.11296296296296296],[0.078125,0.15],[0.08229166666666667,0.17777777777777778],[0.08333333333333333,0.18703703703703703],[0.08958333333333333,0.2222222222222222],[0.09375,0.24814814814814815],[0.09583333333333334,0.2722222222222222],[0.1,0.29074074074074074],[0.1,0.30925925925925923],[0.10208333333333333,0.32407407407407407],[0.10416666666666667,0.34074074074074073],[0.10520833333333333,0.3537037037037037],[0.10625,0.3648148148148148],[0.10833333333333334,0.3814814814814815],[0.109375,0.3851851851851852],[0.109375,0.3907407407407407],[0.11041666666666666,0.40185185185185185],[0.11041666666666666,0.40370370370370373],[0.11041666666666666,0.40370370370370373],[0.11041666666666666,0.4074074074074074],[0.11041666666666666,0.4074074074074074],[0.11041666666666666,0.4074074074074074],[0.11041666666666666,0.4111111111111111],[0.10104166666666667,0.4166666666666667],[0.07916666666666666,0.4203703703703704],[0.027083333333333334,0.42407407407407405],[-0.007291666666666667,0.42407407407407405],[-0.034375,0.42407407407407405],[-0.05416666666666667,0.42407407407407405],[-0.06666666666666667,0.42407407407407405],[-0.07395833333333333,0.42407407407407405],[-0.08020833333333334,0.42407407407407405],[-0.084375,0.42407407407407405],[-0.08541666666666667,0.4222222222222222],[-0.0875,0.4222222222222222],[-0.0875,0.4222222222222222],[-0.0875,0.4222222222222222],[-0.0875,0.4222222222222222],[-0.0875,0.4222222222222222],[-0.0875,0.4222222222222222],[-0.0875,0.4222222222222222],[-0.0875,0.4222222222222222],[-0.0875,0.4222222222222222],[-0.0875,0.4222222222222222],[-0.08020833333333334,0.4222222222222222],[-0.071875,0.4222222222222222],[-0.06145833333333333,0.4222222222222222],[-0.053125,0.4222222222222222],[-0.046875,0.4222222222222222],[-0.04375,0.4222222222222222],[-0.04375,0.4222222222222222],[-0.042708333333333334,0.4222222222222222],[-0.03854166666666667,0.4222222222222222],[-0.028125,0.4222222222222222],[-0.019791666666666666,0.4222222222222222],[-0.014583333333333334,0.4222222222222222],[-0.013541666666666667,0.4203703703703704],[-0.013541666666666667,0.4203703703703704],[-0.013541666666666667,0.4203703703703704],[-0.013541666666666667,0.4203703703703704],[-0.014583333333333334,0.4185185185185185],[-0.03333333333333333,0.4111111111111111],[-0.040625,0.40925925925925927],[-0.05625,0.4074074074074074],[-0.07604166666666666,0.4],[-0.08541666666666667,0.39814814814814814],[-0.09166666666666666,0.3962962962962963],[-0.09583333333333334,0.3962962962962963],[-0.09895833333333333,0.39444444444444443],[-0.09895833333333333,0.39444444444444443],[-0.09895833333333333,0.39444444444444443],[-0.09895833333333333,0.39444444444444443],[-0.09895833333333333,0.39444444444444443],[-0.09895833333333333,0.39444444444444443],[-0.09895833333333333,0.39444444444444443],[-0.09895833333333333,0.39444444444444443],[-0.09895833333333333,0.39444444444444443],[-0.09895833333333333,0.39444444444444443],[-0.09895833333333333,0.39444444444444443],[-0.09895833333333333,0.39444444444444443],[-0.09895833333333333,0.39444444444444443],[-0.09895833333333333,0.39444444444444443],[-0.09895833333333333,0.39444444444444443],[-0.09895833333333333,0.39444444444444443],[-0.09895833333333333,0.39444444444444443],[-0.09895833333333333,0.39444444444444443],[-0.09895833333333333,0.39444444444444443],[-0.09895833333333333,0.39444444444444443],[-0.09895833333333333,0.39444444444444443],[-0.09895833333333333,0.39444444444444443],[-0.09895833333333333,0.39444444444444443],[-0.09895833333333333,0.39444444444444443],[-0.09895833333333333,0.39444444444444443],[-0.09895833333333333,0.39444444444444443],[-0.09895833333333333,0.39444444444444443],[-0.09895833333333333,0.39444444444444443],[-0.09895833333333333,0.39444444444444443],[-0.09895833333333333,0.39444444444444443],[-0.09895833333333333,0.39444444444444443],[-0.09895833333333333,0.39444444444444443],[-0.09895833333333333,0.39444444444444443],[-0.09895833333333333,0.39444444444444443],[-0.09895833333333333,0.39444444444444443],[-0.09895833333333333,0.39444444444444443],[-0.09895833333333333,0.39444444444444443],[-0.09895833333333333,0.39444444444444443],[-0.09895833333333333,0.39444444444444443],[-0.09895833333333333,0.39444444444444443],[-0.09895833333333333,0.39444444444444443],[-0.09895833333333333,0.39444444444444443],[-0.09895833333333333,0.39444444444444443],[-0.09895833333333333,0.39444444444444443],[-0.09895833333333333,0.39444444444444443],[-0.09895833333333333,0.39444444444444443],[-0.09895833333333333,0.39444444444444443],[-0.09895833333333333,0.39444444444444443],[-0.09895833333333333,0.39444444444444443],[-0.09895833333333333,0.39444444444444443],[-0.09895833333333333,0.39444444444444443],[-0.09895833333333333,0.39444444444444443],[-0.09895833333333333,0.39444444444444443],[-0.09895833333333333,0.39444444444444443],[-0.09895833333333333,0.39444444444444443],[-0.09895833333333333,0.39444444444444443],[-0.09895833333333333,0.39444444444444443],[-0.09895833333333333,0.39444444444444443],[-0.09895833333333333,0.39444444444444443],[-0.09895833333333333,0.39444444444444443],[-0.09895833333333333,0.39444444444444443],[-0.09895833333333333,0.39444444444444443],[-0.09895833333333333,0.39444444444444443],[-0.09895833333333333,0.39444444444444443],[-0.09895833333333333,0.39444444444444443],[-0.09895833333333333,0.39444444444444443],[-0.09895833333333333,0.39444444444444443]]","[[0.07072916666666676,-0.1307407407407408],[0.07072916666666676,-0.1307407407407408],[0.07468750000000005,-0.14074074074074075],[0.07468750000000005,-0.14074074074074075],[0.07270833333333329,-0.14907407407407408],[0.059687499999999956,-0.1412962962962963],[0.06791666666666671,-0.16018518518518518],[0.06791666666666671,-0.16018518518518518],[0.07708333333333334,-0.19370370370370374],[0.05364583333333333,-0.24407407407407408],[0.05364583333333333,-0.24407407407407408],[0.02010416666666662,-0.2853703703703704],[0.019375000000000024,-0.31148148148148147],[0.024270833333333287,-0.36648148148148146],[0.013437499999999976,-0.39962962962962967],[-0.00916666666666662,-0.42592592592592593],[-0.00916666666666662,-0.42592592592592593],[-0.0007291666666667141,-0.41203703703703703],[-0.0007291666666667141,-0.41203703703703703],[0.025937499999999978,-0.4196296296296297],[0.025937499999999978,-0.4196296296296297],[-0.007500000000000047,-0.3831481481481481],[-0.007500000000000047,-0.3831481481481481],[-0.041875000000000044,-0.3320370370370371],[-0.041875000000000044,-0.3320370370370371],[-0.027395833333333286,-0.2687037037037037],[-0.027395833333333286,-0.2687037037037037],[-0.014687500000000023,-0.18888888888888888],[-0.014687500000000023,-0.18888888888888888],[-0.016458333333333287,-0.10999999999999996],[-0.030729166666666665,-0.04000000000000004],[-0.02802083333333331,0.030000000000000086],[-0.02802083333333331,0.030000000000000086],[-0.0125,0.09185185185185189],[0.003125,0.09666666666666675],[-0.009062500000000048,0.12981481481481486],[0.021875,0.11333333333333341],[0.05281250000000005,0.09685185185185177],[0.050625000000000024,0.08925925925925934],[0.06145833333333333,0.08407407407407404],[0.06989583333333324,0.07555555555555547],[0.07072916666666676,0.08796296296296297],[0.07072916666666676,0.08796296296296297],[0.08927083333333338,0.10259259259259255],[0.09302083333333329,0.10944444444444448],[0.08864583333333324,0.15092592592592594],[0.08041666666666672,0.11518518518518527],[0.08770833333333337,0.11370370370370367],[0.07635416666666663,0.13944444444444437],[0.08468749999999996,0.11055555555555564],[0.09187500000000005,0.06462962962962959],[0.08729166666666661,0.021296296296296296],[0.07916666666666666,-0.024074074074074074],[0.08687500000000009,-0.06092592592592588],[0.09656250000000005,-0.08185185185185183],[0.1,-0.14444444444444443],[0.11989583333333324,-0.1522222222222222],[0.11218750000000005,-0.17185185185185187],[0.11916666666666677,-0.23796296296296296],[0.1196875000000001,-0.24111111111111108],[0.1196875000000001,-0.24111111111111108],[0.12864583333333332,-0.25703703703703706],[0.12864583333333332,-0.25703703703703706],[0.15291666666666662,-0.28722222222222227],[0.15291666666666662,-0.28722222222222227],[0.165625,-0.26185185185185184],[0.1622916666666666,-0.290925925925926],[0.15895833333333323,-0.32],[0.15197916666666675,-0.31925925925925924],[0.1525000000000001,-0.3464814814814815],[0.13135416666666658,-0.34759259259259256],[0.11416666666666657,-0.32944444444444443],[0.103125,-0.31370370370370365],[0.0734375,-0.3346296296296296],[0.03781249999999995,-0.3405555555555555],[0.030520833333333285,-0.3907407407407407],[0.004999999999999952,-0.40407407407407403],[-0.0234375,-0.4294444444444444],[-0.04802083333333336,-0.45851851851851855],[-0.08552083333333335,-0.42888888888888893],[-0.09249999999999996,-0.4209259259259259],[-0.09187500000000005,-0.43703703703703706],[-0.09916666666666671,-0.4381481481481482],[-0.09229166666666669,-0.42000000000000004],[-0.07864583333333333,-0.3618518518518518],[-0.06854166666666663,-0.3264814814814815],[-0.06645833333333329,-0.2825925925925926],[-0.04354166666666662,-0.23444444444444448],[-0.035520833333333356,-0.19907407407407407],[-0.022083333333333382,-0.19444444444444445],[0,-0.18370370370370367],[-0.002708333333333357,-0.19796296296296292],[0.00916666666666662,-0.20092592592592592],[0.00791666666666669,-0.1794444444444444],[0,-0.1905555555555555],[-0.015416666666666618,-0.2081481481481481],[-0.015416666666666618,-0.2081481481481481],[-0.015625,-0.25166666666666665],[-0.015625,-0.25166666666666665],[-0.03697916666666667,-0.25277777777777777],[-0.050312499999999954,-0.2531481481481481],[-0.050312499999999954,-0.2531481481481481],[-0.0734375,-0.23796296296296296],[-0.0734375,-0.23796296296296296],[-0.09656250000000005,-0.25685185185185183],[-0.08854166666666667,-0.23129629629629625],[-0.09979166666666663,-0.22888888888888892],[-0.09656250000000005,-0.2388888888888889],[-0.09708333333333338,-0.2625925925925926],[-0.09979166666666663,-0.2662962962962963],[-0.09249999999999996,-0.24611111111111106],[-0.09208333333333331,-0.2785185185185185],[-0.07531249999999995,-0.3],[-0.04874999999999995,-0.337037037037037],[-0.036562500000000026,-0.3531481481481481],[-0.043020833333333286,-0.3388888888888889],[-0.035312499999999976,-0.34370370370370373],[-0.03322916666666664,-0.32388888888888884],[-0.035104166666666714,-0.31740740740740736],[-0.028750000000000022,-0.2735185185185185],[-0.03239583333333336,-0.2535185185185185],[-0.02833333333333338,-0.26351851851851854],[-0.02833333333333338,-0.26351851851851854],[-0.033749999999999974,-0.27240740740740743],[-0.033749999999999974,-0.27240740740740743],[-0.041562499999999974,-0.28962962962962957],[-0.04718749999999995,-0.28703703703703703],[-0.08218749999999998,-0.3140740740740741],[-0.1203125,-0.3244444444444444],[-0.15812499999999996,-0.3412962962962963],[-0.19802083333333337,-0.3194444444444444],[-0.24614583333333329,-0.33499999999999996],[-0.29635416666666664,-0.365925925925926],[-0.33489583333333334,-0.3646296296296296],[-0.36437499999999995,-0.3675925925925926],[-0.3998958333333333,-0.3375925925925926],[-0.43083333333333335,-0.33240740740740743],[-0.43083333333333335,-0.33240740740740743],[-0.42770833333333336,-0.32333333333333336],[-0.42770833333333336,-0.32333333333333336],[-0.4180208333333333,-0.33555555555555555],[-0.4180208333333333,-0.33555555555555555],[-0.39520833333333333,-0.35037037037037033],[-0.39520833333333333,-0.35037037037037033],[-0.37374999999999997,-0.3861111111111111],[-0.34177083333333336,-0.38370370370370366],[-0.34177083333333336,-0.38370370370370366],[-0.3129166666666666,-0.3866666666666667],[-0.3129166666666666,-0.3866666666666667],[-0.28395833333333337,-0.3814814814814815],[-0.27458333333333335,-0.3642592592592592],[-0.2582291666666666,-0.39240740740740737],[-0.2582291666666666,-0.39240740740740737],[-0.23322916666666665,-0.42611111111111116],[-0.21218750000000006,-0.46148148148148144],[-0.2022916666666667,-0.47388888888888886],[-0.19437500000000002,-0.5211111111111111],[-0.18197916666666672,-0.5318518518518518],[-0.1538541666666667,-0.590925925925926],[-0.12052083333333338,-0.6292592592592593],[-0.10593750000000005,-0.654074074074074],[-0.09041666666666662,-0.6805555555555556],[-0.0859375,-0.7057407407407408],[-0.09052083333333331,-0.7277777777777777],[-0.09572916666666664,-0.7322222222222222],[-0.10531250000000002,-0.7335185185185186],[-0.10531250000000002,-0.7335185185185186],[-0.11218750000000005,-0.700925925925926],[-0.11156250000000002,-0.7027777777777777],[-0.1330208333333334,-0.7046296296296296],[-0.1544791666666666,-0.7064814814814815],[-0.17135416666666667,-0.6985185185185185],[-0.18947916666666664,-0.6872222222222223],[-0.1898958333333333,-0.6572222222222222],[-0.18635416666666665,-0.6301851851851852],[-0.1782291666666667,-0.6190740740740741],[-0.1782291666666667,-0.6190740740740741],[-0.16739583333333338,-0.6229629629629629],[-0.15249999999999997,-0.6046296296296296],[-0.15843750000000004,-0.5783333333333334],[-0.14583333333333334,-0.5724074074074075]]","[[0.07072916666666676,-0.1307407407407408,0.00020000028610667187],[0.07072916666666676,-0.1307407407407408,0.05540000009536783],[0.07468750000000005,-0.14074074074074075,0.06420000028610673],[0.07468750000000005,-0.14074074074074075,0.07750000000000057],[0.07270833333333329,-0.14907407407407408,0.09430000019073503],[0.059687499999999956,-0.1412962962962963,0.11470000028610627],[0.06791666666666671,-0.16018518518518518,0.13170000028610218],[0.06791666666666671,-0.16018518518518518,0.14759999990463513],[0.07708333333333334,-0.19370370370370374,0.1622000002861057],[0.05364583333333333,-0.24407407407407408,0.17740000009536772],[0.05364583333333333,-0.24407407407407408,0.19420000028610218],[0.02010416666666662,-0.2853703703703704,0.21100000000000563],[0.019375000000000024,-0.31148148148148147,0.22740000009537198],[0.024270833333333287,-0.36648148148148146,0.24630000019073606],[0.013437499999999976,-0.39962962962962967,0.26240000009536857],[-0.00916666666666662,-0.42592592592592593,0.2775000000000034],[-0.00916666666666662,-0.42592592592592593,0.2990000000000066],[-0.0007291666666667141,-0.41203703703703703,0.3110999999046342],[-0.0007291666666667141,-0.41203703703703703,0.3278000001907415],[0.025937499999999978,-0.4196296296296297,0.35120000028610576],[0.025937499999999978,-0.4196296296296297,0.3610000000000042],[-0.007500000000000047,-0.3831481481481481,0.37750000000000483],[-0.007500000000000047,-0.3831481481481481,0.394200000286105],[-0.041875000000000044,-0.3320370370370371,0.41420000028610815],[-0.041875000000000044,-0.3320370370370371,0.427500000000002],[-0.027395833333333286,-0.2687037037037037,0.4440999999046369],[-0.027395833333333286,-0.2687037037037037,0.4608000001907371],[-0.014687500000000023,-0.18888888888888888,0.47750000000000625],[-0.014687500000000023,-0.18888888888888888,0.49640000009537033],[-0.016458333333333287,-0.10999999999999996,0.5110000000000028],[-0.030729166666666665,-0.04000000000000004,0.5275000000000034],[-0.02802083333333331,0.030000000000000086,0.5477000002861061],[-0.02802083333333331,0.030000000000000086,0.5609999999999999],[-0.0125,0.09185185185185189,0.5778000001907415],[0.003125,0.09666666666666675,0.5960999999046379],[-0.009062500000000048,0.12981481481481486,0.6115000000000066],[0.021875,0.11333333333333341,0.6293000001907387],[0.05281250000000005,0.09685185185185177,0.644200000286105],[0.050625000000000024,0.08925925925925934,0.6630000000000038],[0.06145833333333333,0.08407407407407404,0.6775999999046363],[0.06989583333333324,0.07555555555555547,0.6943000001907365],[0.07072916666666676,0.08796296296296297,0.7157000002861054],[0.07072916666666676,0.08796296296296297,0.7275999999046334],[0.08927083333333338,0.10259259259259255,0.7443000001907407],[0.09302083333333329,0.10944444444444448,0.7609000000953685],[0.08864583333333324,0.15092592592592594,0.7807000002861031],[0.08041666666666672,0.11518518518518527,0.794700000286106],[0.08770833333333337,0.11370370370370367,0.814300000190741],[0.07635416666666663,0.13944444444444437,0.8307000002861074],[0.08468749999999996,0.11055555555555564,0.8444000000953693],[0.09187500000000005,0.06462962962962959,0.8609000000953699],[0.08729166666666661,0.021296296296296296,0.8775999999046391],[0.07916666666666666,-0.024074074074074074,0.8975999999046351],[0.08687500000000009,-0.06092592592592588,0.9132000002861034],[0.09656250000000005,-0.08185185185185183,0.9290999999046363],[0.1,-0.14444444444444443,0.9443000001907365],[0.11989583333333324,-0.1522222222222222,0.9632000002861076],[0.11218750000000005,-0.17185185185185187,0.9780000000000015],[0.11916666666666677,-0.23796296296296296,0.9950999999046388],[0.1196875000000001,-0.24111111111111108,1.0170999999046373],[0.1196875000000001,-0.24111111111111108,1.0275999999046377],[0.12864583333333332,-0.25703703703703706,1.0445999999046336],[0.12864583333333332,-0.25703703703703706,1.061],[0.15291666666666662,-0.28722222222222227,1.083599999904635],[0.15291666666666662,-0.28722222222222227,1.0940999999046355],[0.165625,-0.26185185185185184,1.1110000000000042],[0.1622916666666666,-0.290925925925926,1.1274000000953706],[0.15895833333333323,-0.32,1.1440999999046326],[0.15197916666666675,-0.31925925925925924,1.163099999904638],[0.1525000000000001,-0.3464814814814815,1.1805999999046364],[0.13135416666666658,-0.34759259259259256,1.1962000002861046],[0.11416666666666657,-0.32944444444444443,1.216000000000001],[0.103125,-0.31370370370370365,1.2305000000000064],[0.0734375,-0.3346296296296296,1.2468000001907384],[0.03781249999999995,-0.3405555555555555,1.2612000002861024],[0.030520833333333285,-0.3907407407407407,1.2809000000953716],[0.004999999999999952,-0.40407407407407403,1.2964000000953675],[-0.0234375,-0.4294444444444444,1.3133000001907362],[-0.04802083333333336,-0.45851851851851855,1.3309000000953688],[-0.08552083333333335,-0.42888888888888893,1.3450999999046331],[-0.09249999999999996,-0.4209259259259259,1.3612000002861038],[-0.09187500000000005,-0.43703703703703706,1.3774000000953706],[-0.09916666666666671,-0.4381481481481482,1.3945000000000007],[-0.09229166666666669,-0.42000000000000004,1.41080000019074],[-0.07864583333333333,-0.3618518518518518,1.4278000001907358],[-0.06854166666666663,-0.3264814814814815,1.4448000001907388],[-0.06645833333333329,-0.2825925925925926,1.4607000002861028],[-0.04354166666666662,-0.23444444444444448,1.477400000095372],[-0.035520833333333356,-0.19907407407407407,1.4975000000000023],[-0.022083333333333382,-0.19444444444444445,1.5132000002861048],[0,-0.18370370370370367,1.5298000001907397],[-0.002708333333333357,-0.19796296296296292,1.5443000001907379],[0.00916666666666662,-0.20092592592592592,1.5615999999046366],[0.00791666666666669,-0.1794444444444444,1.5775000000000006],[0,-0.1905555555555555,1.5970000000000013],[-0.015416666666666618,-0.2081481481481481,1.6145000000000067],[-0.015416666666666618,-0.2081481481481481,1.6280999999046344],[-0.015625,-0.25166666666666665,1.647900000095369],[-0.015625,-0.25166666666666665,1.6610000000000014],[-0.03697916666666667,-0.25277777777777777,1.6778000001907358],[-0.050312499999999954,-0.2531481481481481,1.7000999999046371],[-0.050312499999999954,-0.2531481481481481,1.7112000002861052],[-0.0734375,-0.23796296296296296,1.72780000019074],[-0.0734375,-0.23796296296296296,1.744099999904634],[-0.09656250000000005,-0.25685185185185183,1.7608000001907413],[-0.08854166666666667,-0.23129629629629625,1.7774000000953691],[-0.09979166666666663,-0.22888888888888892,1.7979000000953675],[-0.09656250000000005,-0.2388888888888889,1.814],[-0.09708333333333338,-0.2625925925925926,1.828400000095371],[-0.09979166666666663,-0.2662962962962963,1.8442000002861079],[-0.09249999999999996,-0.24611111111111106,1.8640999999046386],[-0.09208333333333331,-0.2785185185185185,1.8778000001907387],[-0.07531249999999995,-0.3,1.8948000001907417],[-0.04874999999999995,-0.337037037037037,1.9163000001907378],[-0.036562500000000026,-0.3531481481481481,1.9310000000000045],[-0.043020833333333286,-0.3388888888888889,1.946000000000005],[-0.035312499999999976,-0.34370370370370373,1.9607000002861028],[-0.03322916666666664,-0.32388888888888884,1.9775000000000063],[-0.035104166666666714,-0.31740740740740736,1.9965000000000046],[-0.028750000000000022,-0.2735185185185185,2.013700000286107],[-0.03239583333333336,-0.2535185185185185,2.029900000095374],[-0.02833333333333338,-0.26351851851851854,2.0472000002861037],[-0.02833333333333338,-0.26351851851851854,2.0608000001907385],[-0.033749999999999974,-0.27240740740740743,2.0775000000000006],[-0.033749999999999974,-0.27240740740740743,2.0940999999046355],[-0.041562499999999974,-0.28962962962962957,2.1107000002861085],[-0.04718749999999995,-0.28703703703703703,2.130900000095373],[-0.08218749999999998,-0.3140740740740741,2.146099999904635],[-0.1203125,-0.3244444444444444,2.1615000000000038],[-0.15812499999999996,-0.3412962962962963,2.1777000002861087],[-0.19802083333333337,-0.3194444444444444,2.194200000286102],[-0.24614583333333329,-0.33499999999999996,2.2124000000953714],[-0.29635416666666664,-0.365925925925926,2.22930000019074],[-0.33489583333333334,-0.3646296296296296,2.244099999904634],[-0.36437499999999995,-0.3675925925925926,2.261000000000003],[-0.3998958333333333,-0.3375925925925926,2.279200000286103],[-0.43083333333333335,-0.33240740740740743,2.2945999999046336],[-0.43083333333333335,-0.33240740740740743,2.3108000001907385],[-0.42770833333333336,-0.32333333333333336,2.3275000000000006],[-0.42770833333333336,-0.32333333333333336,2.3440999999046355],[-0.4180208333333333,-0.33555555555555555,2.36090000009537],[-0.4180208333333333,-0.33555555555555555,2.377500000000005],[-0.39520833333333333,-0.35037037037037033,2.3940999999046326],[-0.39520833333333333,-0.35037037037037033,2.410900000095374],[-0.37374999999999997,-0.3861111111111111,2.4274000000953677],[-0.34177083333333336,-0.38370370370370366,2.4494000000953733],[-0.34177083333333336,-0.38370370370370366,2.460700000286103],[-0.3129166666666666,-0.3866666666666667,2.477400000095372],[-0.3129166666666666,-0.3866666666666667,2.494000000000007],[-0.28395833333333337,-0.3814814814814815,2.5109000000953685],[-0.27458333333333335,-0.3642592592592592,2.529500000000006],[-0.2582291666666666,-0.39240740740740737,2.5537000002861063],[-0.2582291666666666,-0.39240740740740737,2.5608000001907385],[-0.23322916666666665,-0.42611111111111116,2.5774000000953734],[-0.21218750000000006,-0.46148148148148144,2.5978000001907375],[-0.2022916666666667,-0.47388888888888886,2.613500000000002],[-0.19437500000000002,-0.5211111111111111,2.6295999999046344],[-0.18197916666666672,-0.5318518518518518,2.6455000000000055],[-0.1538541666666667,-0.590925925925926,2.664900000095372],[-0.12052083333333338,-0.6292592592592593,2.679300000190736],[-0.10593750000000005,-0.654074074074074,2.697099999904637],[-0.09041666666666662,-0.6805555555555556,2.7139000000953715],[-0.0859375,-0.7057407407407408,2.7305000000000064],[-0.09052083333333331,-0.7277777777777777,2.744700000286109],[-0.09572916666666664,-0.7322222222222222,2.761400000095371],[-0.10531250000000002,-0.7335185185185186,2.777400000095369],[-0.10531250000000002,-0.7335185185185186,2.7940999999046383],[-0.11218750000000005,-0.700925925925926,2.8108000001907385],[-0.11156250000000002,-0.7027777777777777,2.8275000000000006],[-0.1330208333333334,-0.7046296296296296,2.8440999999046355],[-0.1544791666666666,-0.7064814814814815,2.8608000001907357],[-0.17135416666666667,-0.6985185185185185,2.878],[-0.18947916666666664,-0.6872222222222223,2.8955999999046327],[-0.1898958333333333,-0.6572222222222222,2.9140000000000015],[-0.18635416666666665,-0.6301851851851852,2.931599999904634],[-0.1782291666666667,-0.6190740740740741,2.9483000001907413],[-0.1782291666666667,-0.6190740740740741,2.960700000286103],[-0.16739583333333338,-0.6229629629629629,2.9775000000000063],[-0.15249999999999997,-0.6046296296296296,2.9958000001907408],[-0.15843750000000004,-0.5783333333333334,3.0128000001907367],[-0.14583333333333334,-0.5724074074074075,3.028000000000006]]","[0.00020000028610667187,0.05540000009536783,0.06420000028610673,0.07750000000000057,0.09430000019073503,0.11470000028610627,0.13170000028610218,0.14759999990463513,0.1622000002861057,0.17740000009536772,0.19420000028610218,0.21100000000000563,0.22740000009537198,0.24630000019073606,0.26240000009536857,0.2775000000000034,0.2990000000000066,0.3110999999046342,0.3278000001907415,0.35120000028610576,0.3610000000000042,0.37750000000000483,0.394200000286105,0.41420000028610815,0.427500000000002,0.4440999999046369,0.4608000001907371,0.47750000000000625,0.49640000009537033,0.5110000000000028,0.5275000000000034,0.5477000002861061,0.5609999999999999,0.5778000001907415,0.5960999999046379,0.6115000000000066,0.6293000001907387,0.644200000286105,0.6630000000000038,0.6775999999046363,0.6943000001907365,0.7157000002861054,0.7275999999046334,0.7443000001907407,0.7609000000953685,0.7807000002861031,0.794700000286106,0.814300000190741,0.8307000002861074,0.8444000000953693,0.8609000000953699,0.8775999999046391,0.8975999999046351,0.9132000002861034,0.9290999999046363,0.9443000001907365,0.9632000002861076,0.9780000000000015,0.9950999999046388,1.0170999999046373,1.0275999999046377,1.0445999999046336,1.061,1.083599999904635,1.0940999999046355,1.1110000000000042,1.1274000000953706,1.1440999999046326,1.163099999904638,1.1805999999046364,1.1962000002861046,1.216000000000001,1.2305000000000064,1.2468000001907384,1.2612000002861024,1.2809000000953716,1.2964000000953675,1.3133000001907362,1.3309000000953688,1.3450999999046331,1.3612000002861038,1.3774000000953706,1.3945000000000007,1.41080000019074,1.4278000001907358,1.4448000001907388,1.4607000002861028,1.477400000095372,1.4975000000000023,1.5132000002861048,1.5298000001907397,1.5443000001907379,1.5615999999046366,1.5775000000000006,1.5970000000000013,1.6145000000000067,1.6280999999046344,1.647900000095369,1.6610000000000014,1.6778000001907358,1.7000999999046371,1.7112000002861052,1.72780000019074,1.744099999904634,1.7608000001907413,1.7774000000953691,1.7979000000953675,1.814,1.828400000095371,1.8442000002861079,1.8640999999046386,1.8778000001907387,1.8948000001907417,1.9163000001907378,1.9310000000000045,1.946000000000005,1.9607000002861028,1.9775000000000063,1.9965000000000046,2.013700000286107,2.029900000095374,2.0472000002861037,2.0608000001907385,2.0775000000000006,2.0940999999046355,2.1107000002861085,2.130900000095373,2.146099999904635,2.1615000000000038,2.1777000002861087,2.194200000286102,2.2124000000953714,2.22930000019074,2.244099999904634,2.261000000000003,2.279200000286103,2.2945999999046336,2.3108000001907385,2.3275000000000006,2.3440999999046355,2.36090000009537,2.377500000000005,2.3940999999046326,2.410900000095374,2.4274000000953677,2.4494000000953733,2.460700000286103,2.477400000095372,2.494000000000007,2.5109000000953685,2.529500000000006,2.5537000002861063,2.5608000001907385,2.5774000000953734,2.5978000001907375,2.613500000000002,2.6295999999046344,2.6455000000000055,2.664900000095372,2.679300000190736,2.697099999904637,2.7139000000953715,2.7305000000000064,2.744700000286109,2.761400000095371,2.777400000095369,2.7940999999046383,2.8108000001907385,2.8275000000000006,2.8440999999046355,2.8608000001907357,2.878,2.8955999999046327,2.9140000000000015,2.931599999904634,2.9483000001907413,2.960700000286103,2.9775000000000063,2.9958000001907408,3.0128000001907367,3.028000000000006]","[1732075961862,1732075961908,1732075961916,1732075961930,1732075961946,1732075961967,1732075961984,1732075962000,1732075962014,1732075962030,1732075962046,1732075962063,1732075962080,1732075962098,1732075962115,1732075962130,1732075962151,1732075962163,1732075962180,1732075962203,1732075962213,1732075962230,1732075962246,1732075962266,1732075962280,1732075962296,1732075962313,1732075962330,1732075962349,1732075962363,1732075962380,1732075962400,1732075962413,1732075962430,1732075962448,1732075962464,1732075962481,1732075962496,1732075962515,1732075962530,1732075962546,1732075962568,1732075962580,1732075962596,1732075962613,1732075962633,1732075962647,1732075962666,1732075962683,1732075962697,1732075962715,1732075962731,1732075962751,1732075962767,1732075962783,1732075962798,1732075962817,1732075962832,1732075962849,1732075962871,1732075962881,1732075962898,1732075962915,1732075962937,1732075962948,1732075962965,1732075962981,1732075962998,1732075963017,1732075963034,1732075963050,1732075963070,1732075963084,1732075963100,1732075963115,1732075963134,1732075963150,1732075963167,1732075963184,1732075963199,1732075963215,1732075963231,1732075963248,1732075963264,1732075963281,1732075963298,1732075963314,1732075963331,1732075963351,1732075963367,1732075963383,1732075963398,1732075963415,1732075963431,1732075963451,1732075963468,1732075963482,1732075963502,1732075963515,1732075963531,1732075963554,1732075963565,1732075963581,1732075963598,1732075963614,1732075963631,1732075963651,1732075963668,1732075963682,1732075963698,1732075963718,1732075963731,1732075963749,1732075963770,1732075963785,1732075963800,1732075963814,1732075963831,1732075963850,1732075963867,1732075963884,1732075963901,1732075963914,1732075963931,1732075963948,1732075963964,1732075963984,1732075964000,1732075964015,1732075964031,1732075964048,1732075964066,1732075964083,1732075964098,1732075964115,1732075964133,1732075964148,1732075964164,1732075964181,1732075964198,1732075964214,1732075964231,1732075964248,1732075964264,1732075964281,1732075964303,1732075964314,1732075964331,1732075964348,1732075964364,1732075964383,1732075964407,1732075964414,1732075964431,1732075964451,1732075964467,1732075964483,1732075964499,1732075964519,1732075964533,1732075964551,1732075964567,1732075964584,1732075964598,1732075964615,1732075964631,1732075964648,1732075964664,1732075964681,1732075964698,1732075964714,1732075964732,1732075964749,1732075964768,1732075964785,1732075964802,1732075964814,1732075964831,1732075964849,1732075964866,1732075964882]","[[1027.9,469.4],[1027.9,469.4],[1031.7,464],[1031.7,464],[1029.8,459.5],[1017.3,463.7],[1025.2,453.5],[1025.2,453.5],[1034,435.4],[1011.5,408.2],[1011.5,408.2],[979.3,385.9],[978.6,371.8],[983.3,342.1],[972.9,324.2],[951.2,310],[951.2,310],[959.3,317.5],[959.3,317.5],[984.9,313.4],[984.9,313.4],[952.8,333.1],[952.8,333.1],[919.8,360.7],[919.8,360.7],[933.7,394.9],[933.7,394.9],[945.9,438],[945.9,438],[944.2,480.6],[930.5,518.4],[933.1,556.2],[933.1,556.2],[948,589.6],[963,592.2],[951.3,610.1],[981,601.2],[1010.7,592.3],[1008.6,588.2],[1019,585.4],[1027.1,580.8],[1027.9,587.5],[1027.9,587.5],[1045.7,595.4],[1049.3,599.1],[1045.1,621.5],[1037.2,602.2],[1044.2,601.4],[1033.3,615.3],[1041.3,599.7],[1048.2,574.9],[1043.8,551.5],[1036,527],[1043.4,507.1],[1052.7,495.8],[1056,462],[1075.1,457.8],[1067.7,447.2],[1074.4,411.5],[1074.9,409.8],[1074.9,409.8],[1083.5,401.2],[1083.5,401.2],[1106.8,384.9],[1106.8,384.9],[1119,398.6],[1115.8,382.9],[1112.6,367.2],[1105.9,367.6],[1106.4,352.9],[1086.1,352.3],[1069.6,362.1],[1059,370.6],[1030.5,359.3],[996.3,356.1],[989.3,329],[964.8,321.8],[937.5,308.1],[913.9,292.4],[877.9,308.4],[871.2,312.7],[871.8,304],[864.8,303.4],[871.4,313.2],[884.5,344.6],[894.2,363.7],[896.2,387.4],[918.2,413.4],[925.9,432.5],[938.8,435],[960,440.8],[957.4,433.1],[968.8,431.5],[967.6,443.1],[960,437.1],[945.2,427.6],[945.2,427.6],[945,404.1],[945,404.1],[924.5,403.5],[911.7,403.3],[911.7,403.3],[889.5,411.5],[889.5,411.5],[867.3,401.3],[875,415.1],[864.2,416.4],[867.3,411],[866.8,398.2],[864.2,396.2],[871.2,407.1],[871.6,389.6],[887.7,378],[913.2,358],[924.9,349.3],[918.7,357],[926.1,354.4],[928.1,365.1],[926.3,368.6],[932.4,392.3],[928.9,403.1],[932.8,397.7],[932.8,397.7],[927.6,392.9],[927.6,392.9],[920.1,383.6],[914.7,385],[881.1,370.4],[844.5,364.8],[808.2,355.7],[769.9,367.5],[723.7,359.1],[675.5,342.4],[638.5,343.1],[610.2,341.5],[576.1,357.7],[546.4,360.5],[546.4,360.5],[549.4,365.4],[549.4,365.4],[558.7,358.8],[558.7,358.8],[580.6,350.8],[580.6,350.8],[601.2,331.5],[631.9,332.8],[631.9,332.8],[659.6,331.2],[659.6,331.2],[687.4,334],[696.4,343.3],[712.1,328.1],[712.1,328.1],[736.1,309.9],[756.3,290.8],[765.8,284.1],[773.4,258.6],[785.3,252.8],[812.3,220.9],[844.3,200.2],[858.3,186.8],[873.2,172.5],[877.5,158.9],[873.1,147],[868.1,144.6],[858.9,143.9],[858.9,143.9],[852.3,161.5],[852.9,160.5],[832.3,159.5],[811.7,158.5],[795.5,162.8],[778.1,168.9],[777.7,185.1],[781.1,199.7],[788.9,205.7],[788.9,205.7],[799.3,203.6],[813.6,213.5],[807.9,227.7],[820,230.9]]","[-0.132282,0.39684600000000003]","[0.132282,0.39684600000000003]","[0.39684600000000003,0.39684600000000003]","[-0.39684600000000003,0.132282]","[-0.39684600000000003,-0.132282]","[-0.39684600000000003,-0.39684600000000003]","[-0.132282,0.132282]","[0.132282,0.132282]","[0.39684600000000003,0.132282]","[-0.132282,-0.132282]","[0.132282,-0.132282]","[0.39684600000000003,-0.132282]","[-0.132282,-0.39684600000000003]","[0.132282,-0.39684600000000003]","[0.39684600000000003,-0.39684600000000003]",0,0,0,0,1,2,Tablet,15,20,8,3,70,4,3,60,4
,,,,,,,,,,,,,,,,,,,,13,001,2024-11-20_12h11.58.714,Attention_exp_legacy,2023.1.0,Win32,59.88023952,,,,,,,,,,[0.10104166666666667],[0.412962962962963],[1],[0],[0],[1.3985999999046328],"[""Metro_label""]",Metro_label,2,2.4163,"[[-0.09895833333333333,0.3851851851851852],[-0.09895833333333333,0.3851851851851852],[-0.09895833333333333,0.3851851851851852],[-0.09895833333333333,0.3851851851851852],[-0.09895833333333333,0.3851851851851852],[-0.09895833333333333,0.3851851851851852],[-0.09895833333333333,0.3851851851851852],[-0.09895833333333333,0.3851851851851852],[-0.09895833333333333,0.3851851851851852],[-0.09895833333333333,0.38333333333333336],[-0.09895833333333333,0.3814814814814815],[-0.1,0.37962962962962965],[-0.1,0.37962962962962965],[-0.1,0.37962962962962965],[-0.1,0.37962962962962965],[-0.1,0.37962962962962965],[-0.1,0.37962962962962965],[-0.1,0.37962962962962965],[-0.1,0.37962962962962965],[-0.1,0.37962962962962965],[-0.1,0.37962962962962965],[-0.1,0.37962962962962965],[-0.1,0.37962962962962965],[-0.1,0.37962962962962965],[-0.1,0.37962962962962965],[-0.1,0.37962962962962965],[-0.1,0.37962962962962965],[-0.1,0.37962962962962965],[-0.1,0.37962962962962965],[-0.1,0.37962962962962965],[-0.1,0.37962962962962965],[-0.1,0.37962962962962965],[-0.1,0.37962962962962965],[-0.1,0.37962962962962965],[-0.1,0.37962962962962965],[-0.1,0.37962962962962965],[-0.1,0.37962962962962965],[-0.096875,0.37962962962962965],[-0.090625,0.37962962962962965],[-0.08645833333333333,0.3851851851851852],[-0.08020833333333334,0.387037037037037],[-0.07395833333333333,0.3907407407407407],[-0.06770833333333333,0.3925925925925926],[-0.06145833333333333,0.39814814814814814],[-0.052083333333333336,0.4],[-0.04791666666666667,0.4],[-0.0375,0.40185185185185185],[-0.01875,0.4074074074074074],[-0.013541666666666667,0.40925925925925927],[0.005208333333333333,0.4148148148148148],[0.020833333333333332,0.4148148148148148],[0.03229166666666667,0.4148148148148148],[0.04479166666666667,0.4148148148148148],[0.051041666666666666,0.4148148148148148],[0.05520833333333333,0.4148148148148148],[0.05625,0.4148148148148148],[0.05625,0.4148148148148148],[0.05625,0.4148148148148148],[0.057291666666666664,0.4148148148148148],[0.058333333333333334,0.4148148148148148],[0.06041666666666667,0.4148148148148148],[0.06354166666666666,0.4148148148148148],[0.06458333333333334,0.4148148148148148],[0.06666666666666667,0.4148148148148148],[0.06979166666666667,0.4148148148148148],[0.071875,0.4148148148148148],[0.07395833333333333,0.4148148148148148],[0.07708333333333334,0.4148148148148148],[0.07916666666666666,0.4148148148148148],[0.07916666666666666,0.4148148148148148],[0.08020833333333334,0.4148148148148148],[0.08333333333333333,0.4148148148148148],[0.08645833333333333,0.4148148148148148],[0.08958333333333333,0.4148148148148148],[0.09270833333333334,0.412962962962963],[0.09375,0.412962962962963],[0.09583333333333334,0.412962962962963],[0.09895833333333333,0.412962962962963],[0.1,0.412962962962963],[0.1,0.412962962962963],[0.10104166666666667,0.412962962962963],[0.10104166666666667,0.412962962962963],[0.10104166666666667,0.412962962962963],[0.10104166666666667,0.412962962962963],[0.10104166666666667,0.412962962962963],[0.10104166666666667,0.412962962962963],[0.10104166666666667,0.412962962962963],[0.10104166666666667,0.412962962962963],[0.10104166666666667,0.412962962962963],[0.10104166666666667,0.412962962962963],[0.10104166666666667,0.412962962962963],[0.10104166666666667,0.412962962962963],[0.10104166666666667,0.412962962962963],[0.10104166666666667,0.412962962962963],[0.10104166666666667,0.412962962962963],[0.10104166666666667,0.412962962962963],[0.10104166666666667,0.412962962962963],[0.10104166666666667,0.412962962962963],[0.10104166666666667,0.412962962962963],[0.10104166666666667,0.412962962962963],[0.10104166666666667,0.412962962962963],[0.10104166666666667,0.412962962962963],[0.10104166666666667,0.412962962962963],[0.10104166666666667,0.412962962962963],[0.10104166666666667,0.412962962962963],[0.10104166666666667,0.412962962962963],[0.10104166666666667,0.412962962962963],[0.10104166666666667,0.412962962962963],[0.10104166666666667,0.412962962962963],[0.10104166666666667,0.412962962962963],[0.10104166666666667,0.412962962962963],[0.10104166666666667,0.412962962962963],[0.10104166666666667,0.412962962962963],[0.10104166666666667,0.412962962962963],[0.10104166666666667,0.412962962962963],[0.10104166666666667,0.412962962962963],[0.10104166666666667,0.412962962962963],[0.10104166666666667,0.412962962962963],[0.10104166666666667,0.412962962962963],[0.10104166666666667,0.412962962962963],[0.10104166666666667,0.412962962962963],[0.10104166666666667,0.412962962962963],[0.10104166666666667,0.412962962962963],[0.10104166666666667,0.412962962962963],[0.10104166666666667,0.412962962962963],[0.10104166666666667,0.412962962962963],[0.10104166666666667,0.412962962962963],[0.10104166666666667,0.412962962962963],[0.10104166666666667,0.412962962962963],[0.10104166666666667,0.412962962962963],[0.10104166666666667,0.412962962962963],[0.10104166666666667,0.412962962962963],[0.10104166666666667,0.412962962962963],[0.10104166666666667,0.412962962962963],[0.10104166666666667,0.412962962962963],[0.10104166666666667,0.412962962962963],[0.10104166666666667,0.412962962962963],[0.10104166666666667,0.412962962962963],[0.10104166666666667,0.412962962962963],[0.10104166666666667,0.412962962962963],[0.10104166666666667,0.412962962962963],[0.10104166666666667,0.412962962962963],[0.10104166666666667,0.412962962962963],[0.10104166666666667,0.412962962962963],[0.10104166666666667,0.412962962962963],[0.10104166666666667,0.412962962962963]]","[[0.011770833333333286,-0.4027777777777778],[0.008645833333333287,-0.3877777777777777],[0.02322916666666662,-0.3509259259259259],[0.02322916666666662,-0.3509259259259259],[0.03697916666666667,-0.33111111111111113],[0.024166666666666715,-0.32333333333333336],[0.0234375,-0.30833333333333335],[0.025937499999999978,-0.33611111111111114],[0.02635416666666662,-0.35999999999999993],[0.004166666666666667,-0.37537037037037035],[-0.011666666666666714,-0.38425925925925924],[-0.00614583333333331,-0.4074074074074074],[-0.0006250000000000236,-0.4305555555555556],[0.002291666666666714,-0.4668518518518519],[-0.005208333333333333,-0.4927777777777778],[0.014687500000000023,-0.5211111111111111],[0.014687500000000023,-0.5211111111111111],[0.013437499999999976,-0.5662962962962963],[0.013437499999999976,-0.5662962962962963],[0.017708333333333333,-0.5590740740740741],[0.019791666666666666,-0.5461111111111111],[0.04104166666666664,-0.5575925925925926],[0.04104166666666664,-0.5575925925925926],[0.05593750000000005,-0.5755555555555556],[0.05593750000000005,-0.5755555555555556],[0.06135416666666664,-0.5703703703703704],[0.06135416666666664,-0.5703703703703704],[0.08093750000000005,-0.5755555555555556],[0.06666666666666667,-0.5451851851851851],[0.06395833333333331,-0.5412962962962963],[0.04781249999999997,-0.5405555555555556],[0.049374999999999974,-0.5488888888888889],[0.049583333333333354,-0.5451851851851851],[0.05604166666666662,-0.517962962962963],[0.05260416666666667,-0.4946296296296297],[0.05604166666666662,-0.4553703703703703],[0.06541666666666662,-0.4559259259259259],[0.06177083333333329,-0.4318518518518518],[0.06458333333333334,-0.41944444444444445],[0.059062500000000046,-0.3881481481481482],[0.07416666666666671,-0.3581481481481481],[0.07489583333333343,-0.34018518518518515],[0.07020833333333343,-0.28777777777777774],[0.051874999999999956,-0.2903703703703704],[0.04041666666666662,-0.29000000000000004],[0.04041666666666662,-0.29000000000000004],[0.03302083333333338,-0.31555555555555553],[0.01552083333333331,-0.3020370370370371],[-0.005208333333333333,-0.31370370370370365],[-0.007187499999999976,-0.3381481481481482],[-0.02374999999999995,-0.362962962962963],[-0.04031250000000005,-0.3877777777777777],[-0.04104166666666664,-0.3940740740740741],[-0.03135416666666669,-0.4311111111111111],[-0.010000000000000024,-0.4462962962962963],[-0.010000000000000024,-0.4462962962962963],[0.026250000000000048,-0.4414814814814814],[0.026250000000000048,-0.4414814814814814],[0.058645833333333286,-0.44296296296296295],[0.08791666666666677,-0.4625925925925926],[0.10187499999999995,-0.4777777777777778],[0.12458333333333324,-0.5055555555555555],[0.12458333333333324,-0.5055555555555555],[0.14104166666666676,-0.5105555555555555],[0.14104166666666676,-0.5105555555555555],[0.1560416666666666,-0.5142592592592592],[0.15947916666666656,-0.504074074074074],[0.1506249999999999,-0.5111111111111111],[0.14177083333333323,-0.5181481481481481],[0.1196875000000001,-0.5524074074074075],[0.10114583333333324,-0.6012962962962963],[0.08031249999999991,-0.5868518518518518],[0.08541666666666667,-0.5596296296296296],[0.08072916666666667,-0.5261111111111112],[0.08114583333333343,-0.5203703703703704],[0.08812499999999991,-0.509074074074074],[0.08208333333333329,-0.4844444444444445],[0.08333333333333333,-0.4462962962962963],[0.08208333333333329,-0.41629629629629633],[0.07916666666666666,-0.37907407407407406],[0.07781250000000005,-0.3001851851851852],[0.07718749999999991,-0.31796296296296295],[0.07718749999999991,-0.31796296296296295],[0.06802083333333328,-0.34203703703703703],[0.05645833333333338,-0.3327777777777778],[0.06541666666666662,-0.31296296296296294],[0.06927083333333334,-0.3],[0.06645833333333329,-0.33259259259259266],[0.04874999999999995,-0.33129629629629626],[0.04239583333333338,-0.3333333333333333],[0.04895833333333333,-0.3592592592592593],[0.025520833333333333,-0.3762962962962963],[0.008124999999999953,-0.34814814814814815],[-0.022604166666666713,-0.2985185185185185],[-0.050937499999999976,-0.2822222222222222],[-0.08729166666666661,-0.26351851851851854],[-0.10281250000000004,-0.257962962962963],[-0.10625,-0.23148148148148148],[-0.10416666666666667,-0.21592592592592597],[-0.09187500000000005,-0.16518518518518516],[-0.11489583333333328,-0.13333333333333333],[-0.12010416666666662,-0.12111111111111107],[-0.16739583333333338,-0.10407407407407405],[-0.2013541666666666,-0.10851851851851856],[-0.24312499999999998,-0.11240740740740739],[-0.28927083333333337,-0.13370370370370369],[-0.28927083333333337,-0.13370370370370369],[-0.35625,-0.1418518518518519],[-0.4022916666666667,-0.1383333333333333],[-0.43083333333333335,-0.15629629629629627],[-0.47218750000000004,-0.21962962962962967],[-0.5033333333333333,-0.2007407407407407],[-0.5646875,-0.1935185185185185],[-0.5429166666666667,-0.21944444444444444],[-0.5595833333333334,-0.2168518518518519],[-0.5529166666666666,-0.2264814814814815],[-0.541875,-0.21870370370370373],[-0.5340625,-0.1985185185185185],[-0.5378124999999999,-0.22333333333333338],[-0.5507291666666667,-0.2518518518518518],[-0.57375,-0.21870370370370373],[-0.57375,-0.21870370370370373],[-0.5940624999999999,-0.24500000000000002],[-0.5894791666666667,-0.2668518518518519],[-0.6170833333333333,-0.2564814814814815],[-0.589375,-0.28425925925925927],[-0.5747916666666666,-0.2718518518518519],[-0.5602083333333333,-0.2594444444444445],[-0.5145833333333333,-0.2759259259259259],[-0.48874999999999996,-0.24518518518518514],[-0.46,-0.23499999999999996],[-0.4144791666666666,-0.2705555555555556],[-0.36135416666666664,-0.287962962962963],[-0.2929166666666667,-0.3131481481481482],[-0.240625,-0.34740740740740744],[-0.240625,-0.34740740740740744],[-0.1764583333333333,-0.35703703703703704],[-0.1764583333333333,-0.35703703703703704],[-0.12635416666666663,-0.3859259259259259],[-0.12635416666666663,-0.3859259259259259],[-0.0889583333333333,-0.4227777777777778],[-0.0889583333333333,-0.4227777777777778],[-0.06916666666666664,-0.43796296296296294],[-0.06916666666666664,-0.43796296296296294],[-0.03895833333333331,-0.46703703703703703],[-0.03895833333333331,-0.46703703703703703]]","[[0.011770833333333286,-0.4027777777777778,0.0003000001907338401],[0.008645833333333287,-0.3877777777777777,0.020099999904630295],[0.02322916666666662,-0.3509259259259259,0.03849999999999909],[0.02322916666666662,-0.3509259259259259,0.04969999980926332],[0.03697916666666667,-0.33111111111111113,0.06649999999999778],[0.024166666666666715,-0.32333333333333336,0.0848000001907323],[0.0234375,-0.30833333333333335,0.10000000000000142],[0.025937499999999978,-0.33611111111111114,0.1163000001907335],[0.02635416666666662,-0.35999999999999993,0.1329000000953684],[0.004166666666666667,-0.37537037037037035,0.15359999990462825],[-0.011666666666666714,-0.38425925925925924,0.17009999990462887],[-0.00614583333333331,-0.4074074074074074,0.1856999998092661],[-0.0006250000000000236,-0.4305555555555556,0.2005999999046324],[0.002291666666666714,-0.4668518518518519,0.21690000009536448],[-0.005208333333333333,-0.4927777777777778,0.2329000000953627],[0.014687500000000023,-0.5211111111111111,0.24969999980926616],[0.014687500000000023,-0.5211111111111111,0.267400000095364],[0.013437499999999976,-0.5662962962962963,0.2830999999046284],[0.013437499999999976,-0.5662962962962963,0.2996999998092633],[0.017708333333333333,-0.5590740740740741,0.3164000000953635],[0.019791666666666666,-0.5461111111111111,0.3376999998092671],[0.04104166666666664,-0.5575925925925926,0.35509999990463115],[0.04104166666666664,-0.5575925925925926,0.3664000000953678],[0.05593750000000005,-0.5755555555555556,0.38299999999999557],[0.05593750000000005,-0.5755555555555556,0.39959999990463047],[0.06135416666666664,-0.5703703703703704,0.41630000019073066],[0.06135416666666664,-0.5703703703703704,0.43299999999999983],[0.08093750000000005,-0.5755555555555556,0.4498000001907343],[0.06666666666666667,-0.5451851851851851,0.46819999980926497],[0.06395833333333331,-0.5412962962962963,0.4836999998092608],[0.04781249999999997,-0.5405555555555556,0.49980000019073145],[0.049374999999999974,-0.5488888888888889,0.5188000001907369],[0.049583333333333354,-0.5451851851851851,0.5345000000000013],[0.05604166666666662,-0.517962962962963,0.5510000000000019],[0.05260416666666667,-0.4946296296296297,0.5685999999046345],[0.05604166666666662,-0.4553703703703703,0.585400000095369],[0.06541666666666662,-0.4559259259259259,0.603199999809263],[0.06177083333333329,-0.4318518518518518,0.6200999999046317],[0.06458333333333334,-0.41944444444444445,0.6353000001907319],[0.059062500000000046,-0.3881481481481482,0.6505999999046281],[0.07416666666666671,-0.3581481481481481,0.6665999999046335],[0.07489583333333343,-0.34018518518518515,0.6868000001907362],[0.07020833333333343,-0.28777777777777774,0.7018000001907367],[0.051874999999999956,-0.2903703703703704,0.7169999999999987],[0.04041666666666662,-0.29000000000000004,0.7399000000953677],[0.04041666666666662,-0.29000000000000004,0.75],[0.03302083333333338,-0.31555555555555553,0.7665000000000006],[0.01552083333333331,-0.3020370370370371,0.7843000001907328],[-0.005208333333333333,-0.31370370370370365,0.8029999999999973],[-0.007187499999999976,-0.3381481481481482,0.8191999998092641],[-0.02374999999999995,-0.362962962962963,0.8339999999999961],[-0.04031250000000005,-0.3877777777777777,0.8539000000953649],[-0.04104166666666664,-0.3940740740740741,0.8703000001907313],[-0.03135416666666669,-0.4311111111111111,0.8859000000953685],[-0.010000000000000024,-0.4462962962962963,0.905699999809265],[-0.010000000000000024,-0.4462962962962963,0.9165999999046335],[0.026250000000000048,-0.4414814814814814,0.9379000000953681],[0.026250000000000048,-0.4414814814814814,0.9548000001907369],[0.058645833333333286,-0.44296296296296295,0.9694000000953693],[0.08791666666666677,-0.4625925925925926,0.9830999999046313],[0.10187499999999995,-0.4777777777777778,1],[0.12458333333333324,-0.5055555555555555,1.0205999999046327],[0.12458333333333324,-0.5055555555555555,1.0335999999046308],[0.14104166666666676,-0.5105555555555555,1.0500999999046314],[0.14104166666666676,-0.5105555555555555,1.0666999998092663],[0.1560416666666666,-0.5142592592592592,1.08580000019073],[0.15947916666666656,-0.504074074074074,1.101300000190733],[0.1506249999999999,-0.5111111111111111,1.1164000000953678],[0.14177083333333323,-0.5181481481481481,1.1331999998092641],[0.1196875000000001,-0.5524074074074075,1.1495999999046305],[0.10114583333333324,-0.6012962962962963,1.1688000001907355],[0.08031249999999991,-0.5868518518518518,1.1863000001907338],[0.08541666666666667,-0.5596296296296296,1.2006999998092667],[0.08072916666666667,-0.5261111111111112,1.2164999999999964],[0.08114583333333343,-0.5203703703703704,1.2351999998092609],[0.08812499999999991,-0.509074074074074,1.25],[0.08208333333333329,-0.4844444444444445,1.267400000095364],[0.08333333333333333,-0.4462962962962963,1.285900000095367],[0.08208333333333329,-0.41629629629629633,1.2998000001907357],[0.07916666666666666,-0.37907407407407406,1.3163000001907363],[0.07781250000000005,-0.3001851851851852,1.3351999998092623],[0.07718749999999991,-0.31796296296296295,1.3514000000953672],[0.07718749999999991,-0.31796296296296295,1.3664000000953678],[0.06802083333333328,-0.34203703703703703,1.3829999999999956],[0.05645833333333338,-0.3327777777777778,1.3996999998092647],[0.06541666666666662,-0.31296296296296294,1.4163000001907307],[0.06927083333333334,-0.3,1.4329999999999998],[0.06645833333333329,-0.33259259259259266,1.449699999809262],[0.04874999999999995,-0.33129629629629626,1.466300000190735],[0.04239583333333338,-0.3333333333333333,1.482999999999997],[0.04895833333333333,-0.3592592592592593,1.4995999999046319],[0.025520833333333333,-0.3762962962962963,1.5180000000000007],[0.008124999999999953,-0.34814814814814815,1.5330000000000013],[-0.022604166666666713,-0.2985185185185185,1.550300000190731],[-0.050937499999999976,-0.2822222222222222,1.5664000000953635],[-0.08729166666666661,-0.26351851851851854,1.5848000001907323],[-0.10281250000000004,-0.257962962962963,1.5995999999046333],[-0.10625,-0.23148148148148148,1.6163000001907335],[-0.10416666666666667,-0.21592592592592597,1.6329999999999956],[-0.09187500000000005,-0.16518518518518516,1.6496999998092647],[-0.11489583333333328,-0.13333333333333333,1.6665999999046335],[-0.12010416666666662,-0.12111111111111107,1.6829000000953656],[-0.16739583333333338,-0.10407407407407405,1.6995999999046347],[-0.2013541666666666,-0.10851851851851856,1.7164000000953692],[-0.24312499999999998,-0.11240740740740739,1.7368000001907333],[-0.28927083333333337,-0.13370370370370369,1.753699999809264],[-0.28927083333333337,-0.13370370370370369,1.7664000000953664],[-0.35625,-0.1418518518518519,1.7830999999046284],[-0.4022916666666667,-0.1383333333333333,1.8004000000953653],[-0.43083333333333335,-0.15629629629629627,1.8179000000953636],[-0.47218750000000004,-0.21962962962962967,1.8329999999999984],[-0.5033333333333333,-0.2007407407407407,1.8496999998092605],[-0.5646875,-0.1935185185185185,1.8663000001907335],[-0.5429166666666667,-0.21944444444444444,1.8830999999046298],[-0.5595833333333334,-0.2168518518518519,1.8995999999046305],[-0.5529166666666666,-0.2264814814814815,1.9163000001907307],[-0.541875,-0.21870370370370373,1.9329999999999998],[-0.5340625,-0.1985185185185185,1.949699999809262],[-0.5378124999999999,-0.22333333333333338,1.967800000190735],[-0.5507291666666667,-0.2518518518518518,1.9830999999046313],[-0.57375,-0.21870370370370373,1.9996999998092662],[-0.57375,-0.21870370370370373,2.016300000190732],[-0.5940624999999999,-0.24500000000000002,2.0330000000000013],[-0.5894791666666667,-0.2668518518518519,2.0500999999046314],[-0.6170833333333333,-0.2564814814814815,2.0663000001907363],[-0.589375,-0.28425925925925927,2.085099999904628],[-0.5747916666666666,-0.2718518518518519,2.1000000000000014],[-0.5602083333333333,-0.2594444444444445,2.1163000001907335],[-0.5145833333333333,-0.2759259259259259,2.1329000000953684],[-0.48874999999999996,-0.24518518518518514,2.1495999999046305],[-0.46,-0.23499999999999996,2.166400000095365],[-0.4144791666666666,-0.2705555555555556,2.183099999904634],[-0.36135416666666664,-0.287962962962963,2.199699999809262],[-0.2929166666666667,-0.3131481481481482,2.216300000190735],[-0.240625,-0.34740740740740744,2.232999999999997],[-0.240625,-0.34740740740740744,2.249599999904632],[-0.1764583333333333,-0.35703703703703704,2.2664000000953664],[-0.1764583333333333,-0.35703703703703704,2.2830000000000013],[-0.12635416666666663,-0.3859259259259259,2.299599999904629],[-0.12635416666666663,-0.3859259259259259,2.3164000000953635],[-0.0889583333333333,-0.4227777777777778,2.3329999999999984],[-0.0889583333333333,-0.4227777777777778,2.3496999998092605],[-0.06916666666666664,-0.43796296296296294,2.3663000001907335],[-0.06916666666666664,-0.43796296296296294,2.3829999999999956],[-0.03895833333333331,-0.46703703703703703,2.3996999998092647],[-0.03895833333333331,-0.46703703703703703,2.4163000001907307]]","[0.0003000001907338401,0.020099999904630295,0.03849999999999909,0.04969999980926332,0.06649999999999778,0.0848000001907323,0.10000000000000142,0.1163000001907335,0.1329000000953684,0.15359999990462825,0.17009999990462887,0.1856999998092661,0.2005999999046324,0.21690000009536448,0.2329000000953627,0.24969999980926616,0.267400000095364,0.2830999999046284,0.2996999998092633,0.3164000000953635,0.3376999998092671,0.35509999990463115,0.3664000000953678,0.38299999999999557,0.39959999990463047,0.41630000019073066,0.43299999999999983,0.4498000001907343,0.46819999980926497,0.4836999998092608,0.49980000019073145,0.5188000001907369,0.5345000000000013,0.5510000000000019,0.5685999999046345,0.585400000095369,0.603199999809263,0.6200999999046317,0.6353000001907319,0.6505999999046281,0.6665999999046335,0.6868000001907362,0.7018000001907367,0.7169999999999987,0.7399000000953677,0.75,0.7665000000000006,0.7843000001907328,0.8029999999999973,0.8191999998092641,0.8339999999999961,0.8539000000953649,0.8703000001907313,0.8859000000953685,0.905699999809265,0.9165999999046335,0.9379000000953681,0.9548000001907369,0.9694000000953693,0.9830999999046313,1,1.0205999999046327,1.0335999999046308,1.0500999999046314,1.0666999998092663,1.08580000019073,1.101300000190733,1.1164000000953678,1.1331999998092641,1.1495999999046305,1.1688000001907355,1.1863000001907338,1.2006999998092667,1.2164999999999964,1.2351999998092609,1.25,1.267400000095364,1.285900000095367,1.2998000001907357,1.3163000001907363,1.3351999998092623,1.3514000000953672,1.3664000000953678,1.3829999999999956,1.3996999998092647,1.4163000001907307,1.4329999999999998,1.449699999809262,1.466300000190735,1.482999999999997,1.4995999999046319,1.5180000000000007,1.5330000000000013,1.550300000190731,1.5664000000953635,1.5848000001907323,1.5995999999046333,1.6163000001907335,1.6329999999999956,1.6496999998092647,1.6665999999046335,1.6829000000953656,1.6995999999046347,1.7164000000953692,1.7368000001907333,1.753699999809264,1.7664000000953664,1.7830999999046284,1.8004000000953653,1.8179000000953636,1.8329999999999984,1.8496999998092605,1.8663000001907335,1.8830999999046298,1.8995999999046305,1.9163000001907307,1.9329999999999998,1.949699999809262,1.967800000190735,1.9830999999046313,1.9996999998092662,2.016300000190732,2.0330000000000013,2.0500999999046314,2.0663000001907363,2.085099999904628,2.1000000000000014,2.1163000001907335,2.1329000000953684,2.1495999999046305,2.166400000095365,2.183099999904634,2.199699999809262,2.216300000190735,2.232999999999997,2.249599999904632,2.2664000000953664,2.2830000000000013,2.299599999904629,2.3164000000953635,2.3329999999999984,2.3496999998092605,2.3663000001907335,2.3829999999999956,2.3996999998092647,2.4163000001907307]","[1732075965899,1732075965918,1732075965936,1732075965948,1732075965964,1732075965983,1732075965998,1732075966014,1732075966031,1732075966052,1732075966068,1732075966084,1732075966099,1732075966115,1732075966131,1732075966148,1732075966165,1732075966181,1732075966198,1732075966214,1732075966236,1732075966253,1732075966264,1732075966281,1732075966298,1732075966314,1732075966331,1732075966348,1732075966366,1732075966382,1732075966398,1732075966417,1732075966432,1732075966449,1732075966467,1732075966483,1732075966501,1732075966518,1732075966533,1732075966549,1732075966564,1732075966585,1732075966600,1732075966615,1732075966638,1732075966648,1732075966665,1732075966682,1732075966701,1732075966717,1732075966732,1732075966752,1732075966768,1732075966784,1732075966804,1732075966815,1732075966836,1732075966853,1732075966867,1732075966881,1732075966898,1732075966919,1732075966932,1732075966948,1732075966965,1732075966984,1732075966999,1732075967014,1732075967031,1732075967048,1732075967067,1732075967084,1732075967099,1732075967114,1732075967133,1732075967148,1732075967165,1732075967184,1732075967198,1732075967214,1732075967233,1732075967249,1732075967264,1732075967281,1732075967298,1732075967314,1732075967331,1732075967348,1732075967364,1732075967381,1732075967398,1732075967416,1732075967431,1732075967448,1732075967464,1732075967483,1732075967498,1732075967514,1732075967531,1732075967548,1732075967565,1732075967581,1732075967598,1732075967614,1732075967635,1732075967652,1732075967664,1732075967681,1732075967698,1732075967716,1732075967731,1732075967748,1732075967764,1732075967781,1732075967798,1732075967814,1732075967831,1732075967848,1732075967866,1732075967881,1732075967898,1732075967914,1732075967931,1732075967948,1732075967964,1732075967983,1732075967998,1732075968014,1732075968031,1732075968048,1732075968064,1732075968081,1732075968098,1732075968114,1732075968131,1732075968148,1732075968164,1732075968181,1732075968198,1732075968214,1732075968231,1732075968248,1732075968264,1732075968281,1732075968298,1732075968314]","[[971.3,322.5],[968.3,330.6],[982.3,350.5],[982.3,350.5],[995.5,361.2],[983.2,365.4],[982.5,373.5],[984.9,358.5],[985.3,345.6],[964,337.3],[948.8,332.5],[954.1,320],[959.4,307.5],[962.2,287.9],[955,273.9],[974.1,258.6],[974.1,258.6],[972.9,234.2],[972.9,234.2],[977,238.1],[979,245.1],[999.4,238.9],[999.4,238.9],[1013.7,229.2],[1013.7,229.2],[1018.9,232],[1018.9,232],[1037.7,229.2],[1024,245.6],[1021.4,247.7],[1005.9,248.1],[1007.4,243.6],[1007.6,245.6],[1013.8,260.3],[1010.5,272.9],[1013.8,294.1],[1022.8,293.8],[1019.3,306.8],[1022,313.5],[1016.7,330.4],[1031.2,346.6],[1031.9,356.3],[1027.4,384.6],[1009.8,383.2],[998.8,383.4],[998.8,383.4],[991.7,369.6],[974.9,376.9],[955,370.6],[953.1,357.4],[937.2,344],[921.3,330.6],[920.6,327.2],[929.9,307.2],[950.4,299],[950.4,299],[985.2,301.6],[985.2,301.6],[1016.3,300.8],[1044.4,290.2],[1057.8,282],[1079.6,267],[1079.6,267],[1095.4,264.3],[1095.4,264.3],[1109.8,262.3],[1113.1,267.8],[1104.6,264],[1096.1,260.2],[1074.9,241.7],[1057.1,215.3],[1037.1,223.1],[1042,237.8],[1037.5,255.9],[1037.9,259],[1044.6,265.1],[1038.8,278.4],[1040,299],[1038.8,315.2],[1036,335.3],[1034.7,377.9],[1034.1,368.3],[1034.1,368.3],[1025.3,355.3],[1014.2,360.3],[1022.8,371],[1026.5,378],[1023.8,360.4],[1006.8,361.1],[1000.7,360],[1007,346],[984.5,336.8],[967.8,352],[938.3,378.8],[911.1,387.6],[876.2,397.7],[861.3,400.7],[858,415],[860,423.4],[871.8,450.8],[849.7,468],[844.7,474.6],[799.3,483.8],[766.7,481.4],[726.6,479.3],[682.3,467.8],[682.3,467.8],[618,463.4],[573.8,465.3],[546.4,455.6],[506.7,421.4],[476.8,431.6],[417.9,435.5],[438.8,421.5],[422.8,422.9],[429.2,417.7],[439.8,421.9],[447.3,432.8],[443.7,419.4],[431.3,404],[409.2,421.9],[409.2,421.9],[389.7,407.7],[394.1,395.9],[367.6,401.5],[394.2,386.5],[408.2,393.2],[422.2,399.9],[466,391],[490.8,407.6],[518.4,413.1],[562.1,393.9],[613.1,384.5],[678.8,370.9],[729,352.4],[729,352.4],[790.6,347.2],[790.6,347.2],[838.7,331.6],[838.7,331.6],[874.6,311.7],[874.6,311.7],[893.6,303.5],[893.6,303.5],[922.6,287.8],[922.6,287.8]]","[-0.132282,0.39684600000000003]","[0.132282,0.39684600000000003]","[0.39684600000000003,0.39684600000000003]","[-0.39684600000000003,0.132282]","[-0.39684600000000003,-0.132282]","[-0.39684600000000003,-0.39684600000000003]","[-0.132282,0.132282]","[0.132282,0.132282]","[0.39684600000000003,0.132282]","[-0.132282,-0.132282]","[0.132282,-0.132282]","[0.39684600000000003,-0.132282]","[-0.132282,-0.39684600000000003]","[0.132282,-0.39684600000000003]","[0.39684600000000003,-0.39684600000000003]",0,1,1,1,1,2,Tablet,20,20,7,3,70,6,3,60,3
,,,,,,,,,,,,,,,,,,,,13,001,2024-11-20_12h11.58.714,Attention_exp_legacy,2023.1.0,Win32,59.88023952,,,,,,,,,,[0.07395833333333333],[0.387037037037037],[1],[0],[0],[1.0014000000953658],"[""Metro_label""]",Metro_label,3,2.0137,"[[0.090625,0.40185185185185185],[0.090625,0.40185185185185185],[0.090625,0.4],[0.090625,0.4],[0.090625,0.4],[0.090625,0.4],[0.090625,0.4],[0.090625,0.4],[0.090625,0.4],[0.08958333333333333,0.39814814814814814],[0.08854166666666667,0.39814814814814814],[0.08854166666666667,0.39814814814814814],[0.08854166666666667,0.39814814814814814],[0.08854166666666667,0.39814814814814814],[0.08854166666666667,0.39814814814814814],[0.08854166666666667,0.39814814814814814],[0.0875,0.3962962962962963],[0.0875,0.3962962962962963],[0.0875,0.3962962962962963],[0.0875,0.3962962962962963],[0.0875,0.3962962962962963],[0.0875,0.3962962962962963],[0.0875,0.3962962962962963],[0.0875,0.3962962962962963],[0.0875,0.3962962962962963],[0.0875,0.3962962962962963],[0.0875,0.3962962962962963],[0.08645833333333333,0.3962962962962963],[0.08645833333333333,0.39444444444444443],[0.08541666666666667,0.39444444444444443],[0.084375,0.3925925925925926],[0.08333333333333333,0.3925925925925926],[0.08229166666666667,0.3925925925925926],[0.08020833333333334,0.3907407407407407],[0.08020833333333334,0.3907407407407407],[0.07916666666666666,0.3888888888888889],[0.07708333333333334,0.3888888888888889],[0.07604166666666666,0.387037037037037],[0.07604166666666666,0.387037037037037],[0.07395833333333333,0.387037037037037],[0.07395833333333333,0.387037037037037],[0.07395833333333333,0.387037037037037],[0.07395833333333333,0.387037037037037],[0.07395833333333333,0.387037037037037],[0.07395833333333333,0.387037037037037],[0.07395833333333333,0.387037037037037],[0.07395833333333333,0.387037037037037],[0.07395833333333333,0.387037037037037],[0.07395833333333333,0.387037037037037],[0.07395833333333333,0.387037037037037],[0.07395833333333333,0.387037037037037],[0.07395833333333333,0.387037037037037],[0.07395833333333333,0.387037037037037],[0.07395833333333333,0.387037037037037],[0.07395833333333333,0.387037037037037],[0.07395833333333333,0.387037037037037],[0.07395833333333333,0.387037037037037],[0.07395833333333333,0.387037037037037],[0.07395833333333333,0.387037037037037],[0.07395833333333333,0.387037037037037],[0.07395833333333333,0.387037037037037],[0.07395833333333333,0.387037037037037],[0.07395833333333333,0.387037037037037],[0.07395833333333333,0.387037037037037],[0.07395833333333333,0.387037037037037],[0.07395833333333333,0.387037037037037],[0.07395833333333333,0.387037037037037],[0.07395833333333333,0.387037037037037],[0.07395833333333333,0.387037037037037],[0.07395833333333333,0.387037037037037],[0.07395833333333333,0.387037037037037],[0.07395833333333333,0.387037037037037],[0.07395833333333333,0.387037037037037],[0.07395833333333333,0.387037037037037],[0.07395833333333333,0.387037037037037],[0.07395833333333333,0.387037037037037],[0.07395833333333333,0.387037037037037],[0.07395833333333333,0.387037037037037],[0.07395833333333333,0.387037037037037],[0.07395833333333333,0.387037037037037],[0.07395833333333333,0.387037037037037],[0.07395833333333333,0.387037037037037],[0.07395833333333333,0.387037037037037],[0.07395833333333333,0.387037037037037],[0.07395833333333333,0.387037037037037],[0.07395833333333333,0.387037037037037],[0.07395833333333333,0.387037037037037],[0.07395833333333333,0.387037037037037],[0.07395833333333333,0.387037037037037],[0.07395833333333333,0.387037037037037],[0.07395833333333333,0.387037037037037],[0.07395833333333333,0.387037037037037],[0.07395833333333333,0.387037037037037],[0.07395833333333333,0.387037037037037],[0.07395833333333333,0.387037037037037],[0.07395833333333333,0.387037037037037],[0.07395833333333333,0.387037037037037],[0.07395833333333333,0.387037037037037],[0.07395833333333333,0.387037037037037],[0.07395833333333333,0.387037037037037],[0.07395833333333333,0.387037037037037],[0.07395833333333333,0.387037037037037],[0.07395833333333333,0.387037037037037],[0.07395833333333333,0.387037037037037],[0.07395833333333333,0.387037037037037],[0.07395833333333333,0.387037037037037],[0.07395833333333333,0.387037037037037],[0.07395833333333333,0.387037037037037],[0.07395833333333333,0.387037037037037],[0.07395833333333333,0.387037037037037],[0.07395833333333333,0.387037037037037],[0.07395833333333333,0.387037037037037],[0.07395833333333333,0.387037037037037],[0.07395833333333333,0.387037037037037],[0.07395833333333333,0.387037037037037],[0.07395833333333333,0.387037037037037],[0.07395833333333333,0.387037037037037],[0.07395833333333333,0.387037037037037],[0.07395833333333333,0.387037037037037],[0.07395833333333333,0.387037037037037],[0.07395833333333333,0.387037037037037],[0.07395833333333333,0.387037037037037]]","[[0.02374999999999995,-0.49907407407407406],[0.03125,-0.5070370370370371],[0.0048958333333333805,-0.5020370370370371],[-0.009687499999999953,-0.522037037037037],[0.011354166666666643,-0.5301851851851852],[0.03708333333333336,-0.5231481481481481],[0.059375,-0.5029629629629631],[0.06302083333333333,-0.5068518518518518],[0.06749999999999995,-0.4831481481481481],[0.08447916666666658,-0.46111111111111114],[0.07635416666666663,-0.47129629629629627],[0.053125,-0.4388888888888889],[0.043437500000000046,-0.42370370370370375],[0.02958333333333331,-0.427962962962963],[0.01739583333333338,-0.4190740740740741],[0.018437500000000048,-0.4177777777777778],[0.022187499999999954,-0.40981481481481485],[0.016770833333333356,-0.3772222222222222],[0.011041666666666691,-0.3725925925925926],[0.005312500000000024,-0.36796296296296294],[0.020937500000000022,-0.37703703703703706],[0.020937500000000022,-0.37703703703703706],[0.05572916666666667,-0.3998148148148148],[0.08937499999999995,-0.42962962962962964],[0.10197916666666676,-0.4172222222222222],[0.11458333333333333,-0.40481481481481485],[0.11791666666666671,-0.36814814814814817],[0.10750000000000005,-0.37296296296296294],[0.11687500000000005,-0.39351851851851855],[0.11843750000000004,-0.4007407407407407],[0.10031249999999996,-0.3931481481481482],[0.07947916666666661,-0.3859259259259259],[0.05135416666666662,-0.3742592592592593],[0.024479166666666666,-0.3351851851851852],[0.013333333333333286,-0.32018518518518513],[0.017812500000000023,-0.2983333333333334],[0.024895833333333308,-0.34074074074074073],[0.04052083333333331,-0.3501851851851852],[0.04052083333333331,-0.3501851851851852],[0.03833333333333329,-0.3218518518518519],[0.03833333333333329,-0.3218518518518519],[0.036354166666666646,-0.3207407407407407],[0.05239583333333329,-0.3453703703703704],[0.06520833333333335,-0.3181481481481482],[0.07791666666666662,-0.3162962962962963],[0.09052083333333343,-0.33481481481481484],[0.09052083333333343,-0.33481481481481484],[0.07916666666666666,-0.3594444444444445],[0.07916666666666666,-0.3594444444444445],[0.04656250000000005,-0.3822222222222222],[0.04656250000000005,-0.3822222222222222],[0.02041666666666669,-0.3551851851851852],[0.02041666666666669,-0.3551851851851852],[-0.005729166666666666,-0.35407407407407404],[-0.005729166666666666,-0.35407407407407404],[-0.015104166666666667,-0.39148148148148143],[-0.015104166666666667,-0.39148148148148143],[-0.03427083333333331,-0.3757407407407407],[-0.03427083333333331,-0.3757407407407407],[-0.051770833333333384,-0.3490740740740741],[-0.04833333333333331,-0.39388888888888884],[-0.04833333333333331,-0.39388888888888884],[-0.04510416666666662,-0.41148148148148145],[-0.05406249999999998,-0.4183333333333333],[-0.018124999999999978,-0.44166666666666665],[-0.018124999999999978,-0.44166666666666665],[0.004270833333333357,-0.4696296296296297],[0.03427083333333331,-0.5072222222222221],[0.03427083333333331,-0.5072222222222221],[0.03885416666666662,-0.5246296296296297],[0.03885416666666662,-0.5246296296296297],[0.04812500000000005,-0.49962962962962965],[0.07989583333333337,-0.5188888888888888],[0.11166666666666672,-0.5381481481481482],[0.09052083333333343,-0.5037037037037037],[0.07697916666666677,-0.47555555555555556],[0.0953125,-0.5018518518518519],[0.09281249999999991,-0.5051851851851852],[0.09281249999999991,-0.5051851851851852],[0.10760416666666663,-0.45259259259259255],[0.08552083333333324,-0.35648148148148145],[0.09364583333333343,-0.2796296296296296],[0.08760416666666657,-0.23574074074074075],[0.08072916666666667,-0.17481481481481478],[0.07385416666666676,-0.11388888888888889],[0.07000000000000005,-0.07851851851851847],[0.06614583333333333,-0.04314814814814806],[0.04916666666666671,0.03333333333333333],[0.03447916666666669,0.10555555555555556],[0.02520833333333338,0.12240740740740745],[0.03218749999999997,0.10314814814814824],[0.04072916666666669,0.0992592592592593],[0.04375,0.07888888888888893],[0.034687499999999954,0.05981481481481473],[0.025416666666666643,0.059999999999999956],[0.025625000000000023,0.05740740740740741],[0.012812499999999952,0.04000000000000004],[-0.006562499999999953,0.025185185185185227],[-0.006562499999999953,0.025185185185185227],[-0.034062500000000044,0.03833333333333342],[-0.07281249999999997,0.021296296296296296],[-0.11156250000000002,0.004259259259259175],[-0.13718750000000005,-0.022037037037036994],[-0.13718750000000005,-0.022037037037036994],[-0.15208333333333332,-0.014814814814814815],[-0.15208333333333332,-0.014814814814814815],[-0.17395833333333333,0.002407407407407323],[-0.2345833333333334,-0.02240740740740745],[-0.2882291666666667,-0.04203703703703712],[-0.31979166666666664,-0.036666666666666584],[-0.35135416666666663,-0.03129629629629625],[-0.36385416666666665,-0.07611111111111116],[-0.3686458333333333,-0.09537037037037037],[-0.37312500000000004,-0.11777777777777781],[-0.4007291666666667,-0.11888888888888886],[-0.4282291666666667,-0.14314814814814816],[-0.4547916666666667,-0.1772222222222222],[-0.4423958333333334,-0.18851851851851853],[-0.40260416666666665,-0.19388888888888886],[-0.371875,-0.2094444444444445],[-0.33562500000000006,-0.25037037037037035],[-0.31270833333333337,-0.24444444444444444]]","[[0.02374999999999995,-0.49907407407407406,0.00019999980926854732],[0.03125,-0.5070370370370371,0.016799999713903446],[0.0048958333333333805,-0.5020370370370371,0.03559999990463325],[-0.009687499999999953,-0.522037037037037,0.05009999990463854],[0.011354166666666643,-0.5301851851851852,0.06559999990463439],[0.03708333333333336,-0.5231481481481481,0.08039999961853539],[0.059375,-0.5029629629629631,0.09700000000000131],[0.06302083333333333,-0.5068518518518518,0.11400000000000432],[0.06749999999999995,-0.4831481481481481,0.13039999961853255],[0.08447916666666658,-0.46111111111111114,0.1506999998092695],[0.07635416666666663,-0.47129629629629627,0.16619999980926536],[0.053125,-0.4388888888888889,0.18259999990463882],[0.043437500000000046,-0.42370370370370375,0.19729999971389844],[0.02958333333333331,-0.427962962962963,0.2136999998092648],[0.01739583333333338,-0.4190740740740741,0.23169999980926548],[0.018437500000000048,-0.4177777777777778,0.2472999997139027],[0.022187499999999954,-0.40981481481481485,0.26639999961853533],[0.016770833333333356,-0.3772222222222222,0.28169999980926974],[0.011041666666666691,-0.3725925925925926,0.3002999997139],[0.005312500000000024,-0.36796296296296294,0.31669999980926633],[0.020937500000000022,-0.37703703703703706,0.33319999980926696],[0.020937500000000022,-0.37703703703703706,0.3470000000000013],[0.05572916666666667,-0.3998148148148148,0.3636999998092705],[0.08937499999999995,-0.42962962962962964,0.38079999971390066],[0.10197916666666676,-0.4172222222222222,0.3993999996185309],[0.11458333333333333,-0.40481481481481485,0.41369999980926764],[0.11791666666666671,-0.36814814814814817,0.4303999996185297],[0.10750000000000005,-0.37296296296296294,0.45169999980926434],[0.11687500000000005,-0.39351851851851855,0.4676999998092697],[0.11843750000000004,-0.4007407407407407,0.4825000000000017],[0.10031249999999996,-0.3931481481481482,0.4973999996185299],[0.07947916666666661,-0.3859259259259259,0.5172999997138987],[0.05135416666666662,-0.3742592592592593,0.534000000000006],[0.024479166666666666,-0.3351851851851852,0.5500000000000043],[0.013333333333333286,-0.32018518518518513,0.56439999961853],[0.017812500000000023,-0.2983333333333334,0.5828999996185331],[0.024895833333333308,-0.34074074074074073,0.5973999996185313],[0.04052083333333331,-0.3501851851851852,0.6151999998092705],[0.04052083333333331,-0.3501851851851852,0.6302999997138983],[0.03833333333333329,-0.3218518518518519,0.6517999997139015],[0.03833333333333329,-0.3218518518518519,0.6653999996185362],[0.036354166666666646,-0.3207407407407407,0.6803999996185297],[0.05239583333333329,-0.3453703703703704,0.6990000000000052],[0.06520833333333335,-0.3181481481481482,0.7135999999046376],[0.07791666666666662,-0.3162962962962963,0.7325000000000017],[0.09052083333333343,-0.33481481481481484,0.7496999998092662],[0.09052083333333343,-0.33481481481481484,0.7635999999046348],[0.07916666666666666,-0.3594444444444445,0.780299999713904],[0.07916666666666666,-0.3594444444444445,0.7970000000000041],[0.04656250000000005,-0.3822222222222222,0.8136999998092662],[0.04656250000000005,-0.3822222222222222,0.8303999996185354],[0.02041666666666669,-0.3551851851851852,0.8471999998092699],[0.02041666666666669,-0.3551851851851852,0.8636999998092705],[-0.005729166666666666,-0.35407407407407404,0.8803999996185325],[-0.005729166666666666,-0.35407407407407404,0.8970000000000056],[-0.015104166666666667,-0.39148148148148143,0.9136999998092676],[-0.015104166666666667,-0.39148148148148143,0.9302999997139025],[-0.03427083333333331,-0.3757407407407407,0.947099999904637],[-0.03427083333333331,-0.3757407407407407,0.9636999998092648],[-0.051770833333333384,-0.3490740740740741,0.980399999618534],[-0.04833333333333331,-0.39388888888888884,1.0023999996185324],[-0.04833333333333331,-0.39388888888888884,1.0135999999046348],[-0.04510416666666662,-0.41148148148148145,1.030299999713904],[-0.05406249999999998,-0.4183333333333333,1.0495999999046361],[-0.018124999999999978,-0.44166666666666665,1.0655000000000001],[-0.018124999999999978,-0.44166666666666665,1.0802999997139011],[0.004270833333333357,-0.4696296296296297,1.0970000000000013],[0.03427083333333331,-0.5072222222222221,1.1155000000000044],[0.03427083333333331,-0.5072222222222221,1.1303999996185325],[0.03885416666666662,-0.5246296296296297,1.156099999904633],[0.03885416666666662,-0.5246296296296297,1.16569999980927],[0.04812500000000005,-0.49962962962962965,1.1803999996185297],[0.07989583333333337,-0.5188888888888888,1.1970000000000027],[0.11166666666666672,-0.5381481481481482,1.2136999998092648],[0.09052083333333343,-0.5037037037037037,1.2302999997138997],[0.07697916666666677,-0.47555555555555556,1.2468999996185346],[0.0953125,-0.5018518518518519,1.2650999999046348],[0.09281249999999991,-0.5051851851851852,1.280299999713904],[0.09281249999999991,-0.5051851851851852,1.2970000000000041],[0.10760416666666663,-0.45259259259259255,1.313599999904632],[0.08552083333333324,-0.35648148148148145,1.3302999997139011],[0.09364583333333343,-0.2796296296296296,1.347299999713897],[0.08760416666666657,-0.23574074074074075,1.3635999999046362],[0.08072916666666667,-0.17481481481481478,1.3802999997138983],[0.07385416666666676,-0.11388888888888889,1.3970000000000056],[0.07000000000000005,-0.07851851851851847,1.4136999998092676],[0.06614583333333333,-0.04314814814814806,1.4302999997139025],[0.04916666666666671,0.03333333333333333,1.4488999996185328],[0.03447916666666669,0.10555555555555556,1.4636999998092648],[0.02520833333333338,0.12240740740740745,1.4802999997138997],[0.03218749999999997,0.10314814814814824,1.4969999999999999],[0.04072916666666669,0.0992592592592593,1.513699999809269],[0.04375,0.07888888888888893,1.5303999996185311],[0.034687499999999954,0.05981481481481473,1.5470000000000041],[0.025416666666666643,0.059999999999999956,1.5645000000000024],[0.025625000000000023,0.05740740740740741,1.5802999997139011],[0.012812499999999952,0.04000000000000004,1.596899999618536],[-0.006562499999999953,0.025185185185185227,1.6148999996185296],[-0.006562499999999953,0.025185185185185227,1.6303999996185325],[-0.034062500000000044,0.03833333333333342,1.6470999999046327],[-0.07281249999999997,0.021296296296296296,1.6643999996185315],[-0.11156250000000002,0.004259259259259175,1.6802999997139025],[-0.13718750000000005,-0.022037037037036994,1.6968999996185303],[-0.13718750000000005,-0.022037037037036994,1.7138999996185333],[-0.15208333333333332,-0.014814814814814815,1.730399999618534],[-0.15208333333333332,-0.014814814814814815,1.7469999999999999],[-0.17395833333333333,0.002407407407407323,1.763699999809269],[-0.2345833333333334,-0.02240740740740745,1.780699999809265],[-0.2882291666666667,-0.04203703703703712,1.7970000000000041],[-0.31979166666666664,-0.036666666666666584,1.8136999998092662],[-0.35135416666666663,-0.03129629629629625,1.8305000000000007],[-0.36385416666666665,-0.07611111111111116,1.8470999999046356],[-0.3686458333333333,-0.09537037037037037,1.8636999998092705],[-0.37312500000000004,-0.11777777777777781,1.8803999996185325],[-0.4007291666666667,-0.11888888888888886,1.8970000000000056],[-0.4282291666666667,-0.14314814814814816,1.9135999999046334],[-0.4547916666666667,-0.1772222222222222,1.9302999997139025],[-0.4423958333333334,-0.18851851851851853,1.9512999997139033],[-0.40260416666666665,-0.19388888888888886,1.9650000000000034],[-0.371875,-0.2094444444444445,1.9801999998092654],[-0.33562500000000006,-0.25037037037037035,1.9969999999999999],[-0.31270833333333337,-0.24444444444444444,2.013699999809269]]","[0.00019999980926854732,0.016799999713903446,0.03559999990463325,0.05009999990463854,0.06559999990463439,0.08039999961853539,0.09700000000000131,0.11400000000000432,0.13039999961853255,0.1506999998092695,0.16619999980926536,0.18259999990463882,0.19729999971389844,0.2136999998092648,0.23169999980926548,0.2472999997139027,0.26639999961853533,0.28169999980926974,0.3002999997139,0.31669999980926633,0.33319999980926696,0.3470000000000013,0.3636999998092705,0.38079999971390066,0.3993999996185309,0.41369999980926764,0.4303999996185297,0.45169999980926434,0.4676999998092697,0.4825000000000017,0.4973999996185299,0.5172999997138987,0.534000000000006,0.5500000000000043,0.56439999961853,0.5828999996185331,0.5973999996185313,0.6151999998092705,0.6302999997138983,0.6517999997139015,0.6653999996185362,0.6803999996185297,0.6990000000000052,0.7135999999046376,0.7325000000000017,0.7496999998092662,0.7635999999046348,0.780299999713904,0.7970000000000041,0.8136999998092662,0.8303999996185354,0.8471999998092699,0.8636999998092705,0.8803999996185325,0.8970000000000056,0.9136999998092676,0.9302999997139025,0.947099999904637,0.9636999998092648,0.980399999618534,1.0023999996185324,1.0135999999046348,1.030299999713904,1.0495999999046361,1.0655000000000001,1.0802999997139011,1.0970000000000013,1.1155000000000044,1.1303999996185325,1.156099999904633,1.16569999980927,1.1803999996185297,1.1970000000000027,1.2136999998092648,1.2302999997138997,1.2468999996185346,1.2650999999046348,1.280299999713904,1.2970000000000041,1.313599999904632,1.3302999997139011,1.347299999713897,1.3635999999046362,1.3802999997138983,1.3970000000000056,1.4136999998092676,1.4302999997139025,1.4488999996185328,1.4636999998092648,1.4802999997138997,1.4969999999999999,1.513699999809269,1.5303999996185311,1.5470000000000041,1.5645000000000024,1.5802999997139011,1.596899999618536,1.6148999996185296,1.6303999996185325,1.6470999999046327,1.6643999996185315,1.6802999997139025,1.6968999996185303,1.7138999996185333,1.730399999618534,1.7469999999999999,1.763699999809269,1.780699999809265,1.7970000000000041,1.8136999998092662,1.8305000000000007,1.8470999999046356,1.8636999998092705,1.8803999996185325,1.8970000000000056,1.9135999999046334,1.9302999997139025,1.9512999997139033,1.9650000000000034,1.9801999998092654,1.9969999999999999,2.013699999809269]","[1732075969318,1732075969334,1732075969353,1732075969367,1732075969383,1732075969398,1732075969414,1732075969431,1732075969448,1732075969468,1732075969483,1732075969500,1732075969515,1732075969531,1732075969549,1732075969565,1732075969584,1732075969599,1732075969618,1732075969634,1732075969651,1732075969664,1732075969681,1732075969698,1732075969717,1732075969731,1732075969748,1732075969769,1732075969785,1732075969800,1732075969815,1732075969835,1732075969851,1732075969867,1732075969882,1732075969900,1732075969915,1732075969932,1732075969948,1732075969969,1732075969983,1732075969998,1732075970016,1732075970031,1732075970050,1732075970067,1732075970081,1732075970098,1732075970114,1732075970131,1732075970148,1732075970164,1732075970181,1732075970198,1732075970214,1732075970231,1732075970248,1732075970264,1732075970281,1732075970298,1732075970320,1732075970331,1732075970348,1732075970367,1732075970383,1732075970398,1732075970414,1732075970433,1732075970448,1732075970473,1732075970483,1732075970498,1732075970514,1732075970531,1732075970548,1732075970564,1732075970582,1732075970598,1732075970614,1732075970631,1732075970648,1732075970665,1732075970681,1732075970698,1732075970714,1732075970731,1732075970748,1732075970766,1732075970781,1732075970798,1732075970814,1732075970831,1732075970848,1732075970864,1732075970882,1732075970898,1732075970914,1732075970932,1732075970948,1732075970964,1732075970982,1732075970998,1732075971014,1732075971031,1732075971048,1732075971064,1732075971081,1732075971098,1732075971114,1732075971131,1732075971148,1732075971164,1732075971181,1732075971198,1732075971214,1732075971231,1732075971248,1732075971269,1732075971282,1732075971298,1732075971314,1732075971331]","[[982.8,270.5],[990,266.2],[964.7,268.9],[950.7,258.1],[970.9,253.7],[995.6,257.5],[1017,268.4],[1020.5,266.3],[1024.8,279.1],[1041.1,291],[1033.3,285.5],[1011,303],[1001.7,311.2],[988.4,308.9],[976.7,313.7],[977.7,314.4],[981.3,318.7],[976.1,336.3],[970.6,338.8],[965.1,341.3],[980.1,336.4],[980.1,336.4],[1013.5,324.1],[1045.8,308],[1057.9,314.7],[1070,321.4],[1073.2,341.2],[1063.2,338.6],[1072.2,327.5],[1073.7,323.6],[1056.3,327.7],[1036.3,331.6],[1009.3,337.9],[983.5,359],[972.8,367.1],[977.1,378.9],[983.9,356],[998.9,350.9],[998.9,350.9],[996.8,366.2],[996.8,366.2],[994.9,366.8],[1010.3,353.5],[1022.6,368.2],[1034.8,369.2],[1046.9,359.2],[1046.9,359.2],[1036,345.9],[1036,345.9],[1004.7,333.6],[1004.7,333.6],[979.6,348.2],[979.6,348.2],[954.5,348.8],[954.5,348.8],[945.5,328.6],[945.5,328.6],[927.1,337.1],[927.1,337.1],[910.3,351.5],[913.6,327.3],[913.6,327.3],[916.7,317.8],[908.1,314.1],[942.6,301.5],[942.6,301.5],[964.1,286.4],[992.9,266.1],[992.9,266.1],[997.3,256.7],[997.3,256.7],[1006.2,270.2],[1036.7,259.8],[1067.2,249.4],[1046.9,268],[1033.9,283.2],[1051.5,269],[1049.1,267.2],[1049.1,267.2],[1063.3,295.6],[1042.1,347.5],[1049.9,389],[1044.1,412.7],[1037.5,445.6],[1030.9,478.5],[1027.2,497.6],[1023.5,516.7],[1007.2,558],[993.1,597],[984.2,606.1],[990.9,595.7],[999.1,593.6],[1002,582.6],[993.3,572.3],[984.4,572.4],[984.6,571],[972.3,561.6],[953.7,553.6],[953.7,553.6],[927.3,560.7],[890.1,551.5],[852.9,542.3],[828.3,528.1],[828.3,528.1],[814,532],[814,532],[793,541.3],[734.8,527.9],[683.3,517.3],[653,520.2],[622.7,523.1],[610.7,498.9],[606.1,488.5],[601.8,476.4],[575.3,475.8],[548.9,462.7],[523.4,444.3],[535.3,438.2],[573.5,435.3],[603,426.9],[637.8,404.8],[659.8,408]]","[-0.132282,0.39684600000000003]","[0.132282,0.39684600000000003]","[0.39684600000000003,0.39684600000000003]","[-0.39684600000000003,0.132282]","[-0.39684600000000003,-0.132282]","[-0.39684600000000003,-0.39684600000000003]","[-0.132282,0.132282]","[0.132282,0.132282]","[0.39684600000000003,0.132282]","[-0.132282,-0.132282]","[0.132282,-0.132282]","[0.39684600000000003,-0.132282]","[-0.132282,-0.39684600000000003]","[0.132282,-0.39684600000000003]","[0.39684600000000003,-0.39684600000000003]",0,2,2,2,1,2,Tablet,15,40,9,1,60,4,1,70,5
