inst1_resp.keys,inst1_resp.rt,calibrationMouse.x,calibrationMouse.y,calibrationMouse.leftButton,calibrationMouse.midButton,calibrationMouse.rightButton,calibrationClick.x,calibrationClick.y,calibrationClick.leftButton,calibrationClick.midButton,calibrationClick.rightButton,calibrationClick.clicked_name,trialsc.thisRepN,trialsc.thisTrialN,trialsc.thisN,trialsc.thisIndex,trialsc.ran,calibration_x,calibration_y,participant,session,date,expName,psychopyVersion,OS,frameRate,ScreenRes_pixels,Camera_pixels,mouse_2.x,mouse_2.y,mouse_2.leftButton,mouse_2.midButton,mouse_2.rightButton,mouse_2.time,mouse_2.clicked_name,mouse.x,mouse.y,mouse.leftButton,mouse.midButton,mouse.rightButton,mouse.time,mouse.clicked_name,Choice,Trial,TrialDuration,MOUSE_GAZE,ET_GAZE,ET_GAZE_x_T,time,unixTime,ET_GAZE_NF,Loc_Bus_label,Loc_Metro_label,Loc_RH_label,Loc_Cost_label,Loc_Travel_label,Loc_Comfort_label,Loc_Bus_cost,Loc_Metro_cost,Loc_RH_cost,Loc_Bus_travel,Loc_Metro_travel,Loc_RH_travel,Loc_Bus_comfort,Loc_Metro_comfort,Loc_RH_comfort,trials.thisRepN,trials.thisTrialN,trials.thisN,trials.thisIndex,trials.ran,Block,Device,RH_cost,RH_travel_time,RH_Comfort,metro_cost,metro_travel_time,metro_Comfort,Bus_cost,Bus_travel_time,Bus_Comfort
space,5.1549,0.145833333,-0.42962963,1,0,0,-0.00625,-0.666666667,1,0,0,calibration_square,0,0,0,9,1,0,-0.67,30,001,2024-11-20_10h46.32.243,Attention_exp_legacy,2023.1.0,Win32,59.88023952,,,,,,,,,,,,,,,,,,,,,,,,,,,,,,,,,,,,,,,,,,,,,,,,,,,,,,,,
,,,,,,,0.66875,0.677777778,1,0,0,calibration_square,0,1,1,19,1,0.67,0.67,30,001,2024-11-20_10h46.32.243,Attention_exp_legacy,2023.1.0,Win32,59.88023952,,,,,,,,,,,,,,,,,,,,,,,,,,,,,,,,,,,,,,,,,,,,,,,,,,,,,,,,
,,,,,,,-0.325,0.331481481,1,0,0,calibration_square,0,2,2,7,1,-0.33,0.33,30,001,2024-11-20_10h46.32.243,Attention_exp_legacy,2023.1.0,Win32,59.88023952,,,,,,,,,,,,,,,,,,,,,,,,,,,,,,,,,,,,,,,,,,,,,,,,,,,,,,,,
,,,,,,,-0.665625,-0.325925926,1,0,0,calibration_square,0,3,3,1,1,-0.67,-0.33,30,001,2024-11-20_10h46.32.243,Attention_exp_legacy,2023.1.0,Win32,59.88023952,,,,,,,,,,,,,,,,,,,,,,,,,,,,,,,,,,,,,,,,,,,,,,,,,,,,,,,,
,,,,,,,0.336458333,0.338888889,1,0,0,calibration_square,0,4,4,17,1,0.33,0.33,30,001,2024-11-20_10h46.32.243,Attention_exp_legacy,2023.1.0,Win32,59.88023952,,,,,,,,,,,,,,,,,,,,,,,,,,,,,,,,,,,,,,,,,,,,,,,,,,,,,,,,
,,,,,,,-0.326041667,-0.32962963,1,0,0,calibration_square,0,5,5,5,1,-0.33,-0.33,30,001,2024-11-20_10h46.32.243,Attention_exp_legacy,2023.1.0,Win32,59.88023952,,,,,,,,,,,,,,,,,,,,,,,,,,,,,,,,,,,,,,,,,,,,,,,,,,,,,,,,
,,,,,,,0.33125,-0.342592593,1,0,0,,0,6,6,15,1,0.33,-0.33,30,001,2024-11-20_10h46.32.243,Attention_exp_legacy,2023.1.0,Win32,59.88023952,,,,,,,,,,,,,,,,,,,,,,,,,,,,,,,,,,,,,,,,,,,,,,,,,,,,,,,,
,,,,,,,0.00625,0.681481481,1,0,0,,0,7,7,13,1,0,0.67,30,001,2024-11-20_10h46.32.243,Attention_exp_legacy,2023.1.0,Win32,59.88023952,,,,,,,,,,,,,,,,,,,,,,,,,,,,,,,,,,,,,,,,,,,,,,,,,,,,,,,,
,,,,,,,-0.322916667,-0.005555556,1,0,0,calibration_square,0,8,8,6,1,-0.33,0,30,001,2024-11-20_10h46.32.243,Attention_exp_legacy,2023.1.0,Win32,59.88023952,,,,,,,,,,,,,,,,,,,,,,,,,,,,,,,,,,,,,,,,,,,,,,,,,,,,,,,,
,,,,,,,-0.655208333,0.337037037,1,0,0,,0,9,9,3,1,-0.67,0.33,30,001,2024-11-20_10h46.32.243,Attention_exp_legacy,2023.1.0,Win32,59.88023952,,,,,,,,,,,,,,,,,,,,,,,,,,,,,,,,,,,,,,,,,,,,,,,,,,,,,,,,
,,,,,,,-0.677083333,-0.662962963,1,0,0,calibration_square,0,10,10,0,1,-0.67,-0.67,30,001,2024-11-20_10h46.32.243,Attention_exp_legacy,2023.1.0,Win32,59.88023952,,,,,,,,,,,,,,,,,,,,,,,,,,,,,,,,,,,,,,,,,,,,,,,,,,,,,,,,
,,,,,,,0.319791667,-0.681481481,1,0,0,,0,11,11,14,1,0.33,-0.67,30,001,2024-11-20_10h46.32.243,Attention_exp_legacy,2023.1.0,Win32,59.88023952,,,,,,,,,,,,,,,,,,,,,,,,,,,,,,,,,,,,,,,,,,,,,,,,,,,,,,,,
,,,,,,,0.004166667,-0.011111111,1,0,0,,0,12,12,11,1,0,0,30,001,2024-11-20_10h46.32.243,Attention_exp_legacy,2023.1.0,Win32,59.88023952,,,,,,,,,,,,,,,,,,,,,,,,,,,,,,,,,,,,,,,,,,,,,,,,,,,,,,,,
,,,,,,,0.325,0.674074074,1,0,0,calibration_square,0,13,13,18,1,0.33,0.67,30,001,2024-11-20_10h46.32.243,Attention_exp_legacy,2023.1.0,Win32,59.88023952,,,,,,,,,,,,,,,,,,,,,,,,,,,,,,,,,,,,,,,,,,,,,,,,,,,,,,,,
,,,,,,,0.670833333,-0.694444444,1,0,0,,0,14,14,20,1,0.67,-0.67,30,001,2024-11-20_10h46.32.243,Attention_exp_legacy,2023.1.0,Win32,59.88023952,,,,,,,,,,,,,,,,,,,,,,,,,,,,,,,,,,,,,,,,,,,,,,,,,,,,,,,,
,,,,,,,0.002083333,0.357407407,1,0,0,,0,15,15,12,1,0,0.33,30,001,2024-11-20_10h46.32.243,Attention_exp_legacy,2023.1.0,Win32,59.88023952,,,,,,,,,,,,,,,,,,,,,,,,,,,,,,,,,,,,,,,,,,,,,,,,,,,,,,,,
,,,,,,,-0.661458333,0.007407407,1,0,0,calibration_square,0,16,16,2,1,-0.67,0,30,001,2024-11-20_10h46.32.243,Attention_exp_legacy,2023.1.0,Win32,59.88023952,,,,,,,,,,,,,,,,,,,,,,,,,,,,,,,,,,,,,,,,,,,,,,,,,,,,,,,,
,,,,,,,-0.329166667,-0.672222222,1,0,0,calibration_square,0,17,17,4,1,-0.33,-0.67,30,001,2024-11-20_10h46.32.243,Attention_exp_legacy,2023.1.0,Win32,59.88023952,,,,,,,,,,,,,,,,,,,,,,,,,,,,,,,,,,,,,,,,,,,,,,,,,,,,,,,,
,,,,,,,-0.329166667,0.67037037,1,0,0,calibration_square,0,18,18,8,1,-0.33,0.67,30,001,2024-11-20_10h46.32.243,Attention_exp_legacy,2023.1.0,Win32,59.88023952,,,,,,,,,,,,,,,,,,,,,,,,,,,,,,,,,,,,,,,,,,,,,,,,,,,,,,,,
,,,,,,,0.334375,0,1,0,0,calibration_square,0,19,19,16,1,0.33,0,30,001,2024-11-20_10h46.32.243,Attention_exp_legacy,2023.1.0,Win32,59.88023952,,,,,,,,,,,,,,,,,,,,,,,,,,,,,,,,,,,,,,,,,,,,,,,,,,,,,,,,
,,,,,,,-0.008333333,-0.338888889,1,0,0,calibration_square,0,20,20,10,1,0,-0.33,30,001,2024-11-20_10h46.32.243,Attention_exp_legacy,2023.1.0,Win32,59.88023952,,,,,,,,,,,,,,,,,,,,,,,,,,,,,,,,,,,,,,,,,,,,,,,,,,,,,,,,
,,,,,,,,,,,,,,,,,,,,30,001,2024-11-20_10h46.32.243,Attention_exp_legacy,2023.1.0,Win32,59.88023952,"[1920,1080]","[640,480]",[0.053125],[-0.5185185185185185],[1],[0],[0],[8.013000000000005],"[""StartButton""]",[-0.04895833333333333],[0.14629629629629629],[1],[0],[0],[12.950400000095357],"[""Bus_label""]",Bus_label,1,13.9769,"[[0.036458333333333336,-0.2222222222222222],[0.036458333333333336,-0.2222222222222222],[0.036458333333333336,-0.2222222222222222],[0.036458333333333336,-0.2222222222222222],[0.036458333333333336,-0.2222222222222222],[0.036458333333333336,-0.2222222222222222],[0.036458333333333336,-0.2222222222222222],[0.036458333333333336,-0.2222222222222222],[0.036458333333333336,-0.2222222222222222],[0.036458333333333336,-0.2222222222222222],[0.036458333333333336,-0.2222222222222222],[0.036458333333333336,-0.2222222222222222],[0.036458333333333336,-0.2222222222222222],[0.036458333333333336,-0.2222222222222222],[0.036458333333333336,-0.2222222222222222],[0.036458333333333336,-0.2222222222222222],[0.036458333333333336,-0.2222222222222222],[0.04375,-0.22592592592592592],[0.04791666666666667,-0.23333333333333334],[0.05,-0.24444444444444444],[0.04479166666666667,-0.26481481481481484],[0.03958333333333333,-0.2796296296296296],[0.03958333333333333,-0.2796296296296296],[0.03958333333333333,-0.2796296296296296],[0.03958333333333333,-0.2796296296296296],[0.03958333333333333,-0.2796296296296296],[0.03958333333333333,-0.2796296296296296],[0.03958333333333333,-0.2796296296296296],[0.03958333333333333,-0.2796296296296296],[0.03958333333333333,-0.2796296296296296],[0.03958333333333333,-0.2796296296296296],[0.03958333333333333,-0.2796296296296296],[0.03958333333333333,-0.2796296296296296],[0.03958333333333333,-0.2796296296296296],[0.03958333333333333,-0.2796296296296296],[0.03958333333333333,-0.2796296296296296],[0.03958333333333333,-0.2796296296296296],[0.03958333333333333,-0.2796296296296296],[0.03958333333333333,-0.2796296296296296],[0.036458333333333336,-0.2796296296296296],[0.03229166666666667,-0.2777777777777778],[0.027083333333333334,-0.26851851851851855],[0.023958333333333335,-0.26296296296296295],[0.021875,-0.2574074074074074],[0.020833333333333332,-0.24814814814814815],[0.01875,-0.2351851851851852],[0.01875,-0.22592592592592592],[0.01875,-0.2222222222222222],[0.01875,-0.21851851851851853],[0.01875,-0.2074074074074074],[0.01875,-0.2074074074074074],[0.01875,-0.2074074074074074],[0.01875,-0.2074074074074074],[0.01875,-0.2074074074074074],[0.01875,-0.2074074074074074],[0.01875,-0.2074074074074074],[0.01875,-0.2074074074074074],[0.01875,-0.2074074074074074],[0.01875,-0.2074074074074074],[0.01875,-0.2074074074074074],[0.01875,-0.2074074074074074],[0.01875,-0.2074074074074074],[0.01875,-0.2074074074074074],[0.01875,-0.2074074074074074],[0.01875,-0.2074074074074074],[0.01875,-0.2074074074074074],[0.01875,-0.2074074074074074],[0.01875,-0.2074074074074074],[0.016666666666666666,-0.2037037037037037],[0.009375,-0.19444444444444445],[0.00625,-0.19074074074074074],[0,-0.18333333333333332],[-0.005208333333333333,-0.17592592592592593],[-0.013541666666666667,-0.15925925925925927],[-0.017708333333333333,-0.15],[-0.022916666666666665,-0.14074074074074075],[-0.028125,-0.12777777777777777],[-0.03125,-0.11851851851851852],[-0.03333333333333333,-0.1111111111111111],[-0.036458333333333336,-0.1037037037037037],[-0.036458333333333336,-0.0962962962962963],[-0.0375,-0.08888888888888889],[-0.03854166666666667,-0.08333333333333333],[-0.03854166666666667,-0.07777777777777778],[-0.03854166666666667,-0.07037037037037037],[-0.03854166666666667,-0.06481481481481481],[-0.03854166666666667,-0.05555555555555555],[-0.03854166666666667,-0.053703703703703705],[-0.03854166666666667,-0.044444444444444446],[-0.03854166666666667,-0.040740740740740744],[-0.03854166666666667,-0.03888888888888889],[-0.03854166666666667,-0.03518518518518519],[-0.03854166666666667,-0.03518518518518519],[-0.03854166666666667,-0.03333333333333333],[-0.03854166666666667,-0.03333333333333333],[-0.03854166666666667,-0.03333333333333333],[-0.03854166666666667,-0.03333333333333333],[-0.03854166666666667,-0.03333333333333333],[-0.03854166666666667,-0.03333333333333333],[-0.03854166666666667,-0.03148148148148148],[-0.03854166666666667,-0.03148148148148148],[-0.03854166666666667,-0.03148148148148148],[-0.03854166666666667,-0.03148148148148148],[-0.03854166666666667,-0.03148148148148148],[-0.03854166666666667,-0.03148148148148148],[-0.03854166666666667,-0.03148148148148148],[-0.03854166666666667,-0.03148148148148148],[-0.036458333333333336,-0.02962962962962963],[-0.035416666666666666,-0.03333333333333333],[-0.03229166666666667,-0.03888888888888889],[-0.029166666666666667,-0.046296296296296294],[-0.027083333333333334,-0.05],[-0.026041666666666668,-0.05],[-0.026041666666666668,-0.05185185185185185],[-0.026041666666666668,-0.05185185185185185],[-0.026041666666666668,-0.05185185185185185],[-0.026041666666666668,-0.05185185185185185],[-0.026041666666666668,-0.05185185185185185],[-0.027083333333333334,-0.05185185185185185],[-0.029166666666666667,-0.05185185185185185],[-0.030208333333333334,-0.05185185185185185],[-0.030208333333333334,-0.05185185185185185],[-0.030208333333333334,-0.05185185185185185],[-0.030208333333333334,-0.05185185185185185],[-0.030208333333333334,-0.05185185185185185],[-0.030208333333333334,-0.05185185185185185],[-0.030208333333333334,-0.05185185185185185],[-0.030208333333333334,-0.05185185185185185],[-0.030208333333333334,-0.05185185185185185],[-0.030208333333333334,-0.05185185185185185],[-0.030208333333333334,-0.05185185185185185],[-0.030208333333333334,-0.05185185185185185],[-0.030208333333333334,-0.05185185185185185],[-0.03125,-0.05185185185185185],[-0.03229166666666667,-0.05185185185185185],[-0.03229166666666667,-0.05185185185185185],[-0.03229166666666667,-0.05185185185185185],[-0.03229166666666667,-0.05185185185185185],[-0.03229166666666667,-0.05185185185185185],[-0.03229166666666667,-0.05185185185185185],[-0.03229166666666667,-0.05185185185185185],[-0.03229166666666667,-0.05185185185185185],[-0.03229166666666667,-0.05185185185185185],[-0.03229166666666667,-0.05185185185185185],[-0.03229166666666667,-0.05185185185185185],[-0.03229166666666667,-0.05185185185185185],[-0.03229166666666667,-0.05185185185185185],[-0.03229166666666667,-0.05185185185185185],[-0.03229166666666667,-0.05185185185185185],[-0.03229166666666667,-0.05185185185185185],[-0.03229166666666667,-0.05185185185185185],[-0.03229166666666667,-0.05185185185185185],[-0.03229166666666667,-0.05185185185185185],[-0.03229166666666667,-0.05185185185185185],[-0.03229166666666667,-0.05185185185185185],[-0.03229166666666667,-0.05185185185185185],[-0.03229166666666667,-0.05185185185185185],[-0.03229166666666667,-0.05185185185185185],[-0.03229166666666667,-0.05185185185185185],[-0.03229166666666667,-0.05185185185185185],[-0.03229166666666667,-0.05185185185185185],[-0.03229166666666667,-0.05185185185185185],[-0.03229166666666667,-0.05185185185185185],[-0.03229166666666667,-0.05185185185185185],[-0.03229166666666667,-0.05185185185185185],[-0.03229166666666667,-0.05185185185185185],[-0.03229166666666667,-0.05185185185185185],[-0.03229166666666667,-0.05185185185185185],[-0.03229166666666667,-0.05185185185185185],[-0.03229166666666667,-0.05185185185185185],[-0.03229166666666667,-0.05185185185185185],[-0.03229166666666667,-0.05185185185185185],[-0.03229166666666667,-0.05185185185185185],[-0.03229166666666667,-0.05185185185185185],[-0.03229166666666667,-0.05185185185185185],[-0.03229166666666667,-0.05185185185185185],[-0.03229166666666667,-0.05185185185185185],[-0.03229166666666667,-0.05185185185185185],[-0.03229166666666667,-0.05185185185185185],[-0.03229166666666667,-0.05185185185185185],[-0.03229166666666667,-0.05185185185185185],[-0.03229166666666667,-0.05185185185185185],[-0.03229166666666667,-0.05185185185185185],[-0.03229166666666667,-0.05185185185185185],[-0.03229166666666667,-0.05185185185185185],[-0.03229166666666667,-0.05185185185185185],[-0.03229166666666667,-0.05185185185185185],[-0.03229166666666667,-0.05185185185185185],[-0.03229166666666667,-0.05185185185185185],[-0.03229166666666667,-0.05185185185185185],[-0.03229166666666667,-0.05185185185185185],[-0.03229166666666667,-0.05185185185185185],[-0.03229166666666667,-0.05185185185185185],[-0.03229166666666667,-0.05185185185185185],[-0.03229166666666667,-0.05185185185185185],[-0.03229166666666667,-0.05185185185185185],[-0.03229166666666667,-0.05185185185185185],[-0.03229166666666667,-0.05185185185185185],[-0.03229166666666667,-0.05185185185185185],[-0.03229166666666667,-0.05185185185185185],[-0.03229166666666667,-0.05185185185185185],[-0.03229166666666667,-0.05185185185185185],[-0.03229166666666667,-0.05185185185185185],[-0.03229166666666667,-0.05185185185185185],[-0.03229166666666667,-0.05185185185185185],[-0.03229166666666667,-0.05185185185185185],[-0.03229166666666667,-0.05185185185185185],[-0.03229166666666667,-0.05185185185185185],[-0.03229166666666667,-0.05185185185185185],[-0.03229166666666667,-0.05185185185185185],[-0.03229166666666667,-0.05185185185185185],[-0.03229166666666667,-0.05185185185185185],[-0.03229166666666667,-0.05185185185185185],[-0.03229166666666667,-0.05185185185185185],[-0.03229166666666667,-0.05185185185185185],[-0.03229166666666667,-0.05185185185185185],[-0.03229166666666667,-0.05185185185185185],[-0.03229166666666667,-0.05185185185185185],[-0.03229166666666667,-0.05185185185185185],[-0.03229166666666667,-0.05185185185185185],[-0.03229166666666667,-0.05185185185185185],[-0.03229166666666667,-0.05185185185185185],[-0.03229166666666667,-0.05185185185185185],[-0.03229166666666667,-0.05185185185185185],[-0.03229166666666667,-0.05185185185185185],[-0.03229166666666667,-0.05185185185185185],[-0.03229166666666667,-0.05185185185185185],[-0.03229166666666667,-0.05185185185185185],[-0.03229166666666667,-0.05185185185185185],[-0.03229166666666667,-0.05185185185185185],[-0.03229166666666667,-0.05185185185185185],[-0.03229166666666667,-0.05185185185185185],[-0.03229166666666667,-0.05185185185185185],[-0.03229166666666667,-0.05185185185185185],[-0.03229166666666667,-0.05185185185185185],[-0.03229166666666667,-0.05185185185185185],[-0.03229166666666667,-0.05185185185185185],[-0.03229166666666667,-0.05185185185185185],[-0.03229166666666667,-0.05185185185185185],[-0.03229166666666667,-0.05185185185185185],[-0.03229166666666667,-0.05185185185185185],[-0.03229166666666667,-0.05185185185185185],[-0.03229166666666667,-0.05185185185185185],[-0.03229166666666667,-0.05185185185185185],[-0.03229166666666667,-0.05185185185185185],[-0.03229166666666667,-0.05185185185185185],[-0.03229166666666667,-0.05185185185185185],[-0.03229166666666667,-0.05185185185185185],[-0.03229166666666667,-0.05185185185185185],[-0.03229166666666667,-0.05185185185185185],[-0.03229166666666667,-0.05185185185185185],[-0.03229166666666667,-0.05185185185185185],[-0.03229166666666667,-0.05185185185185185],[-0.03229166666666667,-0.05185185185185185],[-0.03229166666666667,-0.05185185185185185],[-0.03229166666666667,-0.05185185185185185],[-0.03229166666666667,-0.05185185185185185],[-0.03229166666666667,-0.05185185185185185],[-0.03229166666666667,-0.05185185185185185],[-0.03229166666666667,-0.05185185185185185],[-0.03229166666666667,-0.05185185185185185],[-0.03229166666666667,-0.05185185185185185],[-0.03229166666666667,-0.05185185185185185],[-0.03229166666666667,-0.05185185185185185],[-0.03229166666666667,-0.05185185185185185],[-0.03229166666666667,-0.05185185185185185],[-0.03229166666666667,-0.05185185185185185],[-0.03229166666666667,-0.05185185185185185],[-0.03229166666666667,-0.05185185185185185],[-0.03229166666666667,-0.05185185185185185],[-0.03229166666666667,-0.05185185185185185],[-0.03229166666666667,-0.05185185185185185],[-0.03229166666666667,-0.05185185185185185],[-0.03229166666666667,-0.05185185185185185],[-0.03229166666666667,-0.05185185185185185],[-0.03229166666666667,-0.05185185185185185],[-0.03229166666666667,-0.05185185185185185],[-0.03229166666666667,-0.05185185185185185],[-0.03229166666666667,-0.05185185185185185],[-0.03229166666666667,-0.05185185185185185],[-0.03229166666666667,-0.05185185185185185],[-0.03229166666666667,-0.05185185185185185],[-0.03229166666666667,-0.05185185185185185],[-0.03229166666666667,-0.05185185185185185],[-0.03229166666666667,-0.05185185185185185],[-0.03229166666666667,-0.05185185185185185],[-0.03229166666666667,-0.05185185185185185],[-0.03229166666666667,-0.05185185185185185],[-0.03229166666666667,-0.05185185185185185],[-0.03229166666666667,-0.05185185185185185],[-0.03229166666666667,-0.05185185185185185],[-0.03229166666666667,-0.05185185185185185],[-0.03229166666666667,-0.05185185185185185],[-0.03229166666666667,-0.05185185185185185],[-0.03229166666666667,-0.05185185185185185],[-0.03229166666666667,-0.05185185185185185],[-0.03229166666666667,-0.05185185185185185],[-0.03229166666666667,-0.05185185185185185],[-0.03229166666666667,-0.05185185185185185],[-0.03229166666666667,-0.05185185185185185],[-0.03229166666666667,-0.05185185185185185],[-0.03229166666666667,-0.05185185185185185],[-0.03229166666666667,-0.05185185185185185],[-0.03229166666666667,-0.05185185185185185],[-0.03229166666666667,-0.05185185185185185],[-0.03229166666666667,-0.05185185185185185],[-0.03229166666666667,-0.05185185185185185],[-0.03229166666666667,-0.05185185185185185],[-0.03229166666666667,-0.05185185185185185],[-0.03229166666666667,-0.05185185185185185],[-0.03229166666666667,-0.05185185185185185],[-0.03229166666666667,-0.05185185185185185],[-0.03229166666666667,-0.05185185185185185],[-0.03229166666666667,-0.05185185185185185],[-0.03229166666666667,-0.05185185185185185],[-0.03229166666666667,-0.05185185185185185],[-0.03229166666666667,-0.05185185185185185],[-0.03229166666666667,-0.05185185185185185],[-0.03229166666666667,-0.05185185185185185],[-0.03229166666666667,-0.05185185185185185],[-0.03229166666666667,-0.05185185185185185],[-0.03229166666666667,-0.05185185185185185],[-0.03229166666666667,-0.05185185185185185],[-0.03229166666666667,-0.05185185185185185],[-0.03229166666666667,-0.05185185185185185],[-0.03229166666666667,-0.05185185185185185],[-0.03229166666666667,-0.05185185185185185],[-0.03229166666666667,-0.05185185185185185],[-0.03229166666666667,-0.05185185185185185],[-0.03229166666666667,-0.05185185185185185],[-0.03229166666666667,-0.05185185185185185],[-0.03229166666666667,-0.05185185185185185],[-0.03229166666666667,-0.05185185185185185],[-0.03229166666666667,-0.05185185185185185],[-0.03229166666666667,-0.05185185185185185],[-0.03229166666666667,-0.05185185185185185],[-0.03229166666666667,-0.05185185185185185],[-0.03229166666666667,-0.05185185185185185],[-0.03229166666666667,-0.05185185185185185],[-0.03229166666666667,-0.05185185185185185],[-0.03229166666666667,-0.05185185185185185],[-0.03229166666666667,-0.05185185185185185],[-0.03229166666666667,-0.05185185185185185],[-0.03229166666666667,-0.05185185185185185],[-0.03229166666666667,-0.05185185185185185],[-0.03229166666666667,-0.05185185185185185],[-0.03229166666666667,-0.05185185185185185],[-0.03229166666666667,-0.05185185185185185],[-0.03229166666666667,-0.05185185185185185],[-0.03229166666666667,-0.05185185185185185],[-0.03229166666666667,-0.05185185185185185],[-0.03229166666666667,-0.05185185185185185],[-0.03229166666666667,-0.05185185185185185],[-0.03229166666666667,-0.05185185185185185],[-0.03229166666666667,-0.05185185185185185],[-0.03229166666666667,-0.05185185185185185],[-0.03229166666666667,-0.05185185185185185],[-0.03229166666666667,-0.05185185185185185],[-0.03229166666666667,-0.05185185185185185],[-0.03229166666666667,-0.05185185185185185],[-0.03229166666666667,-0.05185185185185185],[-0.03229166666666667,-0.05185185185185185],[-0.03229166666666667,-0.05185185185185185],[-0.03229166666666667,-0.05185185185185185],[-0.034375,-0.04814814814814815],[-0.034375,-0.04814814814814815],[-0.034375,-0.04814814814814815],[-0.034375,-0.04814814814814815],[-0.034375,-0.04814814814814815],[-0.034375,-0.04814814814814815],[-0.034375,-0.04814814814814815],[-0.034375,-0.04814814814814815],[-0.034375,-0.04814814814814815],[-0.034375,-0.04814814814814815],[-0.034375,-0.04814814814814815],[-0.034375,-0.04814814814814815],[-0.034375,-0.04814814814814815],[-0.034375,-0.04814814814814815],[-0.034375,-0.046296296296296294],[-0.034375,-0.046296296296296294],[-0.034375,-0.046296296296296294],[-0.034375,-0.046296296296296294],[-0.034375,-0.046296296296296294],[-0.034375,-0.046296296296296294],[-0.034375,-0.046296296296296294],[-0.034375,-0.046296296296296294],[-0.034375,-0.046296296296296294],[-0.034375,-0.046296296296296294],[-0.034375,-0.046296296296296294],[-0.034375,-0.046296296296296294],[-0.034375,-0.046296296296296294],[-0.034375,-0.046296296296296294],[-0.034375,-0.046296296296296294],[-0.034375,-0.046296296296296294],[-0.034375,-0.046296296296296294],[-0.034375,-0.046296296296296294],[-0.034375,-0.046296296296296294],[-0.034375,-0.046296296296296294],[-0.034375,-0.046296296296296294],[-0.034375,-0.046296296296296294],[-0.034375,-0.046296296296296294],[-0.034375,-0.046296296296296294],[-0.034375,-0.046296296296296294],[-0.034375,-0.046296296296296294],[-0.034375,-0.046296296296296294],[-0.034375,-0.046296296296296294],[-0.035416666666666666,-0.046296296296296294],[-0.035416666666666666,-0.046296296296296294],[-0.035416666666666666,-0.046296296296296294],[-0.035416666666666666,-0.046296296296296294],[-0.035416666666666666,-0.046296296296296294],[-0.035416666666666666,-0.046296296296296294],[-0.035416666666666666,-0.046296296296296294],[-0.035416666666666666,-0.046296296296296294],[-0.035416666666666666,-0.046296296296296294],[-0.035416666666666666,-0.046296296296296294],[-0.035416666666666666,-0.046296296296296294],[-0.035416666666666666,-0.046296296296296294],[-0.035416666666666666,-0.046296296296296294],[-0.03333333333333333,-0.046296296296296294],[-0.011458333333333333,-0.027777777777777776],[0.013541666666666667,-0.016666666666666666],[0.04479166666666667,-0.001851851851851852],[0.07395833333333333,0.014814814814814815],[0.09375,0.024074074074074074],[0.10833333333333334,0.027777777777777776],[0.121875,0.03333333333333333],[0.13020833333333334,0.037037037037037035],[0.13645833333333332,0.040740740740740744],[0.14375,0.044444444444444446],[0.14583333333333334,0.044444444444444446],[0.14895833333333333,0.04814814814814815],[0.15,0.05],[0.153125,0.05185185185185185],[0.15729166666666666,0.05925925925925926],[0.15833333333333333,0.06111111111111111],[0.1625,0.06666666666666667],[0.16666666666666666,0.07407407407407407],[0.16770833333333332,0.07592592592592592],[0.16770833333333332,0.07592592592592592],[0.16770833333333332,0.07777777777777778],[0.16770833333333332,0.07777777777777778],[0.16770833333333332,0.07777777777777778],[0.16770833333333332,0.07777777777777778],[0.16770833333333332,0.07962962962962963],[0.16770833333333332,0.07962962962962963],[0.16770833333333332,0.07962962962962963],[0.16770833333333332,0.07962962962962963],[0.16770833333333332,0.08333333333333333],[0.16770833333333332,0.08333333333333333],[0.16770833333333332,0.09074074074074075],[0.16770833333333332,0.0962962962962963],[0.16666666666666666,0.1037037037037037],[0.16666666666666666,0.1111111111111111],[0.165625,0.12407407407407407],[0.16458333333333333,0.12962962962962962],[0.16458333333333333,0.13703703703703704],[0.16458333333333333,0.14444444444444443],[0.16458333333333333,0.15],[0.16458333333333333,0.15555555555555556],[0.16458333333333333,0.15925925925925927],[0.16458333333333333,0.16111111111111112],[0.16458333333333333,0.16111111111111112],[0.16458333333333333,0.16296296296296298],[0.16458333333333333,0.1648148148148148],[0.16458333333333333,0.1648148148148148],[0.16458333333333333,0.1648148148148148],[0.16458333333333333,0.1648148148148148],[0.16458333333333333,0.1648148148148148],[0.16458333333333333,0.1648148148148148],[0.16458333333333333,0.1648148148148148],[0.16458333333333333,0.1648148148148148],[0.16458333333333333,0.1648148148148148],[0.16458333333333333,0.1648148148148148],[0.16458333333333333,0.1648148148148148],[0.16458333333333333,0.1648148148148148],[0.16458333333333333,0.1648148148148148],[0.16458333333333333,0.1648148148148148],[0.16458333333333333,0.1648148148148148],[0.16458333333333333,0.1648148148148148],[0.16458333333333333,0.1648148148148148],[0.16458333333333333,0.1648148148148148],[0.16458333333333333,0.1648148148148148],[0.16458333333333333,0.1648148148148148],[0.16458333333333333,0.1648148148148148],[0.16458333333333333,0.1648148148148148],[0.16458333333333333,0.1648148148148148],[0.16458333333333333,0.1648148148148148],[0.16458333333333333,0.1648148148148148],[0.16458333333333333,0.1648148148148148],[0.16458333333333333,0.1648148148148148],[0.16458333333333333,0.1648148148148148],[0.16458333333333333,0.1648148148148148],[0.16458333333333333,0.1648148148148148],[0.16458333333333333,0.1648148148148148],[0.16458333333333333,0.1648148148148148],[0.16458333333333333,0.1648148148148148],[0.16458333333333333,0.1648148148148148],[0.16458333333333333,0.1648148148148148],[0.16458333333333333,0.1648148148148148],[0.16458333333333333,0.1648148148148148],[0.16458333333333333,0.1648148148148148],[0.16458333333333333,0.1648148148148148],[0.16458333333333333,0.1648148148148148],[0.16458333333333333,0.1648148148148148],[0.16458333333333333,0.1648148148148148],[0.16458333333333333,0.1648148148148148],[0.16458333333333333,0.1648148148148148],[0.16458333333333333,0.1648148148148148],[0.16458333333333333,0.1648148148148148],[0.16458333333333333,0.1648148148148148],[0.16458333333333333,0.1648148148148148],[0.16458333333333333,0.1648148148148148],[0.16458333333333333,0.1648148148148148],[0.16458333333333333,0.1648148148148148],[0.16458333333333333,0.1648148148148148],[0.16458333333333333,0.1648148148148148],[0.16458333333333333,0.1648148148148148],[0.16458333333333333,0.1648148148148148],[0.16458333333333333,0.1648148148148148],[0.16458333333333333,0.1648148148148148],[0.16458333333333333,0.1648148148148148],[0.16458333333333333,0.1648148148148148],[0.16458333333333333,0.1648148148148148],[0.16458333333333333,0.1648148148148148],[0.16458333333333333,0.1648148148148148],[0.16458333333333333,0.1648148148148148],[0.16458333333333333,0.1648148148148148],[0.16458333333333333,0.1648148148148148],[0.16458333333333333,0.1648148148148148],[0.16458333333333333,0.1648148148148148],[0.16458333333333333,0.1648148148148148],[0.16458333333333333,0.1648148148148148],[0.16458333333333333,0.1648148148148148],[0.16458333333333333,0.1648148148148148],[0.16458333333333333,0.1648148148148148],[0.16458333333333333,0.1648148148148148],[0.16458333333333333,0.1648148148148148],[0.16458333333333333,0.1648148148148148],[0.16458333333333333,0.1648148148148148],[0.16458333333333333,0.1648148148148148],[0.16458333333333333,0.1648148148148148],[0.16458333333333333,0.1648148148148148],[0.16458333333333333,0.1648148148148148],[0.16458333333333333,0.1648148148148148],[0.16458333333333333,0.1648148148148148],[0.16458333333333333,0.1648148148148148],[0.16458333333333333,0.1648148148148148],[0.16458333333333333,0.1648148148148148],[0.16458333333333333,0.1648148148148148],[0.16458333333333333,0.1648148148148148],[0.16458333333333333,0.1648148148148148],[0.16458333333333333,0.1648148148148148],[0.16458333333333333,0.1648148148148148],[0.16458333333333333,0.1648148148148148],[0.16458333333333333,0.1648148148148148],[0.16458333333333333,0.1648148148148148],[0.16458333333333333,0.1648148148148148],[0.16458333333333333,0.1648148148148148],[0.16458333333333333,0.1648148148148148],[0.16458333333333333,0.1648148148148148],[0.16458333333333333,0.1648148148148148],[0.16458333333333333,0.1648148148148148],[0.16458333333333333,0.1648148148148148],[0.16458333333333333,0.1648148148148148],[0.16458333333333333,0.1648148148148148],[0.16458333333333333,0.1648148148148148],[0.16458333333333333,0.1648148148148148],[0.16458333333333333,0.1648148148148148],[0.16458333333333333,0.1648148148148148],[0.16458333333333333,0.1648148148148148],[0.16458333333333333,0.1648148148148148],[0.16458333333333333,0.1648148148148148],[0.16458333333333333,0.1648148148148148],[0.16458333333333333,0.1648148148148148],[0.16458333333333333,0.1648148148148148],[0.16458333333333333,0.1648148148148148],[0.16458333333333333,0.1648148148148148],[0.16458333333333333,0.1648148148148148],[0.16458333333333333,0.1648148148148148],[0.16458333333333333,0.1648148148148148],[0.16458333333333333,0.1648148148148148],[0.16458333333333333,0.1648148148148148],[0.16458333333333333,0.1648148148148148],[0.16458333333333333,0.1648148148148148],[0.16458333333333333,0.1648148148148148],[0.16458333333333333,0.1648148148148148],[0.16458333333333333,0.1648148148148148],[0.16458333333333333,0.1648148148148148],[0.16458333333333333,0.1648148148148148],[0.16458333333333333,0.1648148148148148],[0.16458333333333333,0.1648148148148148],[0.16458333333333333,0.1648148148148148],[0.16458333333333333,0.1648148148148148],[0.16458333333333333,0.1648148148148148],[0.16458333333333333,0.1648148148148148],[0.16458333333333333,0.1648148148148148],[0.16458333333333333,0.1648148148148148],[0.16458333333333333,0.1648148148148148],[0.16458333333333333,0.1648148148148148],[0.16458333333333333,0.1648148148148148],[0.16458333333333333,0.1648148148148148],[0.16458333333333333,0.1648148148148148],[0.16458333333333333,0.1648148148148148],[0.16458333333333333,0.1648148148148148],[0.16458333333333333,0.1648148148148148],[0.16458333333333333,0.1648148148148148],[0.16458333333333333,0.1648148148148148],[0.16458333333333333,0.1648148148148148],[0.16458333333333333,0.1648148148148148],[0.16458333333333333,0.1648148148148148],[0.16458333333333333,0.1648148148148148],[0.16458333333333333,0.1648148148148148],[0.16458333333333333,0.1648148148148148],[0.16458333333333333,0.1648148148148148],[0.16458333333333333,0.1648148148148148],[0.16458333333333333,0.1648148148148148],[0.16458333333333333,0.1648148148148148],[0.16458333333333333,0.1648148148148148],[0.16458333333333333,0.1648148148148148],[0.16458333333333333,0.1648148148148148],[0.16458333333333333,0.1648148148148148],[0.16458333333333333,0.1648148148148148],[0.16458333333333333,0.1648148148148148],[0.16458333333333333,0.1648148148148148],[0.16458333333333333,0.1648148148148148],[0.16458333333333333,0.1648148148148148],[0.16458333333333333,0.1648148148148148],[0.16458333333333333,0.1648148148148148],[0.16458333333333333,0.1648148148148148],[0.16458333333333333,0.1648148148148148],[0.16458333333333333,0.1648148148148148],[0.16458333333333333,0.1648148148148148],[0.16458333333333333,0.1648148148148148],[0.16458333333333333,0.1648148148148148],[0.16458333333333333,0.1648148148148148],[0.16458333333333333,0.1648148148148148],[0.16458333333333333,0.1648148148148148],[0.16458333333333333,0.1648148148148148],[0.16458333333333333,0.1648148148148148],[0.16458333333333333,0.1648148148148148],[0.16458333333333333,0.1648148148148148],[0.16458333333333333,0.1648148148148148],[0.16458333333333333,0.1648148148148148],[0.16458333333333333,0.1648148148148148],[0.16458333333333333,0.1648148148148148],[0.16458333333333333,0.1648148148148148],[0.16458333333333333,0.1648148148148148],[0.16458333333333333,0.1648148148148148],[0.16458333333333333,0.1648148148148148],[0.16458333333333333,0.1648148148148148],[0.16458333333333333,0.1648148148148148],[0.16458333333333333,0.1648148148148148],[0.16458333333333333,0.1648148148148148],[0.16458333333333333,0.1648148148148148],[0.16458333333333333,0.1648148148148148],[0.16458333333333333,0.1648148148148148],[0.16458333333333333,0.1648148148148148],[0.16458333333333333,0.1648148148148148],[0.16458333333333333,0.1648148148148148],[0.16458333333333333,0.1648148148148148],[0.16458333333333333,0.1648148148148148],[0.16458333333333333,0.1648148148148148],[0.16458333333333333,0.1648148148148148],[0.16458333333333333,0.1648148148148148],[0.16458333333333333,0.1648148148148148],[0.16458333333333333,0.1648148148148148],[0.16458333333333333,0.1648148148148148],[0.16458333333333333,0.1648148148148148],[0.16458333333333333,0.1648148148148148],[0.16458333333333333,0.1648148148148148],[0.16458333333333333,0.1648148148148148],[0.16458333333333333,0.1648148148148148],[0.16458333333333333,0.1648148148148148],[0.16458333333333333,0.1648148148148148],[0.16458333333333333,0.1648148148148148],[0.15729166666666666,0.1685185185185185],[0.12395833333333334,0.17407407407407408],[0.09166666666666666,0.17962962962962964],[0.057291666666666664,0.17962962962962964],[0.019791666666666666,0.17962962962962964],[-0.007291666666666667,0.17962962962962964],[-0.027083333333333334,0.17962962962962964],[-0.03958333333333333,0.17962962962962964],[-0.04375,0.17962962962962964],[-0.04583333333333333,0.17962962962962964],[-0.04583333333333333,0.17962962962962964],[-0.04583333333333333,0.17962962962962964],[-0.04583333333333333,0.17962962962962964],[-0.04583333333333333,0.17962962962962964],[-0.04583333333333333,0.17962962962962964],[-0.04583333333333333,0.17962962962962964],[-0.04583333333333333,0.17962962962962964],[-0.04583333333333333,0.17962962962962964],[-0.04583333333333333,0.17962962962962964],[-0.04583333333333333,0.17962962962962964],[-0.04583333333333333,0.17962962962962964],[-0.04583333333333333,0.17962962962962964],[-0.04583333333333333,0.17962962962962964],[-0.03229166666666667,0.18333333333333332],[0.005208333333333333,0.19074074074074074],[0.03333333333333333,0.19814814814814816],[0.06145833333333333,0.2074074074074074],[0.090625,0.2111111111111111],[0.11458333333333333,0.21481481481481482],[0.134375,0.21666666666666667],[0.14583333333333334,0.21666666666666667],[0.153125,0.21666666666666667],[0.15520833333333334,0.21666666666666667],[0.15520833333333334,0.21666666666666667],[0.15625,0.21666666666666667],[0.15729166666666666,0.21666666666666667],[0.16145833333333334,0.21666666666666667],[0.165625,0.21481481481481482],[0.16875,0.2111111111111111],[0.17291666666666666,0.20925925925925926],[0.17395833333333333,0.2074074074074074],[0.17604166666666668,0.20555555555555555],[0.17708333333333334,0.20555555555555555],[0.17708333333333334,0.2037037037037037],[0.17708333333333334,0.2037037037037037],[0.17708333333333334,0.2037037037037037],[0.17708333333333334,0.2037037037037037],[0.17708333333333334,0.2037037037037037],[0.17708333333333334,0.2037037037037037],[0.17708333333333334,0.2037037037037037],[0.17708333333333334,0.2],[0.17708333333333334,0.19814814814814816],[0.17708333333333334,0.1925925925925926],[0.17604166666666668,0.1925925925925926],[0.175,0.18888888888888888],[0.17395833333333333,0.18703703703703703],[0.17395833333333333,0.18703703703703703],[0.17395833333333333,0.18703703703703703],[0.17395833333333333,0.18703703703703703],[0.17395833333333333,0.18703703703703703],[0.17395833333333333,0.18703703703703703],[0.17395833333333333,0.18703703703703703],[0.17395833333333333,0.18703703703703703],[0.17395833333333333,0.18703703703703703],[0.17395833333333333,0.18703703703703703],[0.17395833333333333,0.18703703703703703],[0.17395833333333333,0.18703703703703703],[0.17395833333333333,0.18703703703703703],[0.17395833333333333,0.18703703703703703],[0.17395833333333333,0.18703703703703703],[0.17291666666666666,0.18703703703703703],[0.16354166666666667,0.18703703703703703],[0.13958333333333334,0.18518518518518517],[0.115625,0.17592592592592593],[0.084375,0.16666666666666666],[0.04791666666666667,0.1574074074074074],[0.022916666666666665,0.1537037037037037],[0,0.1537037037037037],[-0.011458333333333333,0.1537037037037037],[-0.014583333333333334,0.1537037037037037],[-0.015625,0.1537037037037037],[-0.016666666666666666,0.1537037037037037],[-0.017708333333333333,0.1537037037037037],[-0.017708333333333333,0.1537037037037037],[-0.019791666666666666,0.1537037037037037],[-0.020833333333333332,0.1537037037037037],[-0.023958333333333335,0.15185185185185185],[-0.023958333333333335,0.15185185185185185],[-0.026041666666666668,0.15185185185185185],[-0.027083333333333334,0.15185185185185185],[-0.029166666666666667,0.15],[-0.03125,0.15],[-0.034375,0.14814814814814814],[-0.0375,0.14814814814814814],[-0.041666666666666664,0.14814814814814814],[-0.04479166666666667,0.14814814814814814],[-0.04583333333333333,0.14814814814814814],[-0.04895833333333333,0.14629629629629629],[-0.04895833333333333,0.14629629629629629],[-0.04895833333333333,0.14629629629629629],[-0.04895833333333333,0.14629629629629629],[-0.05,0.14629629629629629],[-0.05,0.14629629629629629],[-0.05,0.14629629629629629],[-0.05,0.14629629629629629],[-0.05,0.14629629629629629],[-0.05,0.14629629629629629],[-0.05,0.14629629629629629],[-0.05,0.14629629629629629],[-0.05,0.14629629629629629],[-0.05,0.14629629629629629],[-0.05,0.14629629629629629],[-0.05,0.14629629629629629],[-0.05,0.14629629629629629],[-0.05,0.14629629629629629],[-0.05,0.14629629629629629],[-0.05,0.14629629629629629],[-0.05,0.14629629629629629],[-0.05,0.14629629629629629],[-0.05,0.14629629629629629],[-0.05,0.14629629629629629],[-0.05,0.14629629629629629],[-0.05,0.14629629629629629],[-0.05,0.14629629629629629],[-0.05,0.14629629629629629],[-0.05,0.14629629629629629],[-0.05,0.14629629629629629],[-0.05,0.14629629629629629],[-0.05,0.14444444444444443],[-0.05,0.14444444444444443],[-0.05,0.14444444444444443],[-0.05,0.14444444444444443],[-0.05,0.14444444444444443],[-0.05,0.14444444444444443],[-0.05,0.14444444444444443],[-0.05,0.14444444444444443],[-0.05,0.14444444444444443],[-0.05,0.14444444444444443],[-0.05,0.14444444444444443],[-0.05,0.14444444444444443],[-0.05,0.14444444444444443],[-0.05,0.14444444444444443],[-0.05,0.14444444444444443],[-0.05,0.14444444444444443],[-0.05,0.14444444444444443],[-0.05,0.14444444444444443],[-0.05,0.14814814814814814],[-0.05,0.14814814814814814],[-0.05,0.15],[-0.05,0.15185185185185185],[-0.05,0.1537037037037037],[-0.05,0.1537037037037037],[-0.05,0.1537037037037037],[-0.05,0.1537037037037037],[-0.05,0.15555555555555556],[-0.05,0.1574074074074074],[-0.05,0.1574074074074074],[-0.05,0.15925925925925927],[-0.05,0.15925925925925927],[-0.05,0.15925925925925927],[-0.05,0.15925925925925927],[-0.05,0.15925925925925927]]","[[0.1224999999999999,0.9264814814814814],[0.1224999999999999,0.9264814814814814],[0.1224999999999999,1.042037037037037],[0.1493750000000001,1.1698148148148149],[0.14010416666666667,1.257037037037037],[0.1345833333333334,1.2805555555555554],[0.17447916666666666,1.2905555555555557],[0.19989583333333344,1.1807407407407406],[0.21624999999999991,1.0903703703703702],[0.22854166666666675,0.918888888888889],[0.2319791666666667,0.7601851851851852],[0.24666666666666662,0.5881481481481482],[0.24614583333333329,0.4685185185185185],[0.24020833333333325,0.3479629629629629],[0.2530208333333334,0.2270370370370371],[0.2642708333333334,0.15629629629629627],[0.2504166666666668,0.11833333333333329],[0.22645833333333343,0.12611111111111115],[0.2257291666666667,0.10092592592592593],[0.2273958333333333,0.10481481481481486],[0.19729166666666675,0.12777777777777777],[0.16437499999999997,0.13555555555555565],[0.16437499999999997,0.13555555555555565],[0.1337500000000001,0.12740740740740733],[0.10822916666666677,0.1301851851851851],[0.08729166666666661,0.15833333333333333],[0.0453125,0.19592592592592584],[0.018229166666666668,0.2198148148148149],[0.011874999999999976,0.19592592592592584],[-0.002812500000000047,0.19407407407407398],[-0.025833333333333285,0.2022222222222223],[-0.011354166666666643,0.20388888888888893],[0.003125,0.20555555555555555],[0.0017708333333333807,0.2338888888888888],[0.029270833333333357,0.22666666666666663],[0.022812499999999975,0.24648148148148152],[0.041666666666666664,0.2631481481481482],[0.06510416666666667,0.26055555555555565],[0.0421875,0.28851851851851845],[0.02354166666666669,0.29685185185185176],[0.030729166666666665,0.27240740740740743],[0.033854166666666664,0.23574074074074067],[0.03197916666666671,0.23148148148148148],[0.04364583333333331,0.21648148148148144],[0.01395833333333331,0.22111111111111106],[0.043437500000000046,0.20722222222222217],[0.042916666666666714,0.18259259259259264],[0.04802083333333336,0.1581481481481481],[0.07218749999999995,0.1331481481481481],[0.08333333333333333,0.13148148148148148],[0.08333333333333333,0.13148148148148148],[0.0671875,0.15555555555555556],[0.0671875,0.15555555555555556],[0.06499999999999997,0.17833333333333326],[0.06333333333333328,0.1985185185185186],[0.06333333333333328,0.1985185185185186],[0.05916666666666662,0.2162962962962962],[0.05916666666666662,0.2162962962962962],[0.0834374999999999,0.22018518518518515],[0.0834374999999999,0.22018518518518515],[0.07593750000000009,0.2192592592592592],[0.06739583333333338,0.22870370370370371],[0.07239583333333334,0.21648148148148144],[0.0696875000000001,0.2242592592592593],[0.07999999999999995,0.25037037037037047],[0.08604166666666657,0.2814814814814815],[0.0865624999999999,0.30999999999999994],[0.08489583333333334,0.3109259259259259],[0.07843749999999995,0.30759259259259264],[0.06468750000000002,0.3079629629629629],[0.06468750000000002,0.3079629629629629],[0.04041666666666662,0.3127777777777777],[0.019687499999999976,0.36944444444444446],[0.0017708333333333807,0.3761111111111112],[-0.0020833333333333333,0.37518518518518523],[-0.010208333333333286,0.3522222222222223],[-0.019479166666666714,0.3274074074074073],[-0.04656250000000005,0.293888888888889],[-0.06677083333333336,0.2581481481481481],[-0.06677083333333336,0.2581481481481481],[-0.06114583333333338,0.2168518518518519],[-0.07854166666666665,0.19685185185185178],[-0.08552083333333335,0.18574074074074065],[-0.07281249999999997,0.10851851851851856],[-0.07270833333333329,0.0955555555555556],[-0.08322916666666665,0.12148148148148152],[-0.09354166666666662,0.11129629629629634],[-0.07885416666666671,0.08722222222222227],[-0.06145833333333333,0.11537037037037029],[-0.059375,0.13925925925925933],[-0.07281249999999997,0.18296296296296288],[-0.07697916666666664,0.2205555555555556],[-0.04614583333333329,0.17796296296296302],[-0.025312499999999953,0.14148148148148143],[-0.027291666666666714,0.12148148148148152],[-0.017083333333333308,0.06481481481481481],[0.0005208333333333333,0.04314814814814806],[0.0005208333333333333,0.04314814814814806],[0.0003124999999999526,0.03129629629629625],[-0.0015625,-0.018703703703703747],[-0.0015625,-0.018703703703703747],[0.005104166666666643,-0.04666666666666675],[0.009895833333333333,-0.0764814814814815],[0.013125000000000024,-0.1081481481481481],[-0.011979166666666667,-0.07666666666666662],[-0.033958333333333354,-0.05759259259259263],[-0.021041666666666715,-0.06425925925925924],[-0.010520833333333358,-0.044999999999999915],[-0.03135416666666669,-0.01055555555555564],[-0.049583333333333354,0.024814814814814772],[-0.05697916666666671,0.062037037037037036],[-0.05697916666666671,0.062037037037037036],[-0.051874999999999956,0.06351851851851843],[-0.052187500000000026,0.06648148148148143],[-0.04572916666666664,0.07351851851851861],[-0.03927083333333338,0.08055555555555556],[-0.03093750000000005,0.07777777777777778],[-0.03843749999999998,0.09166666666666666],[-0.05333333333333338,0.11351851851851844],[-0.04041666666666662,0.1007407407407407],[-0.03812500000000003,0.07555555555555547],[-0.03999999999999997,0.04666666666666675],[-0.05145833333333331,0.05259259259259255],[-0.058645833333333286,0.05129629629629638],[-0.06458333333333334,0.02833333333333325],[-0.06458333333333334,0.02833333333333325],[-0.07052083333333338,0.005370370370370328],[-0.08562500000000005,-0.002407407407407323],[-0.10072916666666672,-0.010185185185185186],[-0.10072916666666672,-0.010185185185185186],[-0.08187500000000002,-0.02296296296296292],[-0.06708333333333331,-0.040370370370370286],[-0.0453125,-0.05333333333333336],[-0.022500000000000023,-0.05],[-0.002708333333333357,-0.040740740740740744],[0.017083333333333308,-0.03148148148148148],[0.029999999999999954,-0.003333333333333249],[0.042916666666666714,0.024814814814814772],[0.049791666666666616,0.07592592592592592],[0.05697916666666671,0.12759259259259256],[0.05333333333333338,0.144074074074074],[0.049687500000000044,0.18574074074074065],[0.041979166666666616,0.22814814814814824],[0.03208333333333328,0.27444444444444455],[0.04354166666666662,0.27037037037037037],[0.04354166666666662,0.27037037037037037],[0.04833333333333331,0.2905555555555555],[0.05770833333333331,0.3248148148148148],[0.06104166666666669,0.334074074074074],[0.07458333333333324,0.3274074074074073],[0.07458333333333324,0.3274074074074073],[0.08510416666666672,0.31796296296296306],[0.0962500000000001,0.2905555555555555],[0.09510416666666661,0.2788888888888889],[0.11541666666666663,0.23870370370370367],[0.12354166666666658,0.20314814814814824],[0.1053124999999999,0.21999999999999992],[0.09375,0.2125925925925925],[0.08270833333333343,0.1801851851851851],[0.07770833333333324,0.1727777777777777],[0.07895833333333328,0.16962962962962966],[0.08291666666666657,0.16870370370370374],[0.06437499999999995,0.28592592592592586],[0.06572916666666669,0.3633333333333334],[0.033645833333333285,0.5033333333333333],[0.02020833333333331,0.5924074074074074],[0.03166666666666664,0.6807407407407408],[0.05458333333333331,0.7522222222222223],[0.06875,0.8464814814814815],[0.06875,0.8464814814814815],[0.06854166666666663,0.962037037037037],[0.057291666666666664,1.0683333333333336],[0.057291666666666664,1.0683333333333336],[0.07270833333333329,1.075],[0.09718749999999995,0.9605555555555556],[0.09718749999999995,0.9605555555555556],[0.10625,0.852037037037037],[0.10625,0.852037037037037],[0.12302083333333323,0.7105555555555556],[0.13875000000000004,0.5900000000000001],[0.14187500000000006,0.4644444444444444],[0.13354166666666673,0.3557407407407408],[0.12177083333333343,0.22666666666666663],[0.1290625000000001,0.08092592592592601],[0.12406249999999991,-0.01722222222222214],[0.09239583333333339,-0.01574074074074074],[0.07000000000000005,0.004814814814814857],[0.05541666666666671,0.04351851851851852],[0.03250000000000005,0.07685185185185185],[0.018333333333333358,0.122037037037037],[-0.010104166666666714,0.1603703703703704],[-0.027499999999999976,0.16944444444444445],[-0.03156249999999995,0.20111111111111116],[-0.03968750000000002,0.2155555555555555],[-0.03968750000000002,0.2161111111111112],[-0.03968750000000002,0.21666666666666667],[-0.028541666666666642,0.17407407407407408],[-0.01895833333333338,0.17462962962962955],[0.0012500000000000473,0.1685185185185185],[0.008437500000000023,0.1557407407407408],[0.01427083333333338,0.11611111111111119],[0.02687499999999995,0.0868518518518518],[0.033645833333333285,0.04407407407407399],[0.035104166666666714,0.03092592592592601],[0.04552083333333338,-0.010925925925925884],[0.05593750000000005,-0.05277777777777778],[0.03114583333333331,-0.05055555555555547],[0.00791666666666669,-0.09148148148148144],[-0.01427083333333338,-0.10444444444444441],[-0.04083333333333338,-0.11277777777777774],[-0.06270833333333338,-0.1175925925925926],[-0.10239583333333328,-0.10351851851851848],[-0.14427083333333332,-0.06648148148148143],[-0.171875,-0.06277777777777774],[-0.2046875,-0.040370370370370286],[-0.2375,-0.01796296296296305],[-0.2517708333333334,0.010370370370370412],[-0.28958333333333336,0.0625925925925925],[-0.3055208333333333,0.06018518518518518],[-0.3055208333333333,0.06018518518518518],[-0.3186458333333333,0.05092592592592592],[-0.31968749999999996,0.08092592592592601],[-0.3139583333333333,0.08759259259259251],[-0.29802083333333335,0.06518518518518526],[-0.2991666666666667,0.06999999999999991],[-0.30020833333333335,0.07240740740740745],[-0.2952083333333333,0.06666666666666667],[-0.26197916666666665,0.051666666666666625],[-0.20520833333333333,0.012777777777777735],[-0.1642708333333334,0.01777777777777782],[-0.12208333333333338,0.04759259259259268],[-0.08572916666666662,0.03555555555555564],[-0.06645833333333329,0.06574074074074074],[-0.04750000000000002,0.07518518518518523],[-0.008645833333333287,0.07259259259259268],[0.035312499999999976,0.053703703703703705],[0.07770833333333324,0.04148148148148144],[0.08760416666666657,0.03981481481481482],[0.06604166666666664,0.08000000000000008],[0.075,0.09074074074074075],[0.07010416666666662,0.06333333333333342],[0.06927083333333334,0.049629629629629544],[0.08666666666666671,0.0257407407407407],[0.09635416666666667,0.028703703703703703],[0.10395833333333329,0.007592592592592635],[0.09958333333333323,0.016851851851851896],[0.08333333333333333,0.03611111111111111],[0.05281250000000005,0.07259259259259268],[0.05666666666666664,0.05314814814814823],[0.05666666666666664,0.05314814814814823],[0.04624999999999998,0.054074074074074156],[0.028541666666666642,0.08888888888888889],[0.01083333333333331,0.12370370370370362],[-0.014791666666666713,0.14981481481481476],[-0.013125000000000024,0.15166666666666662],[-0.02177083333333331,0.1787037037037037],[-0.022916666666666665,0.19499999999999992],[-0.016666666666666666,0.20277777777777778],[0.006666666666666643,0.1881481481481482],[0.027083333333333334,0.1875925925925925],[0.03302083333333338,0.19092592592592597],[0.04885416666666664,0.1983333333333334],[0.06072916666666662,0.20555555555555555],[0.078125,0.20259259259259255],[0.07718749999999991,0.205925925925926],[0.07625000000000005,0.20925925925925926],[0.07843749999999995,0.20481481481481487],[0.0806250000000001,0.20037037037037045],[0.08864583333333324,0.19666666666666674],[0.09666666666666662,0.19296296296296306],[0.1046875,0.20574074074074078],[0.12427083333333329,0.19611111111111107],[0.1404166666666666,0.19388888888888897],[0.16072916666666662,0.17462962962962955],[0.16906249999999995,0.17388888888888884],[0.15885416666666666,0.18611111111111112],[0.14677083333333343,0.18111111111111103],[0.13468749999999996,0.17611111111111116],[0.0703125,0.1977777777777777],[0.00947916666666669,0.22888888888888892],[-0.04541666666666669,0.21962962962962967],[-0.10249999999999998,0.20611111111111102],[-0.1452083333333333,0.2094444444444445],[-0.19760416666666672,0.24000000000000005],[-0.25270833333333337,0.24611111111111106],[-0.28927083333333337,0.23925925925925934],[-0.32093750000000004,0.24000000000000005],[-0.35260416666666666,0.24074074074074073],[-0.3260416666666667,0.23074074074074077],[-0.3260416666666667,0.23074074074074077],[-0.3030208333333333,0.21129629629629634],[-0.3030208333333333,0.21129629629629634],[-0.2955208333333334,0.21962962962962967],[-0.2955208333333334,0.21962962962962967],[-0.2579166666666667,0.2044444444444444],[-0.2579166666666667,0.2044444444444444],[-0.23468749999999997,0.16203703703703703],[-0.23468749999999997,0.16203703703703703],[-0.21291666666666664,0.11314814814814819],[-0.21291666666666664,0.11314814814814819],[-0.1875,0.11166666666666658],[-0.16208333333333336,0.11018518518518519],[-0.13656250000000003,0.09537037037037037],[-0.12541666666666665,0.09240740740740737],[-0.1330208333333334,0.08296296296296288],[-0.140625,0.07351851851851861],[-0.13989583333333327,0.07574074074074069],[-0.15,0.07907407407407416],[-0.14343750000000005,0.0764814814814814],[-0.13541666666666666,0.08037037037037033],[-0.13958333333333334,0.06611111111111119],[-0.14375,0.05185185185185185],[-0.13218749999999999,0.08129629629629626],[-0.09635416666666667,0.08944444444444435],[-0.058124999999999954,0.11925925925925922],[-0.019895833333333356,0.14907407407407408],[0.02635416666666662,0.12462962962962955],[0.0578125,0.1346296296296297],[0.08156249999999995,0.1675925925925926],[0.10947916666666657,0.19129629629629621],[0.14177083333333323,0.2183333333333333],[0.15760416666666663,0.2490740740740741],[0.16760416666666675,0.22240740740740744],[0.13385416666666666,0.21351851851851844],[0.10187499999999995,0.17796296296296302],[0.06989583333333324,0.14240740740740737],[0.024479166666666666,0.13222222222222219],[-0.02322916666666662,0.11425925925925934],[-0.07666666666666669,0.1037037037037037],[-0.07666666666666669,0.1037037037037037],[-0.13635416666666664,0.11888888888888897],[-0.18947916666666664,0.10666666666666672],[-0.21479166666666671,0.09259259259259259],[-0.26916666666666667,0.13333333333333333],[-0.27156250000000004,0.13629629629629633],[-0.27395833333333336,0.13925925925925933],[-0.2794791666666666,0.13666666666666658],[-0.28010416666666665,0.15259259259259256],[-0.27708333333333335,0.15333333333333324],[-0.29333333333333333,0.17240740740740745],[-0.29333333333333333,0.17240740740740745],[-0.28802083333333334,0.1685185185185185],[-0.2695833333333333,0.14981481481481476],[-0.28666666666666674,0.1712962962962963],[-0.28635416666666663,0.16277777777777774],[-0.29958333333333337,0.1603703703703704],[-0.29802083333333335,0.15018518518518523],[-0.29500000000000004,0.15166666666666662],[-0.2919791666666666,0.15314814814814823],[-0.2998958333333333,0.20185185185185187],[-0.2960416666666667,0.1935185185185185],[-0.3,0.18185185185185193],[-0.3223958333333333,0.2074074074074074],[-0.32062499999999994,0.19092592592592597],[-0.2938541666666667,0.1698148148148149],[-0.2833333333333333,0.17685185185185184],[-0.29229166666666667,0.16870370370370374],[-0.29958333333333337,0.1544444444444444],[-0.29,0.144074074074074],[-0.27312500000000006,0.10166666666666663],[-0.2247916666666666,0.06740740740740736],[-0.2247916666666666,0.06740740740740736],[-0.21781250000000002,0.05814814814814811],[-0.18135416666666668,0.014814814814814815],[-0.16333333333333327,-0.024074074074074074],[-0.14093749999999997,-0.030555555555555555],[-0.10218750000000003,-0.0005555555555554713],[-0.10218750000000003,-0.0005555555555554713],[-0.04562499999999995,0.0507407407407407],[0.01260416666666669,0.10555555555555556],[0.01260416666666669,0.10555555555555556],[0.057604166666666616,0.15555555555555556],[0.10437500000000005,0.1935185185185185],[0.13135416666666658,0.24074074074074073],[0.18541666666666667,0.2540740740740742],[0.21864583333333343,0.2977777777777777],[0.26802083333333326,0.3596296296296297],[0.28958333333333336,0.3861111111111111],[0.3055208333333333,0.3792592592592592],[0.3055208333333333,0.3792592592592592],[0.27541666666666675,0.33666666666666656],[0.2490624999999999,0.3235185185185186],[0.2205208333333334,0.3012962962962964],[0.1953125,0.2905555555555555],[0.17708333333333334,0.2512962962962964],[0.16437499999999997,0.21999999999999992],[0.13541666666666666,0.21648148148148144],[0.1256249999999999,0.1853703703703704],[0.09812500000000005,0.13037037037037033],[0.09812500000000005,0.13037037037037033],[0.07156250000000004,0.06740740740740736],[0.0626041666666667,0.11518518518518527],[0.03968750000000002,0.11999999999999991],[0.025729166666666713,0.09888888888888885],[0.006666666666666643,0.07833333333333325],[-0.013437499999999976,0.07222222222222222],[-0.030312500000000023,0.10407407407407415],[-0.03093750000000005,0.1081481481481481],[-0.057395833333333354,0.08629629629629634],[-0.06770833333333333,0.09592592592592585],[-0.07010416666666662,0.12685185185185185],[-0.06364583333333336,0.08888888888888889],[-0.035208333333333286,0.040740740740740744],[-0.035208333333333286,0.040740740740740744],[-0.0171875,0.028518518518518478],[-0.009687499999999953,-0.0025925925925925505],[0.002395833333333286,0.03981481481481482],[-0.00635416666666669,0.03166666666666671],[-0.01572916666666669,0.006481481481481481],[-0.01572916666666669,0.006481481481481481],[-0.016145833333333335,0.012222222222222264],[-0.016145833333333335,0.012222222222222264],[-0.009687499999999953,0.028703703703703703],[-0.009687499999999953,0.028703703703703703],[-0.015312500000000047,-0.008333333333333333],[-0.015312500000000047,-0.008333333333333333],[-0.016145833333333335,-0.03481481481481473],[-0.016145833333333335,-0.03481481481481473],[-0.03302083333333338,-0.04870370370370362],[-0.03302083333333338,-0.04870370370370362],[-0.03677083333333329,-0.05351851851851848],[-0.03677083333333329,-0.05351851851851848],[-0.029999999999999954,-0.03944444444444436],[-0.029999999999999954,-0.03944444444444436],[-0.03958333333333333,-0.05851851851851856],[-0.03958333333333333,-0.05851851851851856],[-0.036458333333333336,-0.04981481481481477],[-0.036458333333333336,-0.04981481481481477],[-0.02364583333333338,-0.030740740740740784],[-0.02364583333333338,-0.030740740740740784],[-0.01604166666666664,0.006666666666666709],[-0.01604166666666664,0.006666666666666709],[-0.018437500000000048,0.030000000000000086],[-0.0296875,0.08499999999999996],[-0.009062500000000048,0.10425925925925918],[0.01416666666666669,0.13111111111111104],[0.027083333333333334,0.16407407407407412],[0.025520833333333333,0.19388888888888897],[0.03875000000000005,0.18555555555555564],[0.06489583333333329,0.1398148148148148],[0.08197916666666671,0.1007407407407407],[0.07989583333333337,0.07296296296296292],[0.08093750000000005,0.0485185185185186],[0.090625,0.030555555555555555],[0.07010416666666662,0.03333333333333333],[0.07291666666666667,0.018148148148148063],[0.08572916666666662,-0.028703703703703703],[0.0974999999999999,-0.05796296296296299],[0.1125,-0.07907407407407405],[0.1125,-0.07907407407407405],[0.10718750000000009,-0.062037037037037036],[0.08854166666666667,-0.046296296296296294],[0.11489583333333328,-0.06703703703703702],[0.1412499999999999,-0.08777777777777773],[0.16375000000000003,-0.1051851851851852],[0.1877083333333334,-0.10166666666666663],[0.19000000000000009,-0.11518518518518517],[0.1772916666666667,-0.11777777777777781],[0.1805208333333333,-0.11259259259259262],[0.18416666666666662,-0.10833333333333334],[0.17916666666666667,-0.10537037037037032],[0.1929166666666667,-0.11703703703703702],[0.17999999999999997,-0.1190740740740741],[0.16906249999999995,-0.10925925925925926],[0.16958333333333328,-0.11814814814814817],[0.17177083333333343,-0.1412962962962963],[0.17229166666666676,-0.1294444444444444],[0.17218749999999997,-0.10314814814814813],[0.1716666666666666,-0.09907407407407408],[0.16458333333333333,-0.09851851851851849],[0.18229166666666666,-0.13240740740740742],[0.19458333333333327,-0.15037037037037035],[0.19302083333333328,-0.1624074074074074],[0.18947916666666675,-0.18629629629629635],[0.18947916666666675,-0.2064814814814815],[0.18635416666666677,-0.23333333333333334],[0.1868750000000001,-0.25574074074074077],[0.18718750000000003,-0.2822222222222222],[0.18802083333333333,-0.3024074074074074],[0.1828125,-0.31444444444444447],[0.17708333333333334,-0.2905555555555555],[0.17135416666666667,-0.26666666666666666],[0.18791666666666676,-0.2572222222222222],[0.18791666666666676,-0.2572222222222222],[0.20447916666666663,-0.2477777777777778],[0.20447916666666663,-0.2477777777777778],[0.18718750000000003,-0.11074074074074076],[0.14291666666666672,0.06444444444444436],[0.08677083333333328,0.2542592592592592],[0.051041666666666666,0.44000000000000006],[0.015416666666666618,0.6037037037037037],[-0.009687499999999953,0.759074074074074],[-0.042708333333333334,0.9157407407407407],[-0.07906249999999998,1.0725925925925928],[-0.10885416666666667,1.1288888888888888],[-0.13635416666666664,1.1879629629629629],[-0.13833333333333328,1.057037037037037],[-0.12239583333333333,0.8907407407407407],[-0.09583333333333334,0.7105555555555556],[-0.08666666666666671,0.5296296296296297],[-0.06812499999999998,0.3668518518518519],[-0.058958333333333356,0.22111111111111106],[-0.041666666666666664,0.03629629629629634],[-0.021041666666666715,-0.14870370370370373],[-0.02322916666666662,-0.21296296296296297],[-0.029895833333333382,-0.27740740740740744],[-0.03708333333333336,-0.2838888888888889],[-0.035208333333333286,-0.29314814814814816],[-0.024791666666666618,-0.2868518518518518],[-0.014374999999999952,-0.2801851851851852],[-0.015416666666666618,-0.2735185185185185],[-0.042812500000000024,-0.27240740740740743],[-0.07916666666666666,-0.24462962962962967],[-0.10062500000000002,-0.24111111111111108],[-0.11322916666666671,-0.24074074074074073],[-0.14114583333333333,-0.2257407407407407],[-0.16656249999999997,-0.1977777777777778],[-0.19197916666666662,-0.1698148148148148],[-0.22937500000000005,-0.1844444444444445],[-0.25968749999999996,-0.20277777777777778],[-0.28406250000000005,-0.202962962962963],[-0.28406250000000005,-0.202962962962963],[-0.2842708333333333,-0.2059259259259259],[-0.2842708333333333,-0.2059259259259259],[-0.27229166666666665,-0.2205555555555556],[-0.3064583333333334,-0.16129629629629633],[-0.3445833333333333,-0.09833333333333337],[-0.35958333333333337,-0.05888888888888891],[-0.3441666666666666,-0.10018518518518522],[-0.3298958333333334,-0.12740740740740744],[-0.3146875,-0.10555555555555556],[-0.30656249999999996,-0.08037037037037033],[-0.3134375,-0.07666666666666662],[-0.31927083333333334,-0.07333333333333338],[-0.35989583333333336,-0.01629629629629621],[-0.35989583333333336,-0.01629629629629621],[-0.3820833333333333,-0.06018518518518518],[-0.3985416666666667,-0.1455555555555556],[-0.42312500000000003,-0.22851851851851848],[-0.48760416666666667,-0.2227777777777778],[-0.5248958333333333,-0.2574074074074074],[-0.5248958333333333,-0.2574074074074074],[-0.5620833333333334,-0.31925925925925924],[-0.5620833333333334,-0.31925925925925924],[-0.6277083333333333,-0.34592592592592597],[-0.6277083333333333,-0.34592592592592597],[-0.6761458333333333,-0.38203703703703706],[-0.6761458333333333,-0.38203703703703706],[-0.7325,-0.42611111111111116],[-0.7325,-0.42611111111111116],[-0.7569791666666668,-0.5140740740740741],[-0.7569791666666668,-0.5140740740740741],[-0.7615625,-0.5244444444444444],[-0.7615625,-0.5244444444444444],[-0.7697916666666667,-0.5140740740740741],[-0.7697916666666667,-0.5140740740740741],[-0.7116666666666667,-0.45925925925925926],[-0.7116666666666667,-0.45925925925925926],[-0.6625,-0.4020370370370371],[-0.6625,-0.4020370370370371],[-0.604375,-0.3301851851851852],[-0.604375,-0.3301851851851852],[-0.5726041666666667,-0.2733333333333334],[-0.5726041666666667,-0.2733333333333334],[-0.52375,-0.21351851851851855],[-0.4815625,-0.14333333333333328],[-0.43416666666666665,-0.08333333333333333],[-0.3920833333333333,-0.012777777777777735],[-0.3570833333333333,0.04722222222222222],[-0.31520833333333337,0.11296296296296296],[-0.32916666666666666,0.1242592592592593],[-0.30354166666666665,0.10555555555555556],[-0.34656250000000005,0.13962962962962958],[-0.3544791666666666,0.15240740740740732],[-0.36687500000000006,0.1712962962962963],[-0.38229166666666664,0.1881481481481482],[-0.4,0.2338888888888888],[-0.4241666666666667,0.2887037037037037],[-0.4482291666666666,0.33537037037037043],[-0.47229166666666667,0.38203703703703695],[-0.4979166666666667,0.4398148148148148],[-0.5451041666666666,0.5144444444444444],[-0.5549999999999999,0.5368518518518518],[-0.5549999999999999,0.5368518518518518],[-0.5753125,0.5644444444444444],[-0.5677083333333334,0.5514814814814814],[-0.5570833333333333,0.5405555555555556],[-0.496875,0.4759259259259259],[-0.43166666666666664,0.3992592592592593],[-0.36656249999999996,0.31500000000000006],[-0.30625,0.2540740740740742],[-0.23875000000000005,0.19148148148148145],[-0.2007291666666667,0.13703703703703704],[-0.1515625,0.09092592592592597],[-0.10562499999999998,0.06925925925925921],[-0.07124999999999998,0.03629629629629634],[-0.027083333333333334,0.01185185185185181],[-0.027499999999999976,0.03037037037037033],[-0.05375000000000003,0.062037037037037036],[-0.07999999999999995,0.09370370370370375],[-0.08656250000000003,0.08666666666666659],[-0.10677083333333333,0.08407407407407404],[-0.07489583333333331,0.05388888888888893],[-0.0578125,0.026481481481481398],[-0.04708333333333338,0.02962962962962963],[-0.06593749999999995,0.06722222222222214],[-0.06041666666666667,0.05759259259259263],[-0.08802083333333334,0.08629629629629634],[-0.06854166666666663,0.09962962962962954],[-0.04604166666666672,0.09537037037037037],[-0.03843749999999998,0.10648148148148148],[-0.03791666666666664,0.13148148148148148],[-0.060000000000000026,0.17592592592592593],[-0.08208333333333329,0.22037037037037038],[-0.09333333333333335,0.2125925925925925],[-0.07645833333333331,0.17481481481481478],[-0.0921875,0.19499999999999992],[-0.07479166666666662,0.17685185185185184],[-0.06302083333333333,0.14759259259259266],[-0.05427083333333336,0.1359259259259259],[-0.06343749999999998,0.1425925925925926],[-0.04500000000000005,0.11351851851851844],[-0.042499999999999954,0.10388888888888893],[-0.029791666666666692,0.09000000000000004],[-0.03114583333333331,0.12833333333333324],[-0.03156249999999995,0.1698148148148149],[-0.03937499999999995,0.17814814814814822],[-0.04718749999999995,0.18648148148148155],[-0.059375,0.20462962962962963],[-0.07156250000000004,0.22277777777777769],[-0.07104166666666671,0.24092592592592596],[-0.10760416666666663,0.25574074074074077],[-0.1282291666666667,0.2511111111111112],[-0.1282291666666667,0.2511111111111112],[-0.16822916666666668,0.24537037037037038],[-0.20020833333333338,0.2624074074074075],[-0.22999999999999995,0.2598148148148147],[-0.2539583333333333,0.2711111111111111],[-0.26677083333333335,0.2564814814814815],[-0.29708333333333337,0.2603703703703704],[-0.3232291666666666,0.27444444444444455],[-0.3441666666666666,0.27018518518518514],[-0.34354166666666663,0.37962962962962965],[-0.34052083333333333,0.49444444444444446],[-0.3090625000000001,0.6370370370370371],[-0.26625000000000004,0.7264814814814814],[-0.2265625,0.8201851851851851],[-0.18687499999999999,0.9138888888888889],[-0.17562500000000003,1.0646296296296298],[-0.17562500000000003,1.0646296296296298],[-0.15812499999999996,1.2003703703703705],[-0.1313541666666667,1.2511111111111108],[-0.1313541666666667,1.2511111111111108],[-0.11041666666666666,1.2425925925925927],[-0.10552083333333329,1.142962962962963],[-0.11312500000000002,1.0209259259259258],[-0.13999999999999999,0.8764814814814814],[-0.17052083333333337,0.7435185185185185],[-0.2001041666666667,0.6259259259259259],[-0.23270833333333332,0.5168518518518519],[-0.24802083333333336,0.37666666666666665],[-0.2633333333333333,0.23648148148148157],[-0.2951041666666666,0.1698148148148149],[-0.2951041666666666,0.1698148148148149],[-0.3210416666666667,0.1624074074074075],[-0.32302083333333337,0.14222222222222214],[-0.31312500000000004,0.1492592592592593],[-0.3032291666666667,0.15629629629629627],[-0.3090625000000001,0.16999999999999993],[-0.31489583333333326,0.18370370370370379],[-0.3229166666666667,0.20018518518518522],[-0.33093750000000005,0.21666666666666667],[-0.33093750000000005,0.21666666666666667],[-0.3282291666666667,0.21870370370370373],[-0.3282291666666667,0.21870370370370373],[-0.32781250000000006,0.2390740740740741],[-0.32781250000000006,0.2390740740740741],[-0.29791666666666666,0.21092592592592588],[-0.29791666666666666,0.21092592592592588],[-0.2755208333333333,0.2140740740740741],[-0.2755208333333333,0.2140740740740741],[-0.2439583333333334,0.20611111111111102],[-0.2439583333333334,0.20611111111111102],[-0.21927083333333333,0.16999999999999993],[-0.21927083333333333,0.16999999999999993],[-0.17979166666666668,0.11555555555555551],[-0.17979166666666668,0.11555555555555551],[-0.14156249999999998,0.0588888888888888],[-0.14156249999999998,0.0588888888888888],[-0.10333333333333337,-0.01055555555555564],[-0.10333333333333337,-0.01055555555555564],[-0.058645833333333286,-0.04666666666666675],[-0.058645833333333286,-0.04666666666666675],[-0.0171875,-0.0933333333333333],[0.019895833333333356,-0.18129629629629626],[0.019895833333333356,-0.18129629629629626],[0.027499999999999976,-0.2207407407407407],[0.04864583333333338,-0.2383333333333333],[0.05447916666666662,-0.22037037037037038],[0.0671875,-0.1742592592592593],[0.05625,-0.11888888888888886],[0.08197916666666671,-0.08537037037037042],[0.11291666666666676,-0.050370370370370454],[0.11291666666666676,-0.050370370370370454],[0.11895833333333337,-0.07240740740740745],[0.11895833333333337,-0.07240740740740745],[0.1131249999999999,-0.07314814814814814],[0.10135416666666662,-0.008703703703703788],[0.11572916666666658,0.01796296296296305],[0.11114583333333337,0.006851851851851936],[0.09520833333333342,-0.0301851851851851],[0.07927083333333323,-0.06722222222222224],[0.10572916666666667,-0.10833333333333334],[0.09677083333333343,-0.12537037037037035],[0.08760416666666657,-0.13092592592592592],[0.09541666666666657,-0.13092592592592592],[0.10750000000000005,-0.11648148148148144],[0.11104166666666657,-0.1301851851851852],[0.13739583333333344,-0.15037037037037035],[0.16375000000000003,-0.1705555555555556],[0.19135416666666671,-0.19962962962962966],[0.19135416666666671,-0.19962962962962966],[0.2189583333333334,-0.22870370370370371],[0.215625,-0.24018518518518517],[0.22843749999999996,-0.24240740740740738],[0.24145833333333327,-0.2561111111111111],[0.25760416666666663,-0.23962962962962958],[0.25760416666666663,-0.23962962962962958],[0.2755208333333333,-0.24259259259259258],[0.2929166666666667,-0.24888888888888885],[0.27468750000000003,-0.20333333333333337],[0.24749999999999991,-0.19166666666666668],[0.23479166666666676,-0.17981481481481484],[0.22208333333333338,-0.16796296296296295],[0.22208333333333338,-0.16796296296296295],[0.2243750000000001,-0.14351851851851852],[0.20645833333333338,-0.1427777777777778],[0.18854166666666666,-0.14203703703703702],[0.16437499999999997,-0.15999999999999995],[0.13760416666666658,-0.15777777777777777],[0.13760416666666658,-0.15777777777777777],[0.14322916666666666,-0.17925925925925928],[0.14593749999999991,-0.22833333333333336],[0.15760416666666663,-0.24351851851851852],[0.13385416666666666,-0.2651851851851852],[0.11010416666666671,-0.2868518518518518],[0.11010416666666671,-0.2868518518518518],[0.0865624999999999,-0.32111111111111107],[0.07114583333333328,-0.3483333333333334],[0.05572916666666667,-0.3755555555555556],[0.013437499999999976,-0.33611111111111114],[0.013437499999999976,-0.33611111111111114],[0.022291666666666644,-0.3248148148148148],[-0.016250000000000025,-0.3466666666666666],[-0.03989583333333328,-0.3277777777777778],[-0.06760416666666665,-0.285],[-0.059895833333333336,-0.23574074074074075],[-0.052187500000000026,-0.18648148148148147],[-0.06635416666666671,-0.15907407407407403],[-0.07770833333333335,-0.10722222222222218],[-0.09427083333333333,-0.08648148148148146],[-0.09427083333333333,-0.08648148148148146],[-0.07302083333333335,-0.11259259259259262],[-0.07302083333333335,-0.11259259259259262],[-0.09927083333333328,-0.11555555555555551],[-0.09927083333333328,-0.11555555555555551],[-0.08562500000000005,-0.07666666666666662],[-0.13572916666666662,0.0016666666666666245],[-0.18708333333333335,0.057777777777777865],[-0.1889583333333333,0.0455555555555556],[-0.18708333333333335,0.040740740740740744],[-0.16666666666666666,0.041666666666666664],[-0.1408333333333334,-0.01777777777777782],[-0.10979166666666665,-0.04611111111111107],[-0.10656249999999995,-0.05092592592592592],[-0.09958333333333336,-0.0764814814814815],[-0.09281250000000002,-0.09648148148148153],[-0.04552083333333338,-0.16351851851851854],[0.007083333333333286,-0.2322222222222222],[0.009791666666666643,-0.2264814814814815],[0.007083333333333286,-0.24018518518518517],[0.004375000000000047,-0.25388888888888894],[-0.019895833333333356,-0.20925925925925926],[-0.044166666666666646,-0.1646296296296296],[-0.027291666666666714,-0.1514814814814815],[-0.03270833333333331,-0.1235185185185185],[-0.01885416666666669,-0.1346296296296296],[-0.019895833333333356,-0.1307407407407408],[-0.006666666666666643,-0.15925925925925927],[0.006979166666666714,-0.19388888888888886],[0.02041666666666669,-0.19500000000000003],[0.033645833333333285,-0.19444444444444445],[0.04052083333333331,-0.1948148148148148],[0.04052083333333331,-0.1948148148148148],[0.04739583333333333,-0.19518518518518516],[0.034895833333333334,-0.21851851851851853],[0.05656249999999995,-0.22481481481481477],[0.058958333333333356,-0.192037037037037],[0.06135416666666664,-0.18370370370370367],[0.050833333333333286,-0.1581481481481481],[0.04031250000000005,-0.13259259259259262],[0.043229166666666666,-0.15777777777777777],[0.0328125,-0.16222222222222227],[0.03302083333333338,-0.1574074074074074],[0.03135416666666669,-0.15629629629629627],[0.03135416666666669,-0.15629629629629627],[0.033645833333333285,-0.15499999999999997],[0.033645833333333285,-0.15499999999999997],[0.00458333333333331,-0.1648148148148148],[0.00458333333333331,-0.1648148148148148],[-0.019895833333333356,-0.17296296296296293],[-0.019895833333333356,-0.17296296296296293],[-0.025312499999999953,-0.2081481481481481],[-0.025312499999999953,-0.2081481481481481],[-0.03781249999999995,-0.20981481481481484],[-0.03781249999999995,-0.20981481481481484],[-0.04468749999999998,-0.1977777777777778],[-0.071875,-0.16722222222222224],[-0.07614583333333336,-0.16129629629629633],[-0.07541666666666665,-0.1787037037037037],[-0.07749999999999997,-0.18666666666666668],[-0.08385416666666666,-0.17629629629629628],[-0.06677083333333336,-0.18666666666666668],[-0.06677083333333336,-0.18666666666666668],[-0.05677083333333333,-0.1955555555555556],[-0.04822916666666662,-0.17592592592592593],[-0.04135416666666671,-0.17314814814814813],[-0.04031250000000005,-0.1655555555555555],[-0.030520833333333285,-0.14722222222222223],[-0.03166666666666664,-0.125],[-0.021562500000000047,-0.12537037037037035],[-0.017916666666666713,-0.12777777777777777],[-0.01416666666666669,-0.11777777777777781],[-0.020833333333333332,-0.09351851851851851],[-0.04729166666666664,-0.07907407407407405],[-0.07854166666666665,-0.06981481481481479],[-0.11479166666666671,-0.042407407407407366],[-0.11479166666666671,-0.042407407407407366]]","[[0.1224999999999999,0.9264814814814814,0.00020000028609956644],[0.1224999999999999,0.9264814814814814,0.05070000028609911],[0.1224999999999999,1.042037037037037,0.062400000095365726],[0.1493750000000001,1.1698148148148149,0.07730000019073202],[0.14010416666666667,1.257037037037037,0.09370000028610548],[0.1345833333333334,1.2805555555555554,0.11210000038147427],[0.17447916666666666,1.2905555555555557,0.12749999999999773],[0.19989583333333344,1.1807407407407406,0.14510000038147552],[0.21624999999999991,1.0903703703703702,0.16049999999999898],[0.22854166666666675,0.918888888888889,0.1788000001907335],[0.2319791666666667,0.7601851851851852,0.19400000000000261],[0.24666666666666662,0.5881481481481482,0.21170000028610048],[0.24614583333333329,0.4685185185185185,0.22700000000000387],[0.24020833333333325,0.3479629629629629,0.24510000038146984],[0.2530208333333334,0.2270370370370371,0.26040000009537323],[0.2642708333333334,0.15629629629629627,0.2771000003814663],[0.2504166666666668,0.11833333333333329,0.2937000002861083],[0.22645833333333343,0.12611111111111115,0.3133000001907362],[0.2257291666666667,0.10092592592592593,0.32720000028609775],[0.2273958333333333,0.10481481481481486,0.343900000095374],[0.19729166666666675,0.12777777777777777,0.3606000003814671],[0.16437499999999997,0.13555555555555565,0.38010000038147496],[0.16437499999999997,0.13555555555555565,0.39370000028610264],[0.1337500000000001,0.12740740740740733,0.4104000000953647],[0.10822916666666677,0.1301851851851851,0.4270000000000067],[0.08729166666666661,0.15833333333333333,0.44650000000000034],[0.0453125,0.19592592592592584,0.4603000001907418],[0.018229166666666668,0.2198148148148149,0.47700000000000387],[0.011874999999999976,0.19592592592592584,0.49370000028609695],[-0.002812500000000047,0.19407407407407398,0.510300000190739],[-0.025833333333333285,0.2022222222222223,0.527000000000001],[-0.011354166666666643,0.20388888888888893,0.5464999999999947],[0.003125,0.20555555555555555,0.5604000000953704],[0.0017708333333333807,0.2338888888888888,0.5771000003814777],[0.029270833333333357,0.22666666666666663,0.5938000001907398],[0.022812499999999975,0.24648148148148152,0.6118000001907404],[0.041666666666666664,0.2631481481481482,0.6269000000953753],[0.06510416666666667,0.26055555555555565,0.6437000002861026],[0.0421875,0.28851851851851845,0.6607000002860985],[0.02354166666666669,0.29685185185185176,0.679700000286104],[0.030729166666666665,0.27240740740740743,0.6941000003814679],[0.033854166666666664,0.23574074074074067,0.7109000000953642],[0.03197916666666671,0.23148148148148148,0.7272000002861034],[0.04364583333333331,0.21648148148148144,0.7471000003814652],[0.01395833333333331,0.22111111111111106,0.7621000003814657],[0.043437500000000046,0.20722222222222217,0.7773000001907349],[0.042916666666666714,0.18259259259259264,0.7938000001907426],[0.04802083333333336,0.1581481481481481,0.8131000003814677],[0.07218749999999995,0.1331481481481481,0.8275000000000006],[0.08333333333333333,0.13148148148148148,0.8483000001907328],[0.08333333333333333,0.13148148148148148,0.8603000001907333],[0.0671875,0.15555555555555556,0.8771000003814748],[0.0671875,0.15555555555555556,0.8937000002861026],[0.06499999999999997,0.17833333333333326,0.910499999999999],[0.06333333333333328,0.1985185185185186,0.9328000001907384],[0.06333333333333328,0.1985185185185186,0.9437000002860998],[0.05916666666666662,0.2162962962962962,0.9603000001907418],[0.05916666666666662,0.2162962962962962,0.9770000000000039],[0.0834374999999999,0.22018518518518515,0.993700000286097],[0.0834374999999999,0.22018518518518515,1.0104000000953732],[0.07593750000000009,0.2192592592592592,1.027000000000001],[0.06739583333333338,0.22870370370370371,1.0443000001907308],[0.07239583333333334,0.21648148148148144,1.0603000001907361],[0.0696875000000001,0.2242592592592593,1.0772000002860977],[0.07999999999999995,0.25037037037037047,1.0940000000000083],[0.08604166666666657,0.2814814814814815,1.1105000000000018],[0.0865624999999999,0.30999999999999994,1.1269999999999953],[0.08489583333333334,0.3109259259259259,1.1443000001907393],[0.07843749999999995,0.30759259259259264,1.1633000001907305],[0.06468750000000002,0.3079629629629629,1.186700000286109],[0.06468750000000002,0.3079629629629629,1.193800000190734],[0.04041666666666662,0.3127777777777777,1.21070000028611],[0.019687499999999976,0.36944444444444446,1.2296000003814669],[0.0017708333333333807,0.3761111111111112,1.246700000286097],[-0.0020833333333333333,0.37518518518518523,1.2612000002861095],[-0.010208333333333286,0.3522222222222223,1.280700000286103],[-0.019479166666666714,0.3274074074074073,1.2959000000953722],[-0.04656250000000005,0.293888888888889,1.3123000001907315],[-0.06677083333333336,0.2581481481481481,1.3311000003814684],[-0.06677083333333336,0.2581481481481481,1.343900000095374],[-0.06114583333333338,0.2168518518518519,1.3606000003814671],[-0.07854166666666665,0.19685185185185178,1.3772000002861091],[-0.08552083333333335,0.18574074074074065,1.3963000001907346],[-0.07281249999999997,0.10851851851851856,1.4121000003814714],[-0.07270833333333329,0.0955555555555556,1.4272000002861063],[-0.08322916666666665,0.12148148148148152,1.4484000000953756],[-0.09354166666666662,0.11129629629629634,1.46370000028611],[-0.07885416666666671,0.08722222222222227,1.4779999999999944],[-0.06145833333333333,0.11537037037037029,1.4957000002861065],[-0.059375,0.13925925925925933,1.5139000000953757],[-0.07281249999999997,0.18296296296296288,1.5291000003814759],[-0.07697916666666664,0.2205555555555556,1.5461000003814718],[-0.04614583333333329,0.17796296296296302,1.5603000001907361],[-0.025312499999999953,0.14148148148148143,1.5798000001907297],[-0.027291666666666714,0.12148148148148152,1.5955000000000013],[-0.017083333333333308,0.06481481481481481,1.6118000001907404],[0.0005208333333333333,0.04314814814814806,1.6269999999999953],[0.0005208333333333333,0.04314814814814806,1.6437000002861026],[0.0003124999999999526,0.03129629629629625,1.6603000001907304],[-0.0015625,-0.018703703703703747,1.6901000003814772],[-0.0015625,-0.018703703703703747,1.6968000001907342],[0.005104166666666643,-0.04666666666666675,1.7104000000953619],[0.009895833333333333,-0.0764814814814815,1.7270000000000039],[0.013125000000000024,-0.1081481481481481,1.7462000002861089],[-0.011979166666666667,-0.07666666666666662,1.7604000000953732],[-0.033958333333333354,-0.05759259259259263,1.779600000381464],[-0.021041666666666715,-0.06425925925925924,1.793999999999997],[-0.010520833333333358,-0.044999999999999915,1.814300000190741],[-0.03135416666666669,-0.01055555555555564,1.8288000001907392],[-0.049583333333333354,0.024814814814814772,1.8469000000953741],[-0.05697916666666671,0.062037037037037036,1.8666000003814673],[-0.05697916666666671,0.062037037037037036,1.8841000003814656],[-0.051874999999999956,0.06351851851851843,1.895600000381478],[-0.052187500000000026,0.06648148148148143,1.9107000002860985],[-0.04572916666666664,0.07351851851851861,1.9270000000000067],[-0.03927083333333338,0.08055555555555556,1.9437000002860998],[-0.03093750000000005,0.07777777777777778,1.9603000001907418],[-0.03843749999999998,0.09166666666666666,1.9770000000000039],[-0.05333333333333338,0.11351851851851844,1.9959999999999951],[-0.04041666666666662,0.1007407407407407,2.011800000190732],[-0.03812500000000003,0.07555555555555547,2.0278000001907373],[-0.03999999999999997,0.04666666666666675,2.045500000000004],[-0.05145833333333331,0.05259259259259255,2.0627000002860996],[-0.058645833333333286,0.05129629629629638,2.0779000000953687],[-0.06458333333333334,0.02833333333333325,2.0937000002861055],[-0.06458333333333334,0.02833333333333325,2.110500000000002],[-0.07052083333333338,0.005370370370370328,2.127100000381475],[-0.08562500000000005,-0.002407407407407323,2.144200000286105],[-0.10072916666666672,-0.010185185185185186,2.1604000000953647],[-0.10072916666666672,-0.010185185185185186,2.1770000000000067],[-0.08187500000000002,-0.02296296296296292,2.1936000003814655],[-0.06708333333333331,-0.040370370370370286,2.210400000095362],[-0.0453125,-0.05333333333333336,2.227000000000004],[-0.022500000000000023,-0.05,2.247400000095368],[-0.002708333333333357,-0.040740740740740744,2.260600000381473],[0.017083333333333308,-0.03148148148148148,2.277000000000001],[0.029999999999999954,-0.003333333333333249,2.293600000381474],[0.042916666666666714,0.024814814814814772,2.3104000000953704],[0.049791666666666616,0.07592592592592592,2.3285000000000053],[0.05697916666666671,0.12759259259259256,2.3455000000000013],[0.05333333333333338,0.144074074074074,2.3604000000953675],[0.049687500000000044,0.18574074074074065,2.3769999999999953],[0.041979166666666616,0.22814814814814824,2.3936000003814684],[0.03208333333333328,0.27444444444444455,2.4102000002861104],[0.04354166666666662,0.27037037037037037,2.4270000000000067],[0.04354166666666662,0.27037037037037037,2.4437000002861],[0.04833333333333331,0.2905555555555555,2.460300000190742],[0.05770833333333331,0.3248148148148148,2.477100000381469],[0.06104166666666669,0.334074074074074,2.493700000286097],[0.07458333333333324,0.3274074074074073,2.5104000000953732],[0.07458333333333324,0.3274074074074073,2.5269000000953667],[0.08510416666666672,0.31796296296296306,2.5437000002861083],[0.0962500000000001,0.2905555555555555,2.560300000190736],[0.09510416666666661,0.2788888888888889,2.5774000000953663],[0.11541666666666663,0.23870370370370367,2.5937000002861055],[0.12354166666666658,0.20314814814814824,2.6103000001907333],[0.1053124999999999,0.21999999999999992,2.6269000000953753],[0.09375,0.2125925925925925,2.6436000003814684],[0.08270833333333343,0.1801851851851851,2.6602000002861104],[0.07770833333333324,0.1727777777777777,2.6770000000000067],[0.07895833333333328,0.16962962962962966,2.6939000000953683],[0.08291666666666657,0.16870370370370374,2.710300000190742],[0.06437499999999995,0.28592592592592586,2.7269000000953696],[0.06572916666666669,0.3633333333333334,2.743600000381477],[0.033645833333333285,0.5033333333333333,2.7602000002861047],[0.02020833333333331,0.5924074074074074,2.7771000003814663],[0.03166666666666664,0.6807407407407408,2.7937000002861083],[0.05458333333333331,0.7522222222222223,2.8104000000953704],[0.06875,0.8464814814814815,2.826999999999998],[0.06875,0.8464814814814815,2.843600000381471],[0.06854166666666663,0.962037037037037,2.8603000001907333],[0.057291666666666664,1.0683333333333336,2.8829999999999956],[0.057291666666666664,1.0683333333333336,2.893800000190737],[0.07270833333333329,1.075,2.9103000001907304],[0.09718749999999995,0.9605555555555556,2.9317000002860993],[0.09718749999999995,0.9605555555555556,2.9437000002861],[0.10625,0.852037037037037,2.960400000095362],[0.10625,0.852037037037037,2.977000000000004],[0.12302083333333323,0.7105555555555556,2.993700000286097],[0.13875000000000004,0.5900000000000001,3.015500000000003],[0.14187500000000006,0.4644444444444444,3.0308000001907374],[0.13354166666666673,0.3557407407407408,3.0469000000953628],[0.12177083333333343,0.22666666666666663,3.060300000190736],[0.1290625000000001,0.08092592592592601,3.076999999999998],[0.12406249999999991,-0.01722222222222214,3.093600000381471],[0.09239583333333339,-0.01574074074074074,3.110600000381467],[0.07000000000000005,0.004814814814814857,3.1269000000953753],[0.05541666666666671,0.04351851851851852,3.143900000095371],[0.03250000000000005,0.07685185185185185,3.1603000001907304],[0.018333333333333358,0.122037037037037,3.1770000000000067],[-0.010104166666666714,0.1603703703703704,3.1936000003814655],[-0.027499999999999976,0.16944444444444445,3.210300000190742],[-0.03156249999999995,0.20111111111111116,3.227000000000004],[-0.03968750000000002,0.2155555555555555,3.243700000286097],[-0.03968750000000002,0.2161111111111112,3.2602000002861047],[-0.03968750000000002,0.21666666666666667,3.2772000002861006],[-0.028541666666666642,0.17407407407407408,3.293600000381474],[-0.01895833333333338,0.17462962962962955,3.310300000190736],[0.0012500000000000473,0.1685185185185185,3.326999999999998],[0.008437500000000023,0.1557407407407408,3.343900000095374],[0.01427083333333338,0.11611111111111119,3.3603000001907333],[0.02687499999999995,0.0868518518518518,3.378300000190734],[0.033645833333333285,0.04407407407407399,3.3936000003814684],[0.035104166666666714,0.03092592592592601,3.4103000001907304],[0.04552083333333338,-0.010925925925925884,3.4273000001907405],[0.05593750000000005,-0.05277777777777778,3.4450000000000074],[0.03114583333333331,-0.05055555555555547,3.460300000190742],[0.00791666666666669,-0.09148148148148144,3.4795000000000016],[-0.01427083333333338,-0.10444444444444441,3.493600000381477],[-0.04083333333333338,-0.11277777777777774,3.5105000000000075],[-0.06270833333333338,-0.1175925925925926,3.5271000003814663],[-0.10239583333333328,-0.10351851851851848,3.5467000002861084],[-0.14427083333333332,-0.06648148148148143,3.5605000000000047],[-0.171875,-0.06277777777777774,3.576999999999998],[-0.2046875,-0.040370370370370286,3.593600000381471],[-0.2375,-0.01796296296296305,3.6103000001907333],[-0.2517708333333334,0.010370370370370412,3.6269999999999953],[-0.28958333333333336,0.0625925925925925,3.646500000000003],[-0.3055208333333333,0.06018518518518518,3.660499999999999],[-0.3055208333333333,0.06018518518518518,3.6772000002861063],[-0.3186458333333333,0.05092592592592592,3.6936000003814655],[-0.31968749999999996,0.08092592592592601,3.710400000095362],[-0.3139583333333333,0.08759259259259251,3.7269000000953696],[-0.29802083333333335,0.06518518518518526,3.7473000001907337],[-0.2991666666666667,0.06999999999999991,3.7621000003814657],[-0.30020833333333335,0.07240740740740745,3.777000000000001],[-0.2952083333333333,0.06666666666666667,3.795800000190738],[-0.26197916666666665,0.051666666666666625,3.810300000190736],[-0.20520833333333333,0.012777777777777735,3.826900000095364],[-0.1642708333333334,0.01777777777777782,3.8440000000000083],[-0.12208333333333338,0.04759259259259268,3.8611000003814695],[-0.08572916666666662,0.03555555555555564,3.8774999999999977],[-0.06645833333333329,0.06574074074074074,3.894999999999996],[-0.04750000000000002,0.07518518518518523,3.9103000001907304],[-0.008645833333333287,0.07259259259259268,3.9269000000953724],[0.035312499999999976,0.053703703703703705,3.9461000003814775],[0.07770833333333324,0.04148148148148144,3.960300000190742],[0.08760416666666657,0.03981481481481482,3.977000000000004],[0.06604166666666664,0.08000000000000008,3.993600000381477],[0.075,0.09074074074074075,4.010300000190739],[0.07010416666666662,0.06333333333333342,4.027300000190735],[0.06927083333333334,0.049629629629629544,4.043700000286108],[0.08666666666666671,0.0257407407407407,4.060200000286102],[0.09635416666666667,0.028703703703703703,4.077200000286098],[0.10395833333333329,0.007592592592592635,4.09380000019074],[0.09958333333333323,0.016851851851851896,4.110300000190733],[0.08333333333333333,0.03611111111111111,4.128300000190734],[0.05281250000000005,0.07259259259259268,4.147400000095374],[0.05666666666666664,0.05314814814814823,4.161700000286103],[0.05666666666666664,0.05314814814814823,4.177000000000007],[0.04624999999999998,0.054074074074074156,4.1936000003814655],[0.028541666666666642,0.08888888888888889,4.213400000095362],[0.01083333333333331,0.12370370370370362,4.2283000001907425],[-0.014791666666666713,0.14981481481481476,4.2439000000953655],[-0.013125000000000024,0.15166666666666662,4.2605000000000075],[-0.02177083333333331,0.1787037037037037,4.277000000000001],[-0.022916666666666665,0.19499999999999992,4.293700000286108],[-0.016666666666666666,0.20277777777777778,4.3108000001907385],[0.006666666666666643,0.1881481481481482,4.326900000095364],[0.027083333333333334,0.1875925925925925,4.344200000286108],[0.03302083333333338,0.19092592592592597,4.3604000000953675],[0.04885416666666664,0.1983333333333334,4.376999999999995],[0.06072916666666662,0.20555555555555555,4.393700000286103],[0.078125,0.20259259259259255,4.41030000019073],[0.07718749999999991,0.205925925925926,4.427000000000007],[0.07625000000000005,0.20925925925925926,4.445100000381473],[0.07843749999999995,0.20481481481481487,4.460300000190742],[0.0806250000000001,0.20037037037037045,4.477000000000004],[0.08864583333333324,0.19666666666666674,4.493600000381477],[0.09666666666666662,0.19296296296296306,4.510300000190739],[0.1046875,0.20574074074074078,4.527000000000001],[0.12427083333333329,0.19611111111111107,4.543800000190743],[0.1404166666666666,0.19388888888888897,4.560300000190736],[0.16072916666666662,0.17462962962962955,4.577300000190732],[0.16906249999999995,0.17388888888888884,4.593600000381471],[0.15885416666666666,0.18611111111111112,4.610300000190733],[0.14677083333333343,0.18111111111111103,4.627200000286109],[0.13468749999999996,0.17611111111111116,4.64530000019073],[0.0703125,0.1977777777777777,4.662400000095374],[0.00947916666666669,0.22888888888888892,4.67960000038147],[-0.04541666666666669,0.21962962962962967,4.6936000003814655],[-0.10249999999999998,0.20611111111111102,4.71070000028611],[-0.1452083333333333,0.2094444444444445,4.727000000000004],[-0.19760416666666672,0.24000000000000005,4.746200000286109],[-0.25270833333333337,0.24611111111111106,4.760400000095373],[-0.28927083333333337,0.23925925925925934,4.776900000095367],[-0.32093750000000004,0.24000000000000005,4.793600000381474],[-0.35260416666666666,0.24074074074074073,4.810300000190736],[-0.3260416666666667,0.23074074074074077,4.830600000381466],[-0.3260416666666667,0.23074074074074077,4.8437000002861055],[-0.3030208333333333,0.21129629629629634,4.860300000190733],[-0.3030208333333333,0.21129629629629634,4.876999999999995],[-0.2955208333333334,0.21962962962962967,4.893600000381468],[-0.2955208333333334,0.21962962962962967,4.91030000019073],[-0.2579166666666667,0.2044444444444444,4.926900000095372],[-0.2579166666666667,0.2044444444444444,4.943800000190734],[-0.23468749999999997,0.16203703703703703,4.9602000002861075],[-0.23468749999999997,0.16203703703703703,4.977000000000004],[-0.21291666666666664,0.11314814814814819,4.993600000381477],[-0.21291666666666664,0.11314814814814819,5.010300000190739],[-0.1875,0.11166666666666658,5.026900000095367],[-0.16208333333333336,0.11018518518518519,5.044100000381476],[-0.13656250000000003,0.09537037037037037,5.06040000009537],[-0.12541666666666665,0.09240740740740737,5.076999999999998],[-0.1330208333333334,0.08296296296296288,5.093600000381471],[-0.140625,0.07351851851851861,5.111700000286106],[-0.13989583333333327,0.07574074074074069,5.126900000095375],[-0.15,0.07907407407407416,5.147100000381471],[-0.14343750000000005,0.0764814814814814,5.162999999999997],[-0.13541666666666666,0.08037037037037033,5.177100000381472],[-0.13958333333333334,0.06611111111111119,5.1935],[-0.14375,0.05185185185185185,5.210600000381476],[-0.13218749999999999,0.08129629629629626,5.22690000009537],[-0.09635416666666667,0.08944444444444435,5.246300000190743],[-0.058124999999999954,0.11925925925925922,5.260600000381473],[-0.019895833333333356,0.14907407407407408,5.277200000286101],[0.02635416666666662,0.12462962962962955,5.293600000381474],[0.0578125,0.1346296296296297,5.312100000381477],[0.08156249999999995,0.1675925925925926,5.326900000095364],[0.10947916666666657,0.19129629629629621,5.346600000381471],[0.14177083333333323,0.2183333333333333,5.361999999999995],[0.15760416666666663,0.2490740740740741,5.381],[0.16760416666666675,0.22240740740740744,5.396400000095369],[0.13385416666666666,0.21351851851851844,5.412499999999994],[0.10187499999999995,0.17796296296296302,5.426900000095372],[0.06989583333333324,0.14240740740740737,5.4437000002861],[0.024479166666666666,0.13222222222222219,5.461600000381466],[-0.02322916666666662,0.11425925925925934,5.47690000009537],[-0.07666666666666669,0.1037037037037037,5.497600000381468],[-0.07666666666666669,0.1037037037037037,5.515900000095371],[-0.13635416666666664,0.11888888888888897,5.530900000095372],[-0.18947916666666664,0.10666666666666672,5.546499999999995],[-0.21479166666666671,0.09259259259259259,5.560300000190736],[-0.26916666666666667,0.13333333333333333,5.576900000095364],[-0.27156250000000004,0.13629629629629633,5.593600000381471],[-0.27395833333333336,0.13925925925925933,5.610300000190733],[-0.2794791666666666,0.13666666666666658,5.626999999999995],[-0.28010416666666665,0.15259259259259256,5.643600000381468],[-0.27708333333333335,0.15333333333333324,5.66030000019073],[-0.29333333333333333,0.17240740740740745,5.677000000000007],[-0.29333333333333333,0.17240740740740745,5.6936000003814655],[-0.28802083333333334,0.1685185185185185,5.710300000190742],[-0.2695833333333333,0.14981481481481476,5.72690000009537],[-0.28666666666666674,0.1712962962962963,5.744],[-0.28635416666666663,0.16277777777777774,5.760300000190739],[-0.29958333333333337,0.1603703703703704,5.777100000381466],[-0.29802083333333335,0.15018518518518523,5.793600000381474],[-0.29500000000000004,0.15166666666666662,5.810200000286102],[-0.2919791666666666,0.15314814814814823,5.826900000095364],[-0.2998958333333333,0.20185185185185187,5.843600000381471],[-0.2960416666666667,0.1935185185185185,5.860200000286099],[-0.3,0.18185185185185193,5.876999999999995],[-0.3223958333333333,0.2074074074074074,5.893600000381468],[-0.32062499999999994,0.19092592592592597,5.91030000019073],[-0.2938541666666667,0.1698148148148149,5.926900000095372],[-0.2833333333333333,0.17685185185185184,5.945200000286107],[-0.29229166666666667,0.16870370370370374,5.960300000190742],[-0.29958333333333337,0.1544444444444444,5.977000000000004],[-0.29,0.144074074074074,5.993600000381477],[-0.27312500000000006,0.10166666666666663,6.010300000190739],[-0.2247916666666666,0.06740740740740736,6.026900000095367],[-0.2247916666666666,0.06740740740740736,6.043700000286108],[-0.21781250000000002,0.05814814814814811,6.060200000286102],[-0.18135416666666668,0.014814814814814815,6.076900000095364],[-0.16333333333333327,-0.024074074074074074,6.095800000190735],[-0.14093749999999997,-0.030555555555555555,6.110300000190733],[-0.10218750000000003,-0.0005555555555554713,6.126999999999995],[-0.10218750000000003,-0.0005555555555554713,6.143800000190737],[-0.04562499999999995,0.0507407407407407,6.16030000019073],[0.01260416666666669,0.10555555555555556,6.179300000190736],[0.01260416666666669,0.10555555555555556,6.1936000003814655],[0.057604166666666616,0.15555555555555556,6.210300000190742],[0.10437500000000005,0.1935185185185185,6.227000000000004],[0.13135416666666658,0.24074074074074073,6.245800000190741],[0.18541666666666667,0.2540740740740742,6.260400000095373],[0.21864583333333343,0.2977777777777777,6.277000000000001],[0.26802083333333326,0.3596296296296297,6.293700000286108],[0.28958333333333336,0.3861111111111111,6.310200000286102],[0.3055208333333333,0.3792592592592592,6.3289000000953735],[0.3055208333333333,0.3792592592592592,6.3437000002861055],[0.27541666666666675,0.33666666666666656,6.3604000000953675],[0.2490624999999999,0.3235185185185186,6.376900000095375],[0.2205208333333334,0.3012962962962964,6.393500000000003],[0.1953125,0.2905555555555555,6.41020000028611],[0.17708333333333334,0.2512962962962964,6.426900000095372],[0.16437499999999997,0.21999999999999992,6.4437000002861],[0.13541666666666666,0.21648148148148144,6.4602000002861075],[0.1256249999999999,0.1853703703703704,6.47690000009537],[0.09812500000000005,0.13037037037037033,6.493499999999997],[0.09812500000000005,0.13037037037037033,6.510300000190739],[0.07156250000000004,0.06740740740740736,6.526900000095367],[0.0626041666666667,0.11518518518518527,6.545100000381467],[0.03968750000000002,0.11999999999999991,6.560200000286102],[0.025729166666666713,0.09888888888888885,6.577500000000001],[0.006666666666666643,0.07833333333333325,6.593500000000006],[-0.013437499999999976,0.07222222222222222,6.610200000286099],[-0.030312500000000023,0.10407407407407415,6.626900000095375],[-0.03093750000000005,0.1081481481481481,6.643700000286103],[-0.057395833333333354,0.08629629629629634,6.66020000028611],[-0.06770833333333333,0.09592592592592585,6.677700000286109],[-0.07010416666666662,0.12685185185185185,6.696800000190734],[-0.06364583333333336,0.08888888888888889,6.7117000002861005],[-0.035208333333333286,0.040740740740740744,6.72690000009537],[-0.035208333333333286,0.040740740740740744,6.743700000286097],[-0.0171875,0.028518518518518478,6.760200000286105],[-0.009687499999999953,-0.0025925925925925505,6.777000000000001],[0.002395833333333286,0.03981481481481482,6.79630000019074],[-0.00635416666666669,0.03166666666666671,6.812100000381477],[-0.01572916666666669,0.006481481481481481,6.826900000095364],[-0.01572916666666669,0.006481481481481481,6.8437000002861055],[-0.016145833333333335,0.012222222222222264,6.860200000286099],[-0.016145833333333335,0.012222222222222264,6.876999999999995],[-0.009687499999999953,0.028703703703703703,6.893600000381468],[-0.009687499999999953,0.028703703703703703,6.910400000095365],[-0.015312500000000047,-0.008333333333333333,6.926900000095372],[-0.015312500000000047,-0.008333333333333333,6.9437000002861],[-0.016145833333333335,-0.03481481481481473,6.960300000190742],[-0.016145833333333335,-0.03481481481481473,6.977000000000004],[-0.03302083333333338,-0.04870370370370362,6.993600000381477],[-0.03302083333333338,-0.04870370370370362,7.01420000028611],[-0.03677083333333329,-0.05351851851851848,7.027100000381466],[-0.03677083333333329,-0.05351851851851848,7.043999999999997],[-0.029999999999999954,-0.03944444444444436,7.065200000286097