inst1_resp.keys,inst1_resp.rt,calibrationMouse.x,calibrationMouse.y,calibrationMouse.leftButton,calibrationMouse.midButton,calibrationMouse.rightButton,calibrationClick.x,calibrationClick.y,calibrationClick.leftButton,calibrationClick.midButton,calibrationClick.rightButton,calibrationClick.clicked_name,trialsc.thisRepN,trialsc.thisTrialN,trialsc.thisN,trialsc.thisIndex,trialsc.ran,calibration_x,calibration_y,participant,session,date,expName,psychopyVersion,OS,frameRate,ScreenRes_pixels,Camera_pixels,mouse_2.x,mouse_2.y,mouse_2.leftButton,mouse_2.midButton,mouse_2.rightButton,mouse_2.time,mouse_2.clicked_name,mouse.x,mouse.y,mouse.leftButton,mouse.midButton,mouse.rightButton,mouse.time,mouse.clicked_name,Choice,Trial,TrialDuration,MOUSE_GAZE,ET_GAZE,ET_GAZE_x_T,time,unixTime,ET_GAZE_NF,Loc_Bus_label,Loc_Metro_label,Loc_RH_label,Loc_Cost_label,Loc_Travel_label,Loc_Comfort_label,Loc_Bus_cost,Loc_Metro_cost,Loc_RH_cost,Loc_Bus_travel,Loc_Metro_travel,Loc_RH_travel,Loc_Bus_comfort,Loc_Metro_comfort,Loc_RH_comfort,trials.thisRepN,trials.thisTrialN,trials.thisN,trials.thisIndex,trials.ran,Block,Device,RH_cost,RH_travel_time,RH_Comfort,metro_cost,metro_travel_time,metro_Comfort,Bus_cost,Bus_travel_time,Bus_Comfort
space,1.5045,-0.023958333,-0.17962963,1,0,0,-0.667708333,-0.324074074,1,0,0,calibration_square,0,0,0,1,1,-0.67,-0.33,46,001,2024-11-19_15h24.30.578,Attention_exp_legacy,2023.1.0,Win32,59.88023952,,,,,,,,,,,,,,,,,,,,,,,,,,,,,,,,,,,,,,,,,,,,,,,,,,,,,,,,
,,,,,,,0.326041667,-0.662962963,1,0,0,calibration_square,0,1,1,14,1,0.33,-0.67,46,001,2024-11-19_15h24.30.578,Attention_exp_legacy,2023.1.0,Win32,59.88023952,,,,,,,,,,,,,,,,,,,,,,,,,,,,,,,,,,,,,,,,,,,,,,,,,,,,,,,,
,,,,,,,-0.338541667,-0.322222222,1,0,0,calibration_square,0,2,2,5,1,-0.33,-0.33,46,001,2024-11-19_15h24.30.578,Attention_exp_legacy,2023.1.0,Win32,59.88023952,,,,,,,,,,,,,,,,,,,,,,,,,,,,,,,,,,,,,,,,,,,,,,,,,,,,,,,,
,,,,,,,0.663541667,0.664814815,1,0,0,calibration_square,0,3,3,19,1,0.67,0.67,46,001,2024-11-19_15h24.30.578,Attention_exp_legacy,2023.1.0,Win32,59.88023952,,,,,,,,,,,,,,,,,,,,,,,,,,,,,,,,,,,,,,,,,,,,,,,,,,,,,,,,
,,,,,,,0.663541667,-0.662962963,1,0,0,calibration_square,0,4,4,20,1,0.67,-0.67,46,001,2024-11-19_15h24.30.578,Attention_exp_legacy,2023.1.0,Win32,59.88023952,,,,,,,,,,,,,,,,,,,,,,,,,,,,,,,,,,,,,,,,,,,,,,,,,,,,,,,,
,,,,,,,-0.678125,-0.677777778,1,0,0,calibration_square,0,5,5,0,1,-0.67,-0.67,46,001,2024-11-19_15h24.30.578,Attention_exp_legacy,2023.1.0,Win32,59.88023952,,,,,,,,,,,,,,,,,,,,,,,,,,,,,,,,,,,,,,,,,,,,,,,,,,,,,,,,
,,,,,,,-0.321875,0.301851852,1,0,0,,0,6,6,7,1,-0.33,0.33,46,001,2024-11-19_15h24.30.578,Attention_exp_legacy,2023.1.0,Win32,59.88023952,,,,,,,,,,,,,,,,,,,,,,,,,,,,,,,,,,,,,,,,,,,,,,,,,,,,,,,,
,,,,,,,-0.003125,-0.333333333,1,0,0,calibration_square,0,7,7,10,1,0,-0.33,46,001,2024-11-19_15h24.30.578,Attention_exp_legacy,2023.1.0,Win32,59.88023952,,,,,,,,,,,,,,,,,,,,,,,,,,,,,,,,,,,,,,,,,,,,,,,,,,,,,,,,
,,,,,,,0.325,0.67037037,1,0,0,calibration_square,0,8,8,18,1,0.33,0.67,46,001,2024-11-19_15h24.30.578,Attention_exp_legacy,2023.1.0,Win32,59.88023952,,,,,,,,,,,,,,,,,,,,,,,,,,,,,,,,,,,,,,,,,,,,,,,,,,,,,,,,
,,,,,,,-0.328125,0.005555556,1,0,0,calibration_square,0,9,9,6,1,-0.33,0,46,001,2024-11-19_15h24.30.578,Attention_exp_legacy,2023.1.0,Win32,59.88023952,,,,,,,,,,,,,,,,,,,,,,,,,,,,,,,,,,,,,,,,,,,,,,,,,,,,,,,,
,,,,,,,0.013541667,0.32037037,1,0,0,,0,10,10,12,1,0,0.33,46,001,2024-11-19_15h24.30.578,Attention_exp_legacy,2023.1.0,Win32,59.88023952,,,,,,,,,,,,,,,,,,,,,,,,,,,,,,,,,,,,,,,,,,,,,,,,,,,,,,,,
,,,,,,,0.314583333,0.325925926,1,0,0,,0,11,11,17,1,0.33,0.33,46,001,2024-11-19_15h24.30.578,Attention_exp_legacy,2023.1.0,Win32,59.88023952,,,,,,,,,,,,,,,,,,,,,,,,,,,,,,,,,,,,,,,,,,,,,,,,,,,,,,,,
,,,,,,,0.017708333,0.031481481,1,0,0,,0,12,12,11,1,0,0,46,001,2024-11-19_15h24.30.578,Attention_exp_legacy,2023.1.0,Win32,59.88023952,,,,,,,,,,,,,,,,,,,,,,,,,,,,,,,,,,,,,,,,,,,,,,,,,,,,,,,,
,,,,,,,0.3125,0.018518519,1,0,0,,0,13,13,16,1,0.33,0,46,001,2024-11-19_15h24.30.578,Attention_exp_legacy,2023.1.0,Win32,59.88023952,,,,,,,,,,,,,,,,,,,,,,,,,,,,,,,,,,,,,,,,,,,,,,,,,,,,,,,,
,,,,,,,0.330208333,-0.337037037,1,0,0,calibration_square,0,14,14,15,1,0.33,-0.33,46,001,2024-11-19_15h24.30.578,Attention_exp_legacy,2023.1.0,Win32,59.88023952,,,,,,,,,,,,,,,,,,,,,,,,,,,,,,,,,,,,,,,,,,,,,,,,,,,,,,,,
,,,,,,,-0.004166667,0.657407407,1,0,0,,0,15,15,13,1,0,0.67,46,001,2024-11-19_15h24.30.578,Attention_exp_legacy,2023.1.0,Win32,59.88023952,,,,,,,,,,,,,,,,,,,,,,,,,,,,,,,,,,,,,,,,,,,,,,,,,,,,,,,,
,,,,,,,-0.008333333,-0.690740741,1,0,0,,0,16,16,9,1,0,-0.67,46,001,2024-11-19_15h24.30.578,Attention_exp_legacy,2023.1.0,Win32,59.88023952,,,,,,,,,,,,,,,,,,,,,,,,,,,,,,,,,,,,,,,,,,,,,,,,,,,,,,,,
,,,,,,,-0.315625,0.664814815,1,0,0,,0,17,17,8,1,-0.33,0.67,46,001,2024-11-19_15h24.30.578,Attention_exp_legacy,2023.1.0,Win32,59.88023952,,,,,,,,,,,,,,,,,,,,,,,,,,,,,,,,,,,,,,,,,,,,,,,,,,,,,,,,
,,,,,,,-0.66875,0.316666667,1,0,0,,0,18,18,3,1,-0.67,0.33,46,001,2024-11-19_15h24.30.578,Attention_exp_legacy,2023.1.0,Win32,59.88023952,,,,,,,,,,,,,,,,,,,,,,,,,,,,,,,,,,,,,,,,,,,,,,,,,,,,,,,,
,,,,,,,-0.328125,-0.653703704,1,0,0,,0,19,19,4,1,-0.33,-0.67,46,001,2024-11-19_15h24.30.578,Attention_exp_legacy,2023.1.0,Win32,59.88023952,,,,,,,,,,,,,,,,,,,,,,,,,,,,,,,,,,,,,,,,,,,,,,,,,,,,,,,,
,,,,,,,-0.678125,0.003703704,1,0,0,calibration_square,0,20,20,2,1,-0.67,0,46,001,2024-11-19_15h24.30.578,Attention_exp_legacy,2023.1.0,Win32,59.88023952,,,,,,,,,,,,,,,,,,,,,,,,,,,,,,,,,,,,,,,,,,,,,,,,,,,,,,,,
,,,,,,,,,,,,,,,,,,,,46,001,2024-11-19_15h24.30.578,Attention_exp_legacy,2023.1.0,Win32,59.88023952,"[1920,1080]","[640,480]",[-0.08229166666666667],[-0.49074074074074076],[1],[0],[0],[3.0467000002861084],"[""StartButton""]",[0.23854166666666668],[0.6166666666666667],[1],[0],[0],[4.4669000000953645],"[""Metro_label""]",Metro_label,1,5.4934,"[[-0.06770833333333333,-0.4703703703703704],[-0.06770833333333333,-0.4703703703703704],[-0.06770833333333333,-0.4703703703703704],[-0.06770833333333333,-0.4703703703703704],[-0.06770833333333333,-0.4703703703703704],[-0.06770833333333333,-0.4703703703703704],[-0.06770833333333333,-0.4703703703703704],[-0.06770833333333333,-0.4703703703703704],[-0.06770833333333333,-0.4703703703703704],[-0.06770833333333333,-0.4703703703703704],[-0.06770833333333333,-0.4703703703703704],[-0.06770833333333333,-0.4703703703703704],[-0.06770833333333333,-0.4703703703703704],[-0.06770833333333333,-0.4703703703703704],[-0.06770833333333333,-0.4703703703703704],[-0.06770833333333333,-0.4703703703703704],[-0.06770833333333333,-0.4703703703703704],[-0.06770833333333333,-0.4703703703703704],[-0.06770833333333333,-0.4703703703703704],[-0.06770833333333333,-0.4703703703703704],[-0.06770833333333333,-0.4703703703703704],[-0.06770833333333333,-0.4703703703703704],[-0.06770833333333333,-0.4703703703703704],[-0.06770833333333333,-0.4703703703703704],[-0.06770833333333333,-0.4703703703703704],[-0.06770833333333333,-0.4703703703703704],[-0.06770833333333333,-0.4703703703703704],[-0.06770833333333333,-0.4703703703703704],[-0.06770833333333333,-0.4703703703703704],[-0.06770833333333333,-0.4703703703703704],[-0.06770833333333333,-0.4703703703703704],[-0.06770833333333333,-0.4703703703703704],[-0.06770833333333333,-0.4703703703703704],[-0.06770833333333333,-0.4703703703703704],[-0.06770833333333333,-0.4703703703703704],[-0.06770833333333333,-0.4703703703703704],[-0.06770833333333333,-0.4703703703703704],[-0.06770833333333333,-0.4703703703703704],[-0.06770833333333333,-0.4703703703703704],[-0.06770833333333333,-0.4703703703703704],[-0.06770833333333333,-0.4703703703703704],[-0.06770833333333333,-0.4703703703703704],[-0.06770833333333333,-0.4703703703703704],[-0.06770833333333333,-0.4703703703703704],[-0.06770833333333333,-0.4703703703703704],[-0.06770833333333333,-0.4703703703703704],[-0.06770833333333333,-0.4703703703703704],[-0.06770833333333333,-0.4703703703703704],[-0.06770833333333333,-0.4703703703703704],[-0.06770833333333333,-0.4703703703703704],[-0.06770833333333333,-0.4703703703703704],[-0.06770833333333333,-0.4703703703703704],[-0.06770833333333333,-0.4703703703703704],[-0.06770833333333333,-0.4703703703703704],[-0.06770833333333333,-0.4703703703703704],[-0.06770833333333333,-0.4703703703703704],[-0.06770833333333333,-0.4703703703703704],[-0.06770833333333333,-0.4703703703703704],[-0.06770833333333333,-0.4703703703703704],[-0.06770833333333333,-0.4703703703703704],[-0.06770833333333333,-0.4703703703703704],[-0.06770833333333333,-0.4703703703703704],[-0.06770833333333333,-0.4703703703703704],[-0.06770833333333333,-0.4703703703703704],[-0.06770833333333333,-0.4703703703703704],[-0.06770833333333333,-0.4703703703703704],[-0.06770833333333333,-0.4703703703703704],[-0.06770833333333333,-0.4703703703703704],[-0.06770833333333333,-0.4703703703703704],[-0.06770833333333333,-0.4703703703703704],[-0.06770833333333333,-0.4703703703703704],[-0.06770833333333333,-0.4703703703703704],[-0.06770833333333333,-0.4703703703703704],[-0.06770833333333333,-0.4703703703703704],[-0.06770833333333333,-0.4703703703703704],[-0.06770833333333333,-0.4703703703703704],[-0.06770833333333333,-0.4703703703703704],[-0.06770833333333333,-0.4703703703703704],[-0.06770833333333333,-0.4703703703703704],[-0.06770833333333333,-0.4703703703703704],[-0.06770833333333333,-0.4703703703703704],[-0.06770833333333333,-0.4703703703703704],[-0.06770833333333333,-0.4703703703703704],[-0.06770833333333333,-0.4703703703703704],[-0.06770833333333333,-0.4703703703703704],[-0.06770833333333333,-0.4703703703703704],[-0.06770833333333333,-0.4703703703703704],[-0.06770833333333333,-0.4703703703703704],[-0.06770833333333333,-0.4703703703703704],[-0.06770833333333333,-0.4703703703703704],[-0.06770833333333333,-0.4703703703703704],[-0.06770833333333333,-0.4703703703703704],[-0.06770833333333333,-0.4703703703703704],[-0.06770833333333333,-0.4703703703703704],[-0.06770833333333333,-0.4703703703703704],[-0.06770833333333333,-0.4703703703703704],[-0.06770833333333333,-0.4703703703703704],[-0.06770833333333333,-0.4703703703703704],[-0.06770833333333333,-0.4703703703703704],[-0.06770833333333333,-0.4703703703703704],[-0.06770833333333333,-0.4703703703703704],[-0.06770833333333333,-0.4703703703703704],[-0.06770833333333333,-0.4703703703703704],[-0.06770833333333333,-0.4703703703703704],[-0.06770833333333333,-0.4703703703703704],[-0.06770833333333333,-0.4703703703703704],[-0.06770833333333333,-0.4703703703703704],[-0.06770833333333333,-0.4703703703703704],[-0.06770833333333333,-0.4703703703703704],[-0.06770833333333333,-0.4703703703703704],[-0.06770833333333333,-0.4703703703703704],[-0.06770833333333333,-0.4703703703703704],[-0.06770833333333333,-0.4703703703703704],[-0.06770833333333333,-0.4703703703703704],[-0.06770833333333333,-0.4703703703703704],[-0.06770833333333333,-0.4703703703703704],[-0.06770833333333333,-0.4703703703703704],[-0.06770833333333333,-0.4703703703703704],[-0.06770833333333333,-0.4703703703703704],[-0.06770833333333333,-0.4703703703703704],[-0.06770833333333333,-0.4703703703703704],[-0.06770833333333333,-0.4703703703703704],[-0.06770833333333333,-0.4703703703703704],[-0.06770833333333333,-0.4703703703703704],[-0.06770833333333333,-0.4703703703703704],[-0.06770833333333333,-0.4703703703703704],[-0.06770833333333333,-0.4703703703703704],[-0.06770833333333333,-0.4703703703703704],[-0.06770833333333333,-0.4703703703703704],[-0.06770833333333333,-0.4703703703703704],[-0.06770833333333333,-0.4703703703703704],[-0.06770833333333333,-0.4703703703703704],[-0.06770833333333333,-0.4703703703703704],[-0.06770833333333333,-0.4703703703703704],[-0.06770833333333333,-0.4703703703703704],[-0.06770833333333333,-0.4703703703703704],[-0.06770833333333333,-0.4703703703703704],[-0.06770833333333333,-0.4703703703703704],[-0.06770833333333333,-0.4703703703703704],[-0.06770833333333333,-0.4703703703703704],[-0.06770833333333333,-0.4703703703703704],[-0.06770833333333333,-0.4703703703703704],[-0.06770833333333333,-0.4703703703703704],[-0.06770833333333333,-0.4703703703703704],[-0.06770833333333333,-0.4703703703703704],[-0.06770833333333333,-0.4703703703703704],[-0.06770833333333333,-0.4703703703703704],[-0.06770833333333333,-0.4703703703703704],[-0.06770833333333333,-0.4703703703703704],[-0.06770833333333333,-0.4703703703703704],[-0.06770833333333333,-0.4703703703703704],[-0.06770833333333333,-0.4703703703703704],[-0.06770833333333333,-0.4703703703703704],[-0.06770833333333333,-0.4703703703703704],[-0.06770833333333333,-0.4703703703703704],[-0.06770833333333333,-0.4703703703703704],[-0.06770833333333333,-0.4703703703703704],[-0.06770833333333333,-0.4703703703703704],[-0.06770833333333333,-0.4703703703703704],[-0.06770833333333333,-0.4703703703703704],[-0.06770833333333333,-0.4703703703703704],[-0.06770833333333333,-0.4703703703703704],[-0.06770833333333333,-0.4703703703703704],[-0.06770833333333333,-0.4703703703703704],[-0.06770833333333333,-0.4703703703703704],[-0.06770833333333333,-0.4703703703703704],[-0.06770833333333333,-0.4703703703703704],[-0.06770833333333333,-0.4703703703703704],[-0.06770833333333333,-0.4703703703703704],[-0.06770833333333333,-0.4703703703703704],[-0.06770833333333333,-0.4703703703703704],[-0.06770833333333333,-0.4703703703703704],[-0.06770833333333333,-0.4703703703703704],[-0.06770833333333333,-0.4703703703703704],[-0.06770833333333333,-0.4703703703703704],[-0.06770833333333333,-0.4703703703703704],[-0.06770833333333333,-0.4703703703703704],[-0.06770833333333333,-0.4703703703703704],[-0.06770833333333333,-0.4703703703703704],[-0.06770833333333333,-0.4703703703703704],[-0.06770833333333333,-0.4703703703703704],[-0.06770833333333333,-0.4703703703703704],[-0.06770833333333333,-0.4703703703703704],[-0.06770833333333333,-0.4703703703703704],[-0.06770833333333333,-0.4703703703703704],[-0.06770833333333333,-0.4703703703703704],[-0.06770833333333333,-0.4703703703703704],[-0.06770833333333333,-0.4703703703703704],[-0.06770833333333333,-0.4703703703703704],[-0.06770833333333333,-0.4703703703703704],[-0.06770833333333333,-0.4703703703703704],[-0.06770833333333333,-0.4703703703703704],[-0.06770833333333333,-0.4703703703703704],[-0.06770833333333333,-0.4703703703703704],[-0.06770833333333333,-0.4703703703703704],[-0.06770833333333333,-0.4703703703703704],[-0.06770833333333333,-0.4703703703703704],[-0.06770833333333333,-0.4703703703703704],[-0.06770833333333333,-0.4703703703703704],[-0.06770833333333333,-0.4703703703703704],[-0.06770833333333333,-0.4703703703703704],[-0.06770833333333333,-0.4703703703703704],[-0.06770833333333333,-0.4703703703703704],[-0.06770833333333333,-0.4703703703703704],[-0.06770833333333333,-0.4703703703703704],[-0.06770833333333333,-0.4703703703703704],[-0.06770833333333333,-0.4703703703703704],[-0.06770833333333333,-0.4703703703703704],[-0.06770833333333333,-0.4703703703703704],[-0.06770833333333333,-0.4703703703703704],[-0.06770833333333333,-0.4703703703703704],[-0.06770833333333333,-0.4703703703703704],[-0.06770833333333333,-0.4703703703703704],[-0.06770833333333333,-0.4703703703703704],[-0.06770833333333333,-0.4703703703703704],[-0.06770833333333333,-0.4703703703703704],[-0.06770833333333333,-0.4703703703703704],[-0.06770833333333333,-0.4703703703703704],[-0.06770833333333333,-0.4703703703703704],[-0.06770833333333333,-0.4703703703703704],[-0.06770833333333333,-0.4703703703703704],[-0.06770833333333333,-0.4703703703703704],[-0.06770833333333333,-0.4703703703703704],[-0.06770833333333333,-0.4703703703703704],[-0.06770833333333333,-0.4703703703703704],[-0.05416666666666667,-0.4388888888888889],[-0.0020833333333333333,-0.35],[0.10520833333333333,-0.12777777777777777],[0.16770833333333332,0.03333333333333333],[0.2125,0.17592592592592593],[0.234375,0.2574074074074074],[0.25,0.32222222222222224],[0.26145833333333335,0.3574074074074074],[0.2708333333333333,0.3814814814814815],[0.2791666666666667,0.39814814814814814],[0.2875,0.4166666666666667],[0.296875,0.43333333333333335],[0.30625,0.4537037037037037],[0.31666666666666665,0.48518518518518516],[0.3177083333333333,0.5111111111111111],[0.31979166666666664,0.5462962962962963],[0.31979166666666664,0.5907407407407408],[0.3177083333333333,0.6259259259259259],[0.31354166666666666,0.6444444444444445],[0.3104166666666667,0.6574074074074074],[0.30833333333333335,0.6592592592592592],[0.30833333333333335,0.6611111111111111],[0.3072916666666667,0.6611111111111111],[0.3020833333333333,0.6611111111111111],[0.290625,0.6462962962962963],[0.26875,0.6333333333333333],[0.2520833333333333,0.6259259259259259],[0.24166666666666667,0.6185185185185185],[0.23854166666666668,0.6185185185185185],[0.23854166666666668,0.6166666666666667],[0.23854166666666668,0.6166666666666667],[0.23854166666666668,0.6166666666666667],[0.23854166666666668,0.6166666666666667],[0.23854166666666668,0.6166666666666667],[0.23854166666666668,0.6166666666666667],[0.23854166666666668,0.6166666666666667],[0.23854166666666668,0.6166666666666667],[0.23854166666666668,0.6166666666666667],[0.23854166666666668,0.6166666666666667],[0.23854166666666668,0.6166666666666667],[0.23854166666666668,0.6166666666666667],[0.23854166666666668,0.6166666666666667],[0.23854166666666668,0.6166666666666667],[0.23854166666666668,0.6166666666666667],[0.23854166666666668,0.6166666666666667],[0.23854166666666668,0.6166666666666667],[0.23854166666666668,0.6166666666666667],[0.23854166666666668,0.6166666666666667],[0.23854166666666668,0.6166666666666667],[0.23854166666666668,0.6166666666666667],[0.23854166666666668,0.6166666666666667],[0.23854166666666668,0.6166666666666667],[0.2375,0.6148148148148148],[0.2375,0.6148148148148148],[0.2375,0.6148148148148148],[0.2375,0.6148148148148148],[0.2375,0.6148148148148148],[0.2375,0.6148148148148148],[0.2375,0.6148148148148148],[0.2375,0.6148148148148148],[0.2375,0.6148148148148148],[0.2375,0.6148148148148148],[0.2375,0.6148148148148148],[0.2375,0.6148148148148148],[0.2375,0.6148148148148148],[0.2375,0.6148148148148148],[0.2375,0.6148148148148148],[0.2375,0.6148148148148148],[0.2375,0.6148148148148148],[0.2375,0.6148148148148148],[0.2375,0.6148148148148148],[0.2375,0.6148148148148148],[0.2375,0.6148148148148148],[0.2375,0.6148148148148148],[0.2375,0.6148148148148148],[0.2375,0.6148148148148148],[0.2375,0.6148148148148148],[0.2375,0.6148148148148148],[0.2375,0.6148148148148148],[0.2375,0.6148148148148148],[0.2375,0.6148148148148148],[0.2375,0.6148148148148148],[0.2375,0.6148148148148148],[0.2375,0.6148148148148148],[0.2375,0.6148148148148148],[0.2375,0.6148148148148148],[0.2375,0.6148148148148148],[0.2375,0.6148148148148148],[0.2375,0.6148148148148148],[0.2375,0.6148148148148148],[0.2375,0.6148148148148148],[0.2375,0.6148148148148148],[0.2375,0.6148148148148148],[0.2375,0.6148148148148148],[0.2375,0.6148148148148148],[0.2375,0.6148148148148148],[0.2375,0.6148148148148148],[0.2375,0.6148148148148148],[0.2375,0.6148148148148148],[0.2375,0.6148148148148148],[0.2375,0.6148148148148148],[0.2375,0.6148148148148148],[0.2375,0.6148148148148148],[0.2375,0.6148148148148148]]","[[-0.058541666666666714,0.2661111111111112],[-0.058541666666666714,0.2661111111111112],[-0.029791666666666692,0.2514814814814814],[-0.029791666666666692,0.2514814814814814],[-0.01604166666666664,0.2411111111111112],[-0.020937500000000022,0.21777777777777782],[-0.01739583333333338,0.15148148148148138],[-0.01739583333333338,0.15148148148148138],[0.01270833333333338,0.12037037037037036],[-0.0037500000000000237,0.13055555555555556],[-0.008124999999999953,0.17018518518518513],[-0.006979166666666714,0.1624074074074075],[-0.004791666666666691,0.19462962962962968],[-0.004791666666666691,0.19462962962962968],[0.002395833333333286,0.19703703703703698],[-0.00604166666666662,0.21333333333333343],[-0.00604166666666662,0.21333333333333343],[0.006458333333333381,0.19981481481481478],[0.005624999999999976,0.18314814814814812],[-0.0036458333333333334,0.22259259259259268],[-0.024791666666666618,0.19685185185185178],[-0.04364583333333331,0.16592592592592598],[-0.06104166666666669,0.130925925925926],[-0.06104166666666669,0.130925925925926],[-0.07916666666666666,0.12629629629629638],[-0.11312500000000002,0.09833333333333337],[-0.13333333333333333,0.057777777777777865],[-0.14614583333333328,-0.0014814814814813973],[-0.16614583333333333,-0.03851851851851843],[-0.2001041666666667,-0.044999999999999915],[-0.24572916666666664,-0.04425925925925922],[-0.2783333333333334,-0.0448148148148149],[-0.27937500000000004,-0.040740740740740744],[-0.3021875,-0.040740740740740744],[-0.33468749999999997,-0.025185185185185227],[-0.33468749999999997,-0.025185185185185227],[-0.3601041666666667,-0.03611111111111111],[-0.40114583333333337,-0.04351851851851852],[-0.455625,-0.034999999999999955],[-0.5101041666666667,-0.01703703703703712],[-0.5145833333333333,-0.026851851851851852],[-0.5073958333333334,-0.04388888888888897],[-0.5073958333333334,-0.04388888888888897],[-0.5235416666666667,-0.03611111111111111],[-0.5235416666666667,-0.03611111111111111],[-0.5520833333333334,-0.0198148148148149],[-0.5520833333333334,-0.0198148148148149],[-0.5635416666666667,-0.0338888888888888],[-0.5635416666666667,-0.0338888888888888],[-0.594375,-0.0742592592592593],[-0.594375,-0.0742592592592593],[-0.5971875,-0.07703703703703708],[-0.5908333333333334,-0.05796296296296299],[-0.5908333333333334,-0.05796296296296299],[-0.5792708333333334,-0.034444444444444486],[-0.5814583333333334,-0.06666666666666667],[-0.56,-0.039074074074074115],[-0.5338541666666666,-0.039074074074074115],[-0.47927083333333337,-0.050370370370370454],[-0.43250000000000005,-0.08499999999999996],[-0.3905208333333333,-0.10203703703703708],[-0.32781250000000006,-0.09722222222222222],[-0.29354166666666665,-0.12962962962962962],[-0.26,-0.13574074074074077],[-0.21302083333333333,-0.13962962962962958],[-0.15104166666666666,-0.09388888888888887],[-0.12927083333333336,-0.11277777777777774],[-0.11218750000000005,-0.10407407407407405],[-0.08489583333333334,-0.09851851851851849],[-0.057604166666666616,-0.09296296296296294],[-0.004791666666666691,-0.09111111111111109],[0.04093749999999995,-0.08259259259259263],[0.09510416666666661,-0.05592592592592591],[0.14562499999999995,-0.04277777777777782],[0.14562499999999995,-0.04277777777777782],[0.1646874999999999,-0.02388888888888885],[0.1646874999999999,-0.02388888888888885],[0.1868750000000001,0.007037037037036953],[0.20510416666666675,0.04148148148148144],[0.23687500000000009,0.026851851851851852],[0.24645833333333325,0.03370370370370379],[0.2648958333333333,0.011111111111111112],[0.24770833333333328,0.03462962962962971],[0.24677083333333344,0.05222222222222231],[0.23781249999999995,0.05129629629629638],[0.2306250000000001,0.07592592592592592],[0.24947916666666667,0.0712962962962963],[0.27364583333333337,0.058703703703703786],[0.2846874999999999,0.03925925925925934],[0.2730208333333332,0.08277777777777787],[0.2594791666666666,0.13185185185185194],[0.2546875,0.18981481481481483],[0.24927083333333327,0.24203703703703713],[0.2365624999999999,0.30833333333333335],[0.23250000000000004,0.35592592592592603],[0.2289583333333333,0.35999999999999993],[0.23947916666666677,0.39222222222222214],[0.2415625000000001,0.4203703703703704],[0.240625,0.45185185185185184],[0.24885416666666677,0.46944444444444444],[0.278125,0.43555555555555564],[0.2886458333333332,0.4368518518518518],[0.30135416666666665,0.4262962962962964],[0.3220833333333334,0.4088888888888888],[0.3321875000000001,0.3979629629629629],[0.3321875000000001,0.3979629629629629],[0.33406250000000004,0.3698148148148149],[0.315625,0.3435185185185185],[0.29718749999999994,0.3172222222222221],[0.32958333333333345,0.318888888888889],[0.36864583333333345,0.3133333333333334],[0.36864583333333345,0.3133333333333334],[0.39031250000000006,0.337037037037037],[0.4109375,0.3522222222222223],[0.4460416666666667,0.36648148148148146],[0.4747916666666666,0.3787037037037037],[0.4973958333333333,0.40259259259259256],[0.5286458333333334,0.4383333333333334],[0.5588541666666667,0.46407407407407414],[0.5890625,0.4898148148148148],[0.5905208333333334,0.5083333333333333],[0.5904166666666666,0.5238888888888888],[0.5853125000000001,0.5316666666666667],[0.5823958333333332,0.5333333333333333],[0.5858333333333334,0.5433333333333333],[0.5892708333333334,0.5533333333333332],[0.5947916666666667,0.5331481481481481],[0.5993750000000001,0.5307407407407407],[0.6066666666666668,0.5455555555555556],[0.6139583333333334,0.5603703703703704],[0.6161458333333333,0.5514814814814814],[0.6161458333333333,0.5514814814814814],[0.6132291666666667,0.5527777777777778],[0.6245833333333333,0.5564814814814815],[0.6256249999999999,0.562962962962963],[0.6256249999999999,0.562962962962963],[0.6221875,0.5305555555555556],[0.6221875,0.5305555555555556],[0.6157291666666665,0.5094444444444445],[0.6177083333333333,0.509074074074074],[0.6107291666666667,0.47074074074074085],[0.6033333333333334,0.4118518518518518],[0.5978125000000001,0.3762962962962964],[0.5959374999999999,0.344074074074074],[0.6078125,0.29240740740740734],[0.6104166666666667,0.24611111111111106],[0.5909375,0.15703703703703695],[0.5609375,0.10925925925925926],[0.5298958333333333,0.07222222222222222],[0.4964583333333332,0.04518518518518514],[0.45583333333333326,-0.003888888888888931],[0.41395833333333343,-0.039629629629629584],[0.3807291666666667,-0.10333333333333336],[0.3555208333333333,-0.19703703703703698],[0.31708333333333344,-0.26185185185185184],[0.31708333333333344,-0.26185185185185184],[0.278125,-0.33611111111111114],[0.27104166666666674,-0.3416666666666667],[0.26500000000000007,-0.3794444444444444],[0.2630208333333333,-0.43925925925925924],[0.2630208333333333,-0.43925925925925924],[0.27395833333333336,-0.5164814814814814],[0.2947916666666667,-0.5301851851851852],[0.2947916666666667,-0.5301851851851852],[0.3085416666666667,-0.5287037037037037],[0.3085416666666667,-0.5287037037037037],[0.3150000000000001,-0.5353703703703704],[0.3150000000000001,-0.5353703703703704],[0.30354166666666677,-0.5196296296296297],[0.30354166666666677,-0.5196296296296297],[0.22104166666666672,-0.4662962962962963],[0.22104166666666672,-0.4662962962962963],[0.12604166666666666,-0.41703703703703704],[0.03739583333333331,-0.4281481481481481],[-0.05562499999999997,-0.4035185185185185],[-0.1486458333333334,-0.37888888888888894],[-0.2491666666666667,-0.33648148148148144],[-0.3481250000000001,-0.33907407407407414],[-0.4319791666666667,-0.3461111111111111],[-0.5333333333333333,-0.3455555555555556],[-0.6065625,-0.3285185185185185],[-0.6101041666666667,-0.3412962962962963],[-0.5917708333333334,-0.3237037037037037],[-0.5953125,-0.2692592592592592],[-0.5953125,-0.2692592592592592],[-0.5692708333333333,-0.2125925925925926],[-0.5082291666666666,-0.06425925925925924],[-0.45260416666666664,0.0837037037037038],[-0.37166666666666665,0.2537037037037037],[-0.29874999999999996,0.412962962962963],[-0.19437500000000002,0.5177777777777778],[-0.11499999999999998,0.6368518518518518],[-0.03604166666666669,0.6962962962962963],[0.03760416666666669,0.7477777777777777],[0.03760416666666669,0.7477777777777777],[0.11927083333333334,0.7851851851851852],[0.1961458333333333,0.8003703703703705],[0.1961458333333333,0.8003703703703705],[0.23239583333333325,0.7111111111111111],[0.25458333333333344,0.6455555555555555],[0.25625,0.5816666666666667],[0.2686458333333334,0.5390740740740741],[0.2647916666666667,0.507037037037037],[0.25885416666666666,0.4609259259259259],[0.25718750000000007,0.4703703703703704],[0.26552083333333343,0.4637037037037037],[0.26552083333333343,0.4637037037037037],[0.27489583333333345,0.48092592592592603],[0.27489583333333345,0.48092592592592603],[0.27937500000000004,0.45333333333333325],[0.27583333333333326,0.44648148148148153],[0.28635416666666674,0.415925925925926],[0.3150000000000001,0.4168518518518519],[0.3328125,0.3907407407407407],[0.3637500000000001,0.42388888888888887],[0.4037499999999999,0.4477777777777777],[0.44291666666666674,0.45481481481481484],[0.4616666666666667,0.4638888888888889],[0.4794791666666666,0.45129629629629636],[0.5040625000000001,0.48111111111111104],[0.5451041666666666,0.49796296296296294],[0.5841666666666666,0.5096296296296298],[0.5760416666666667,0.4818518518518519],[0.5604166666666667,0.4772222222222223],[0.5172916666666666,0.4281481481481482],[0.46843750000000006,0.39092592592592595],[0.4005208333333333,0.3494444444444445],[0.33354166666666674,0.327962962962963],[0.27447916666666666,0.3131481481481482],[0.19500000000000003,0.294074074074074],[0.15197916666666675,0.2338888888888888],[0.1053124999999999,0.1816666666666667],[0.10302083333333342,0.0911111111111112],[0.09177083333333323,0.034444444444444486],[0.08875000000000005,-0.01592592592592597],[0.09354166666666662,-0.08481481481481483],[0.11666666666666667,-0.12074074074074072],[0.14572916666666677,-0.1714814814814815],[0.16729166666666656,-0.22185185185185188],[0.19822916666666662,-0.2964814814814815],[0.18875000000000006,-0.3287037037037037],[0.18489583333333334,-0.36370370370370364],[0.17218749999999997,-0.3327777777777778],[0.17218749999999997,-0.3327777777777778],[0.17604166666666668,-0.3531481481481481],[0.190625,-0.3507407407407407],[0.20083333333333328,-0.3464814814814815],[0.21677083333333325,-0.40314814814814814],[0.22531249999999994,-0.44074074074074077],[0.2381249999999999,-0.4842592592592593],[0.2415625000000001,-0.505],[0.24864583333333337,-0.5148148148148148],[0.2557291666666667,-0.5246296296296297],[0.26510416666666664,-0.5627777777777777],[0.26510416666666664,-0.5627777777777777],[0.2646874999999999,-0.5796296296296296],[0.2646874999999999,-0.5796296296296296],[0.2704166666666666,-0.5933333333333333],[0.2704166666666666,-0.5933333333333333],[0.27802083333333344,-0.5072222222222221],[0.2900000000000001,-0.41148148148148145],[0.31145833333333334,-0.3274074074074074],[0.3256249999999999,-0.20314814814814813],[0.3306250000000001,-0.08296296296296299],[0.3396874999999999,-0.004074074074074159],[0.35989583333333336,0.12888888888888894],[0.3546875,0.26222222222222225],[0.37260416666666674,0.33777777777777773],[0.39031250000000006,0.4401851851851853],[0.40510416666666677,0.4390740740740741],[0.4022916666666667,0.48518518518518516],[0.39812500000000006,0.509074074074074],[0.42687499999999995,0.49907407407407406],[0.4491666666666667,0.4103703703703704],[0.4554166666666667,0.34666666666666673],[0.4470833333333334,0.20925925925925926],[0.4666666666666667,0.12629629629629638],[0.46854166666666663,0.08555555555555563],[0.4643749999999999,0.04981481481481477],[0.45041666666666674,-0.06981481481481479],[0.45041666666666674,-0.06981481481481479],[0.4431250000000001,-0.12000000000000002],[0.44166666666666665,-0.127962962962963],[0.44166666666666665,-0.127962962962963],[0.39906249999999993,-0.17333333333333337],[0.39906249999999993,-0.17333333333333337],[0.37000000000000005,-0.13574074074074077],[0.37000000000000005,-0.13574074074074077],[0.36177083333333326,-0.09537037037037037],[0.36177083333333326,-0.09537037037037037],[0.32156250000000003,0.01314814814814819],[0.32156250000000003,0.01314814814814819],[0.31104166666666655,0.1007407407407407],[0.2783333333333334,0.15314814814814823],[0.2569791666666667,0.11203703703703703],[0.24854166666666658,0.16351851851851842],[0.2538541666666667,0.14129629629629623],[0.2526041666666667,0.09166666666666666],[0.2608333333333334,0.08962962962962959],[0.2678124999999999,0.0698148148148149],[0.25635416666666655,0.025370370370370456],[0.27843749999999995,-0.041666666666666664],[0.2703125,-0.12759259259259256],[0.28875000000000006,-0.18407407407407403],[0.2864583333333333,-0.19388888888888886],[0.2864583333333333,-0.19388888888888886],[0.27802083333333344,-0.19888888888888884],[0.2361458333333334,-0.19722222222222222],[0.1961458333333333,-0.21444444444444447],[0.16541666666666663,-0.24259259259259258],[0.16541666666666663,-0.24259259259259258],[0.1515625,-0.25277777777777777],[0.13145833333333337,-0.23777777777777773],[0.13145833333333337,-0.23777777777777773],[0.11322916666666671,-0.24870370370370373],[0.08687500000000009,-0.2544444444444444],[0.08687500000000009,-0.2544444444444444],[0.07041666666666657,-0.2553703703703703],[0.057395833333333354,-0.20870370370370367],[0.05552083333333328,-0.19129629629629633],[0.06218750000000005,-0.17740740740740743],[0.06697916666666662,-0.14462962962962966],[0.07906250000000009,-0.12814814814814812],[0.07833333333333338,-0.08074074074074078],[0.09093749999999995,-0.02759259259259255],[0.09375,-0.013518518518518435],[0.09104166666666676,0.0020370370370370794],[0.07843749999999995,0.012777777777777735],[0.06385416666666661,-0.01592592592592597]]","[[-0.058541666666666714,0.2661111111111112,0.0003000001907338401],[-0.058541666666666714,0.2661111111111112,0.05320000028610394],[-0.029791666666666692,0.2514814814814814,0.06630000019073634],[-0.029791666666666692,0.2514814814814814,0.08059999990463496],[-0.01604166666666664,0.2411111111111112,0.09359999990463308],[-0.020937500000000022,0.21777777777777782,0.11320000028609911],[-0.01739583333333338,0.15148148148148138,0.12690000009536817],[-0.01739583333333338,0.15148148148148138,0.14370000028610264],[0.01270833333333338,0.12037037037037036,0.16030000019073753],[-0.0037500000000000237,0.13055555555555556,0.17690000009536533],[-0.008124999999999953,0.17018518518518513,0.1935999999046345],[-0.006979166666666714,0.1624074074074075,0.21020000028610042],[-0.004791666666666691,0.19462962962962968,0.2269000000953696],[-0.004791666666666691,0.19462962962962968,0.24359999990463166],[0.002395833333333286,0.19703703703703698,0.26030000019073185],[-0.00604166666666662,0.21333333333333343,0.27859999990463535],[-0.00604166666666662,0.21333333333333343,0.2935999999046359],[0.006458333333333381,0.19981481481481478,0.3103000001907361],[0.005624999999999976,0.18314814814814812,0.326900000095371],[-0.0036458333333333334,0.22259259259259268,0.3434999999999988],[-0.024791666666666618,0.19685185185185178,0.3602000002861061],[-0.04364583333333331,0.16592592592592598,0.3784000000953682],[-0.06104166666666669,0.130925925925926,0.39540000009537124],[-0.06104166666666669,0.130925925925926,0.4104000000953647],[-0.07916666666666666,0.12629629629629638,0.42690000009536533],[-0.11312500000000002,0.09833333333333337,0.4442000002861022],[-0.13333333333333333,0.057777777777777865,0.46220000028610286],[-0.14614583333333328,-0.0014814814814813973,0.477800000190733],[-0.16614583333333333,-0.03851851851851843,0.4934999999999974],[-0.2001041666666667,-0.044999999999999915,0.5107000002861],[-0.24572916666666664,-0.04425925925925922,0.5268000001907325],[-0.2783333333333334,-0.0448148148148149,0.5452000002861013],[-0.27937500000000004,-0.040740740740740744,0.5634999999999977],[-0.3021875,-0.040740740740740744,0.5797000002861026],[-0.33468749999999997,-0.025185185185185227,0.5950999999046331],[-0.33468749999999997,-0.025185185185185227,0.6103000001907333],[-0.3601041666666667,-0.03611111111111111,0.6270000000000024],[-0.40114583333333337,-0.04351851851851852,0.6440999999046326],[-0.455625,-0.034999999999999955,0.6610999999046356],[-0.5101041666666667,-0.01703703703703712,0.6772000002860992],[-0.5145833333333333,-0.026851851851851852,0.6973000001907366],[-0.5073958333333334,-0.04388888888888897,0.7147000002861006],[-0.5073958333333334,-0.04388888888888897,0.7269000000953696],[-0.5235416666666667,-0.03611111111111111,0.7438000001907383],[-0.5235416666666667,-0.03611111111111111,0.7604000000953661],[-0.5520833333333334,-0.0198148148148149,0.7769000000953667],[-0.5520833333333334,-0.0198148148148149,0.7935999999046359],[-0.5635416666666667,-0.0338888888888888,0.8102000002861018],[-0.5635416666666667,-0.0338888888888888,0.826900000095371],[-0.594375,-0.0742592592592593,0.8434999999999988],[-0.594375,-0.0742592592592593,0.8603000001907333],[-0.5971875,-0.07703703703703708,0.8769000000953682],[-0.5908333333333334,-0.05796296296296299,0.8974000000953666],[-0.5908333333333334,-0.05796296296296299,0.9102000002861033],[-0.5792708333333334,-0.034444444444444486,0.9269999999999996],[-0.5814583333333334,-0.06666666666666667,0.9462000002861046],[-0.56,-0.039074074074074115,0.963000000000001],[-0.5338541666666666,-0.039074074074074115,0.9794000000953673],[-0.47927083333333337,-0.050370370370370454,0.9949999999999974],[-0.43250000000000005,-0.08499999999999996,1.0103000001907319],[-0.3905208333333333,-0.10203703703703708,1.0268000001907325],[-0.32781250000000006,-0.09722222222222222,1.045099999904636],[-0.29354166666666665,-0.12962962962962962,1.0628000001907338],[-0.26,-0.13574074074074077,1.0800999999046326],[-0.21302083333333333,-0.13962962962962958,1.0962000002861032],[-0.15104166666666666,-0.09388888888888887,1.1120999999046361],[-0.12927083333333336,-0.11277777777777774,1.128700000286102],[-0.11218750000000005,-0.10407407407407405,1.1435999999046302],[-0.08489583333333334,-0.09851851851851849,1.1634000000953648],[-0.057604166666666616,-0.09296296296296294,1.1802000002860993],[-0.004791666666666691,-0.09111111111111109,1.1960999999046322],[0.04093749999999995,-0.08259259259259263,1.2144000000953667],[0.09510416666666661,-0.05592592592592591,1.230800000190733],[0.14562499999999995,-0.04277777777777782,1.2482000002861042],[0.14562499999999995,-0.04277777777777782,1.2603000001907319],[0.1646874999999999,-0.02388888888888885,1.2769000000953667],[0.1646874999999999,-0.02388888888888885,1.293599999904636],[0.1868750000000001,0.007037037037036953,1.3103000001907361],[0.20510416666666675,0.04148148148148144,1.3309000000953688],[0.23687500000000009,0.026851851851851852,1.3470000000000013],[0.24645833333333325,0.03370370370370379,1.3638000001907358],[0.2648958333333333,0.011111111111111112,1.3800999999046297],[0.24770833333333328,0.03462962962962971,1.3950000000000031],[0.24677083333333344,0.05222222222222231,1.4102000002861033],[0.23781249999999995,0.05129629629629638,1.4268000001907382],[0.2306250000000001,0.07592592592592592,1.4435999999046345],[0.24947916666666667,0.0712962962962963,1.4638000001907372],[0.27364583333333337,0.058703703703703786,1.4794000000953673],[0.2846874999999999,0.03925925925925934,1.494099999904634],[0.2730208333333332,0.08277777777777787,1.51109999990463],[0.2594791666666666,0.13185185185185194,1.5270999999046353],[0.2546875,0.18981481481481483,1.5437000002861012],[0.24927083333333327,0.24203703703703713,1.5640999999046343],[0.2365624999999999,0.30833333333333335,1.5805000000000007],[0.23250000000000004,0.35592592592592603,1.5955999999046355],[0.2289583333333333,0.35999999999999993,1.610200000286106],[0.23947916666666677,0.39222222222222214,1.6270999999046296],[0.2415625000000001,0.4203703703703704,1.643500000000003],[0.240625,0.45185185185185184,1.6623000001907329],[0.24885416666666677,0.46944444444444444,1.6794000000953702],[0.278125,0.43555555555555564,1.6935000000000002],[0.2886458333333332,0.4368518518518518,1.7102000002861004],[0.30135416666666665,0.4262962962962964,1.7274999999999991],[0.3220833333333334,0.4088888888888888,1.7460000000000022],[0.3321875000000001,0.3979629629629629,1.7659999999999982],[0.3321875000000001,0.3979629629629629,1.7769000000953667],[0.33406250000000004,0.3698148148148149,1.793599999904636],[0.315625,0.3435185185185185,1.8102000002861018],[0.29718749999999994,0.3172222222222221,1.8270999999046325],[0.32958333333333345,0.318888888888889,1.8473000001907351],[0.36864583333333345,0.3133333333333334,1.8639999999999972],[0.36864583333333345,0.3133333333333334,1.8770000000000024],[0.39031250000000006,0.337037037037037,1.8935999999046302],[0.4109375,0.3522222222222223,1.9135999999046334],[0.4460416666666667,0.36648148148148146,1.9310999999046317],[0.4747916666666666,0.3787037037037037,1.9478000001907319],[0.4973958333333333,0.40259259259259256,1.9639999999999986],[0.5286458333333334,0.4383333333333334,1.981900000095365],[0.5588541666666667,0.46407407407407414,1.9979000000953704],[0.5890625,0.4898148148148148,2.013200000286105],[0.5905208333333334,0.5083333333333333,2.0272000002861006],[0.5904166666666666,0.5238888888888888,2.0450000000000017],[0.5853125000000001,0.5316666666666667,2.061800000190736],[0.5823958333333332,0.5333333333333333,2.076900000095371],[0.5858333333333334,0.5433333333333333,2.093499999999999],[0.5892708333333334,0.5533333333333332,2.112700000286104],[0.5947916666666667,0.5331481481481481,2.1274000000953706],[0.5993750000000001,0.5307407407407407,2.144900000095369],[0.6066666666666668,0.5455555555555556,2.1620999999046333],[0.6139583333333334,0.5603703703703704,2.1769999999999996],[0.6161458333333333,0.5514814814814814,2.1983000001907342],[0.6161458333333333,0.5514814814814814,2.2103000001907347],[0.6132291666666667,0.5527777777777778,2.2269999999999968],[0.6245833333333333,0.5564814814814815,2.244099999904634],[0.6256249999999999,0.562962962962963,2.2657000002861025],[0.6256249999999999,0.562962962962963,2.277000000000001],[0.6221875,0.5305555555555556,2.293700000286101],[0.6221875,0.5305555555555556,2.310200000286102],[0.6157291666666665,0.5094444444444445,2.326999999999998],[0.6177083333333333,0.509074074074074,2.345400000095367],[0.6107291666666667,0.47074074074074085,2.3629999999999995],[0.6033333333333334,0.4118518518518518,2.3792000002861045],[0.5978125000000001,0.3762962962962964,2.398300000190737],[0.5959374999999999,0.344074074074074,2.4140000000000015],[0.6078125,0.29240740740740734,2.4295999999046316],[0.6104166666666667,0.24611111111111106,2.4450000000000003],[0.5909375,0.15703703703703695,2.461599999904635],[0.5609375,0.10925925925925926,2.4772000002861034],[0.5298958333333333,0.07222222222222222,2.4938000001907383],[0.4964583333333332,0.04518518518518514,2.511000000000003],[0.45583333333333326,-0.003888888888888931,2.5268000001907325],[0.41395833333333343,-0.039629629629629584,2.5474999999999994],[0.3807291666666667,-0.10333333333333336,2.5640999999046343],[0.3555208333333333,-0.19703703703703698,2.580599999904635],[0.31708333333333344,-0.26185185185185184,2.595099999904633],[0.31708333333333344,-0.26185185185185184,2.610200000286106],[0.278125,-0.33611111111111114,2.626900000095368],[0.27104166666666674,-0.3416666666666667,2.645700000286105],[0.26500000000000007,-0.3794444444444444,2.6633000001907376],[0.2630208333333333,-0.43925925925925924,2.6802000002860993],[0.2630208333333333,-0.43925925925925924,2.6935000000000002],[0.27395833333333336,-0.5164814814814814,2.7103000001907347],[0.2947916666666667,-0.5301851851851852,2.732999999999997],[0.2947916666666667,-0.5301851851851852,2.7434999999999974],[0.3085416666666667,-0.5287037037037037,2.7605000000000004],[0.3085416666666667,-0.5287037037037037,2.7769000000953667],[0.3150000000000001,-0.5353703703703704,2.793599999904636],[0.3150000000000001,-0.5353703703703704,2.810200000286102],[0.30354166666666677,-0.5196296296296297,2.826900000095371],[0.30354166666666677,-0.5196296296296297,2.843499999999999],[0.22104166666666672,-0.4662962962962963,2.8603000001907333],[0.22104166666666672,-0.4662962962962963,2.876900000095368],[0.12604166666666666,-0.41703703703703704,2.8935999999046302],[0.03739583333333331,-0.4281481481481481,2.911599999904631],[-0.05562499999999997,-0.4035185185185185,2.928599999904634],[-0.1486458333333334,-0.37888888888888894,2.944200000286102],[-0.2491666666666667,-0.33648148148148144,2.9632000002861005],[-0.3481250000000001,-0.33907407407407414,2.980099999904631],[-0.4319791666666667,-0.3461111111111111,2.996000000000002],[-0.5333333333333333,-0.3455555555555556,3.0127000002861024],[-0.6065625,-0.3285185185185185,3.0294000000953645],[-0.6101041666666667,-0.3412962962962963,3.043999999999997],[-0.5917708333333334,-0.3237037037037037,3.0630999999046296],[-0.5953125,-0.2692592592592592,3.082800000190737],[-0.5953125,-0.2692592592592592,3.093499999999999],[-0.5692708333333333,-0.2125925925925926,3.110200000286106],[-0.5082291666666666,-0.06425925925925924,3.126900000095368],[-0.45260416666666664,0.0837037037037038,3.143500000000003],[-0.37166666666666665,0.2537037037037037,3.160499999999999],[-0.29874999999999996,0.412962962962963,3.177200000286099],[-0.19437500000000002,0.5177777777777778,3.1935999999046345],[-0.11499999999999998,0.6368518518518518,3.2102000002861004],[-0.03604166666666669,0.6962962962962963,3.2269000000953696],[0.03760416666666669,0.7477777777777777,3.243700000286104],[0.03760416666666669,0.7477777777777777,3.260400000095366],[0.11927083333333334,0.7851851851851852,3.277000000000001],[0.1961458333333333,0.8003703703703705,3.298000000000002],[0.1961458333333333,0.8003703703703705,3.310599999904632],[0.23239583333333325,0.7111111111111111,3.326900000095371],[0.25458333333333344,0.6455555555555555,3.343499999999999],[0.25625,0.5816666666666667,3.362800000190738],[0.2686458333333334,0.5390740740740741,3.3782000002860997],[0.2647916666666667,0.507037037037037,3.3935999999046302],[0.25885416666666666,0.4609259259259259,3.4133000001907376],[0.25718750000000007,0.4703703703703704,3.4299999999999997],[0.26552083333333343,0.4637037037037037,3.446400000095366],[0.26552083333333343,0.4637037037037037,3.460400000095369],[0.27489583333333345,0.48092592592592603,3.4772000002861034],[0.27489583333333345,0.48092592592592603,3.4953000001907384],[0.27937500000000004,0.45333333333333325,3.510300000190732],[0.27583333333333326,0.44648148148148153,3.5269000000953667],[0.28635416666666674,0.415925925925926,3.5435000000000016],[0.3150000000000001,0.4168518518518519,3.560300000190736],[0.3328125,0.3907407407407407,3.5768000001907367],[0.3637500000000001,0.42388888888888887,3.593599999904633],[0.4037499999999999,0.4477777777777777,3.610200000286106],[0.44291666666666674,0.45481481481481484,3.626900000095368],[0.4616666666666667,0.4638888888888889,3.645000000000003],[0.4794791666666666,0.45129629629629636,3.6618000001907376],[0.5040625000000001,0.48111111111111104,3.6799999999999997],[0.5451041666666666,0.49796296296296294,3.6935000000000002],[0.5841666666666666,0.5096296296296298,3.7102000002861004],[0.5760416666666667,0.4818518518518519,3.7268000001907353],[0.5604166666666667,0.4772222222222223,3.7435999999046317],[0.5172916666666666,0.4281481481481482,3.760400000095366],[0.46843750000000006,0.39092592592592595,3.7787000002861006],[0.4005208333333333,0.3494444444444445,3.7938000001907355],[0.33354166666666674,0.327962962962963,3.8104000000953704],[0.27447916666666666,0.3131481481481482,3.826999999999998],[0.19500000000000003,0.294074074074074,3.846900000095367],[0.15197916666666675,0.2338888888888888,3.8634000000953677],[0.1053124999999999,0.1816666666666667,3.8792000002861045],[0.10302083333333342,0.0911111111111112,3.8937000002861026],[0.09177083333333323,0.034444444444444486,3.913099999904631],[0.08875000000000005,-0.01592592592592597,3.9274000000953677],[0.09354166666666662,-0.08481481481481483,3.9437000002861],[0.11666666666666667,-0.12074074074074072,3.960400000095369],[0.14572916666666677,-0.1714814814814815,3.9802000002861035],[0.16729166666666656,-0.22185185185185188,3.9953000001907384],[0.19822916666666662,-0.2964814814814815,4.010300000190732],[0.18875000000000006,-0.3287037037037037,4.027000000000001],[0.18489583333333334,-0.36370370370370364,4.045499999999997],[0.17218749999999997,-0.3327777777777778,4.060300000190736],[0.17218749999999997,-0.3327777777777778,4.076999999999998],[0.17604166666666668,-0.3531481481481481,4.0963000001907375],[0.190625,-0.3507407407407407,4.111400000095365],[0.20083333333333328,-0.3464814814814815,4.129800000190734],[0.21677083333333325,-0.40314814814814814,4.145499999999998],[0.22531249999999994,-0.44074074074074077,4.160400000095365],[0.2381249999999999,-0.4842592592592593,4.177099999904634],[0.2415625000000001,-0.505,4.196400000095366],[0.24864583333333337,-0.5148148148148148,4.210400000095369],[0.2557291666666667,-0.5246296296296297,4.226999999999997],[0.26510416666666664,-0.5627777777777777,4.247599999904629],[0.26510416666666664,-0.5627777777777777,4.263300000190732],[0.2646874999999999,-0.5796296296296296,4.276900000095367],[0.2646874999999999,-0.5796296296296296,4.293500000000002],[0.2704166666666666,-0.5933333333333333,4.311099999904634],[0.2704166666666666,-0.5933333333333333,4.326800000190737],[0.27802083333333344,-0.5072222222222221,4.343499999999999],[0.2900000000000001,-0.41148148148148145,4.360200000286106],[0.31145833333333334,-0.3274074074074074,4.376800000190734],[0.3256249999999999,-0.20314814814814813,4.393500000000003],[0.3306250000000001,-0.08296296296296299,4.410599999904633],[0.3396874999999999,-0.004074074074074159,4.426900000095365],[0.35989583333333336,0.12888888888888894,4.4435],[0.3546875,0.26222222222222225,4.460800000190737],[0.37260416666666674,0.33777777777777773,4.476999999999997],[0.39031250000000006,0.4401851851851853,4.493499999999997],[0.40510416666666677,0.4390740740740741,4.510200000286105],[0.4022916666666667,0.48518518518518516,4.5268000001907325],[0.39812500000000006,0.509074074074074,4.543400000095367],[0.42687499999999995,0.49907407407407406,4.560099999904629],[0.4491666666666667,0.4103703703703704,4.576900000095371],[0.4554166666666667,0.34666666666666673,4.593499999999999],[0.4470833333333334,0.20925925925925926,4.610099999904634],[0.4666666666666667,0.12629629629629638,4.626800000190734],[0.46854166666666663,0.08555555555555563,4.646800000190737],[0.4643749999999999,0.04981481481481477,4.662800000190735],[0.45041666666666674,-0.06981481481481479,4.676800000190738],[0.45041666666666674,-0.06981481481481479,4.6935],[0.4431250000000001,-0.12000000000000002,4.710300000190735],[0.44166666666666665,-0.127962962962963,4.731900000095365],[0.44166666666666665,-0.127962962962963,4.743499999999997],[0.39906249999999993,-0.17333333333333337,4.760300000190732],[0.39906249999999993,-0.17333333333333337,4.7768000001907325],[0.37000000000000005,-0.13574074074074077,4.793400000095367],[0.37000000000000005,-0.13574074074074077,4.810099999904629],[0.36177083333333326,-0.09537037037037037,4.826900000095371],[0.36177083333333326,-0.09537037037037037,4.843499999999999],[0.32156250000000003,0.01314814814814819,4.860200000286106],[0.32156250000000003,0.01314814814814819,4.876900000095368],[0.31104166666666655,0.1007407407407407,4.893400000095369],[0.2783333333333334,0.15314814814814823,4.912700000286101],[0.2569791666666667,0.11203703703703703,4.928900000095368],[0.24854166666666658,0.16351851851851842,4.944400000095371],[0.2538541666666667,0.14129629629629623,4.962900000095367],[0.2526041666666667,0.09166666666666666,4.977099999904631],[0.2608333333333334,0.08962962962962959,4.99340000009537],[0.2678124999999999,0.0698148148148149,5.010300000190732],[0.25635416666666655,0.025370370370370456,5.029499999999999],[0.27843749999999995,-0.041666666666666664,5.044900000095367],[0.2703125,-0.12759259259259256,5.062800000190734],[0.28875000000000006,-0.18407407407407403,5.079700000286103],[0.2864583333333333,-0.19388888888888886,5.096000000000004],[0.2864583333333333,-0.19388888888888886,5.110200000286106],[0.27802083333333344,-0.19888888888888884,5.126800000190734],[0.2361458333333334,-0.19722222222222222,5.143500000000003],[0.1961458333333333,-0.21444444444444447,5.16440000009537],[0.16541666666666663,-0.24259259259259258,5.183700000286102],[0.16541666666666663,-0.24259259259259258,5.198300000190734],[0.1515625,-0.25277777777777777,5.2102000002861],[0.13145833333333337,-0.23777777777777773,5.226800000190735],[0.13145833333333337,-0.23777777777777773,5.243599999904632],[0.11322916666666671,-0.24870370370370373,5.260300000190732],[0.08687500000000009,-0.2544444444444444,5.2809000000953645],[0.08687500000000009,-0.2544444444444444,5.293500000000002],[0.07041666666666657,-0.2553703703703703,5.310200000286102],[0.057395833333333354,-0.20870370370370367,5.326800000190737],[0.05552083333333328,-0.19129629629629633,5.343499999999999],[0.06218750000000005,-0.17740740740740743,5.3637000002861015],[0.06697916666666662,-0.14462962962962966,5.3797000002861],[0.07906250000000009,-0.12814814814814812,5.395000000000003],[0.07833333333333338,-0.08074074074074078,5.410200000286103],[0.09093749999999995,-0.02759259259259255,5.426900000095365],[0.09375,-0.013518518518518435,5.4435],[0.09104166666666676,0.0020370370370370794,5.4602000002861],[0.07843749999999995,0.012777777777777735,5.476800000190735],[0.06385416666666661,-0.01592592592592597,5.49340000009537]]","[0.0003000001907338401,0.05320000028610394,0.06630000019073634,0.08059999990463496,0.09359999990463308,0.11320000028609911,0.12690000009536817,0.14370000028610264,0.16030000019073753,0.17690000009536533,0.1935999999046345,0.21020000028610042,0.2269000000953696,0.24359999990463166,0.26030000019073185,0.27859999990463535,0.2935999999046359,0.3103000001907361,0.326900000095371,0.3434999999999988,0.3602000002861061,0.3784000000953682,0.39540000009537124,0.4104000000953647,0.42690000009536533,0.4442000002861022,0.46220000028610286,0.477800000190733,0.4934999999999974,0.5107000002861,0.5268000001907325,0.5452000002861013,0.5634999999999977,0.5797000002861026,0.5950999999046331,0.6103000001907333,0.6270000000000024,0.6440999999046326,0.6610999999046356,0.6772000002860992,0.6973000001907366,0.7147000002861006,0.7269000000953696,0.7438000001907383,0.7604000000953661,0.7769000000953667,0.7935999999046359,0.8102000002861018,0.826900000095371,0.8434999999999988,0.8603000001907333,0.8769000000953682,0.8974000000953666,0.9102000002861033,0.9269999999999996,0.9462000002861046,0.963000000000001,0.9794000000953673,0.9949999999999974,1.0103000001907319,1.0268000001907325,1.045099999904636,1.0628000001907338,1.0800999999046326,1.0962000002861032,1.1120999999046361,1.128700000286102,1.1435999999046302,1.1634000000953648,1.1802000002860993,1.1960999999046322,1.2144000000953667,1.230800000190733,1.2482000002861042,1.2603000001907319,1.2769000000953667,1.293599999904636,1.3103000001907361,1.3309000000953688,1.3470000000000013,1.3638000001907358,1.3800999999046297,1.3950000000000031,1.4102000002861033,1.4268000001907382,1.4435999999046345,1.4638000001907372,1.4794000000953673,1.494099999904634,1.51109999990463,1.5270999999046353,1.5437000002861012,1.5640999999046343,1.5805000000000007,1.5955999999046355,1.610200000286106,1.6270999999046296,1.643500000000003,1.6623000001907329,1.6794000000953702,1.6935000000000002,1.7102000002861004,1.7274999999999991,1.7460000000000022,1.7659999999999982,1.7769000000953667,1.793599999904636,1.8102000002861018,1.8270999999046325,1.8473000001907351,1.8639999999999972,1.8770000000000024,1.8935999999046302,1.9135999999046334,1.9310999999046317,1.9478000001907319,1.9639999999999986,1.981900000095365,1.9979000000953704,2.013200000286105,2.0272000002861006,2.0450000000000017,2.061800000190736,2.076900000095371,2.093499999999999,2.112700000286104,2.1274000000953706,2.144900000095369,2.1620999999046333,2.1769999999999996,2.1983000001907342,2.2103000001907347,2.2269999999999968,2.244099999904634,2.2657000002861025,2.277000000000001,2.293700000286101,2.310200000286102,2.326999999999998,2.345400000095367,2.3629999999999995,2.3792000002861045,2.398300000190737,2.4140000000000015,2.4295999999046316,2.4450000000000003,2.461599999904635,2.4772000002861034,2.4938000001907383,2.511000000000003,2.5268000001907325,2.5474999999999994,2.5640999999046343,2.580599999904635,2.595099999904633,2.610200000286106,2.626900000095368,2.645700000286105,2.6633000001907376,2.6802000002860993,2.6935000000000002,2.7103000001907347,2.732999999999997,2.7434999999999974,2.7605000000000004,2.7769000000953667,2.793599999904636,2.810200000286102,2.826900000095371,2.843499999999999,2.8603000001907333,2.876900000095368,2.8935999999046302,2.911599999904631,2.928599999904634,2.944200000286102,2.9632000002861005,2.980099999904631,2.996000000000002,3.0127000002861024,3.0294000000953645,3.043999999999997,3.0630999999046296,3.082800000190737,3.093499999999999,3.110200000286106,3.126900000095368,3.143500000000003,3.160499999999999,3.177200000286099,3.1935999999046345,3.2102000002861004,3.2269000000953696,3.243700000286104,3.260400000095366,3.277000000000001,3.298000000000002,3.310599999904632,3.326900000095371,3.343499999999999,3.362800000190738,3.3782000002860997,3.3935999999046302,3.4133000001907376,3.4299999999999997,3.446400000095366,3.460400000095369,3.4772000002861034,3.4953000001907384,3.510300000190732,3.5269000000953667,3.5435000000000016,3.560300000190736,3.5768000001907367,3.593599999904633,3.610200000286106,3.626900000095368,3.645000000000003,3.6618000001907376,3.6799999999999997,3.6935000000000002,3.7102000002861004,3.7268000001907353,3.7435999999046317,3.760400000095366,3.7787000002861006,3.7938000001907355,3.8104000000953704,3.826999999999998,3.846900000095367,3.8634000000953677,3.8792000002861045,3.8937000002861026,3.913099999904631,3.9274000000953677,3.9437000002861,3.960400000095369,3.9802000002861035,3.9953000001907384,4.010300000190732,4.027000000000001,4.045499999999997,4.060300000190736,4.076999999999998,4.0963000001907375,4.111400000095365,4.129800000190734,4.145499999999998,4.160400000095365,4.177099999904634,4.196400000095366,4.210400000095369,4.226999999999997,4.247599999904629,4.263300000190732,4.276900000095367,4.293500000000002,4.311099999904634,4.326800000190737,4.343499999999999,4.360200000286106,4.376800000190734,4.393500000000003,4.410599999904633,4.426900000095365,4.4435,4.460800000190737,4.476999999999997,4.493499999999997,4.510200000286105,4.5268000001907325,4.543400000095367,4.560099999904629,4.576900000095371,4.593499999999999,4.610099999904634,4.626800000190734,4.646800000190737,4.662800000190735,4.676800000190738,4.6935,4.710300000190735,4.731900000095365,4.743499999999997,4.760300000190732,4.7768000001907325,4.793400000095367,4.810099999904629,4.826900000095371,4.843499999999999,4.860200000286106,4.876900000095368,4.893400000095369,4.912700000286101,4.928900000095368,4.944400000095371,4.962900000095367,4.977099999904631,4.99340000009537,5.010300000190732,5.029499999999999,5.044900000095367,5.062800000190734,5.079700000286103,5.096000000000004,5.110200000286106,5.126800000190734,5.143500000000003,5.16440000009537,5.183700000286102,5.198300000190734,5.2102000002861,5.226800000190735,5.243599999904632,5.260300000190732,5.2809000000953645,5.293500000000002,5.310200000286102,5.326800000190737,5.343499999999999,5.3637000002861015,5.3797000002861,5.395000000000003,5.410200000286103,5.426900000095365,5.4435,5.4602000002861,5.476800000190735,5.49340000009537]","[1732001112711,1732001112754,1732001112767,1732001112781,1732001112794,1732001112814,1732001112828,1732001112845,1732001112861,1732001112878,1732001112894,1732001112911,1732001112928,1732001112944,1732001112961,1732001112979,1732001112994,1732001113011,1732001113028,1732001113044,1732001113061,1732001113079,1732001113096,1732001113111,1732001113128,1732001113145,1732001113163,1732001113179,1732001113194,1732001113212,1732001113228,1732001113246,1732001113264,1732001113281,1732001113296,1732001113311,1732001113328,1732001113345,1732001113362,1732001113378,1732001113398,1732001113415,1732001113428,1732001113445,1732001113461,1732001113478,1732001113494,1732001113511,1732001113528,1732001113544,1732001113561,1732001113578,1732001113598,1732001113611,1732001113628,1732001113647,1732001113664,1732001113680,1732001113696,1732001113711,1732001113728,1732001113746,1732001113764,1732001113781,1732001113797,1732001113813,1732001113830,1732001113844,1732001113864,1732001113881,1732001113897,1732001113915,1732001113932,1732001113949,1732001113961,1732001113978,1732001113994,1732001114011,1732001114032,1732001114048,1732001114065,1732001114081,1732001114096,1732001114111,1732001114128,1732001114144,1732001114165,1732001114180,1732001114195,1732001114212,1732001114228,1732001114244,1732001114265,1732001114281,1732001114296,1732001114311,1732001114328,1732001114344,1732001114363,1732001114380,1732001114394,1732001114411,1732001114428,1732001114447,1732001114467,1732001114478,1732001114494,1732001114511,1732001114528,1732001114548,1732001114565,1732001114578,1732001114594,1732001114614,1732001114632,1732001114649,1732001114665,1732001114683,1732001114699,1732001114714,1732001114728,1732001114746,1732001114763,1732001114778,1732001114794,1732001114814,1732001114828,1732001114846,1732001114863,1732001114878,1732001114899,1732001114911,1732001114928,1732001114945,1732001114966,1732001114978,1732001114994,1732001115011,1732001115028,1732001115046,1732001115064,1732001115080,1732001115099,1732001115115,1732001115130,1732001115146,1732001115162,1732001115178,1732001115195,1732001115212,1732001115228,1732001115248,1732001115265,1732001115281,1732001115296,1732001115311,1732001115328,1732001115347,1732001115364,1732001115381,1732001115394,1732001115411,1732001115434,1732001115444,1732001115461,1732001115478,1732001115494,1732001115511,1732001115528,1732001115544,1732001115561,1732001115578,1732001115594,1732001115612,1732001115629,1732001115645,1732001115664,1732001115681,1732001115697,1732001115713,1732001115730,1732001115745,1732001115764,1732001115784,1732001115794,1732001115811,1732001115828,1732001115844,1732001115861,1732001115878,1732001115894,1732001115911,1732001115928,1732001115944,1732001115961,1732001115978,1732001115999,1732001116011,1732001116028,1732001116044,1732001116064,1732001116079,1732001116094,1732001116114,1732001116131,1732001116147,1732001116161,1732001116178,1732001116196,1732001116211,1732001116228,1732001116244,1732001116261,1732001116278,1732001116294,1732001116311,1732001116328,1732001116346,1732001116363,1732001116381,1732001116394,1732001116411,1732001116428,1732001116444,1732001116461,1732001116480,1732001116495,1732001116511,1732001116528,1732001116548,1732001116564,1732001116580,1732001116595,1732001116614,1732001116628,1732001116644,1732001116661,1732001116681,1732001116696,1732001116711,1732001116728,1732001116746,1732001116761,1732001116778,1732001116797,1732001116812,1732001116831,1732001116846,1732001116861,1732001116878,1732001116897,1732001116911,1732001116928,1732001116948,1732001116964,1732001116978,1732001116994,1732001117012,1732001117028,1732001117044,1732001117061,1732001117078,1732001117094,1732001117111,1732001117128,1732001117144,1732001117162,1732001117178,1732001117194,1732001117211,1732001117228,1732001117244,1732001117261,1732001117278,1732001117294,1732001117311,1732001117328,1732001117348,1732001117364,1732001117378,1732001117394,1732001117411,1732001117433,1732001117444,1732001117461,1732001117478,1732001117494,1732001117511,1732001117528,1732001117544,1732001117561,1732001117578,1732001117594,1732001117613,1732001117630,1732001117645,1732001117664,1732001117678,1732001117694,1732001117711,1732001117730,1732001117746,1732001117764,1732001117780,1732001117797,1732001117811,1732001117828,1732001117844,1732001117865,1732001117884,1732001117899,1732001117911,1732001117928,1732001117944,1732001117961,1732001117982,1732001117994,1732001118011,1732001118028,1732001118044,1732001118064,1732001118081,1732001118096,1732001118111,1732001118128,1732001118144,1732001118161,1732001118178,1732001118194]","[[903.8,683.7],[903.8,683.7],[931.4,675.8],[931.4,675.8],[944.6,670.2],[939.9,657.6],[943.3,621.8],[943.3,621.8],[972.2,605],[956.4,610.5],[952.2,631.9],[953.3,627.7],[955.4,645.1],[955.4,645.1],[962.3,646.4],[954.2,655.2],[954.2,655.2],[966.2,647.9],[965.4,638.9],[956.5,660.2],[936.2,646.3],[918.1,629.6],[901.4,610.7],[901.4,610.7],[884,608.2],[851.4,593.1],[832,571.2],[819.7,539.2],[800.5,519.2],[767.9,515.7],[724.1,516.1],[692.8,515.8],[691.8,518],[669.9,518],[638.7,526.4],[638.7,526.4],[614.3,520.5],[574.9,516.5],[522.6,521.1],[470.3,530.8],[466,525.5],[472.9,516.3],[472.9,516.3],[457.4,520.5],[457.4,520.5],[430,529.3],[430,529.3],[419,521.7],[419,521.7],[389.4,499.9],[389.4,499.9],[386.7,498.4],[392.8,508.7],[392.8,508.7],[403.9,521.4],[401.8,504],[422.4,518.9],[447.5,518.9],[499.9,512.8],[544.8,494.1],[585.1,484.9],[645.3,487.5],[678.2,470],[710.4,466.7],[755.5,464.6],[815,489.3],[835.9,479.1],[852.3,483.8],[878.5,486.8],[904.7,489.8],[955.4,490.8],[999.3,495.4],[1051.3,509.8],[1099.8,516.9],[1099.8,516.9],[1118.1,527.1],[1118.1,527.1],[1139.4,543.8],[1156.9,562.4],[1187.4,554.5],[1196.6,558.2],[1214.3,546],[1197.8,558.7],[1196.9,568.2],[1188.3,567.7],[1181.4,581],[1199.5,578.5],[1222.7,571.7],[1233.3,561.2],[1222.1,584.7],[1209.1,611.2],[1204.5,642.5],[1199.3,670.7],[1187.1,706.5],[1183.2,732.2],[1179.8,734.4],[1189.9,751.8],[1191.9,767],[1191,784],[1198.9,793.5],[1227,775.2],[1237.1,775.9],[1249.3,770.2],[1269.2,760.8],[1278.9,754.9],[1278.9,754.9],[1280.7,739.7],[1263,725.5],[1245.3,711.3],[1276.4,712.2],[1313.9,709.2],[1313.9,709.2],[1334.7,722],[1354.5,730.2],[1388.2,737.9],[1415.8,744.5],[1437.5,757.4],[1467.5,776.7],[1496.5,790.6],[1525.5,804.5],[1526.9,814.5],[1526.8,822.9],[1521.9,827.1],[1519.1,828],[1522.4,833.4],[1525.7,838.8],[1531,827.9],[1535.4,826.6],[1542.4,834.6],[1549.4,842.6],[1551.5,837.8],[1551.5,837.8],[1548.7,838.5],[1559.6,840.5],[1560.6,844],[1560.6,844],[1557.3,826.5],[1557.3,826.5],[1551.1,815.1],[1553,814.9],[1546.3,794.2],[1539.2,762.4],[1533.9,743.2],[1532.1,725.8],[1543.5,697.9],[1546,672.9],[1527.3,624.8],[1498.5,599],[1468.7,579],[1436.6,564.4],[1397.6,537.9],[1357.4,518.6],[1325.5,484.2],[1301.3,433.6],[1264.4,398.6],[1264.4,398.6],[1227,358.5],[1220.2,355.5],[1214.4,335.1],[1212.5,302.8],[1212.5,302.8],[1223,261.1],[1243,253.7],[1243,253.7],[1256.2,254.5],[1256.2,254.5],[1262.4,250.9],[1262.4,250.9],[1251.4,259.4],[1251.4,259.4],[1172.2,288.2],[1172.2,288.2],[1081,314.8],[995.9,308.8],[906.6,322.1],[817.3,335.4],[720.8,358.3],[625.8,356.9],[545.3,353.1],[448,353.4],[377.7,362.6],[374.3,355.7],[391.9,365.2],[388.5,394.6],[388.5,394.6],[413.5,425.2],[472.1,505.3],[525.5,585.2],[603.2,677],[673.2,763],[773.4,819.6],[849.6,883.9],[925.4,916],[996.1,943.8],[996.1,943.8],[1074.5,964],[1148.3,972.2],[1148.3,972.2],[1183.1,924],[1204.4,888.6],[1206,854.1],[1217.9,831.1],[1214.2,813.8],[1208.5,788.9],[1206.9,794],[1214.9,790.4],[1214.9,790.4],[1223.9,799.7],[1223.9,799.7],[1228.2,784.8],[1224.8,781.1],[1234.9,764.6],[1262.4,765.1],[1279.5,751],[1309.2,768.9],[1347.6,781.8],[1385.2,785.6],[1403.2,790.5],[1420.3,783.7],[1443.9,799.8],[1483.3,808.9],[1520.8,815.2],[1513,800.2],[1498,797.7],[1456.6,771.2],[1409.7,751.1],[1344.5,728.7],[1280.2,717.1],[1223.5,709.1],[1147.2,698.8],[1105.9,666.3],[1061.1,638.1],[1058.9,589.2],[1048.1,558.6],[1045.2,531.4],[1049.8,494.2],[1072,474.8],[1099.9,447.4],[1120.6,420.2],[1150.3,379.9],[1141.2,362.5],[1137.5,343.6],[1125.3,360.3],[1125.3,360.3],[1129,349.3],[1143,350.6],[1152.8,352.9],[1168.1,322.3],[1176.3,302],[1188.6,278.5],[1191.9,267.3],[1198.7,262],[1205.5,256.7],[1214.5,236.1],[1214.5,236.1],[1214.1,227],[1214.1,227],[1219.6,219.6],[1219.6,219.6],[1226.9,266.1],[1238.4,317.8],[1259,363.2],[1272.6,430.3],[1277.4,495.2],[1286.1,537.8],[1305.5,609.6],[1300.5,681.6],[1317.7,722.4],[1334.7,777.7],[1348.9,777.1],[1346.2,802],[1342.2,814.9],[1369.8,809.5],[1391.2,761.6],[1397.2,727.2],[1389.2,653],[1408,608.2],[1409.8,586.2],[1405.8,566.9],[1392.4,502.3],[1392.4,502.3],[1385.4,475.2],[1384,470.9],[1384,470.9],[1343.1,446.4],[1343.1,446.4],[1315.2,466.7],[1315.2,466.7],[1307.3,488.5],[1307.3,488.5],[1268.7,547.1],[1268.7,547.1],[1258.6,594.4],[1227.2,622.7],[1206.7,600.5],[1198.6,628.3],[1203.7,616.3],[1202.5,589.5],[1210.4,588.4],[1217.1,577.7],[1206.1,553.7],[1227.3,517.5],[1219.5,471.1],[1237.2,440.6],[1235,435.3],[1235,435.3],[1226.9,432.6],[1186.7,433.5],[1148.3,424.2],[1118.8,409],[1118.8,409],[1105.5,403.5],[1086.2,411.6],[1086.2,411.6],[1068.7,405.7],[1043.4,402.6],[1043.4,402.6],[1027.6,402.1],[1015.1,427.3],[1013.3,436.7],[1019.7,444.2],[1024.3,461.9],[1035.9,470.8],[1035.2,496.4],[1047.3,525.1],[1050,532.7],[1047.4,541.1],[1035.3,546.9],[1021.3,531.4]]","[-0.2,0.6000000000000001]","[0.2,0.6000000000000001]","[0.6000000000000001,0.6000000000000001]","[-0.6000000000000001,-0.2]","[-0.6000000000000001,0.2]","[-0.6000000000000001,-0.6000000000000001]","[-0.2,-0.2]","[0.2,-0.2]","[0.6000000000000001,-0.2]","[-0.2,0.2]","[0.2,0.2]","[0.6000000000000001,0.2]","[-0.2,-0.6000000000000001]","[0.2,-0.6000000000000001]","[0.6000000000000001,-0.6000000000000001]",0,0,0,0,1,3,Monitor,25,40,9,1,50,4,1,60,5
