inst1_resp.keys,inst1_resp.rt,calibrationMouse.x,calibrationMouse.y,calibrationMouse.leftButton,calibrationMouse.midButton,calibrationMouse.rightButton,calibrationClick.x,calibrationClick.y,calibrationClick.leftButton,calibrationClick.midButton,calibrationClick.rightButton,trialsc.thisRepN,trialsc.thisTrialN,trialsc.thisN,trialsc.thisIndex,trialsc.ran,calibration_x,calibration_y,participant,session,date,expName,psychopyVersion,OS,frameRate,calibrationClick.clicked_name,ScreenRes_pixels,Camera_pixels,mouse_2.x,mouse_2.y,mouse_2.leftButton,mouse_2.midButton,mouse_2.rightButton,mouse_2.time,mouse_2.clicked_name,mouse.x,mouse.y,mouse.leftButton,mouse.midButton,mouse.rightButton,mouse.time,mouse.clicked_name,Choice,Trial,TrialDuration,MOUSE_GAZE,ET_GAZE,ET_GAZE_x_T,time,unixTime,ET_GAZE_NF,Loc_Bus_label,Loc_Metro_label,Loc_RH_label,Loc_Cost_label,Loc_Travel_label,Loc_Comfort_label,Loc_Bus_cost,Loc_Metro_cost,Loc_RH_cost,Loc_Bus_travel,Loc_Metro_travel,Loc_RH_travel,Loc_Bus_comfort,Loc_Metro_comfort,Loc_RH_comfort,trials.thisRepN,trials.thisTrialN,trials.thisN,trials.thisIndex,trials.ran,Block,Device,RH_cost,RH_travel_time,RH_Comfort,metro_cost,metro_travel_time,metro_Comfort,Bus_cost,Bus_travel_time,Bus_Comfort
space,1.5671,-0.119791667,-0.240740741,1,0,0,0.678125,0.698148148,1,0,0,0,0,0,19,1,0.67,0.67,21,001,2024-11-19_15h49.00.796,Attention_exp_legacy,2023.1.0,Win32,59.88023952,,,,,,,,,,,,,,,,,,,,,,,,,,,,,,,,,,,,,,,,,,,,,,,,,,,,,,,,,
,,,,,,,0.315625,-0.662962963,1,0,0,0,1,1,14,1,0.33,-0.67,21,001,2024-11-19_15h49.00.796,Attention_exp_legacy,2023.1.0,Win32,59.88023952,,,,,,,,,,,,,,,,,,,,,,,,,,,,,,,,,,,,,,,,,,,,,,,,,,,,,,,,,
,,,,,,,-0.007291667,-0.664814815,1,0,0,0,2,2,9,1,0,-0.67,21,001,2024-11-19_15h49.00.796,Attention_exp_legacy,2023.1.0,Win32,59.88023952,calibration_square,,,,,,,,,,,,,,,,,,,,,,,,,,,,,,,,,,,,,,,,,,,,,,,,,,,,,,,,
,,,,,,,-0.342708333,0.335185185,1,0,0,0,3,3,7,1,-0.33,0.33,21,001,2024-11-19_15h49.00.796,Attention_exp_legacy,2023.1.0,Win32,59.88023952,,,,,,,,,,,,,,,,,,,,,,,,,,,,,,,,,,,,,,,,,,,,,,,,,,,,,,,,,
,,,,,,,0.34375,-0.324074074,1,0,0,0,4,4,15,1,0.33,-0.33,21,001,2024-11-19_15h49.00.796,Attention_exp_legacy,2023.1.0,Win32,59.88023952,,,,,,,,,,,,,,,,,,,,,,,,,,,,,,,,,,,,,,,,,,,,,,,,,,,,,,,,,
,,,,,,,-0.005208333,0.012962963,1,0,0,0,5,5,11,1,0,0,21,001,2024-11-19_15h49.00.796,Attention_exp_legacy,2023.1.0,Win32,59.88023952,,,,,,,,,,,,,,,,,,,,,,,,,,,,,,,,,,,,,,,,,,,,,,,,,,,,,,,,,
,,,,,,,-0.661458333,0.32962963,1,0,0,0,6,6,3,1,-0.67,0.33,21,001,2024-11-19_15h49.00.796,Attention_exp_legacy,2023.1.0,Win32,59.88023952,calibration_square,,,,,,,,,,,,,,,,,,,,,,,,,,,,,,,,,,,,,,,,,,,,,,,,,,,,,,,,
,,,,,,,0.342708333,0.651851852,1,0,0,0,7,7,18,1,0.33,0.67,21,001,2024-11-19_15h49.00.796,Attention_exp_legacy,2023.1.0,Win32,59.88023952,,,,,,,,,,,,,,,,,,,,,,,,,,,,,,,,,,,,,,,,,,,,,,,,,,,,,,,,,
,,,,,,,-0.661458333,-0.324074074,1,0,0,0,8,8,1,1,-0.67,-0.33,21,001,2024-11-19_15h49.00.796,Attention_exp_legacy,2023.1.0,Win32,59.88023952,calibration_square,,,,,,,,,,,,,,,,,,,,,,,,,,,,,,,,,,,,,,,,,,,,,,,,,,,,,,,,
,,,,,,,0.320833333,0.344444444,1,0,0,0,9,9,17,1,0.33,0.33,21,001,2024-11-19_15h49.00.796,Attention_exp_legacy,2023.1.0,Win32,59.88023952,,,,,,,,,,,,,,,,,,,,,,,,,,,,,,,,,,,,,,,,,,,,,,,,,,,,,,,,,
,,,,,,,0.00625,-0.324074074,1,0,0,0,10,10,10,1,0,-0.33,21,001,2024-11-19_15h49.00.796,Attention_exp_legacy,2023.1.0,Win32,59.88023952,calibration_square,,,,,,,,,,,,,,,,,,,,,,,,,,,,,,,,,,,,,,,,,,,,,,,,,,,,,,,,
,,,,,,,0.672916667,-0.672222222,1,0,0,0,11,11,20,1,0.67,-0.67,21,001,2024-11-19_15h49.00.796,Attention_exp_legacy,2023.1.0,Win32,59.88023952,calibration_square,,,,,,,,,,,,,,,,,,,,,,,,,,,,,,,,,,,,,,,,,,,,,,,,,,,,,,,,
,,,,,,,-0.322916667,-0.327777778,1,0,0,0,12,12,5,1,-0.33,-0.33,21,001,2024-11-19_15h49.00.796,Attention_exp_legacy,2023.1.0,Win32,59.88023952,calibration_square,,,,,,,,,,,,,,,,,,,,,,,,,,,,,,,,,,,,,,,,,,,,,,,,,,,,,,,,
,,,,,,,-0.317708333,-0.659259259,1,0,0,0,13,13,4,1,-0.33,-0.67,21,001,2024-11-19_15h49.00.796,Attention_exp_legacy,2023.1.0,Win32,59.88023952,,,,,,,,,,,,,,,,,,,,,,,,,,,,,,,,,,,,,,,,,,,,,,,,,,,,,,,,,
,,,,,,,-0.326041667,0.646296296,1,0,0,0,14,14,8,1,-0.33,0.67,21,001,2024-11-19_15h49.00.796,Attention_exp_legacy,2023.1.0,Win32,59.88023952,,,,,,,,,,,,,,,,,,,,,,,,,,,,,,,,,,,,,,,,,,,,,,,,,,,,,,,,,
,,,,,,,-0.659375,-0.662962963,1,0,0,0,15,15,0,1,-0.67,-0.67,21,001,2024-11-19_15h49.00.796,Attention_exp_legacy,2023.1.0,Win32,59.88023952,,,,,,,,,,,,,,,,,,,,,,,,,,,,,,,,,,,,,,,,,,,,,,,,,,,,,,,,,
,,,,,,,-0.019791667,0.666666667,1,0,0,0,16,16,13,1,0,0.67,21,001,2024-11-19_15h49.00.796,Attention_exp_legacy,2023.1.0,Win32,59.88023952,,,,,,,,,,,,,,,,,,,,,,,,,,,,,,,,,,,,,,,,,,,,,,,,,,,,,,,,,
,,,,,,,-0.00625,0.324074074,1,0,0,0,17,17,12,1,0,0.33,21,001,2024-11-19_15h49.00.796,Attention_exp_legacy,2023.1.0,Win32,59.88023952,calibration_square,,,,,,,,,,,,,,,,,,,,,,,,,,,,,,,,,,,,,,,,,,,,,,,,,,,,,,,,
,,,,,,,-0.332291667,0.001851852,1,0,0,0,18,18,6,1,-0.33,0,21,001,2024-11-19_15h49.00.796,Attention_exp_legacy,2023.1.0,Win32,59.88023952,calibration_square,,,,,,,,,,,,,,,,,,,,,,,,,,,,,,,,,,,,,,,,,,,,,,,,,,,,,,,,
,,,,,,,-0.669791667,0,1,0,0,0,19,19,2,1,-0.67,0,21,001,2024-11-19_15h49.00.796,Attention_exp_legacy,2023.1.0,Win32,59.88023952,calibration_square,,,,,,,,,,,,,,,,,,,,,,,,,,,,,,,,,,,,,,,,,,,,,,,,,,,,,,,,
,,,,,,,0.323958333,0.014814815,1,0,0,0,20,20,16,1,0.33,0,21,001,2024-11-19_15h49.00.796,Attention_exp_legacy,2023.1.0,Win32,59.88023952,,,,,,,,,,,,,,,,,,,,,,,,,,,,,,,,,,,,,,,,,,,,,,,,,,,,,,,,,
,,,,,,,,,,,,,,,,,,,21,001,2024-11-19_15h49.00.796,Attention_exp_legacy,2023.1.0,Win32,59.88023952,,"[1920,1080]","[640,480]",[0.06145833333333333],[-0.4703703703703704],[1],[0],[0],[5.163599999904633],"[""StartButton""]",[0.16145833333333334],[0.6407407407407407],[1],[0],[0],[10.334399999618526],"[""Metro_label""]",Metro_label,1,11.3602,"[[0.07604166666666666,-0.4166666666666667],[0.07604166666666666,-0.4166666666666667],[0.07604166666666666,-0.4166666666666667],[0.07604166666666666,-0.4166666666666667],[0.07604166666666666,-0.4166666666666667],[0.07604166666666666,-0.4166666666666667],[0.07604166666666666,-0.4166666666666667],[0.07604166666666666,-0.4166666666666667],[0.07604166666666666,-0.4166666666666667],[0.07604166666666666,-0.4166666666666667],[0.07604166666666666,-0.4166666666666667],[0.07604166666666666,-0.4148148148148148],[0.07604166666666666,-0.4111111111111111],[0.07604166666666666,-0.40925925925925927],[0.07604166666666666,-0.40555555555555556],[0.07604166666666666,-0.40370370370370373],[0.07604166666666666,-0.40370370370370373],[0.07604166666666666,-0.4],[0.07604166666666666,-0.4],[0.075,-0.39814814814814814],[0.07291666666666667,-0.3962962962962963],[0.06666666666666667,-0.3925925925925926],[0.06041666666666667,-0.3888888888888889],[0.051041666666666666,-0.38333333333333336],[0.04479166666666667,-0.3814814814814815],[0.036458333333333336,-0.37592592592592594],[0.027083333333333334,-0.3685185185185185],[0.023958333333333335,-0.36666666666666664],[0.019791666666666666,-0.3611111111111111],[0.013541666666666667,-0.35555555555555557],[0.011458333333333333,-0.35185185185185186],[0.008333333333333333,-0.35],[0.005208333333333333,-0.34814814814814815],[0.003125,-0.34629629629629627],[0.0010416666666666667,-0.34444444444444444],[0,-0.34444444444444444],[-0.0020833333333333333,-0.3425925925925926],[-0.0020833333333333333,-0.3425925925925926],[-0.003125,-0.34074074074074073],[-0.003125,-0.34074074074074073],[-0.004166666666666667,-0.34074074074074073],[-0.004166666666666667,-0.34074074074074073],[-0.005208333333333333,-0.34074074074074073],[-0.005208333333333333,-0.34074074074074073],[-0.005208333333333333,-0.34074074074074073],[-0.005208333333333333,-0.34074074074074073],[-0.005208333333333333,-0.34074074074074073],[-0.005208333333333333,-0.34074074074074073],[-0.005208333333333333,-0.34074074074074073],[-0.005208333333333333,-0.34074074074074073],[-0.005208333333333333,-0.34074074074074073],[-0.005208333333333333,-0.34074074074074073],[-0.00625,-0.34074074074074073],[-0.008333333333333333,-0.34074074074074073],[-0.008333333333333333,-0.34074074074074073],[-0.010416666666666666,-0.34074074074074073],[-0.011458333333333333,-0.34074074074074073],[-0.011458333333333333,-0.34074074074074073],[-0.0125,-0.34074074074074073],[-0.0125,-0.34074074074074073],[-0.0125,-0.34074074074074073],[-0.0125,-0.34074074074074073],[-0.0125,-0.34074074074074073],[-0.0125,-0.34074074074074073],[-0.0125,-0.34074074074074073],[-0.0125,-0.34074074074074073],[-0.0125,-0.34074074074074073],[-0.0125,-0.3388888888888889],[-0.0125,-0.337037037037037],[-0.0125,-0.3333333333333333],[-0.0125,-0.3333333333333333],[-0.0125,-0.3333333333333333],[-0.0125,-0.3333333333333333],[-0.0125,-0.3333333333333333],[-0.0125,-0.3333333333333333],[-0.0125,-0.3333333333333333],[-0.0125,-0.3333333333333333],[-0.0125,-0.3333333333333333],[-0.0125,-0.3333333333333333],[-0.0125,-0.3314814814814815],[-0.0125,-0.3314814814814815],[-0.0125,-0.3314814814814815],[-0.0125,-0.3296296296296296],[-0.0125,-0.3296296296296296],[-0.0125,-0.3296296296296296],[-0.0125,-0.3296296296296296],[-0.0125,-0.3296296296296296],[-0.0125,-0.3296296296296296],[-0.0125,-0.3277777777777778],[-0.0125,-0.32592592592592595],[-0.0125,-0.32592592592592595],[-0.0125,-0.32592592592592595],[-0.0125,-0.32592592592592595],[-0.0125,-0.32592592592592595],[-0.011458333333333333,-0.32222222222222224],[-0.011458333333333333,-0.32222222222222224],[-0.011458333333333333,-0.32222222222222224],[-0.011458333333333333,-0.32222222222222224],[-0.011458333333333333,-0.32222222222222224],[-0.011458333333333333,-0.32222222222222224],[-0.011458333333333333,-0.32222222222222224],[-0.011458333333333333,-0.32222222222222224],[-0.011458333333333333,-0.32222222222222224],[-0.011458333333333333,-0.32222222222222224],[-0.011458333333333333,-0.32222222222222224],[-0.011458333333333333,-0.32222222222222224],[-0.011458333333333333,-0.32222222222222224],[-0.011458333333333333,-0.32222222222222224],[-0.011458333333333333,-0.32222222222222224],[-0.011458333333333333,-0.32222222222222224],[-0.0125,-0.32222222222222224],[-0.0125,-0.32222222222222224],[-0.0125,-0.32222222222222224],[-0.014583333333333334,-0.32592592592592595],[-0.014583333333333334,-0.32592592592592595],[-0.014583333333333334,-0.32592592592592595],[-0.014583333333333334,-0.32592592592592595],[-0.014583333333333334,-0.32592592592592595],[-0.014583333333333334,-0.32592592592592595],[-0.014583333333333334,-0.32592592592592595],[-0.014583333333333334,-0.32592592592592595],[-0.014583333333333334,-0.32592592592592595],[-0.014583333333333334,-0.32592592592592595],[-0.014583333333333334,-0.32592592592592595],[-0.014583333333333334,-0.32592592592592595],[-0.014583333333333334,-0.32592592592592595],[-0.014583333333333334,-0.32592592592592595],[-0.014583333333333334,-0.32592592592592595],[-0.014583333333333334,-0.32592592592592595],[-0.014583333333333334,-0.32592592592592595],[-0.014583333333333334,-0.32592592592592595],[-0.014583333333333334,-0.32592592592592595],[-0.014583333333333334,-0.32592592592592595],[-0.014583333333333334,-0.32592592592592595],[-0.014583333333333334,-0.32592592592592595],[-0.014583333333333334,-0.32592592592592595],[-0.014583333333333334,-0.32592592592592595],[-0.014583333333333334,-0.32592592592592595],[-0.014583333333333334,-0.32592592592592595],[-0.014583333333333334,-0.32592592592592595],[-0.014583333333333334,-0.32592592592592595],[-0.014583333333333334,-0.32592592592592595],[-0.014583333333333334,-0.32592592592592595],[-0.014583333333333334,-0.32592592592592595],[-0.014583333333333334,-0.32592592592592595],[-0.014583333333333334,-0.32592592592592595],[-0.014583333333333334,-0.32592592592592595],[-0.014583333333333334,-0.32592592592592595],[-0.014583333333333334,-0.32592592592592595],[-0.014583333333333334,-0.32592592592592595],[-0.014583333333333334,-0.32592592592592595],[-0.014583333333333334,-0.32592592592592595],[-0.014583333333333334,-0.32592592592592595],[-0.014583333333333334,-0.32592592592592595],[-0.014583333333333334,-0.32592592592592595],[-0.014583333333333334,-0.32592592592592595],[-0.014583333333333334,-0.32592592592592595],[-0.014583333333333334,-0.32592592592592595],[-0.014583333333333334,-0.32592592592592595],[-0.013541666666666667,-0.32407407407407407],[-0.013541666666666667,-0.32407407407407407],[-0.013541666666666667,-0.32407407407407407],[-0.013541666666666667,-0.32407407407407407],[-0.013541666666666667,-0.32407407407407407],[-0.013541666666666667,-0.32407407407407407],[-0.013541666666666667,-0.32407407407407407],[-0.013541666666666667,-0.32407407407407407],[-0.013541666666666667,-0.32407407407407407],[-0.013541666666666667,-0.32407407407407407],[-0.013541666666666667,-0.32407407407407407],[-0.013541666666666667,-0.32407407407407407],[-0.013541666666666667,-0.32407407407407407],[-0.013541666666666667,-0.32407407407407407],[-0.013541666666666667,-0.32407407407407407],[-0.013541666666666667,-0.32407407407407407],[-0.013541666666666667,-0.32407407407407407],[-0.013541666666666667,-0.32407407407407407],[-0.013541666666666667,-0.32407407407407407],[-0.013541666666666667,-0.32407407407407407],[-0.013541666666666667,-0.32407407407407407],[-0.013541666666666667,-0.32407407407407407],[-0.013541666666666667,-0.32407407407407407],[-0.013541666666666667,-0.32407407407407407],[-0.013541666666666667,-0.32407407407407407],[-0.013541666666666667,-0.32407407407407407],[-0.013541666666666667,-0.32407407407407407],[-0.013541666666666667,-0.32407407407407407],[-0.013541666666666667,-0.32407407407407407],[-0.013541666666666667,-0.32407407407407407],[-0.013541666666666667,-0.32407407407407407],[-0.013541666666666667,-0.32407407407407407],[-0.013541666666666667,-0.32407407407407407],[-0.013541666666666667,-0.32407407407407407],[-0.013541666666666667,-0.32407407407407407],[-0.013541666666666667,-0.32407407407407407],[-0.013541666666666667,-0.32407407407407407],[-0.013541666666666667,-0.32407407407407407],[-0.013541666666666667,-0.32407407407407407],[-0.013541666666666667,-0.32407407407407407],[-0.013541666666666667,-0.32407407407407407],[-0.013541666666666667,-0.32407407407407407],[-0.013541666666666667,-0.32407407407407407],[-0.013541666666666667,-0.32407407407407407],[-0.013541666666666667,-0.32407407407407407],[-0.013541666666666667,-0.32407407407407407],[-0.013541666666666667,-0.32407407407407407],[-0.013541666666666667,-0.32407407407407407],[-0.013541666666666667,-0.32407407407407407],[-0.013541666666666667,-0.32407407407407407],[-0.013541666666666667,-0.32407407407407407],[-0.013541666666666667,-0.32407407407407407],[-0.013541666666666667,-0.32407407407407407],[-0.013541666666666667,-0.32407407407407407],[-0.013541666666666667,-0.32407407407407407],[-0.013541666666666667,-0.32407407407407407],[-0.013541666666666667,-0.32407407407407407],[-0.013541666666666667,-0.32407407407407407],[-0.013541666666666667,-0.32407407407407407],[-0.013541666666666667,-0.32407407407407407],[-0.013541666666666667,-0.32407407407407407],[-0.013541666666666667,-0.32407407407407407],[-0.013541666666666667,-0.32407407407407407],[-0.013541666666666667,-0.32407407407407407],[-0.013541666666666667,-0.32407407407407407],[-0.013541666666666667,-0.32407407407407407],[-0.013541666666666667,-0.32407407407407407],[-0.013541666666666667,-0.32407407407407407],[-0.013541666666666667,-0.32407407407407407],[-0.013541666666666667,-0.32407407407407407],[-0.013541666666666667,-0.32407407407407407],[-0.013541666666666667,-0.32407407407407407],[-0.013541666666666667,-0.32407407407407407],[-0.013541666666666667,-0.32407407407407407],[-0.013541666666666667,-0.32407407407407407],[-0.013541666666666667,-0.32407407407407407],[-0.013541666666666667,-0.32407407407407407],[-0.013541666666666667,-0.32407407407407407],[-0.013541666666666667,-0.32407407407407407],[-0.013541666666666667,-0.32407407407407407],[-0.013541666666666667,-0.32407407407407407],[-0.013541666666666667,-0.32407407407407407],[-0.013541666666666667,-0.32407407407407407],[-0.013541666666666667,-0.32407407407407407],[-0.013541666666666667,-0.32407407407407407],[-0.013541666666666667,-0.32407407407407407],[-0.013541666666666667,-0.32407407407407407],[-0.013541666666666667,-0.32407407407407407],[-0.013541666666666667,-0.32407407407407407],[-0.013541666666666667,-0.32407407407407407],[-0.013541666666666667,-0.32407407407407407],[-0.0125,-0.32592592592592595],[-0.0125,-0.32592592592592595],[-0.0125,-0.32592592592592595],[-0.0125,-0.32592592592592595],[-0.0125,-0.32592592592592595],[-0.0125,-0.32592592592592595],[-0.0125,-0.32592592592592595],[-0.0125,-0.32592592592592595],[-0.0125,-0.32592592592592595],[-0.0125,-0.32592592592592595],[-0.0125,-0.32592592592592595],[-0.0125,-0.32592592592592595],[-0.0125,-0.32592592592592595],[-0.0125,-0.32592592592592595],[-0.0125,-0.32592592592592595],[-0.0125,-0.32592592592592595],[-0.0125,-0.32592592592592595],[-0.0125,-0.32592592592592595],[-0.0125,-0.32592592592592595],[-0.0125,-0.32592592592592595],[-0.0125,-0.32592592592592595],[-0.0125,-0.32592592592592595],[-0.0125,-0.32592592592592595],[-0.0125,-0.32592592592592595],[-0.0125,-0.32592592592592595],[-0.0125,-0.32592592592592595],[-0.0125,-0.32592592592592595],[-0.0125,-0.32592592592592595],[-0.0125,-0.32592592592592595],[-0.0125,-0.32592592592592595],[-0.0125,-0.32592592592592595],[-0.0125,-0.32592592592592595],[-0.0125,-0.32592592592592595],[-0.0125,-0.32592592592592595],[-0.0125,-0.32592592592592595],[-0.0125,-0.32592592592592595],[-0.0125,-0.32592592592592595],[-0.0125,-0.32592592592592595],[-0.0125,-0.32592592592592595],[-0.0125,-0.32592592592592595],[-0.0125,-0.32592592592592595],[-0.0125,-0.32592592592592595],[-0.0125,-0.32592592592592595],[-0.0125,-0.32592592592592595],[-0.0125,-0.32592592592592595],[-0.0125,-0.32592592592592595],[-0.0125,-0.32592592592592595],[-0.0125,-0.32592592592592595],[-0.0125,-0.32592592592592595],[-0.0125,-0.32592592592592595],[-0.0125,-0.32592592592592595],[-0.0125,-0.32592592592592595],[-0.0125,-0.32592592592592595],[-0.011458333333333333,-0.32592592592592595],[-0.011458333333333333,-0.32592592592592595],[-0.011458333333333333,-0.32592592592592595],[-0.011458333333333333,-0.32592592592592595],[-0.010416666666666666,-0.32407407407407407],[-0.010416666666666666,-0.32407407407407407],[-0.010416666666666666,-0.32407407407407407],[-0.010416666666666666,-0.32407407407407407],[-0.010416666666666666,-0.32407407407407407],[-0.010416666666666666,-0.32407407407407407],[-0.010416666666666666,-0.32407407407407407],[-0.010416666666666666,-0.32407407407407407],[-0.010416666666666666,-0.32407407407407407],[-0.010416666666666666,-0.32407407407407407],[-0.010416666666666666,-0.32407407407407407],[-0.010416666666666666,-0.32407407407407407],[-0.010416666666666666,-0.32407407407407407],[-0.010416666666666666,-0.32407407407407407],[-0.010416666666666666,-0.32407407407407407],[-0.010416666666666666,-0.32407407407407407],[-0.010416666666666666,-0.32407407407407407],[-0.010416666666666666,-0.32407407407407407],[-0.010416666666666666,-0.32407407407407407],[-0.010416666666666666,-0.32407407407407407],[-0.010416666666666666,-0.32407407407407407],[-0.010416666666666666,-0.32407407407407407],[-0.010416666666666666,-0.32407407407407407],[-0.010416666666666666,-0.32407407407407407],[-0.010416666666666666,-0.32407407407407407],[-0.010416666666666666,-0.32407407407407407],[-0.010416666666666666,-0.32407407407407407],[-0.010416666666666666,-0.32407407407407407],[-0.010416666666666666,-0.32407407407407407],[-0.010416666666666666,-0.32407407407407407],[-0.010416666666666666,-0.32407407407407407],[-0.010416666666666666,-0.32407407407407407],[-0.010416666666666666,-0.32407407407407407],[-0.010416666666666666,-0.32407407407407407],[-0.010416666666666666,-0.32407407407407407],[-0.010416666666666666,-0.32407407407407407],[-0.010416666666666666,-0.32407407407407407],[-0.010416666666666666,-0.32407407407407407],[-0.010416666666666666,-0.32407407407407407],[-0.010416666666666666,-0.32407407407407407],[-0.010416666666666666,-0.32407407407407407],[-0.010416666666666666,-0.32407407407407407],[-0.010416666666666666,-0.32407407407407407],[-0.010416666666666666,-0.32407407407407407],[-0.010416666666666666,-0.32407407407407407],[-0.009375,-0.32407407407407407],[-0.008333333333333333,-0.32222222222222224],[-0.00625,-0.32037037037037036],[-0.00625,-0.32037037037037036],[-0.005208333333333333,-0.31851851851851853],[-0.005208333333333333,-0.31851851851851853],[-0.005208333333333333,-0.31851851851851853],[-0.005208333333333333,-0.31851851851851853],[-0.005208333333333333,-0.31851851851851853],[-0.004166666666666667,-0.31851851851851853],[-0.004166666666666667,-0.31851851851851853],[-0.004166666666666667,-0.31851851851851853],[-0.004166666666666667,-0.31851851851851853],[-0.004166666666666667,-0.31851851851851853],[-0.004166666666666667,-0.31851851851851853],[-0.004166666666666667,-0.31851851851851853],[-0.004166666666666667,-0.31851851851851853],[-0.004166666666666667,-0.31851851851851853],[-0.004166666666666667,-0.31851851851851853],[-0.004166666666666667,-0.31851851851851853],[-0.003125,-0.31666666666666665],[-0.003125,-0.31666666666666665],[-0.003125,-0.31666666666666665],[-0.003125,-0.31666666666666665],[-0.003125,-0.31666666666666665],[-0.003125,-0.31666666666666665],[-0.003125,-0.31666666666666665],[-0.003125,-0.31666666666666665],[-0.003125,-0.31666666666666665],[-0.003125,-0.31666666666666665],[-0.003125,-0.31666666666666665],[-0.003125,-0.31666666666666665],[-0.0020833333333333333,-0.31296296296296294],[-0.0010416666666666667,-0.30925925925925923],[-0.0010416666666666667,-0.3074074074074074],[0,-0.3037037037037037],[0.0010416666666666667,-0.3],[0.0010416666666666667,-0.3],[0.0010416666666666667,-0.3],[0.0010416666666666667,-0.3],[0.0010416666666666667,-0.3],[0.0010416666666666667,-0.3],[0.0010416666666666667,-0.3],[0.0010416666666666667,-0.3],[0.0010416666666666667,-0.3],[0.0010416666666666667,-0.3],[0.0010416666666666667,-0.3],[0.0010416666666666667,-0.3],[0.0010416666666666667,-0.3],[0.0010416666666666667,-0.3],[0.0010416666666666667,-0.3],[0.0010416666666666667,-0.3],[0.0010416666666666667,-0.3],[0.0010416666666666667,-0.3],[0.0010416666666666667,-0.3],[0.0010416666666666667,-0.3],[0.0010416666666666667,-0.3],[0.0010416666666666667,-0.3],[0.0010416666666666667,-0.3],[0.0010416666666666667,-0.3],[0.0010416666666666667,-0.3],[0.0010416666666666667,-0.3],[0.0010416666666666667,-0.3],[0.0010416666666666667,-0.3],[0.0010416666666666667,-0.3],[0.0010416666666666667,-0.3],[0.0010416666666666667,-0.3],[0.0010416666666666667,-0.3],[0.0010416666666666667,-0.3],[0.0010416666666666667,-0.3],[0.0010416666666666667,-0.3],[0.0010416666666666667,-0.3],[0.0010416666666666667,-0.3],[0.0010416666666666667,-0.3],[0.0010416666666666667,-0.3],[0.0010416666666666667,-0.3],[0.0010416666666666667,-0.3],[0.0010416666666666667,-0.3],[0.0010416666666666667,-0.3],[0.0010416666666666667,-0.3],[0.0010416666666666667,-0.3],[0.0010416666666666667,-0.3],[0.0010416666666666667,-0.3],[0.0010416666666666667,-0.3],[0.0010416666666666667,-0.3],[0.0010416666666666667,-0.3],[0.0010416666666666667,-0.3],[0.0010416666666666667,-0.3],[0.0010416666666666667,-0.3],[0.0010416666666666667,-0.3],[0.0010416666666666667,-0.3],[0.0010416666666666667,-0.3],[0.0010416666666666667,-0.3],[0.0010416666666666667,-0.3],[0.0010416666666666667,-0.3],[0.0010416666666666667,-0.3],[0.0010416666666666667,-0.3],[0.0010416666666666667,-0.3],[0.0010416666666666667,-0.3],[0.0010416666666666667,-0.3],[0.0010416666666666667,-0.3],[0.0010416666666666667,-0.3],[0.0010416666666666667,-0.3],[0.0010416666666666667,-0.3],[0.0010416666666666667,-0.3],[0.0010416666666666667,-0.3],[0.0010416666666666667,-0.3],[0.0010416666666666667,-0.3],[0.0010416666666666667,-0.3],[0.0010416666666666667,-0.3],[0.0010416666666666667,-0.3],[0.0010416666666666667,-0.3],[0.0010416666666666667,-0.3],[0.0010416666666666667,-0.3],[0.0010416666666666667,-0.3],[0.0010416666666666667,-0.3],[0.0010416666666666667,-0.3],[0.0010416666666666667,-0.3],[0.0010416666666666667,-0.3],[0.0010416666666666667,-0.3],[0.0010416666666666667,-0.3],[0.0010416666666666667,-0.3],[0.0010416666666666667,-0.3],[0.0010416666666666667,-0.3],[0.0010416666666666667,-0.3],[0.0010416666666666667,-0.3],[0.0010416666666666667,-0.3],[0.0010416666666666667,-0.3],[0.0010416666666666667,-0.3],[0.0010416666666666667,-0.3],[0.0010416666666666667,-0.3],[0.0010416666666666667,-0.3],[0.0010416666666666667,-0.3],[0.0010416666666666667,-0.3],[0.0010416666666666667,-0.3],[0.0010416666666666667,-0.3],[0.0010416666666666667,-0.3],[0.0010416666666666667,-0.3],[0.0010416666666666667,-0.3],[0.0010416666666666667,-0.3],[0.0010416666666666667,-0.3],[0.0010416666666666667,-0.3],[0.0010416666666666667,-0.3],[0.0010416666666666667,-0.3],[0.0010416666666666667,-0.3],[0.0010416666666666667,-0.3],[0.0010416666666666667,-0.3],[0.0010416666666666667,-0.3],[0.0010416666666666667,-0.3],[0.0010416666666666667,-0.3],[0.0010416666666666667,-0.3],[0.0010416666666666667,-0.3],[0.0010416666666666667,-0.3],[0.0010416666666666667,-0.3],[0.0010416666666666667,-0.3],[0.0010416666666666667,-0.3],[0.0010416666666666667,-0.3],[0.0010416666666666667,-0.3],[0.0010416666666666667,-0.3],[0.0010416666666666667,-0.3],[0.0010416666666666667,-0.3],[0.0010416666666666667,-0.3],[0.0010416666666666667,-0.3],[0.0010416666666666667,-0.3],[0.0010416666666666667,-0.3],[0.0010416666666666667,-0.3],[0.0010416666666666667,-0.3],[0.0010416666666666667,-0.3],[0.0010416666666666667,-0.3],[0.0010416666666666667,-0.3],[0.0010416666666666667,-0.3],[0.0010416666666666667,-0.3],[0.0010416666666666667,-0.3],[0.0010416666666666667,-0.3],[0.0010416666666666667,-0.3],[0.0010416666666666667,-0.3],[0.0010416666666666667,-0.3],[0.0010416666666666667,-0.3],[0.0010416666666666667,-0.3],[0.0010416666666666667,-0.3],[0.0010416666666666667,-0.3],[0.0010416666666666667,-0.3],[0.0010416666666666667,-0.3],[0.0010416666666666667,-0.3],[0.003125,-0.29814814814814816],[0.003125,-0.2962962962962963],[0.00625,-0.29259259259259257],[0.009375,-0.29074074074074074],[0.011458333333333333,-0.2851851851851852],[0.013541666666666667,-0.2796296296296296],[0.015625,-0.2740740740740741],[0.016666666666666666,-0.26851851851851855],[0.01875,-0.25925925925925924],[0.020833333333333332,-0.25],[0.022916666666666665,-0.2462962962962963],[0.022916666666666665,-0.24444444444444444],[0.022916666666666665,-0.24259259259259258],[0.023958333333333335,-0.2388888888888889],[0.023958333333333335,-0.2388888888888889],[0.023958333333333335,-0.2388888888888889],[0.023958333333333335,-0.2388888888888889],[0.023958333333333335,-0.2351851851851852],[0.027083333333333334,-0.22777777777777777],[0.028125,-0.2222222222222222],[0.03229166666666667,-0.19814814814814816],[0.040625,-0.15925925925925927],[0.04895833333333333,-0.10555555555555556],[0.057291666666666664,-0.037037037037037035],[0.06354166666666666,0.044444444444444446],[0.07083333333333333,0.1259259259259259],[0.07708333333333334,0.2111111111111111],[0.08645833333333333,0.2814814814814815],[0.096875,0.3388888888888889],[0.103125,0.3814814814814815],[0.10729166666666666,0.40185185185185185],[0.10729166666666666,0.40185185185185185],[0.10729166666666666,0.40185185185185185],[0.10729166666666666,0.40185185185185185],[0.10729166666666666,0.40185185185185185],[0.10729166666666666,0.40185185185185185],[0.10729166666666666,0.40185185185185185],[0.10729166666666666,0.40185185185185185],[0.10729166666666666,0.40185185185185185],[0.10729166666666666,0.40185185185185185],[0.109375,0.40370370370370373],[0.11354166666666667,0.4074074074074074],[0.121875,0.4203703703703704],[0.13229166666666667,0.4648148148148148],[0.14270833333333333,0.5166666666666667],[0.14479166666666668,0.5611111111111111],[0.14583333333333334,0.5962962962962963],[0.14791666666666667,0.6222222222222222],[0.15,0.6370370370370371],[0.15104166666666666,0.6462962962962963],[0.15104166666666666,0.6462962962962963],[0.15104166666666666,0.6462962962962963],[0.15104166666666666,0.6462962962962963],[0.15104166666666666,0.6462962962962963],[0.15104166666666666,0.6462962962962963],[0.15104166666666666,0.6462962962962963],[0.15104166666666666,0.6481481481481481],[0.15416666666666667,0.6555555555555556],[0.15729166666666666,0.6611111111111111],[0.16041666666666668,0.6666666666666666],[0.16145833333333334,0.6722222222222223],[0.1625,0.6777777777777778],[0.1625,0.6777777777777778],[0.1625,0.6777777777777778],[0.1625,0.6777777777777778],[0.1625,0.6777777777777778],[0.1625,0.6777777777777778],[0.1625,0.6777777777777778],[0.1625,0.6777777777777778],[0.1625,0.6777777777777778],[0.1625,0.6777777777777778],[0.1625,0.6777777777777778],[0.1625,0.6722222222222223],[0.16145833333333334,0.6592592592592592],[0.16145833333333334,0.6481481481481481],[0.16145833333333334,0.6425925925925926],[0.16145833333333334,0.6407407407407407],[0.16145833333333334,0.6407407407407407],[0.16145833333333334,0.6407407407407407],[0.16145833333333334,0.6407407407407407],[0.16145833333333334,0.6407407407407407],[0.16145833333333334,0.6407407407407407],[0.16145833333333334,0.6407407407407407],[0.16145833333333334,0.6407407407407407],[0.16145833333333334,0.6407407407407407],[0.16145833333333334,0.6407407407407407],[0.16145833333333334,0.6407407407407407],[0.16145833333333334,0.6407407407407407],[0.16458333333333333,0.6407407407407407],[0.165625,0.6407407407407407],[0.16666666666666666,0.6351851851851852],[0.16875,0.6037037037037037],[0.16875,0.5611111111111111],[0.16875,0.5],[0.15104166666666666,0.4166666666666667],[0.12395833333333334,0.3333333333333333],[0.09270833333333334,0.2518518518518518],[0.06354166666666666,0.18333333333333332],[0.04791666666666667,0.15],[0.03958333333333333,0.1388888888888889],[0.03958333333333333,0.1388888888888889],[0.040625,0.1388888888888889],[0.040625,0.1388888888888889],[0.040625,0.1388888888888889],[0.040625,0.1388888888888889],[0.040625,0.1388888888888889],[0.040625,0.1388888888888889],[0.040625,0.1388888888888889],[0.040625,0.1388888888888889],[0.040625,0.1388888888888889],[0.040625,0.1388888888888889],[0.041666666666666664,0.14074074074074075],[0.04375,0.1425925925925926],[0.04375,0.1425925925925926],[0.04375,0.1425925925925926],[0.03854166666666667,0.13703703703703704],[0.03333333333333333,0.13333333333333333],[0.03333333333333333,0.13333333333333333],[0.03333333333333333,0.13148148148148148],[0.03333333333333333,0.13148148148148148],[0.03333333333333333,0.13148148148148148],[0.03333333333333333,0.13148148148148148],[0.03333333333333333,0.13148148148148148],[0.03333333333333333,0.13148148148148148],[0.03333333333333333,0.13148148148148148],[0.03229166666666667,0.13148148148148148],[0.03229166666666667,0.13148148148148148],[0.03229166666666667,0.13148148148148148],[0.03229166666666667,0.12962962962962962],[0.03229166666666667,0.12962962962962962],[0.03229166666666667,0.12962962962962962],[0.03229166666666667,0.12962962962962962],[0.03229166666666667,0.12962962962962962],[0.03229166666666667,0.12962962962962962],[0.03229166666666667,0.12962962962962962],[0.03229166666666667,0.12962962962962962],[0.03229166666666667,0.12962962962962962],[0.03229166666666667,0.12962962962962962],[0.03229166666666667,0.12962962962962962],[0.03229166666666667,0.12962962962962962],[0.03229166666666667,0.12962962962962962],[0.03229166666666667,0.12962962962962962],[0.03229166666666667,0.12962962962962962],[0.03229166666666667,0.12962962962962962]]","[[0.01864583333333331,0.11444444444444436],[0.01864583333333331,0.11444444444444436],[0.014999999999999977,0.0824074074074074],[-0.0021875000000000236,0.0712962962962963],[-0.049583333333333354,0.0448148148148149],[-0.05270833333333336,0.02092592592592584],[-0.03104166666666662,0.025925925925925925],[-0.017916666666666713,0.01444444444444436],[-0.02333333333333331,0.02111111111111107],[-0.03114583333333331,0.009814814814814731],[-0.029062499999999977,0.006481481481481481],[-0.020624999999999952,0.008888888888888804],[-0.007291666666666667,0.0514814814814814],[0.013854166666666619,0.08814814814814818],[0.020937500000000022,0.09648148148148153],[0.03718750000000005,0.13944444444444437],[0.03812500000000003,0.1648148148148148],[0.03145833333333338,0.1853703703703704],[0.013333333333333286,0.21444444444444435],[-0.010416666666666666,0.2601851851851852],[-0.03125,0.31259259259259253],[-0.03125,0.31259259259259253],[-0.03354166666666671,0.35481481481481486],[-0.04458333333333329,0.3472222222222222],[-0.04458333333333329,0.3472222222222222],[-0.07322916666666662,0.32833333333333325],[-0.0811458333333333,0.34092592592592597],[-0.0811458333333333,0.34092592592592597],[-0.0625,0.32333333333333336],[-0.10072916666666672,0.3161111111111112],[-0.10625,0.30833333333333335],[-0.09229166666666669,0.28851851851851845],[-0.09229166666666669,0.28851851851851845],[-0.06812499999999998,0.2855555555555556],[-0.06614583333333333,0.24444444444444444],[-0.06520833333333335,0.23351851851851857],[-0.06177083333333329,0.23407407407407405],[-0.04072916666666669,0.24592592592592585],[-0.04354166666666662,0.24740740740740744],[-0.09520833333333331,0.26370370370370366],[-0.08479166666666664,0.24888888888888885],[-0.07218749999999995,0.2412962962962962],[-0.07989583333333337,0.2103703703703704],[-0.08125,0.2094444444444445],[-0.08125,0.2094444444444445],[-0.09020833333333336,0.24518518518518514],[-0.10625,0.26796296296296307],[-0.11645833333333329,0.3194444444444444],[-0.11645833333333329,0.3194444444444444],[-0.12447916666666667,0.33499999999999996],[-0.12291666666666666,0.4364814814814816],[-0.13354166666666673,0.47962962962962963],[-0.16395833333333332,0.5885185185185184],[-0.18500000000000003,0.6311111111111111],[-0.19666666666666663,0.6962962962962963],[-0.20572916666666666,0.7316666666666667],[-0.20572916666666666,0.7316666666666667],[-0.19624999999999998,0.6881481481481482],[-0.19322916666666667,0.6672222222222222],[-0.20020833333333338,0.625],[-0.209375,0.6187037037037038],[-0.20281250000000003,0.5322222222222222],[-0.20281250000000003,0.5322222222222222],[-0.15187499999999995,0.46833333333333327],[-0.11385416666666662,0.36203703703703705],[-0.10375000000000002,0.33351851851851855],[-0.07927083333333336,0.3087037037037038],[-0.0828125,0.21574074074074073],[-0.0828125,0.21574074074074073],[-0.08135416666666669,0.2661111111111112],[-0.08052083333333329,0.2837037037037038],[-0.08052083333333329,0.2837037037037038],[-0.06802083333333328,0.287962962962963],[-0.050625000000000024,0.29444444444444445],[-0.02322916666666662,0.3096296296296297],[-0.02322916666666662,0.3096296296296297],[-0.03989583333333328,0.3768518518518518],[-0.03739583333333331,0.4035185185185185],[-0.01854166666666662,0.41148148148148156],[-0.015416666666666618,0.4198148148148149],[-0.00604166666666662,0.4866666666666666],[-0.0109375,0.5011111111111112],[-0.011354166666666643,0.5214814814814815],[-0.024687500000000046,0.5377777777777777],[-0.024687500000000046,0.5377777777777777],[-0.025312499999999953,0.5170370370370371],[-0.025312499999999953,0.5170370370370371],[0.000416666666666643,0.5272222222222223],[0.0609375,0.5262962962962964],[0.06447916666666664,0.5246296296296296],[0.07010416666666662,0.5257407407407407],[0.07999999999999995,0.5270370370370371],[0.10427083333333324,0.519074074074074],[0.13052083333333328,0.48703703703703705],[0.16531250000000006,0.45703703703703696],[0.20666666666666675,0.44833333333333336],[0.22458333333333325,0.4772222222222223],[0.20614583333333342,0.46648148148148144],[0.18020833333333333,0.4398148148148148],[0.18020833333333333,0.4398148148148148],[0.19677083333333342,0.43185185185185193],[0.1912499999999999,0.415925925925926],[0.1857291666666666,0.4],[0.19979166666666662,0.3925925925925926],[0.19979166666666662,0.3925925925925926],[0.2039583333333333,0.37518518518518523],[0.23083333333333325,0.36148148148148157],[0.23083333333333325,0.36148148148148157],[0.23083333333333325,0.36148148148148157],[0.23708333333333323,0.3168518518518519],[0.23708333333333323,0.3168518518518519],[0.2328125,0.29518518518518516],[0.2328125,0.29518518518518516],[0.1955208333333334,0.27907407407407414],[0.1955208333333334,0.27907407407407414],[0.15750000000000006,0.2948148148148149],[0.15750000000000006,0.2948148148148149],[0.13156249999999994,0.29907407407407405],[0.1310416666666666,0.32833333333333325],[0.12645833333333342,0.3635185185185184],[0.08510416666666672,0.36944444444444446],[0.03802083333333333,0.39740740740740743],[0.03802083333333333,0.39740740740740743],[-0.028125,0.4170370370370371],[-0.09041666666666662,0.43259259259259264],[-0.1063541666666667,0.4383333333333334],[-0.08156249999999995,0.42685185185185187],[-0.08156249999999995,0.42685185185185187],[-0.06760416666666665,0.3931481481481481],[-0.07385416666666664,0.38425925925925924],[-0.09343750000000005,0.3557407407407408],[-0.07708333333333334,0.3301851851851851],[-0.07614583333333336,0.3314814814814815],[-0.07614583333333336,0.3314814814814815],[-0.07302083333333335,0.3292592592592592],[-0.0765625,0.31240740740740747],[-0.02833333333333338,0.31240740740740747],[-0.07270833333333329,0.3229629629629629],[-0.13552083333333337,0.3520370370370371],[-0.21229166666666663,0.38925925925925936],[-0.2765625,0.4381481481481482],[-0.2942708333333333,0.4922222222222221],[-0.3438541666666667,0.5374074074074074],[-0.3438541666666667,0.5374074074074074],[-0.4061458333333333,0.5390740740740741],[-0.4061458333333333,0.5390740740740741],[-0.4382291666666667,0.5557407407407408],[-0.4382291666666667,0.5557407407407408],[-0.49635416666666665,0.5746296296296295],[-0.5444791666666667,0.5837037037037038],[-0.5522916666666667,0.5868518518518518],[-0.5154166666666666,0.5703703703703704],[-0.4815625,0.553888888888889],[-0.4496875000000001,0.5170370370370371],[-0.4630208333333333,0.5122222222222222],[-0.4735416666666667,0.5088888888888888],[-0.4546875,0.5131481481481482],[-0.4623958333333333,0.5111111111111111],[-0.44468749999999996,0.5259259259259259],[-0.44249999999999995,0.5409259259259259],[-0.4071875,0.5455555555555556],[-0.40625,0.5433333333333333],[-0.3867708333333333,0.5301851851851851],[-0.3867708333333333,0.5301851851851851],[-0.3567708333333333,0.5555555555555556],[-0.3567708333333333,0.5555555555555556],[-0.3290625,0.5162962962962963],[-0.30062500000000003,0.4722222222222222],[-0.27395833333333336,0.4883333333333334],[-0.27395833333333336,0.4883333333333334],[-0.24479166666666666,0.4677777777777778],[-0.18489583333333334,0.45092592592592595],[-0.12145833333333336,0.4581481481481481],[-0.07979166666666669,0.4401851851851853],[-0.03156249999999995,0.44462962962962965],[-0.03156249999999995,0.44462962962962965],[0.01854166666666662,0.4348148148148147],[0.01854166666666662,0.4348148148148147],[0.050625000000000024,0.41444444444444434],[0.10208333333333333,0.42555555555555546],[0.14270833333333333,0.4412962962962962],[0.20833333333333334,0.4366666666666666],[0.2626041666666666,0.44314814814814807],[0.3082291666666668,0.44592592592592584],[0.3145833333333333,0.4368518518518518],[0.33145833333333335,0.4422222222222221],[0.3421875,0.4448148148148149],[0.3421875,0.4448148148148149],[0.37395833333333334,0.46592592592592597],[0.4106250000000001,0.46222222222222226],[0.4418750000000001,0.4542592592592592],[0.49552083333333335,0.4557407407407408],[0.5405208333333335,0.4479629629629629],[0.6151041666666667,0.4214814814814815],[0.6619791666666667,0.39222222222222214],[0.7171875,0.375],[0.7686458333333335,0.35722222222222216],[0.8201041666666666,0.3394444444444444],[0.8483333333333334,0.3198148148148149],[0.8483333333333334,0.3198148148148149],[0.8811458333333334,0.31740740740740736],[0.9184375,0.30999999999999994],[0.9184375,0.30999999999999994],[0.9208333333333333,0.29296296296296304],[0.9208333333333333,0.29296296296296304],[0.9306250000000001,0.27259259259259266],[0.9115624999999999,0.25925925925925924],[0.9277083333333332,0.2705555555555556],[0.948125,0.2681481481481481],[0.9381249999999999,0.28592592592592586],[0.9473958333333333,0.30037037037037045],[0.9519791666666667,0.3066666666666667],[0.9565625,0.31296296296296294],[0.9692708333333333,0.3164814814814814],[1.0017708333333333,0.318888888888889],[0.9944791666666667,0.35537037037037034],[1.0211458333333332,0.37962962962962965],[1.0013541666666665,0.3966666666666668],[0.9645833333333333,0.37222222222222223],[0.9580208333333334,0.344074074074074],[0.8592708333333334,0.3537037037037037],[0.8592708333333334,0.3537037037037037],[0.7508333333333332,0.37537037037037047],[0.6547916666666665,0.3757407407407407],[0.5204166666666665,0.3985185185185186],[0.38604166666666656,0.4212962962962963],[0.38604166666666656,0.4212962962962963],[0.278125,0.4],[0.278125,0.4],[0.15416666666666667,0.41092592592592586],[0.15416666666666667,0.41092592592592586],[0.060000000000000026,0.42555555555555546],[0.060000000000000026,0.42555555555555546],[-0.02958333333333331,0.48703703703703705],[-0.02958333333333331,0.48703703703703705],[-0.1375,0.5307407407407407],[-0.1375,0.5307407407407407],[-0.16937500000000003,0.518148148148148],[-0.18760416666666668,0.5272222222222223],[-0.21375000000000005,0.5596296296296297],[-0.21687500000000004,0.556111111111111],[-0.21760416666666665,0.5764814814814814],[-0.23854166666666668,0.6042592592592592],[-0.27312500000000006,0.6394444444444444],[-0.3139583333333333,0.6314814814814815],[-0.32833333333333337,0.6188888888888889],[-0.32364583333333335,0.6138888888888889],[-0.3146875,0.6307407407407408],[-0.3076041666666666,0.6137037037037036],[-0.30354166666666665,0.5846296296296297],[-0.29656250000000006,0.5911111111111111],[-0.2621875000000001,0.5446296296296297],[-0.21208333333333335,0.5051851851851851],[-0.12302083333333336,0.4572222222222222],[-0.09031250000000005,0.4346296296296297],[-0.05291666666666662,0.3937037037037037],[-0.009895833333333333,0.35759259259259263],[0.02791666666666662,0.33055555555555555],[0.06864583333333343,0.30944444444444447],[0.06864583333333343,0.30944444444444447],[0.10197916666666676,0.28722222222222227],[0.11666666666666667,0.2657407407407407],[0.1134375000000001,0.256111111111111],[0.09958333333333323,0.259074074074074],[0.04635416666666667,0.2609259259259259],[0.04635416666666667,0.2609259259259259],[0.06187499999999998,0.2574074074074074],[0.08156249999999995,0.26907407407407397],[0.09979166666666663,0.2727777777777777],[0.09427083333333333,0.25277777777777777],[0.13406250000000006,0.24981481481481477],[0.17979166666666657,0.2579629629629629],[0.20656249999999995,0.24018518518518528],[0.22145833333333323,0.23962962962962958],[0.24010416666666667,0.23111111111111102],[0.27281250000000007,0.22481481481481477],[0.2808333333333332,0.2205555555555556],[0.30406250000000007,0.21888888888888897],[0.30406250000000007,0.21888888888888897],[0.3193749999999999,0.2161111111111112],[0.33739583333333345,0.2205555555555556],[0.3310416666666666,0.23703703703703705],[0.3042708333333332,0.2331481481481481],[0.3494791666666667,0.23555555555555563],[0.3494791666666667,0.23555555555555563],[0.40354166666666674,0.24777777777777768],[0.45510416666666675,0.2522222222222223],[0.5109375,0.25333333333333324],[0.559375,0.25833333333333336],[0.5684375,0.2722222222222222],[0.5700000000000001,0.29018518518518527],[0.5822916666666667,0.31259259259259253],[0.55125,0.29518518518518516],[0.540625,0.29814814814814816],[0.47552083333333334,0.3101851851851852],[0.41687500000000005,0.3198148148148149],[0.3433333333333332,0.32703703703703707],[0.29364583333333344,0.34629629629629627],[0.22541666666666677,0.36129629629629634],[0.1787499999999999,0.3696296296296297],[0.13479166666666675,0.3731481481481482],[0.10541666666666671,0.37407407407407406],[0.103125,0.3798148148148149],[0.08166666666666676,0.3962962962962963],[0.08718750000000004,0.39814814814814814],[0.06166666666666672,0.39444444444444443],[0.05625,0.39814814814814814],[0.05625,0.39814814814814814],[0.02354166666666669,0.3875925925925925],[0.02510416666666669,0.3822222222222222],[0.02510416666666669,0.3822222222222222],[0.005208333333333333,0.37814814814814823],[0.002499999999999976,0.38185185185185194],[0.002499999999999976,0.38185185185185194],[-0.003854166666666714,0.38203703703703695],[0.02791666666666662,0.39092592592592595],[0.07906250000000009,0.37462962962962953],[0.1258333333333333,0.3727777777777777],[0.17687499999999995,0.3412962962962962],[0.21843750000000003,0.3177777777777778],[0.27531249999999996,0.30092592592592593],[0.3471874999999999,0.2868518518518518],[0.41437499999999994,0.26074074074074066],[0.45854166666666674,0.25018518518518523],[0.45854166666666674,0.25018518518518523],[0.49114583333333334,0.2412962962962962],[0.4983333333333334,0.21814814814814806],[0.4864583333333333,0.20111111111111116],[0.48677083333333326,0.18722222222222226],[0.5151041666666667,0.19425925925925921],[0.5516666666666665,0.19240740740740736],[0.5491666666666667,0.20185185185185187],[0.5361458333333334,0.19018518518518526],[0.5120833333333332,0.19129629629629621],[0.5060416666666666,0.16888888888888898],[0.5192708333333333,0.16074074074074066],[0.4986458333333334,0.15592592592592602],[0.49885416666666677,0.16796296296296304],[0.4898958333333333,0.17611111111111116],[0.4523958333333333,0.18518518518518517],[0.4523958333333333,0.18518518518518517],[0.4436458333333334,0.19499999999999992],[0.43385416666666665,0.18888888888888888],[0.41124999999999995,0.1962962962962963],[0.3688541666666666,0.2175925925925926],[0.3264583333333334,0.2388888888888889],[0.3264583333333334,0.2388888888888889],[0.2838541666666667,0.2766666666666666],[0.2838541666666667,0.2766666666666666],[0.25770833333333343,0.32259259259259265],[0.25770833333333343,0.32259259259259265],[0.22062499999999996,0.36314814814814816],[0.22062499999999996,0.36314814814814816],[0.16114583333333338,0.38370370370370377],[0.16114583333333338,0.38370370370370377],[0.12697916666666675,0.38981481481481484],[0.12697916666666675,0.38981481481481484],[0.07302083333333324,0.40611111111111103],[0.05010416666666669,0.4390740740740741],[0.019895833333333356,0.45759259259259266],[0.03197916666666671,0.46537037037037027],[0.059062500000000046,0.47759259259259257],[0.0896874999999999,0.452962962962963],[0.11145833333333334,0.42370370370370364],[0.11145833333333334,0.42370370370370364],[0.12208333333333338,0.3905555555555555],[0.13812499999999991,0.3640740740740741],[0.13812499999999991,0.3640740740740741],[0.13781249999999995,0.34888888888888886],[0.15239583333333329,0.3079629629629629],[0.14114583333333333,0.25092592592592594],[0.13718750000000005,0.20833333333333334],[0.12760416666666666,0.1581481481481481],[0.11687500000000005,0.1346296296296297],[0.09229166666666658,0.12462962962962955],[0.08645833333333333,0.13240740740740742],[0.10072916666666672,0.14092592592592595],[0.10541666666666671,0.12759259259259256],[0.1131249999999999,0.12333333333333338],[0.1131249999999999,0.12333333333333338],[0.11427083333333338,0.12740740740740733],[0.13447916666666657,0.1359259259259259],[0.1546875,0.14444444444444443],[0.17770833333333325,0.1368518518518518],[0.1868750000000001,0.09814814814814815],[0.1868750000000001,0.09814814814814815],[0.16281249999999994,0.10481481481481486],[0.16281249999999994,0.10481481481481486],[0.13177083333333334,0.10462962962962963],[0.10895833333333324,0.1],[0.10354166666666677,0.10388888888888893],[0.10354166666666677,0.10388888888888893],[0.09812500000000005,0.10777777777777786],[0.07979166666666657,0.12148148148148152],[0.04770833333333328,0.13518518518518519],[0.015625,0.14888888888888885],[-0.019270833333333334,0.1787037037037037],[-0.019270833333333334,0.1787037037037037],[-0.0453125,0.2155555555555555],[-0.08885416666666662,0.23407407407407405],[-0.08885416666666662,0.23407407407407405],[-0.1358333333333333,0.244074074074074],[-0.19187500000000005,0.2683333333333333],[-0.24864583333333337,0.30111111111111116],[-0.24864583333333337,0.30111111111111116],[-0.2994791666666667,0.3375925925925925],[-0.3497916666666666,0.3622222222222223],[-0.3842708333333333,0.3918518518518519],[-0.4267708333333334,0.42851851851851847],[-0.45375000000000004,0.4551851851851851],[-0.4895833333333333,0.47481481481481475],[-0.47291666666666665,0.4801851851851851],[-0.45875,0.4524074074074073],[-0.4444791666666667,0.41648148148148145],[-0.44343750000000004,0.4112962962962963],[-0.44343750000000004,0.4112962962962963],[-0.45,0.40962962962962973],[-0.44947916666666665,0.4101851851851852],[-0.4461458333333333,0.39000000000000007],[-0.43479166666666663,0.36277777777777775],[-0.4389583333333333,0.3455555555555556],[-0.4484375,0.32703703703703707],[-0.4584375,0.30111111111111116],[-0.46281249999999996,0.31370370370370365],[-0.4664583333333333,0.32462962962962955],[-0.4513541666666666,0.34666666666666673],[-0.4345833333333334,0.36148148148148157],[-0.4125,0.36796296296296305],[-0.39562499999999995,0.38870370370370366],[-0.384375,0.4107407407407407],[-0.37312500000000004,0.4327777777777779],[-0.31833333333333336,0.4270370370370371],[-0.2642708333333334,0.41092592592592586],[-0.23208333333333328,0.40555555555555556],[-0.1998958333333333,0.40018518518518525],[-0.1720833333333334,0.3424074074074074],[-0.13406250000000006,0.294074074074074],[-0.10791666666666669,0.2594444444444445],[-0.08020833333333334,0.24277777777777781],[-0.025520833333333333,0.1668518518518519],[0.016354166666666715,0.13055555555555556],[0.02000000000000005,0.12333333333333338],[0.02000000000000005,0.12333333333333338],[0.027083333333333334,0.10129629629629638],[0.051770833333333384,0.0742592592592593],[0.051770833333333384,0.0742592592592593],[0.0865624999999999,0.03518518518518519],[0.0865624999999999,0.03518518518518519],[0.125,-0.0022222222222223064],[0.14552083333333338,-0.0668518518518519],[0.16604166666666675,-0.13148148148148148],[0.19020833333333323,-0.2264814814814815],[0.19302083333333328,-0.26351851851851854],[0.21427083333333338,-0.3314814814814815],[0.23552083333333323,-0.39944444444444444],[0.23250000000000004,-0.4125925925925926],[0.23114583333333344,-0.4346296296296296],[0.20760416666666662,-0.4668518518518519],[0.17833333333333337,-0.47555555555555556],[0.11729166666666657,-0.4111111111111111],[0.049791666666666616,-0.33925925925925926],[-0.01875,-0.25462962962962965],[-0.01875,-0.25462962962962965],[-0.09104166666666665,-0.1698148148148148],[-0.17020833333333332,-0.08703703703703704],[-0.24937499999999999,-0.004259259259259175],[-0.24937499999999999,-0.004259259259259175],[-0.29791666666666666,0.04666666666666675],[-0.29791666666666666,0.04666666666666675],[-0.34645833333333337,0.09759259259259268],[-0.34645833333333337,0.09759259259259268],[-0.38562500000000005,0.18203703703703694],[-0.4279166666666666,0.26296296296296295],[-0.4279166666666666,0.26296296296296295],[-0.4331249999999999,0.29796296296296293],[-0.4331249999999999,0.29796296296296293],[-0.4266666666666667,0.3292592592592592],[-0.4266666666666667,0.3292592592592592],[-0.42697916666666663,0.36444444444444435],[-0.4180208333333333,0.3592592592592593],[-0.4078125,0.34740740740740744],[-0.40197916666666667,0.37407407407407406],[-0.40645833333333337,0.39759259259259266],[-0.40208333333333335,0.419074074074074],[-0.3603125,0.38203703703703695],[-0.3154166666666666,0.3485185185185186],[-0.27927083333333336,0.3172222222222221],[-0.24833333333333332,0.2822222222222222],[-0.1829166666666667,0.24370370370370376],[-0.12302083333333336,0.24537037037037038],[-0.06760416666666665,0.2455555555555556],[-0.0078125,0.20722222222222217],[0.051979166666666646,0.16888888888888898],[0.09020833333333324,0.14148148148148143],[0.09375,0.16129629629629633],[0.10072916666666672,0.2044444444444444],[0.10072916666666672,0.2044444444444444],[0.11479166666666671,0.2361111111111111],[0.14354166666666662,0.2572222222222222],[0.1131249999999999,0.26425925925925936],[0.08854166666666667,0.2598148148148147],[0.06989583333333324,0.25833333333333336],[0.051250000000000046,0.25685185185185194],[0.04104166666666664,0.24962962962962953],[0.04354166666666662,0.23351851851851857],[0.04354166666666662,0.23351851851851857],[0.059062500000000046,0.23574074074074067],[0.07104166666666671,0.2124074074074075],[0.09739583333333333,0.1735185185185186],[0.09458333333333328,0.15703703703703695],[0.11624999999999991,0.1449999999999999],[0.13208333333333327,0.14444444444444443],[0.1349999999999999,0.14370370370370375],[0.13791666666666677,0.14296296296296304],[0.14260416666666675,0.14740740740740746],[0.14729166666666677,0.15185185185185185],[0.14729166666666677,0.15185185185185185],[0.13895833333333343,0.13796296296296295],[0.14656250000000004,0.1418518518518519],[0.1484375,0.15222222222222231],[0.16593749999999996,0.1388888888888889],[0.1837500000000001,0.1388888888888889],[0.19864583333333338,0.13425925925925927],[0.23552083333333323,0.13666666666666658],[0.27010416666666665,0.14388888888888898],[0.2986458333333334,0.15388888888888894],[0.3402083333333332,0.17037037037037037],[0.3490624999999999,0.19000000000000003],[0.3420833333333334,0.19407407407407398],[0.3734375,0.22666666666666663],[0.3667708333333332,0.25685185185185194],[0.35750000000000004,0.2874074074074075],[0.35739583333333325,0.31370370370370365],[0.34572916666666675,0.35185185185185186],[0.35999999999999993,0.4455555555555556],[0.3614583333333333,0.5218518518518518],[0.340625,0.5925925925925926],[0.3194791666666667,0.5905555555555555],[0.2898958333333333,0.6112962962962963],[0.21739583333333337,0.6124074074074075],[0.20322916666666657,0.6042592592592592],[0.2283333333333334,0.5816666666666667],[0.2548958333333334,0.5796296296296296],[0.27072916666666674,0.5498148148148148],[0.2211458333333333,0.46277777777777773],[0.18708333333333324,0.37240740740740746],[0.1599999999999999,0.2692592592592592],[0.1599999999999999,0.2692592592592592],[0.15927083333333342,0.2212962962962963],[0.17041666666666658,0.15925925925925927],[0.18156249999999996,0.09722222222222222],[0.1603125000000001,0.05962962962962971],[0.10989583333333333,0.0294444444444444],[0.050416666666666644,-0.005185185185185101],[0.012187500000000047,-0.0025925925925925505],[0.01572916666666669,-0.0031481481481482323],[0.012395833333333309,0.014814814814814815],[0.016562499999999977,0.0477777777777777],[0.022916666666666665,0.08000000000000008],[0.025833333333333285,0.10351851851851848],[0.0390625,0.13111111111111104],[0.05333333333333338,0.13518518518518519],[0.06052083333333336,0.14203703703703713],[0.06906249999999996,0.14166666666666666],[0.06812500000000009,0.11166666666666658],[0.06812500000000009,0.11166666666666658],[0.07677083333333339,0.07851851851851847],[0.084375,0.056296296296296254],[0.08677083333333328,0.03092592592592601],[0.08677083333333328,0.027407407407407325],[0.08677083333333328,0.02388888888888885],[0.08833333333333329,-0.008703703703703788],[0.09979166666666663,-0.018703703703703747],[0.11229166666666662,-0.02370370370370362],[0.12479166666666662,-0.028703703703703703],[0.15145833333333342,-0.03462962962962971],[0.15354166666666677,-0.02907407407407416],[0.15354166666666677,-0.02907407407407416],[0.1540625000000001,-0.10555555555555556],[0.16020833333333329,-0.09666666666666665],[0.1851041666666667,-0.08722222222222227],[0.1851041666666667,-0.08722222222222227],[0.19343750000000004,-0.14944444444444444],[0.1990624999999999,-0.15833333333333333],[0.1990624999999999,-0.15833333333333333],[0.18114583333333342,-0.15129629629629626],[0.18114583333333342,-0.15129629629629626],[0.15281250000000005,-0.16962962962962966],[0.15281250000000005,-0.16962962962962966],[0.11937499999999991,-0.21074074074074076],[0.11937499999999991,-0.21074074074074076],[0.07854166666666676,-0.23203703703703707],[0.07854166666666676,-0.23203703703703707],[0.071875,-0.2875925925925926],[0.071875,-0.2875925925925926],[0.08666666666666671,-0.2227777777777778],[0.08666666666666671,-0.2227777777777778],[0.07572916666666671,-0.3098148148148148],[0.0515625,-0.4118518518518518],[0.05270833333333336,-0.4116666666666667],[0.04468749999999998,-0.4398148148148148],[0.04562499999999995,-0.5101851851851852],[0.04562499999999995,-0.5101851851851852],[0.06187499999999998,-0.5592592592592592],[0.09020833333333324,-0.5975925925925926],[0.11177083333333329,-0.6548148148148148],[0.11437499999999995,-0.6794444444444444],[0.08510416666666672,-0.7520370370370371],[0.09406249999999995,-0.7385185185185186],[0.10364583333333334,-0.7237037037037037],[0.1125,-0.7768518518518519],[0.12135416666666667,-0.83],[0.13250000000000003,-0.830925925925926],[0.12291666666666666,-0.8238888888888889],[0.10635416666666657,-0.8048148148148149],[0.11697916666666662,-0.7864814814814814],[0.1273958333333333,-0.7748148148148147],[0.1423958333333334,-0.767962962962963],[0.13927083333333337,-0.7805555555555556],[0.13729166666666662,-0.7627777777777778],[0.12729166666666672,-0.7075925925925927],[0.10864583333333329,-0.6803703703703703],[0.10229166666666671,-0.679074074074074],[0.12666666666666657,-0.6659259259259259],[0.15104166666666666,-0.6527777777777778],[0.15104166666666666,-0.6527777777777778],[0.14677083333333343,-0.6292592592592593],[0.13947916666666677,-0.6122222222222222],[0.13947916666666677,-0.6122222222222222],[0.13125,-0.6187037037037038],[0.13125,-0.6187037037037038],[0.13989583333333327,-0.616111111111111],[0.12927083333333325,-0.6135185185185186],[0.11864583333333342,-0.6109259259259259],[0.11395833333333343,-0.5907407407407408],[0.12302083333333323,-0.5853703703703704],[0.10750000000000005,-0.5433333333333333],[0.08927083333333338,-0.5355555555555556],[0.0875,-0.5549999999999999],[0.0875,-0.5549999999999999],[0.07104166666666671,-0.5601851851851852],[0.06416666666666669,-0.5148148148148148],[0.04041666666666662,-0.4787037037037037],[0.041666666666666664,-0.4861111111111111],[0.044166666666666646,-0.490925925925926],[0.06083333333333331,-0.4903703703703704],[0.04635416666666667,-0.48759259259259263],[0.04593750000000003,-0.5246296296296297],[0.033749999999999974,-0.47685185185185186],[0.019375000000000024,-0.4383333333333333],[0.022708333333333285,-0.4075925925925926],[0.008541666666666715,-0.4148148148148148],[0.021249999999999977,-0.41074074074074074],[0.008541666666666715,-0.37833333333333335],[0.0014583333333333095,-0.3248148148148148],[-0.03114583333333331,-0.2511111111111112],[-0.007604166666666619,-0.2051851851851852],[-0.02822916666666669,-0.18185185185185182],[-0.0002083333333333807,-0.18796296296296297],[-0.008541666666666715,-0.17370370370370372],[-0.016875000000000046,-0.1594444444444445],[-0.010312499999999976,-0.13296296296296298],[-0.010312499999999976,-0.13296296296296298],[0.02041666666666669,-0.1007407407407407],[0.04020833333333336,-0.09092592592592597],[0.05916666666666662,-0.11129629629629634],[0.08135416666666657,-0.16055555555555553],[0.07135416666666666,-0.13111111111111112],[0.09541666666666657,-0.09981481481481477],[0.0696875000000001,-0.09851851851851849],[0.08739583333333342,-0.08962962962962959],[0.07854166666666676,-0.08555555555555554],[0.06312500000000003,-0.09388888888888887],[0.06312500000000003,-0.09388888888888887],[0.018437500000000048,-0.12166666666666665],[0.011354166666666643,-0.1175925925925926],[0.003854166666666714,-0.11296296296296296],[-0.014479166666666644,-0.08814814814814818],[-0.02041666666666669,-0.11462962962962958],[-0.019583333333333286,-0.13851851851851854]]","[[0.01864583333333331,0.11444444444444436,0.0001999998092614419],[0.01864583333333331,0.11444444444444436,0.04449999999999932],[0.014999999999999977,0.0824074074074074,0.059499999999999886],[-0.0021875000000000236,0.0712962962962963,0.0759999999999934],[-0.049583333333333354,0.0448148148148149,0.09319999980926497],[-0.05270833333333336,0.02092592592592584,0.11209999990462904],[-0.03104166666666662,0.025925925925925925,0.12859999990462967],[-0.017916666666666713,0.01444444444444436,0.14409999990463263],[-0.02333333333333331,0.02111111111111107,0.16109999990462853],[-0.03114583333333331,0.009814814814814731,0.17789999961852487],[-0.029062499999999977,0.006481481481481481,0.19299999999999784],[-0.020624999999999952,0.008888888888888804,0.2118999996185238],[-0.007291666666666667,0.0514814814814814,0.2262999997138948],[0.013854166666666619,0.08814814814814818,0.24279999971389543],[0.020937500000000022,0.09648148148148153,0.2630999999046324],[0.03718750000000005,0.13944444444444437,0.2766999998092601],[0.03812500000000003,0.1648148148148148,0.2926999998092654],[0.03145833333333338,0.1853703703703704,0.3123999996185276],[0.013333333333333286,0.21444444444444435,0.32619999980926195],[-0.010416666666666666,0.2601851851851852,0.3444999999999965],[-0.03125,0.31259259259259253,0.35989999961852703],[-0.03125,0.31259259259259253,0.3787999997138911],[-0.03354166666666671,0.35481481481481486,0.3928999996185283],[-0.04458333333333329,0.3472222222222222,0.4128999996185243],[-0.04458333333333329,0.3472222222222222,0.43059999990462927],[-0.07322916666666662,0.32833333333333325,0.4430999999046321],[-0.0811458333333333,0.34092592592592597,0.4650999999046306],[-0.0811458333333333,0.34092592592592597,0.47619999980926053],[-0.0625,0.32333333333333336,0.49719999980926133],[-0.10072916666666672,0.3161111111111112,0.5127999997138915],[-0.10625,0.30833333333333335,0.531099999904626],[-0.09229166666666669,0.28851851851851845,0.549599999904629],[-0.09229166666666669,0.28851851851851845,0.5596999998092613],[-0.06812499999999998,0.2855555555555556,0.576199999809262],[-0.06614583333333333,0.24444444444444444,0.5929999999999964],[-0.06520833333333335,0.23351851851851857,0.6149999999999949],[-0.06177083333333329,0.23407407407407405,0.6313999996185302],[-0.04072916666666669,0.24592592592592585,0.6454999999999984],[-0.04354166666666662,0.24740740740740744,0.6643999996185244],[-0.09520833333333331,0.26370370370370366,0.6793999996185249],[-0.08479166666666664,0.24888888888888885,0.6947999997138936],[-0.07218749999999995,0.2412962962962962,0.7092999997138918],[-0.07989583333333337,0.2103703703703704,0.7288999996185268],[-0.08125,0.2094444444444445,0.7426999998092612],[-0.08125,0.2094444444444445,0.7594999999999956],[-0.09020833333333336,0.24518518518518514,0.7759999999999962],[-0.10625,0.26796296296296307,0.7926999998092654],[-0.11645833333333329,0.3194444444444444,0.8093999996185275],[-0.11645833333333329,0.3194444444444444,0.8277999997138963],[-0.12447916666666667,0.33499999999999996,0.8426999998092626],[-0.12291666666666666,0.4364814814814816,0.8593999996185246],[-0.13354166666666673,0.47962962962962963,0.8759999999999977],[-0.16395833333333332,0.5885185185185184,0.8954999999999984],[-0.18500000000000003,0.6311111111111111,0.9095999999046285],[-0.19666666666666663,0.6962962962962963,0.9260999999046291],[-0.20572916666666666,0.7316666666666667,0.9460999999046322],[-0.20572916666666666,0.7316666666666667,0.9595999999046327],[-0.19624999999999998,0.6881481481481482,0.9759999999999991],[-0.19322916666666667,0.6672222222222222,0.9932999997138978],[-0.20020833333333338,0.625,1.0093999996185303],[-0.209375,0.6187037037037038,1.0260999999046305],[-0.20281250000000003,0.5322222222222222,1.0426999998092654],[-0.20281250000000003,0.5322222222222222,1.0594999999999999],[-0.15187499999999995,0.46833333333333327,1.0759999999999934],[-0.11385416666666662,0.36203703703703705,1.0926999998092626],[-0.10375000000000002,0.33351851851851855,1.109899999618527],[-0.07927083333333336,0.3087037037037038,1.1278999996185277],[-0.0828125,0.21574074074074073,1.1450999999046303],[-0.0828125,0.21574074074074073,1.159799999713897],[-0.08135416666666669,0.2661111111111112,1.1762999997138976],[-0.08052083333333329,0.2837037037037038,1.1925999999046297],[-0.08052083333333329,0.2837037037037038,1.209399999618526],[-0.06802083333333328,0.287962962962963,1.2260999999046263],[-0.050625000000000024,0.29444444444444445,1.2426999998092612],[-0.02322916666666662,0.3096296296296297,1.2634999999999934],[-0.02322916666666662,0.3096296296296297,1.2759999999999962],[-0.03989583333333328,0.3768518518518518,1.2926999998092654],[-0.03739583333333331,0.4035185185185185,1.312199999809259],[-0.01854166666666662,0.41148148148148156,1.3284999999999982],[-0.015416666666666618,0.4198148148148149,1.3459999999999965],[-0.00604166666666662,0.4866666666666666,1.364299999713893],[-0.0109375,0.5011111111111112,1.3784999999999954],[-0.011354166666666643,0.5214814814814815,1.3928999996185283],[-0.024687500000000046,0.5377777777777777,1.409399999618529],[-0.024687500000000046,0.5377777777777777,1.4261999998092634],[-0.025312499999999953,0.5170370370370371,1.442699999809264],[-0.025312499999999953,0.5170370370370371,1.4594999999999985],[0.000416666666666643,0.5272222222222223,1.4760999999046263],[0.0609375,0.5262962962962964,1.4954999999999998],[0.06447916666666664,0.5246296296296296,1.5097999997138913],[0.07010416666666662,0.5257407407407407,1.5259999999999962],[0.07999999999999995,0.5270370370370371,1.546599999904629],[0.10427083333333324,0.519074074074074,1.563599999904632],[0.13052083333333328,0.48703703703703705,1.5795999999046302],[0.16531250000000006,0.45703703703703696,1.5973999996185242],[0.20666666666666675,0.44833333333333336,1.6123999996185248],[0.22458333333333325,0.4772222222222223,1.6266999998092615],[0.20614583333333342,0.46648148148148144,1.6429999999999936],[0.18020833333333333,0.4398148148148148,1.668999999999997],[0.18020833333333333,0.4398148148148148,1.6759999999999948],[0.19677083333333342,0.43185185185185193,1.692699999809264],[0.1912499999999999,0.415925925925926,1.7099999999999937],[0.1857291666666666,0.4,1.725999999999999],[0.19979166666666662,0.3925925925925926,1.7450999999046317],[0.19979166666666662,0.3925925925925926,1.7593999996185303],[0.2039583333333333,0.37518518518518523,1.7760999999046305],[0.23083333333333325,0.36148148148148157,1.7967999997138975],[0.23083333333333325,0.36148148148148157,1.809599999904627],[0.23083333333333325,0.36148148148148157,1.827699999809262],[0.23708333333333323,0.3168518518518519,1.8650999999046292],[0.23708333333333323,0.3168518518518519,1.8808999996185278],[0.2328125,0.29518518518518516,1.8982999997138919],[0.2328125,0.29518518518518516,1.9048999996185287],[0.1955208333333334,0.27907407407407414,1.933799999713898],[0.1955208333333334,0.27907407407407414,1.9435000000000002],[0.15750000000000006,0.2948148148148149,1.959399999618526],[0.15750000000000006,0.2948148148148149,1.975999999999999],[0.13156249999999994,0.29907407407407405,1.9926999998092612],[0.1310416666666666,0.32833333333333325,2.0111999998092642],[0.12645833333333342,0.3635185185185184,2.0264999999999986],[0.08510416666666672,0.36944444444444446,2.0426999998092654],[0.03802083333333333,0.39740740740740743,2.0593999996185275],[0.03802083333333333,0.39740740740740743,2.075899999618528],[-0.028125,0.4170370370370371,2.0926999998092626],[-0.09041666666666662,0.43259259259259264,2.112499999999997],[-0.1063541666666667,0.4383333333333334,2.1284999999999954],[-0.08156249999999995,0.42685185185185187,2.149499999999996],[-0.08156249999999995,0.42685185185185187,2.1592999997138946],[-0.06760416666666665,0.3931481481481481,2.175999999999995],[-0.07385416666666664,0.38425925925925924,2.192999999999998],[-0.09343750000000005,0.3557407407407408,2.209299999713892],[-0.07708333333333334,0.3301851851851851,2.2264999999999944],[-0.07614583333333336,0.3314814814814815,2.242699999809261],[-0.07614583333333336,0.3314814814814815,2.2594999999999956],[-0.07302083333333335,0.3292592592592592,2.2759999999999962],[-0.0765625,0.31240740740740747,2.293699999809263],[-0.02833333333333338,0.31240740740740747,2.310699999809259],[-0.07270833333333329,0.3229629629629629,2.3260999999046277],[-0.13552083333333337,0.3520370370370371,2.3429999999999964],[-0.21229166666666663,0.38925925925925936,2.3618999996185295],[-0.2765625,0.4381481481481482,2.3791999998092592],[-0.2942708333333333,0.4922222222222221,2.3948999996185236],[-0.3438541666666667,0.5374074074074074,2.412399999618529],[-0.3438541666666667,0.5374074074074074,2.425999999999995],[-0.4061458333333333,0.5390740740740741,2.442799999713891],[-0.4061458333333333,0.5390740740740741,2.459399999618526],[-0.4382291666666667,0.5557407407407408,2.475999999999999],[-0.4382291666666667,0.5557407407407408,2.492699999809261],[-0.49635416666666665,0.5746296296296295,2.509299999713896],[-0.5444791666666667,0.5837037037037038,2.5259999999999962],[-0.5522916666666667,0.5868518518518518,2.545199999809263],[-0.5154166666666666,0.5703703703703704,2.5626999998092614],[-0.4815625,0.553888888888889,2.579199999809262],[-0.4496875000000001,0.5170370370370371,2.595399999618529],[-0.4630208333333333,0.5122222222222222,2.611399999618527],[-0.4735416666666667,0.5088888888888888,2.6281999998092616],[-0.4546875,0.5131481481481482,2.643499999999996],[-0.4623958333333333,0.5111111111111111,2.6618999996185266],[-0.44468749999999996,0.5259259259259259,2.6780999999046315],[-0.44249999999999995,0.5409259259259259,2.6976999998092595],[-0.4071875,0.5455555555555556,2.7134999999999962],[-0.40625,0.5433333333333333,2.730399999618527],[-0.3867708333333333,0.5301851851851851,2.74589999961853],[-0.3867708333333333,0.5301851851851851,2.7609999999999957],[-0.3567708333333333,0.5555555555555556,2.7798999996185287],[-0.3567708333333333,0.5555555555555556,2.7926999998092654],[-0.3290625,0.5162962962962963,2.8093999996185275],[-0.30062500000000003,0.4722222222222222,2.8275999999046277],[-0.27395833333333336,0.4883333333333334,2.8459999999999965],[-0.27395833333333336,0.4883333333333334,2.8593999996185246],[-0.24479166666666666,0.4677777777777778,2.876099999904632],[-0.18489583333333334,0.45092592592592595,2.893199999809262],[-0.12145833333333336,0.4581481481481481,2.909499999999994],[-0.07979166666666669,0.4401851851851853,2.926399999618525],[-0.03156249999999995,0.44462962962962965,2.9431999998092593],[-0.03156249999999995,0.44462962962962965,2.959399999618526],[0.01854166666666662,0.4348148148148147,2.975999999999999],[0.01854166666666662,0.4348148148148147,2.992699999809261],[0.050625000000000024,0.41444444444444434,3.0093999996185303],[0.10208333333333333,0.42555555555555546,3.0259999999999962],[0.14270833333333333,0.4412962962962962,3.0426999998092654],[0.20833333333333334,0.4366666666666666,3.061099999904627],[0.2626041666666666,0.44314814814814807,3.0759999999999934],[0.3082291666666668,0.44592592592592584,3.0955999999046284],[0.3145833333333333,0.4368518518518518,3.1092999997138975],[0.33145833333333335,0.4422222222222221,3.126099999904632],[0.3421875,0.4448148148148149,3.1432999997138964],[0.3421875,0.4448148148148149,3.159499999999994],[0.37395833333333334,0.46592592592592597,3.175999999999995],[0.4106250000000001,0.46222222222222226,3.1925999999046297],[0.4418750000000001,0.4542592592592592,3.209299999713892],[0.49552083333333335,0.4557407407407408,3.225999999999999],[0.5405208333333335,0.4479629629629629,3.242699999809261],[0.6151041666666667,0.4214814814814815,3.2593999996185303],[0.6619791666666667,0.39222222222222214,3.276599999904633],[0.7171875,0.375,3.292599999904631],[0.7686458333333335,0.35722222222222216,3.311899999618525],[0.8201041666666666,0.3394444444444444,3.3259999999999934],[0.8483333333333334,0.3198148148148149,3.344999999999999],[0.8483333333333334,0.3198148148148149,3.3593999996185246],[0.8811458333333334,0.31740740740740736,3.3759999999999977],[0.9184375,0.30999999999999994,3.3928999996185283],[0.9184375,0.30999999999999994,3.409499999999994],[0.9208333333333333,0.29296296296296304,3.426099999904629],[0.9208333333333333,0.29296296296296304,3.443099999904632],[0.9306250000000001,0.27259259259259266,3.4594999999999985],[0.9115624999999999,0.25925925925925924,3.4783999996185244],[0.9277083333333332,0.2705555555555556,3.4957999997138955],[0.948125,0.2681481481481481,3.512999999999998],[0.9381249999999999,0.28592592592592586,3.5279999999999987],[0.9473958333333333,0.30037037037037045,3.542599999904631],[0.9519791666666667,0.3066666666666667,3.5612999997138957],[0.9565625,0.31296296296296294,3.5759999999999934],[0.9692708333333333,0.3164814814814814,3.5925999999046283],[1.0017708333333333,0.318888888888889,3.6111999998092585],[0.9944791666666667,0.35537037037037034,3.6280999999046273],[1.0211458333333332,0.37962962962962965,3.6444999999999936],[1.0013541666666665,0.3966666666666668,3.6622999997138947],[0.9645833333333333,0.37222222222222223,3.6779999999999973],[0.9580208333333334,0.344074074074074,3.692699999809264],[0.8592708333333334,0.3537037037037037,3.711999999999996],[0.8592708333333334,0.3537037037037037,3.7258999996185267],[0.7508333333333332,0.37537037037037047,3.742699999809261],[0.6547916666666665,0.3757407407407407,3.762199999809262],[0.5204166666666665,0.3985185185185186,3.779199999809265],[0.38604166666666656,0.4212962962962963,3.795199999809263],[0.38604166666666656,0.4212962962962963,3.809299999713893],[0.278125,0.4,3.8259999999999934],[0.278125,0.4,3.8425999999046283],[0.15416666666666667,0.41092592592592586,3.8592999997138975],[0.15416666666666667,0.41092592592592586,3.8767999997138958],[0.060000000000000026,0.42555555555555546,3.8926999998092597],[0.060000000000000026,0.42555555555555546,3.9092999997138946],[-0.02958333333333331,0.48703703703703705,3.925999999999995],[-0.02958333333333331,0.48703703703703705,3.9425999999046297],[-0.1375,0.5307407407407407,3.959399999618526],[-0.1375,0.5307407407407407,3.975999999999999],[-0.16937500000000003,0.518148148148148,3.992699999809261],[-0.18760416666666668,0.5272222222222223,4.011499999999998],[-0.21375000000000005,0.5596296296296297,4.025999999999996],[-0.21687500000000004,0.556111111111111,4.042599999904631],[-0.21760416666666665,0.5764814814814814,4.05989999961853],[-0.23854166666666668,0.6042592592592592,4.075899999618528],[-0.27312500000000006,0.6394444444444444,4.092699999809263],[-0.3139583333333333,0.6314814814814815,4.111599999904627],[-0.32833333333333337,0.6188888888888889,4.126299999713893],[-0.32364583333333335,0.6138888888888889,4.144599999904628],[-0.3146875,0.6307407407407408,4.161999999999999],[-0.3076041666666666,0.6137037037037036,4.179299999713898],[-0.30354166666666665,0.5846296296296297,4.19539999961853],[-0.29656250000000006,0.5911111111111111,4.212499999999999],[-0.2621875000000001,0.5446296296296297,4.226599999904629],[-0.21208333333333335,0.5051851851851851,4.242599999904627],[-0.12302083333333336,0.4572222222222222,4.261399999618526],[-0.09031250000000005,0.4346296296296297,4.277399999618524],[-0.05291666666666662,0.3937037037037037,4.292599999904631],[-0.009895833333333333,0.35759259259259263,4.309299999713893],[0.02791666666666662,0.33055555555555555,4.327399999618528],[0.06864583333333343,0.30944444444444447,4.342699999809263],[0.06864583333333343,0.30944444444444447,4.359399999618525],[0.10197916666666676,0.28722222222222227,4.375999999999998],[0.11666666666666667,0.2657407407407407,4.392799999713894],[0.1134375000000001,0.256111111111111,4.409299999713895],[0.09958333333333323,0.259074074074074,4.4280999999046315],[0.04635416666666667,0.2609259259259259,4.444499999999998],[0.04635416666666667,0.2609259259259259,4.459399999618526],[0.06187499999999998,0.2574074074074074,4.476099999904626],[0.08156249999999995,0.26907407407407397,4.4931999998092635],[0.09979166666666663,0.2727777777777777,4.511599999904632],[0.09427083333333333,0.25277777777777777,4.5260999999046305],[0.13406250000000006,0.24981481481481477,4.543999999999997],[0.17979166666666657,0.2579629629629629,4.563399999618525],[0.20656249999999995,0.24018518518518528,4.57809999990463],[0.22145833333333323,0.23962962962962958,4.593099999904631],[0.24010416666666667,0.23111111111111102,4.6092999997138975],[0.27281250000000007,0.22481481481481477,4.62859999990463],[0.2808333333333332,0.2205555555555556,4.643299999713896],[0.30406250000000007,0.21888888888888897,4.666699999809261],[0.30406250000000007,0.21888888888888897,4.681299999713893],[0.3193749999999999,0.2161111111111112,4.69259999990463],[0.33739583333333345,0.2205555555555556,4.709299999713892],[0.3310416666666666,0.23703703703703705,4.725899999618527],[0.3042708333333332,0.2331481481481481,4.742799999713895],[0.3494791666666667,0.23555555555555563,4.75959999990463],[0.3494791666666667,0.23555555555555563,4.775999999999996],[0.40354166666666674,0.24777777777777768,4.792699999809265],[0.45510416666666675,0.2522222222222223,4.809299999713893],[0.5109375,0.25333333333333324,4.825899999618528],[0.559375,0.25833333333333336,4.842599999904628],[0.5684375,0.2722222222222222,4.862199999809263],[0.5700000000000001,0.29018518518518527,4.878],[0.5822916666666667,0.31259259259259253,4.89269999980926],[0.55125,0.29518518518518516,4.9095999999046285],[0.540625,0.29814814814814816,4.926099999904629],[0.47552083333333334,0.3101851851851852,4.94259999990463],[0.41687500000000005,0.3198148148148149,4.960299999713897],[0.3433333333333332,0.32703703703703707,4.975999999999999],[0.29364583333333344,0.34629629629629627,4.992599999904627],[0.22541666666666677,0.36129629629629634,5.009299999713896],[0.1787499999999999,0.3696296296296297,5.026299999713892],[0.13479166666666675,0.3731481481481482,5.042599999904631],[0.10541666666666671,0.37407407407407406,5.059299999713893],[0.103125,0.3798148148148149,5.075999999999993],[0.08166666666666676,0.3962962962962963,5.0948999996185265],[0.08718750000000004,0.39814814814814814,5.1092999997138975],[0.06166666666666672,0.39444444444444443,5.125899999618525],[0.05625,0.39814814814814814,5.142599999904633],[0.05625,0.39814814814814814,5.162699999809263],[0.02354166666666669,0.3875925925925925,5.175999999999995],[0.02510416666666669,0.3822222222222222,5.192699999809264],[0.02510416666666669,0.3822222222222222,5.209299999713892],[0.005208333333333333,0.37814814814814823,5.225999999999999],[0.002499999999999976,0.38185185185185194,5.242599999904627],[0.002499999999999976,0.38185185185185194,5.25939999961853],[-0.003854166666666714,0.38203703703703695,5.275899999618524],[0.02791666666666662,0.39092592592592595,5.292999999999999],[0.07906250000000009,0.37462962962962953,5.30989999961853],[0.1258333333333333,0.3727777777777777,5.325999999999993],[0.17687499999999995,0.3412962962962962,5.342799999713897],[0.21843750000000003,0.3177777777777778,5.361399999618527],[0.27531249999999996,0.30092592592592593,5.375899999618525],[0.3471874999999999,0.2868518518518518,5.394999999999996],[0.41437499999999994,0.26074074074074066,5.411399999618524],[0.45854166666666674,0.25018518518518523,5.427699999809263],[0.45854166666666674,0.25018518518518523,5.442699999809264],[0.49114583333333334,0.2412962962962962,5.459599999904633],[0.4983333333333334,0.21814814814814806,5.480399999618527],[0.4864583333333333,0.20111111111111116,5.495399999618527],[0.48677083333333326,0.18722222222222226,5.51109999990463],[0.5151041666666667,0.19425925925925921,5.525999999999996],[0.5516666666666665,0.19240740740740736,5.542899999618527],[0.5491666666666667,0.20185185185185187,5.561099999904627],[0.5361458333333334,0.19018518518518526,5.575999999999993],[0.5120833333333332,0.19129629629629621,5.592599999904628],[0.5060416666666666,0.16888888888888898,5.612099999904629],[0.5192708333333333,0.16074074074074066,5.628899999618525],[0.4986458333333334,0.15592592592592602,5.642599999904633],[0.49885416666666677,0.16796296296296304,5.660999999999994],[0.4898958333333333,0.17611111111111116,5.67739999961853],[0.4523958333333333,0.18518518518518517,5.69259999990463],[0.4523958333333333,0.18518518518518517,5.709299999713892],[0.4436458333333334,0.19499999999999992,5.726099999904626],[0.43385416666666665,0.18888888888888888,5.742999999999995],[0.41124999999999995,0.1962962962962963,5.759899999618526],[0.3688541666666666,0.2175925925925926,5.775999999999996],[0.3264583333333334,0.2388888888888889,5.793399999618529],[0.3264583333333334,0.2388888888888889,5.809299999713893],[0.2838541666666667,0.2766666666666666,5.825999999999993],[0.2838541666666667,0.2766666666666666,5.842599999904628],[0.25770833333333343,0.32259259259259265,5.859399999618525],[0.25770833333333343,0.32259259259259265,5.875999999999998],[0.22062499999999996,0.36314814814814816,5.892599999904633],[0.22062499999999996,0.36314814814814816,5.913299999713892],[0.16114583333333338,0.38370370370370377,5.926199999809263],[0.16114583333333338,0.38370370370370377,5.942799999713891],[0.12697916666666675,0.38981481481481484,5.959299999713892],[0.12697916666666675,0.38981481481481484,5.980399999618527],[0.07302083333333324,0.40611111111111103,5.993299999713898],[0.05010416666666669,0.4390740740740741,6.011799999713894],[0.019895833333333356,0.45759259259259266,6.027299999713897],[0.03197916666666671,0.46537037037037027,6.042599999904631],[0.059062500000000046,0.47759259259259257,6.063199999809264],[0.0896874999999999,0.452962962962963,6.078899999618528],[0.11145833333333334,0.42370370370370364,6.099299999713892],[0.11145833333333334,0.42370370370370364,6.109199999809263],[0.12208333333333338,0.3905555555555555,6.125899999618525],[0.13812499999999991,0.3640740740740741,6.144599999904628],[0.13812499999999991,0.3640740740740741,6.159399999618529],[0.13781249999999995,0.34888888888888886,6.175999999999995],[0.15239583333333329,0.3079629629629629,6.192899999618525],[0.14114583333333333,0.25092592592592594,6.209299999713892],[0.13718750000000005,0.20833333333333334,6.226099999904626],[0.12760416666666666,0.1581481481481481,6.2455],[0.11687500000000005,0.1346296296296297,6.259899999618526],[0.09229166666666658,0.12462962962962955,6.275899999618524],[0.08645833333333333,0.13240740740740742,6.294699999809261],[0.10072916666666672,0.14092592592592595,6.309199999809259],[0.10541666666666671,0.12759259259259256,6.327799999713896],[0.1131249999999999,0.12333333333333338,6.348499999999994],[0.1131249999999999,0.12333333333333338,6.3592999997138975],[0.11427083333333338,0.12740740740740733,6.375999999999998],[0.13447916666666657,0.1359259259259259,6.392999999999994],[0.1546875,0.14444444444444443,6.40919999980926],[0.17770833333333325,0.1368518518518518,6.4265999999046315],[0.1868750000000001,0.09814814814814815,6.449699999809262],[0.1868750000000001,0.09814814814814815,6.463399999618524],[0.16281249999999994,0.10481481481481486,6.476599999904629],[0.16281249999999994,0.10481481481481486,6.492799999713895],[0.13177083333333334,0.10462962962962963,6.513299999713894],[0.10895833333333324,0.1,6.529899999618529],[0.10354166666666677,0.10388888888888893,6.549099999904627],[0.10354166666666677,0.10388888888888893,6.5593999996185275],[0.09812500000000005,0.10777777777777786,6.575999999999993],[0.07979166666666657,0.12148148148148152,6.593999999999994],[0.04770833333333328,0.13518518518518519,6.612099999904629],[0.015625,0.14888888888888885,6.625899999618525],[-0.019270833333333334,0.1787037037037037,6.642799999713894],[-0.019270833333333334,0.1787037037037037,6.659399999618529],[-0.0453125,0.2155555555555555,6.675999999999995],[-0.08885416666666662,0.23407407407407405,6.695199999809262],[-0.08885416666666662,0.23407407407407405,6.709399999618526],[-0.1358333333333333,0.244074074074074,6.725899999618527],[-0.19187500000000005,0.2683333333333333,6.742599999904627],[-0.24864583333333337,0.30111111111111116,6.7638999996185305],[-0.24864583333333337,0.30111111111111116,6.777899999618526],[-0.2994791666666667,0.3375925925925925,6.792599999904631],[-0.3497916666666666,0.3622222222222223,6.809299999713893],[-0.3842708333333333,0.3918518518518519,6.825899999618528],[-0.4267708333333334,0.42851851851851847,6.842599999904628],[-0.45375000000000004,0.4551851851851851,6.859499999999997],[-0.4895833333333333,0.47481481481481475,6.875999999999998],[-0.47291666666666665,0.4801851851851851,6.89269999980926],[-0.45875,0.4524074074074073,6.909299999713895],[-0.4444791666666667,0.41648148148148145,6.925999999999995],[-0.44343750000000004,0.4112962962962963,6.9450999999046275],[-0.44343750000000004,0.4112962962962963,6.959299999713892],[-0.45,0.40962962962962973,6.975999999999999],[-0.44947916666666665,0.4101851851851852,6.992599999904627],[-0.4461458333333333,0.39000000000000007,7.00939999961853],[-0.43479166666666663,0.36277777777777775,7.025999999999996],[-0.4389583333333333,0.3455555555555556,7.042699999809265],[-0.4484375,0.32703703703703707,7.059299999713893],[-0.4584375,0.30111111111111116,7.076199999809262],[-0.46281249999999996,0.31370370370370365,7.092599999904628],[-0.4664583333333333,0.32462962962962955,7.1092999997138975],[-0.4513541666666666,0.34666666666666673,7.127399999618525],[-0.4345833333333334,0.36148148148148157,7.143199999809262],[-0.4125,0.36796296296296305,7.159999999999997],[-0.39562499999999995,0.38870370370370366,7.175999999999995],[-0.384375,0.4107407407407407,7.19259999990463],[-0.37312500000000004,0.4327777777777779,7.209399999618526],[-0.31833333333333336,0.4270370370370371,7.225899999618527],[-0.2642708333333334,0.41092592592592586,7.242599999904627],[-0.23208333333333328,0.40555555555555556,7.261199999809264],[-0.1998958333333333,0.40018518518518525,7.275899999618524],[-0.1720833333333334,0.3424074074074074,7.292599999904631],[-0.13406250000000006,0.294074074074074,7.309299999713893],[-0.10791666666666669,0.2594444444444445,7.325999999999993],[-0.08020833333333334,0.24277777777777781,7.343299999713892],[-0.025520833333333333,0.1668518518518519,7.3592999997138975],[0.016354166666666715,0.13055555555555556,7.375899999618532],[0.02000000000000005,0.12333333333333338,7.392799999713894],[0.02000000000000005,0.12333333333333338,7.4092999997138875],[0.027083333333333334,0.10129629629629638,7.425999999999995],[0.051770833333333384,0.0742592592592593,7.4432999997138936],[0.051770833333333384,0.0742592592592593,7.459399999618533],[0.0865624999999999,0.03518518518518519,7.476099999904626],[0.0865624999999999,0.03518518518518519,7.492699999809268],[0.125,-0.0022222222222223064,7.509199999809262],[0.14552083333333338,-0.0668518518518519,7.526000000000003],[0.16604166666666675,-0.13148148148148148,7.542599999904631],[0.19020833333333323,-0.2264814814814815,7.5612999997138886],[0.19302083333333328,-0.26351851851851854,7.5760000000000005],[0.21427083333333338,-0.3314814814814815,7.592899999618531],[0.23552083333333323,-0.39944444444444444,7.609199999809256],[0.23250000000000004,-0.4125925925925926,7.625899999618532],[0.23114583333333344,-0.4346296296296296,7.642499999999991],[0.20760416666666662,-0.4668518518518519,7.6610999999046285],[0.17833333333333337,-0.47555555555555556,7.675999999999995],[0.11729166666666657,-0.4111111111111111,7.692599999904623],[0.049791666666666616,-0.33925925925925926,7.711699999809262],[-0.01875,-0.25462962962962965,7.728399999618524],[-0.01875,-0.25462962962962965,7.742599999904634],[-0.09104166666666665,-0.1698148148148148,7.75939999961853],[-0.17020833333333332,-0.08703703703703704,7.775899999618524],[-0.24937499999999999,-0.004259259259259175,7.792599999904631],[-0.24937499999999999,-0.004259259259259175,7.809199999809259],[-0.29791666666666666,0.04666666666666675,7.825899999618521],[-0.29791666666666666,0.04666666666666675,7.842599999904628],[-0.34645833333333337,0.09759259259259268,7.85929999971389],[-0.34645833333333337,0.09759259259259268,7.875899999618532],[-0.38562500000000005,0.18203703703703694,7.8925999999046255],[-0.4279166666666666,0.26296296296296295,7.914599999904631],[-0.4279166666666666,0.26296296296296295,7.9258999996185295],[-0.4331249999999999,0.29796296296296293,7.942699999809257],[-0.4331249999999999,0.29796296296296293,7.959299999713899],[-0.4266666666666667,0.3292592592592592,7.975899999618527],[-0.4266666666666667,0.3292592592592592,7.992599999904634],[-0.42697916666666663,0.36444444444444435,8.009299999713896],[-0.4180208333333333,0.3592592592592593,8.027899999618533],[-0.4078125,0.34740740740740744,8.042499999999997],[-0.40197916666666667,0.37407407407407406,8.061099999904634],[-0.40645833333333337,0.39759259259259266,8.077699999809262],[-0.40208333333333335,0.419074074074074,8.092599999904628],[-0.3603125,0.38203703703703695,8.110999999999997],[-0.3154166666666666,0.3485185185185186,8.12639999961852],[-0.27927083333333336,0.3172222222222221,8.142599999904625],[-0.24833333333333332,0.2822222222222222,8.159599999904636],[-0.1829166666666667,0.24370370370370376,8.176199999809263],[-0.12302083333333336,0.24537037037037038,8.192599999904623],[-0.06760416666666665,0.2455555555555556,8.209199999809265],[-0.0078125,0.20722222222222217,8.225999999999992],[0.051979166666666646,0.16888888888888898,8.242599999904634],[0.09020833333333324,0.14148148148148143,8.259299999713896],[0.09375,0.16129629629629633,8.277899999618533],[0.10072916666666672,0.2044444444444444,8.292599999904631],[0.10072916666666672,0.2044444444444444,8.309299999713893],[0.11479166666666671,0.2361111111111111,8.325899999618521],[0.14354166666666662,0.2572222222222222,8.344099999904635],[0.1131249999999999,0.26425925925925936,8.360699999809263],[0.08854166666666667,0.2598148148148147,8.375899999618532],[0.06989583333333324,0.25833333333333336,8.392599999904625],[0.051250000000000046,0.25685185185185194,8.409299999713888],[0.04104166666666664,0.24962962962962953,8.426299999713898],[0.04354166666666662,0.23351851851851857,8.444299999713898],[0.04354166666666662,0.23351851851851857,8.459399999618533],[0.059062500000000046,0.23574074074074067,8.475999999999992],[0.07104166666666671,0.2124074074074075,8.496000000000002],[0.09739583333333333,0.1735185185185186,8.5105],[0.09458333333333328,0.15703703703703695,8.527899999618533],[0.11624999999999991,0.1449999999999999,8.544299999713893],[0.13208333333333327,0.14444444444444443,8.561699999809257],[0.1349999999999999,0.14370370370370375,8.57789999961853],[0.13791666666666677,0.14296296296296304,8.592599999904628],[0.14260416666666675,0.14740740740740746,8.609199999809256],[0.14729166666666677,0.15185185185185185,8.630099999904623],[0.14729166666666677,0.15185185185185185,8.643899999618533],[0.13895833333333343,0.13796296296296295,8.659500000000001],[0.14656250000000004,0.1418518518518519,8.67589999961853],[0.1484375,0.15222222222222231,8.692599999904623],[0.16593749999999996,0.1388888888888889,8.709199999809265],[0.1837500000000001,0.1388888888888889,8.725999999999992],[0.19864583333333338,0.13425925925925927,8.743199999809256],[0.23552083333333323,0.13666666666666658,8.759299999713896],[0.27010416666666665,0.14388888888888898,8.775899999618524],[0.2986458333333334,0.15388888888888894,8.792599999904631],[0.3402083333333332,0.17037037037037037,8.809199999809259],[0.3490624999999999,0.19000000000000003,8.825899999618521],[0.3420833333333334,0.19407407407407398,8.842699999809263],[0.3734375,0.22666666666666663,8.85929999971389],[0.3667708333333332,0.25685185185185194,8.875899999618532],[0.35750000000000004,0.2874074074074075,8.892599999904625],[0.35739583333333325,0.31370370370370365,8.909199999809267],[0.34572916666666675,0.35185185185185186,8.925999999999995],[0.35999999999999993,0.4455555555555556,8.942599999904623],[0.3614583333333333,0.5218518518518518,8.959299999713899],[0.340625,0.5925925925925926,8.977799999713888],[0.3194791666666667,0.5905555555555555,8.995599999904634],[0.2898958333333333,0.6112962962962963,9.00939999961853],[0.21739583333333337,0.6124074074074075,9.028899999618524],[0.20322916666666657,0.6042592592592592,9.042699999809265],[0.2283333333333334,0.5816666666666667,9.059499999999993],[0.2548958333333334,0.5796296296296296,9.076],[0.27072916666666674,0.5498148148148148,9.095099999904626],[0.2211458333333333,0.46277777777777773,9.109599999904624],[0.18708333333333324,0.37240740740740746,9.126099999904632],[0.1599999999999999,0.2692592592592592,9.147299999713901],[0.1599999999999999,0.2692592592592592,9.159399999618522],[0.15927083333333342,0.2212962962962963,9.176099999904629],[0.17041666666666658,0.15925925925925927,9.192699999809257],[0.18156249999999996,0.09722222222222222,9.209299999713899],[0.1603125000000001,0.05962962962962971,9.227199999809265],[0.10989583333333333,0.0294444444444444,9.2425],[0.050416666666666644,-0.005185185185185101,9.26239999961853],[0.012187500000000047,-0.0025925925925925505,9.278899999618524],[0.01572916666666669,-0.0031481481481482323,9.292699999809265],[0.012395833333333309,0.014814814814814815,9.309499999999993],[0.016562499999999977,0.0477777777777777,9.329599999904623],[0.022916666666666665,0.08000000000000008,9.342699999809263],[0.025833333333333285,0.10351851851851848,9.363099999904627],[0.0390625,0.13111111111111104,9.38069999980926],[0.05333333333333338,0.13518518518518519,9.39569999980926],[0.06052083333333336,0.14203703703703713,9.411499999999997],[0.06906249999999996,0.14166666666666666,9.426699999809266],[0.06812500000000009,0.11166666666666658,9.445799999713891],[0.06812500000000009,0.11166666666666658,9.459499999999998],[0.07677083333333339,0.07851851851851847,9.47619999980926],[0.084375,0.056296296296296254,9.496899999618527],[0.08677083333333328,0.03092592592592601,9.511899999618528],[0.08677083333333328,0.027407407407407325,9.525899999618524],[0.08677083333333328,0.02388888888888885,9.542599999904631],[0.08833333333333329,-0.008703703703703788,9.56199999999999],[0.09979166666666663,-0.018703703703703747,9.575899999618521],[0.11229166666666662,-0.02370370370370362,9.592599999904628],[0.12479166666666662,-0.028703703703703703,9.613999999999997],[0.15145833333333342,-0.03462962962962971,9.629799999713889],[0.15354166666666677,-0.02907407407407416,9.648899999618529],[0.15354166666666677,-0.02907407407407416,9.659599999904636],[0.1540625000000001,-0.10555555555555556,9.676199999809263],[0.16020833333333329,-0.09666666666666665,9.694599999904632],[0.1851041666666667,-0.08722222222222227,9.7152999997139],[0.1851041666666667,-0.08722222222222227,9.72619999980926],[0.19343750000000004,-0.14944444444444444,9.742799999713888],[0.1990624999999999,-0.15833333333333333,9.767000000000003],[0.1990624999999999,-0.15833333333333333,9.776099999904623],[0.18114583333333342,-0.15129629629629626,9.792699999809265],[0.18114583333333342,-0.15129629629629626,9.809299999713893],[0.15281250000000005,-0.16962962962962966,9.826],[0.15281250000000005,-0.16962962962962966,9.842599999904628],[0.11937499999999991,-0.21074074074074076,9.85929999971389],[0.11937499999999991,-0.21074074074074076,9.875899999618532],[0.07854166666666676,-0.23203703703703707,9.892599999904625],[0.07854166666666676,-0.23203703703703707,9.913399999618527],[0.071875,-0.2875925925925926,9.926199999809263],[0.071875,-0.2875925925925926,9.942699999809257],[0.08666666666666671,-0.2227777777777778,9.964999999999996],[0.08666666666666671,-0.2227777777777778,9.97619999980926],[0.07572916666666671,-0.3098148148148148,9.992899999618523],[0.0515625,-0.4118518518518518,10.009199999809262],[0.05270833333333336,-0.4116666666666667,10.025899999618524],[0.04468749999999998,-0.4398148148148148,10.042599999904631],[0.04562499999999995,-0.5101851851851852,10.065599999904627],[0.04562499999999995,-0.5101851851851852,10.075899999618521],[0.06187499999999998,-0.5592592592592592,10.092599999904628],[0.09020833333333324,-0.5975925925925926,10.109799999713893],[0.11177083333333329,-0.6548148148148148,10.125999999999998],[0.11437499999999995,-0.6794444444444444,10.145499999999991],[0.08510416666666672,-0.7520370370370371,10.161399999618531],[0.09406249999999995,-0.7385185185185186,10.178599999904627],[0.10364583333333334,-0.7237037037037037,10.194499999999998],[0.1125,-0.7768518518518519,10.21119999980926],[0.12135416666666667,-0.83,10.22939999961853],[0.13250000000000003,-0.830925925925926,10.243000000000002],[0.12291666666666666,-0.8238888888888889,10.259899999618533],[0.10635416666666657,-0.8048148148148149,10.276299999713892],[0.11697916666666662,-0.7864814814814814,10.292599999904631],[0.1273958333333333,-0.7748148148148147,10.309299999713893],[0.1423958333333334,-0.767962962962963,10.326],[0.13927083333333337,-0.7805555555555556,10.34429999971389],[0.13729166666666662,-0.7627777777777778,10.361899999618522],[0.12729166666666672,-0.7075925925925927,10.375999999999998],[0.10864583333333329,-0.6803703703703703,10.392599999904625],[0.10229166666666671,-0.679074074074074,10.413199999809258],[0.12666666666666657,-0.6659259259259259,10.427],[0.15104166666666666,-0.6527777777777778,10.447499999999998],[0.15104166666666666,-0.6527777777777778,10.459399999618533],[0.14677083333333343,-0.6292592592592593,10.476299999713895],[0.13947916666666677,-0.6122222222222222,10.500899999618532],[0.13947916666666677,-0.6122222222222222,10.509499999999996],[0.13125,-0.6187037037037038,10.526099999904623],[0.13125,-0.6187037037037038,10.542699999809265],[0.13989583333333327,-0.616111111111111,10.56309999990463],[0.12927083333333325,-0.6135185185185186,10.577599999904628],[0.11864583333333342,-0.6109259259259259,10.592699999809263],[0.11395833333333343,-0.5907407407407408,10.609399999618525],[0.12302083333333323,-0.5853703703703704,10.629599999904634],[0.10750000000000005,-0.5433333333333333,10.644899999618524],[0.08927083333333338,-0.5355555555555556,10.661599999904631],[0.0875,-0.5549999999999999,10.679299999713898],[0.0875,-0.5549999999999999,10.694399999618533],[0.07104166666666671,-0.5601851851851852,10.709299999713899],[0.06416666666666669,-0.5148148148148148,10.725899999618527],[0.04041666666666662,-0.4787037037037037,10.7425],[0.041666666666666664,-0.4861111111111111,10.759299999713896],[0.044166666666666646,-0.490925925925926,10.775899999618524],[0.06083333333333331,-0.4903703703703704,10.792599999904631],[0.04635416666666667,-0.48759259259259263,10.809199999809259],[0.04593750000000003,-0.5246296296296297,10.828199999809264],[0.033749999999999974,-0.47685185185185186,10.842799999713897],[0.019375000000000024,-0.4383333333333333,10.860799999713898],[0.022708333333333285,-0.4075925925925926,10.875899999618532],[0.008541666666666715,-0.4148148148148148,10.895000000000003],[0.021249999999999977,-0.41074074074074074,10.909399999618522],[0.008541666666666715,-0.37833333333333335,10.926399999618532],[0.0014583333333333095,-0.3248148148148148,10.944499999999998],[-0.03114583333333331,-0.2511111111111112,10.959899999618521],[-0.007604166666666619,-0.2051851851851852,10.975899999618527],[-0.02822916666666669,-0.18185185185185182,10.992599999904634],[-0.0002083333333333807,-0.18796296296296297,11.009199999809262],[-0.008541666666666715,-0.17370370370370372,11.026000000000003],[-0.016875000000000046,-0.1594444444444445,11.042599999904631],[-0.010312499999999976,-0.13296296296296298,11.065399999618528],[-0.010312499999999976,-0.13296296296296298,11.076],[0.02041666666666669,-0.1007407407407407,11.092699999809263],[0.04020833333333336,-0.09092592592592597,11.10949999999999],[0.05916666666666662,-0.11129629629629634,11.12749999999999],[0.08135416666666657,-0.16055555555555553,11.144099999904633],[0.07135416666666666,-0.13111111111111112,11.159500000000001],[0.09541666666666657,-0.09981481481481477,11.17589999961853],[0.0696875000000001,-0.09851851851851849,11.19250000000001],[0.08739583333333342,-0.08962962962962959,11.209199999809272],[0.07854166666666676,-0.08555555555555554,11.2257999997139],[0.06312500000000003,-0.09388888888888887,11.242699999809275],[0.06312500000000003,-0.09388888888888887,11.259299999713903],[0.018437500000000048,-0.12166666666666665,11.275899999618531],[0.011354166666666643,-0.1175925925925926,11.295899999618541],[0.003854166666666714,-0.11296296296296296,11.31159999990463],[-0.014479166666666644,-0.08814814814814818,11.325899999618528],[-0.02041666666666669,-0.11462962962962958,11.342799999713904],[-0.019583333333333286,-0.13851851851851854,11.360199999809268]]","[0.0001999998092614419,0.04449999999999932,0.059499999999999886,0.0759999999999934,0.09319999980926497,0.11209999990462904,0.12859999990462967,0.14409999990463263,0.16109999990462853,0.17789999961852487,0.19299999999999784,0.2118999996185238,0.2262999997138948,0.24279999971389543,0.2630999999046324,0.2766999998092601,0.2926999998092654,0.3123999996185276,0.32619999980926195,0.3444999999999965,0.35989999961852703,0.3787999997138911,0.3928999996185283,0.4128999996185243,0.43059999990462927,0.4430999999046321,0.4650999999046306,0.47619999980926053,0.49719999980926133,0.5127999997138915,0.531099999904626,0.549599999904629,0.5596999998092613,0.576199999809262,0.5929999999999964,0.6149999999999949,0.6313999996185302,0.6454999999999984,0.6643999996185244,0.6793999996185249,0.6947999997138936,0.7092999997138918,0.7288999996185268,0.7426999998092612,0.7594999999999956,0.7759999999999962,0.7926999998092654,0.8093999996185275,0.8277999997138963,0.8426999998092626,0.8593999996185246,0.8759999999999977,0.8954999999999984,0.90959999990462