inst1_resp.keys,inst1_resp.rt,calibrationMouse.x,calibrationMouse.y,calibrationMouse.leftButton,calibrationMouse.midButton,calibrationMouse.rightButton,calibrationClick.x,calibrationClick.y,calibrationClick.leftButton,calibrationClick.midButton,calibrationClick.rightButton,trialsc.thisRepN,trialsc.thisTrialN,trialsc.thisN,trialsc.thisIndex,trialsc.ran,calibration_x,calibration_y,participant,session,date,expName,psychopyVersion,OS,frameRate,calibrationClick.clicked_name,ScreenRes_pixels,Camera_pixels,mouse_2.x,mouse_2.y,mouse_2.leftButton,mouse_2.midButton,mouse_2.rightButton,mouse_2.time,mouse_2.clicked_name,mouse.x,mouse.y,mouse.leftButton,mouse.midButton,mouse.rightButton,mouse.time,mouse.clicked_name,Choice,Trial,TrialDuration,MOUSE_GAZE,ET_GAZE,ET_GAZE_x_T,time,unixTime,ET_GAZE_NF,Loc_Bus_label,Loc_Metro_label,Loc_RH_label,Loc_Cost_label,Loc_Travel_label,Loc_Comfort_label,Loc_Bus_cost,Loc_Metro_cost,Loc_RH_cost,Loc_Bus_travel,Loc_Metro_travel,Loc_RH_travel,Loc_Bus_comfort,Loc_Metro_comfort,Loc_RH_comfort,trials.thisRepN,trials.thisTrialN,trials.thisN,trials.thisIndex,trials.ran,Block,Device,RH_cost,RH_travel_time,RH_Comfort,metro_cost,metro_travel_time,metro_Comfort,Bus_cost,Bus_travel_time,Bus_Comfort
space,2.1486,-0.169791667,-0.083333333,1,0,0,0.658333333,0.681481481,1,0,0,0,0,0,19,1,0.67,0.67,45,001,2024-11-19_17h25.18.806,Attention_exp_legacy,2023.1.0,Win32,60.24096386,,,,,,,,,,,,,,,,,,,,,,,,,,,,,,,,,,,,,,,,,,,,,,,,,,,,,,,,,
,,,,,,,-0.005208333,0.331481481,1,0,0,0,1,1,12,1,0,0.33,45,001,2024-11-19_17h25.18.806,Attention_exp_legacy,2023.1.0,Win32,60.24096386,calibration_square,,,,,,,,,,,,,,,,,,,,,,,,,,,,,,,,,,,,,,,,,,,,,,,,,,,,,,,,
,,,,,,,-0.330208333,0.340740741,1,0,0,0,2,2,7,1,-0.33,0.33,45,001,2024-11-19_17h25.18.806,Attention_exp_legacy,2023.1.0,Win32,60.24096386,,,,,,,,,,,,,,,,,,,,,,,,,,,,,,,,,,,,,,,,,,,,,,,,,,,,,,,,,
,,,,,,,0.327083333,-0.677777778,1,0,0,0,3,3,14,1,0.33,-0.67,45,001,2024-11-19_17h25.18.806,Attention_exp_legacy,2023.1.0,Win32,60.24096386,calibration_square,,,,,,,,,,,,,,,,,,,,,,,,,,,,,,,,,,,,,,,,,,,,,,,,,,,,,,,,
,,,,,,,-0.676041667,0.335185185,1,0,0,0,4,4,3,1,-0.67,0.33,45,001,2024-11-19_17h25.18.806,Attention_exp_legacy,2023.1.0,Win32,60.24096386,calibration_square,,,,,,,,,,,,,,,,,,,,,,,,,,,,,,,,,,,,,,,,,,,,,,,,,,,,,,,,
,,,,,,,0.009375,-0.001851852,1,0,0,0,5,5,11,1,0,0,45,001,2024-11-19_17h25.18.806,Attention_exp_legacy,2023.1.0,Win32,60.24096386,calibration_square,,,,,,,,,,,,,,,,,,,,,,,,,,,,,,,,,,,,,,,,,,,,,,,,,,,,,,,,
,,,,,,,-0.676041667,0.012962963,1,0,0,0,6,6,2,1,-0.67,0,45,001,2024-11-19_17h25.18.806,Attention_exp_legacy,2023.1.0,Win32,60.24096386,,,,,,,,,,,,,,,,,,,,,,,,,,,,,,,,,,,,,,,,,,,,,,,,,,,,,,,,,
,,,,,,,0.34375,-0.338888889,1,0,0,0,7,7,15,1,0.33,-0.33,45,001,2024-11-19_17h25.18.806,Attention_exp_legacy,2023.1.0,Win32,60.24096386,,,,,,,,,,,,,,,,,,,,,,,,,,,,,,,,,,,,,,,,,,,,,,,,,,,,,,,,,
,,,,,,,0.326041667,0.672222222,1,0,0,0,8,8,18,1,0.33,0.67,45,001,2024-11-19_17h25.18.806,Attention_exp_legacy,2023.1.0,Win32,60.24096386,calibration_square,,,,,,,,,,,,,,,,,,,,,,,,,,,,,,,,,,,,,,,,,,,,,,,,,,,,,,,,
,,,,,,,0.666666667,-0.675925926,1,0,0,0,9,9,20,1,0.67,-0.67,45,001,2024-11-19_17h25.18.806,Attention_exp_legacy,2023.1.0,Win32,60.24096386,calibration_square,,,,,,,,,,,,,,,,,,,,,,,,,,,,,,,,,,,,,,,,,,,,,,,,,,,,,,,,
,,,,,,,-0.679166667,-0.672222222,1,0,0,0,10,10,0,1,-0.67,-0.67,45,001,2024-11-19_17h25.18.806,Attention_exp_legacy,2023.1.0,Win32,60.24096386,calibration_square,,,,,,,,,,,,,,,,,,,,,,,,,,,,,,,,,,,,,,,,,,,,,,,,,,,,,,,,
,,,,,,,-0.001041667,0.659259259,1,0,0,0,11,11,13,1,0,0.67,45,001,2024-11-19_17h25.18.806,Attention_exp_legacy,2023.1.0,Win32,60.24096386,,,,,,,,,,,,,,,,,,,,,,,,,,,,,,,,,,,,,,,,,,,,,,,,,,,,,,,,,
,,,,,,,-0.007291667,-0.325925926,1,0,0,0,12,12,10,1,0,-0.33,45,001,2024-11-19_17h25.18.806,Attention_exp_legacy,2023.1.0,Win32,60.24096386,calibration_square,,,,,,,,,,,,,,,,,,,,,,,,,,,,,,,,,,,,,,,,,,,,,,,,,,,,,,,,
,,,,,,,0.326041667,0.016666667,1,0,0,0,13,13,16,1,0.33,0,45,001,2024-11-19_17h25.18.806,Attention_exp_legacy,2023.1.0,Win32,60.24096386,,,,,,,,,,,,,,,,,,,,,,,,,,,,,,,,,,,,,,,,,,,,,,,,,,,,,,,,,
,,,,,,,0.327083333,0.333333333,1,0,0,0,14,14,17,1,0.33,0.33,45,001,2024-11-19_17h25.18.806,Attention_exp_legacy,2023.1.0,Win32,60.24096386,calibration_square,,,,,,,,,,,,,,,,,,,,,,,,,,,,,,,,,,,,,,,,,,,,,,,,,,,,,,,,
,,,,,,,-0.322916667,-0.657407407,1,0,0,0,15,15,4,1,-0.33,-0.67,45,001,2024-11-19_17h25.18.806,Attention_exp_legacy,2023.1.0,Win32,60.24096386,,,,,,,,,,,,,,,,,,,,,,,,,,,,,,,,,,,,,,,,,,,,,,,,,,,,,,,,,
,,,,,,,-0.683333333,-0.342592593,1,0,0,0,16,16,1,1,-0.67,-0.33,45,001,2024-11-19_17h25.18.806,Attention_exp_legacy,2023.1.0,Win32,60.24096386,,,,,,,,,,,,,,,,,,,,,,,,,,,,,,,,,,,,,,,,,,,,,,,,,,,,,,,,,
,,,,,,,-0.332291667,0.664814815,1,0,0,0,17,17,8,1,-0.33,0.67,45,001,2024-11-19_17h25.18.806,Attention_exp_legacy,2023.1.0,Win32,60.24096386,calibration_square,,,,,,,,,,,,,,,,,,,,,,,,,,,,,,,,,,,,,,,,,,,,,,,,,,,,,,,,
,,,,,,,-0.334375,-0.314814815,1,0,0,0,18,18,5,1,-0.33,-0.33,45,001,2024-11-19_17h25.18.806,Attention_exp_legacy,2023.1.0,Win32,60.24096386,,,,,,,,,,,,,,,,,,,,,,,,,,,,,,,,,,,,,,,,,,,,,,,,,,,,,,,,,
,,,,,,,-0.333333333,0.007407407,1,0,0,0,19,19,6,1,-0.33,0,45,001,2024-11-19_17h25.18.806,Attention_exp_legacy,2023.1.0,Win32,60.24096386,calibration_square,,,,,,,,,,,,,,,,,,,,,,,,,,,,,,,,,,,,,,,,,,,,,,,,,,,,,,,,
,,,,,,,-0.001041667,-0.666666667,1,0,0,0,20,20,9,1,0,-0.67,45,001,2024-11-19_17h25.18.806,Attention_exp_legacy,2023.1.0,Win32,60.24096386,calibration_square,,,,,,,,,,,,,,,,,,,,,,,,,,,,,,,,,,,,,,,,,,,,,,,,,,,,,,,,
,,,,,,,,,,,,,,,,,,,45,001,2024-11-19_17h25.18.806,Attention_exp_legacy,2023.1.0,Win32,60.24096386,,"[1920,1080]","[640,480]",[0.00625],[-0.5166666666666667],[1],[0],[0],[3.247499999999995],"[""StartButton""]",[-0.05520833333333333],[0.15185185185185185],[1],[0],[0],[7.400799999713897],"[""Bus_label""]",Bus_label,1,8.4245,"[[-0.046875,-0.31296296296296294],[-0.046875,-0.31296296296296294],[-0.046875,-0.31296296296296294],[-0.046875,-0.31296296296296294],[-0.046875,-0.31296296296296294],[-0.046875,-0.31296296296296294],[-0.046875,-0.31296296296296294],[-0.046875,-0.31296296296296294],[-0.046875,-0.31296296296296294],[-0.046875,-0.31296296296296294],[-0.046875,-0.31296296296296294],[-0.046875,-0.31296296296296294],[-0.046875,-0.31296296296296294],[-0.046875,-0.31296296296296294],[-0.046875,-0.31296296296296294],[-0.046875,-0.31296296296296294],[-0.046875,-0.31296296296296294],[-0.046875,-0.31296296296296294],[-0.046875,-0.31296296296296294],[-0.046875,-0.31296296296296294],[-0.046875,-0.31296296296296294],[-0.046875,-0.31296296296296294],[-0.046875,-0.31296296296296294],[-0.046875,-0.31296296296296294],[-0.046875,-0.31296296296296294],[-0.046875,-0.31296296296296294],[-0.046875,-0.31296296296296294],[-0.046875,-0.31296296296296294],[-0.046875,-0.31296296296296294],[-0.046875,-0.31296296296296294],[-0.046875,-0.31296296296296294],[-0.046875,-0.31296296296296294],[-0.046875,-0.31296296296296294],[-0.046875,-0.31296296296296294],[-0.046875,-0.31296296296296294],[-0.046875,-0.31296296296296294],[-0.046875,-0.31296296296296294],[-0.046875,-0.31296296296296294],[-0.046875,-0.31296296296296294],[-0.046875,-0.31296296296296294],[-0.046875,-0.31296296296296294],[-0.046875,-0.31296296296296294],[-0.046875,-0.31296296296296294],[-0.046875,-0.31296296296296294],[-0.046875,-0.31296296296296294],[-0.046875,-0.31296296296296294],[-0.046875,-0.31296296296296294],[-0.046875,-0.31296296296296294],[-0.046875,-0.31296296296296294],[-0.046875,-0.31296296296296294],[-0.046875,-0.31296296296296294],[-0.046875,-0.31296296296296294],[-0.046875,-0.31296296296296294],[-0.046875,-0.31296296296296294],[-0.046875,-0.31296296296296294],[-0.046875,-0.31296296296296294],[-0.046875,-0.31296296296296294],[-0.046875,-0.31296296296296294],[-0.046875,-0.31296296296296294],[-0.046875,-0.31296296296296294],[-0.046875,-0.31296296296296294],[-0.046875,-0.31296296296296294],[-0.046875,-0.31296296296296294],[-0.046875,-0.31296296296296294],[-0.046875,-0.31296296296296294],[-0.046875,-0.31296296296296294],[-0.046875,-0.31296296296296294],[-0.046875,-0.31296296296296294],[-0.04791666666666667,-0.3148148148148148],[-0.04791666666666667,-0.32037037037037036],[-0.05,-0.3277777777777778],[-0.05,-0.3277777777777778],[-0.05,-0.3351851851851852],[-0.05,-0.3351851851851852],[-0.05,-0.3351851851851852],[-0.05,-0.3351851851851852],[-0.05,-0.3351851851851852],[-0.05,-0.3351851851851852],[-0.05,-0.3351851851851852],[-0.05,-0.3351851851851852],[-0.05,-0.3351851851851852],[-0.052083333333333336,-0.3425925925925926],[-0.052083333333333336,-0.34814814814814815],[-0.052083333333333336,-0.35555555555555557],[-0.052083333333333336,-0.35555555555555557],[-0.053125,-0.3592592592592593],[-0.05416666666666667,-0.3611111111111111],[-0.05520833333333333,-0.3648148148148148],[-0.05625,-0.36666666666666664],[-0.05625,-0.36666666666666664],[-0.05625,-0.36666666666666664],[-0.05625,-0.36666666666666664],[-0.05625,-0.36666666666666664],[-0.05625,-0.36666666666666664],[-0.05625,-0.36666666666666664],[-0.05625,-0.36666666666666664],[-0.05625,-0.36666666666666664],[-0.057291666666666664,-0.36666666666666664],[-0.057291666666666664,-0.36666666666666664],[-0.057291666666666664,-0.36666666666666664],[-0.057291666666666664,-0.36666666666666664],[-0.057291666666666664,-0.36666666666666664],[-0.057291666666666664,-0.36666666666666664],[-0.057291666666666664,-0.36666666666666664],[-0.057291666666666664,-0.36666666666666664],[-0.057291666666666664,-0.36666666666666664],[-0.057291666666666664,-0.36666666666666664],[-0.057291666666666664,-0.36666666666666664],[-0.057291666666666664,-0.36666666666666664],[-0.057291666666666664,-0.36666666666666664],[-0.057291666666666664,-0.36666666666666664],[-0.057291666666666664,-0.36666666666666664],[-0.057291666666666664,-0.36666666666666664],[-0.057291666666666664,-0.36666666666666664],[-0.057291666666666664,-0.36666666666666664],[-0.057291666666666664,-0.36666666666666664],[-0.057291666666666664,-0.36666666666666664],[-0.057291666666666664,-0.36666666666666664],[-0.057291666666666664,-0.36666666666666664],[-0.057291666666666664,-0.36666666666666664],[-0.057291666666666664,-0.36666666666666664],[-0.057291666666666664,-0.36666666666666664],[-0.057291666666666664,-0.36666666666666664],[-0.057291666666666664,-0.36666666666666664],[-0.057291666666666664,-0.36666666666666664],[-0.057291666666666664,-0.36666666666666664],[-0.057291666666666664,-0.36666666666666664],[-0.057291666666666664,-0.36666666666666664],[-0.057291666666666664,-0.36666666666666664],[-0.057291666666666664,-0.36666666666666664],[-0.057291666666666664,-0.36666666666666664],[-0.057291666666666664,-0.36666666666666664],[-0.057291666666666664,-0.36666666666666664],[-0.057291666666666664,-0.36666666666666664],[-0.057291666666666664,-0.36666666666666664],[-0.057291666666666664,-0.36666666666666664],[-0.057291666666666664,-0.36666666666666664],[-0.057291666666666664,-0.36666666666666664],[-0.057291666666666664,-0.36666666666666664],[-0.057291666666666664,-0.36666666666666664],[-0.057291666666666664,-0.36666666666666664],[-0.057291666666666664,-0.36666666666666664],[-0.057291666666666664,-0.36666666666666664],[-0.057291666666666664,-0.36666666666666664],[-0.057291666666666664,-0.36666666666666664],[-0.057291666666666664,-0.36666666666666664],[-0.057291666666666664,-0.36666666666666664],[-0.057291666666666664,-0.36666666666666664],[-0.057291666666666664,-0.36666666666666664],[-0.057291666666666664,-0.36666666666666664],[-0.057291666666666664,-0.36666666666666664],[-0.057291666666666664,-0.36666666666666664],[-0.057291666666666664,-0.36666666666666664],[-0.057291666666666664,-0.36666666666666664],[-0.057291666666666664,-0.36666666666666664],[-0.057291666666666664,-0.36666666666666664],[-0.057291666666666664,-0.36666666666666664],[-0.057291666666666664,-0.36666666666666664],[-0.057291666666666664,-0.36666666666666664],[-0.057291666666666664,-0.36666666666666664],[-0.057291666666666664,-0.36666666666666664],[-0.05625,-0.3592592592592593],[-0.053125,-0.34629629629629627],[-0.04895833333333333,-0.32222222222222224],[-0.046875,-0.3055555555555556],[-0.040625,-0.2777777777777778],[-0.035416666666666666,-0.2518518518518518],[-0.03125,-0.22592592592592592],[-0.029166666666666667,-0.19814814814814816],[-0.025,-0.17592592592592593],[-0.022916666666666665,-0.15185185185185185],[-0.020833333333333332,-0.12962962962962962],[-0.019791666666666666,-0.11481481481481481],[-0.015625,-0.07592592592592592],[-0.013541666666666667,-0.06481481481481481],[-0.0125,-0.05555555555555555],[-0.010416666666666666,-0.046296296296296294],[-0.010416666666666666,-0.04259259259259259],[-0.010416666666666666,-0.03333333333333333],[-0.007291666666666667,-0.024074074074074074],[-0.004166666666666667,-0.005555555555555556],[-0.003125,-0.001851851851851852],[0,0.007407407407407408],[0,0.011111111111111112],[0.0010416666666666667,0.012962962962962963],[0.004166666666666667,0.020370370370370372],[0.009375,0.027777777777777776],[0.011458333333333333,0.03148148148148148],[0.013541666666666667,0.03518518518518519],[0.014583333333333334,0.037037037037037035],[0.017708333333333333,0.040740740740740744],[0.020833333333333332,0.044444444444444446],[0.022916666666666665,0.04814814814814815],[0.022916666666666665,0.04814814814814815],[0.023958333333333335,0.04814814814814815],[0.025,0.05],[0.025,0.05],[0.025,0.05],[0.025,0.05185185185185185],[0.025,0.05185185185185185],[0.025,0.05185185185185185],[0.025,0.05185185185185185],[0.025,0.05185185185185185],[0.019791666666666666,0.053703703703703705],[0.007291666666666667,0.053703703703703705],[-0.005208333333333333,0.053703703703703705],[-0.015625,0.053703703703703705],[-0.025,0.053703703703703705],[-0.028125,0.053703703703703705],[-0.035416666666666666,0.053703703703703705],[-0.03854166666666667,0.053703703703703705],[-0.042708333333333334,0.053703703703703705],[-0.04375,0.053703703703703705],[-0.04583333333333333,0.053703703703703705],[-0.046875,0.053703703703703705],[-0.04791666666666667,0.053703703703703705],[-0.04895833333333333,0.053703703703703705],[-0.04895833333333333,0.053703703703703705],[-0.04895833333333333,0.053703703703703705],[-0.04895833333333333,0.053703703703703705],[-0.04895833333333333,0.053703703703703705],[-0.04895833333333333,0.053703703703703705],[-0.04895833333333333,0.053703703703703705],[-0.04895833333333333,0.053703703703703705],[-0.04895833333333333,0.053703703703703705],[-0.04895833333333333,0.053703703703703705],[-0.04895833333333333,0.053703703703703705],[-0.04895833333333333,0.053703703703703705],[-0.04895833333333333,0.053703703703703705],[-0.04895833333333333,0.053703703703703705],[-0.04895833333333333,0.053703703703703705],[-0.04895833333333333,0.053703703703703705],[-0.04895833333333333,0.053703703703703705],[-0.051041666666666666,0.05],[-0.051041666666666666,0.046296296296296294],[-0.053125,0.040740740740740744],[-0.053125,0.03333333333333333],[-0.05416666666666667,0.024074074074074074],[-0.05520833333333333,0.018518518518518517],[-0.05625,0.011111111111111112],[-0.057291666666666664,0.011111111111111112],[-0.057291666666666664,0.009259259259259259],[-0.057291666666666664,0.009259259259259259],[-0.058333333333333334,0.005555555555555556],[-0.058333333333333334,0.003703703703703704],[-0.058333333333333334,-0.001851851851851852],[-0.058333333333333334,-0.005555555555555556],[-0.058333333333333334,-0.011111111111111112],[-0.058333333333333334,-0.012962962962962963],[-0.059375,-0.014814814814814815],[-0.059375,-0.016666666666666666],[-0.059375,-0.016666666666666666],[-0.059375,-0.020370370370370372],[-0.059375,-0.022222222222222223],[-0.059375,-0.024074074074074074],[-0.059375,-0.024074074074074074],[-0.059375,-0.027777777777777776],[-0.059375,-0.027777777777777776],[-0.059375,-0.027777777777777776],[-0.059375,-0.027777777777777776],[-0.059375,-0.02962962962962963],[-0.059375,-0.02962962962962963],[-0.059375,-0.03333333333333333],[-0.059375,-0.03518518518518519],[-0.059375,-0.037037037037037035],[-0.059375,-0.03888888888888889],[-0.059375,-0.040740740740740744],[-0.059375,-0.040740740740740744],[-0.059375,-0.040740740740740744],[-0.059375,-0.04259259259259259],[-0.059375,-0.046296296296296294],[-0.059375,-0.04814814814814815],[-0.059375,-0.05],[-0.059375,-0.05],[-0.059375,-0.05185185185185185],[-0.059375,-0.05555555555555555],[-0.059375,-0.05555555555555555],[-0.059375,-0.05555555555555555],[-0.059375,-0.05925925925925926],[-0.059375,-0.06111111111111111],[-0.059375,-0.06481481481481481],[-0.059375,-0.07222222222222222],[-0.059375,-0.07407407407407407],[-0.059375,-0.07592592592592592],[-0.058333333333333334,-0.07962962962962963],[-0.058333333333333334,-0.08333333333333333],[-0.058333333333333334,-0.08518518518518518],[-0.058333333333333334,-0.08518518518518518],[-0.058333333333333334,-0.08518518518518518],[-0.058333333333333334,-0.08518518518518518],[-0.058333333333333334,-0.08518518518518518],[-0.058333333333333334,-0.08518518518518518],[-0.058333333333333334,-0.08518518518518518],[-0.058333333333333334,-0.08518518518518518],[-0.058333333333333334,-0.08518518518518518],[-0.057291666666666664,-0.08518518518518518],[-0.05625,-0.07962962962962963],[-0.05520833333333333,-0.06481481481481481],[-0.053125,-0.05],[-0.052083333333333336,-0.037037037037037035],[-0.051041666666666666,-0.024074074074074074],[-0.051041666666666666,-0.016666666666666666],[-0.051041666666666666,-0.009259259259259259],[-0.04895833333333333,0],[-0.04895833333333333,0.005555555555555556],[-0.04895833333333333,0.012962962962962963],[-0.04895833333333333,0.014814814814814815],[-0.04895833333333333,0.020370370370370372],[-0.04895833333333333,0.025925925925925925],[-0.04895833333333333,0.03888888888888889],[-0.04895833333333333,0.05185185185185185],[-0.051041666666666666,0.07037037037037037],[-0.053125,0.08333333333333333],[-0.05520833333333333,0.09259259259259259],[-0.05520833333333333,0.0962962962962963],[-0.05520833333333333,0.10185185185185185],[-0.05520833333333333,0.1037037037037037],[-0.05520833333333333,0.11481481481481481],[-0.05520833333333333,0.11851851851851852],[-0.05520833333333333,0.12407407407407407],[-0.05520833333333333,0.12777777777777777],[-0.05520833333333333,0.13148148148148148],[-0.05520833333333333,0.13518518518518519],[-0.05520833333333333,0.1425925925925926],[-0.05520833333333333,0.15],[-0.05520833333333333,0.15185185185185185],[-0.05520833333333333,0.15185185185185185],[-0.05520833333333333,0.15185185185185185],[-0.05520833333333333,0.15185185185185185],[-0.05520833333333333,0.15185185185185185],[-0.05520833333333333,0.15185185185185185],[-0.05520833333333333,0.15185185185185185],[-0.05520833333333333,0.15185185185185185],[-0.05520833333333333,0.15185185185185185],[-0.05520833333333333,0.15185185185185185],[-0.05520833333333333,0.15185185185185185],[-0.05520833333333333,0.15185185185185185],[-0.05520833333333333,0.15185185185185185],[-0.05520833333333333,0.15185185185185185],[-0.05520833333333333,0.15185185185185185],[-0.05520833333333333,0.15185185185185185],[-0.05520833333333333,0.15185185185185185],[-0.05520833333333333,0.15185185185185185],[-0.05520833333333333,0.15185185185185185],[-0.05520833333333333,0.15185185185185185],[-0.05520833333333333,0.15185185185185185],[-0.05520833333333333,0.15185185185185185],[-0.05520833333333333,0.15185185185185185],[-0.05520833333333333,0.15185185185185185],[-0.05520833333333333,0.15185185185185185],[-0.05520833333333333,0.15185185185185185],[-0.05520833333333333,0.15185185185185185],[-0.05520833333333333,0.15185185185185185],[-0.05520833333333333,0.15185185185185185],[-0.05520833333333333,0.15185185185185185],[-0.05520833333333333,0.15185185185185185],[-0.05520833333333333,0.15185185185185185],[-0.05520833333333333,0.15185185185185185],[-0.05520833333333333,0.15185185185185185],[-0.05520833333333333,0.15185185185185185],[-0.05520833333333333,0.15185185185185185],[-0.05520833333333333,0.15185185185185185],[-0.05520833333333333,0.15185185185185185],[-0.05520833333333333,0.15185185185185185],[-0.05520833333333333,0.15185185185185185],[-0.05520833333333333,0.15185185185185185],[-0.05520833333333333,0.15185185185185185],[-0.05520833333333333,0.15185185185185185],[-0.05520833333333333,0.15185185185185185],[-0.05520833333333333,0.15185185185185185],[-0.05520833333333333,0.15185185185185185],[-0.05520833333333333,0.15185185185185185],[-0.05520833333333333,0.15185185185185185],[-0.05520833333333333,0.15185185185185185],[-0.05520833333333333,0.15185185185185185],[-0.05520833333333333,0.15185185185185185],[-0.05520833333333333,0.15185185185185185],[-0.05520833333333333,0.15185185185185185],[-0.05520833333333333,0.15185185185185185],[-0.05520833333333333,0.15185185185185185],[-0.05520833333333333,0.15185185185185185],[-0.05520833333333333,0.15185185185185185],[-0.05520833333333333,0.15185185185185185],[-0.05520833333333333,0.15185185185185185],[-0.05520833333333333,0.15185185185185185],[-0.05520833333333333,0.15185185185185185],[-0.05520833333333333,0.15185185185185185],[-0.05520833333333333,0.15185185185185185],[-0.05520833333333333,0.15185185185185185],[-0.05520833333333333,0.15185185185185185],[-0.05520833333333333,0.15185185185185185],[-0.05520833333333333,0.15185185185185185],[-0.05520833333333333,0.15185185185185185],[-0.05520833333333333,0.15185185185185185],[-0.05520833333333333,0.15185185185185185],[-0.05520833333333333,0.15185185185185185],[-0.05520833333333333,0.15185185185185185],[-0.05520833333333333,0.15185185185185185],[-0.05520833333333333,0.15185185185185185],[-0.05520833333333333,0.15185185185185185],[-0.05520833333333333,0.15185185185185185],[-0.05520833333333333,0.15185185185185185],[-0.05520833333333333,0.15185185185185185],[-0.05520833333333333,0.15185185185185185],[-0.05520833333333333,0.15185185185185185],[-0.05520833333333333,0.15185185185185185],[-0.05520833333333333,0.15185185185185185],[-0.05520833333333333,0.15185185185185185],[-0.05520833333333333,0.15185185185185185],[-0.05520833333333333,0.15185185185185185],[-0.05520833333333333,0.15185185185185185],[-0.05520833333333333,0.15185185185185185],[-0.05520833333333333,0.15185185185185185],[-0.05520833333333333,0.15185185185185185],[-0.05520833333333333,0.15185185185185185],[-0.05520833333333333,0.15185185185185185],[-0.05520833333333333,0.15185185185185185],[-0.05520833333333333,0.15185185185185185],[-0.05520833333333333,0.15185185185185185],[-0.05520833333333333,0.15185185185185185],[-0.05520833333333333,0.15185185185185185],[-0.05520833333333333,0.15185185185185185],[-0.05520833333333333,0.15185185185185185],[-0.05520833333333333,0.15185185185185185],[-0.05520833333333333,0.15185185185185185],[-0.05520833333333333,0.15185185185185185],[-0.05520833333333333,0.15185185185185185],[-0.05520833333333333,0.15185185185185185],[-0.05520833333333333,0.15185185185185185],[-0.05520833333333333,0.15185185185185185],[-0.05520833333333333,0.15185185185185185],[-0.05520833333333333,0.15185185185185185],[-0.05520833333333333,0.15185185185185185],[-0.05520833333333333,0.15185185185185185],[-0.05520833333333333,0.15185185185185185],[-0.05520833333333333,0.15185185185185185],[-0.05520833333333333,0.15185185185185185],[-0.05520833333333333,0.15185185185185185],[-0.05520833333333333,0.15185185185185185],[-0.05520833333333333,0.15185185185185185],[-0.05520833333333333,0.15185185185185185],[-0.05520833333333333,0.15185185185185185],[-0.05520833333333333,0.15185185185185185],[-0.05520833333333333,0.15185185185185185],[-0.05520833333333333,0.15185185185185185],[-0.05520833333333333,0.15185185185185185],[-0.05520833333333333,0.15185185185185185],[-0.05520833333333333,0.15185185185185185],[-0.05520833333333333,0.15185185185185185],[-0.05520833333333333,0.15185185185185185],[-0.05520833333333333,0.15185185185185185],[-0.05520833333333333,0.15185185185185185],[-0.05520833333333333,0.15185185185185185],[-0.05520833333333333,0.15185185185185185],[-0.05520833333333333,0.15185185185185185],[-0.05520833333333333,0.15185185185185185],[-0.05520833333333333,0.15185185185185185],[-0.05520833333333333,0.15185185185185185],[-0.05520833333333333,0.15185185185185185],[-0.05520833333333333,0.15185185185185185],[-0.05520833333333333,0.15185185185185185],[-0.05520833333333333,0.15185185185185185],[-0.05520833333333333,0.15185185185185185],[-0.05520833333333333,0.15185185185185185],[-0.05520833333333333,0.15185185185185185],[-0.05520833333333333,0.15185185185185185],[-0.05520833333333333,0.15185185185185185],[-0.05520833333333333,0.15185185185185185],[-0.05520833333333333,0.15185185185185185],[-0.05520833333333333,0.15185185185185185],[-0.05520833333333333,0.15185185185185185],[-0.05520833333333333,0.15185185185185185],[-0.05520833333333333,0.15185185185185185],[-0.05520833333333333,0.15185185185185185],[-0.05520833333333333,0.15185185185185185],[-0.05520833333333333,0.15185185185185185],[-0.05520833333333333,0.15185185185185185],[-0.05520833333333333,0.15185185185185185],[-0.05520833333333333,0.15185185185185185],[-0.05520833333333333,0.15185185185185185],[-0.05520833333333333,0.15185185185185185],[-0.05520833333333333,0.15185185185185185],[-0.05520833333333333,0.15185185185185185],[-0.05520833333333333,0.15185185185185185],[-0.05520833333333333,0.15185185185185185],[-0.05520833333333333,0.15185185185185185],[-0.05520833333333333,0.15185185185185185],[-0.05520833333333333,0.15185185185185185],[-0.05520833333333333,0.15185185185185185],[-0.05520833333333333,0.15185185185185185],[-0.05520833333333333,0.15185185185185185],[-0.05520833333333333,0.15185185185185185],[-0.05520833333333333,0.15185185185185185],[-0.05520833333333333,0.15185185185185185],[-0.05520833333333333,0.15185185185185185],[-0.05520833333333333,0.15185185185185185],[-0.05520833333333333,0.15185185185185185],[-0.05520833333333333,0.15185185185185185],[-0.05520833333333333,0.15185185185185185],[-0.05520833333333333,0.15185185185185185],[-0.05520833333333333,0.15185185185185185],[-0.05520833333333333,0.15185185185185185],[-0.05520833333333333,0.15185185185185185]]","[[-0.059583333333333384,0.052962962962963],[-0.059583333333333384,0.052962962962963],[-0.03989583333333328,0.04888888888888885],[-0.03989583333333328,0.04888888888888885],[-0.021249999999999977,0.055000000000000084],[-0.028645833333333332,0.03944444444444436],[-0.028645833333333332,0.03944444444444436],[-0.02958333333333331,0.03629629629629634],[-0.04385416666666669,0.0020370370370370794],[-0.02333333333333331,0.0014814814814813973],[-0.016250000000000025,-0.005000000000000084],[-0.011249999999999953,-0.01722222222222214],[-0.007291666666666667,-0.025],[0.00302083333333331,-0.0198148148148149],[-0.013541666666666667,-0.02111111111111107],[-0.03729166666666662,-0.03462962962962971],[-0.04031250000000005,-0.03722222222222227],[-0.043333333333333356,-0.03981481481481482],[-0.033958333333333354,-0.018333333333333292],[-0.04031250000000005,-0.019444444444444445],[-0.0453125,-0.026851851851851852],[-0.04604166666666672,-0.016851851851851896],[-0.04697916666666669,-0.01907407407407399],[-0.05489583333333338,-0.029814814814814856],[-0.050625000000000024,-0.03166666666666671],[-0.050625000000000024,-0.03166666666666671],[-0.03895833333333331,-0.026481481481481398],[-0.043437500000000046,-0.03759259259259251],[-0.04729166666666664,-0.04814814814814815],[-0.04510416666666662,-0.05555555555555555],[-0.03895833333333331,-0.05814814814814811],[-0.029062499999999977,-0.06870370370370374],[-0.021354166666666667,-0.09092592592592597],[-0.011249999999999953,-0.08499999999999996],[-0.0005208333333333333,-0.08351851851851856],[-0.006458333333333381,-0.09055555555555551],[-0.006458333333333381,-0.09055555555555551],[-0.019791666666666666,-0.10462962962962963],[-0.017812500000000023,-0.1081481481481481],[-0.0203125,-0.0962962962962963],[-0.034375,-0.09296296296296294],[-0.0484375,-0.08962962962962959],[-0.07281249999999997,-0.07999999999999997],[-0.08458333333333339,-0.062037037037037036],[-0.0985416666666667,-0.059999999999999956],[-0.11281249999999995,-0.07018518518518514],[-0.11041666666666666,-0.07185185185185188],[-0.11187499999999997,-0.056666666666666705],[-0.1125,-0.035740740740740656],[-0.11677083333333335,-0.044999999999999915],[-0.12104166666666671,-0.05425925925925928],[-0.12208333333333338,-0.07796296296296301],[-0.11791666666666671,-0.09370370370370375],[-0.1404166666666666,-0.0868518518518518],[-0.16291666666666665,-0.07999999999999997],[-0.16354166666666667,0.007592592592592635],[-0.16416666666666668,0.09518518518518514],[-0.1688541666666667,0.14296296296296304],[-0.15697916666666673,0.21944444444444444],[-0.13708333333333336,0.2825925925925926],[-0.1171875,0.34574074074074085],[-0.09249999999999996,0.43796296296296294],[-0.09249999999999996,0.43796296296296294],[-0.08885416666666662,0.49962962962962953],[-0.08885416666666662,0.49962962962962953],[-0.06020833333333329,0.5507407407407408],[-0.06020833333333329,0.5507407407407408],[-0.04812500000000005,0.5951851851851852],[-0.04812500000000005,0.5951851851851852],[-0.04635416666666667,0.522962962962963],[-0.04635416666666667,0.522962962962963],[-0.04677083333333331,0.4385185185185184],[-0.04677083333333331,0.4385185185185184],[-0.03729166666666662,0.4124074074074075],[-0.03729166666666662,0.4124074074074075],[-0.04916666666666671,0.33185185185185195],[-0.04916666666666671,0.33185185185185195],[-0.04552083333333338,0.2735185185185186],[-0.04552083333333338,0.2735185185185186],[-0.04729166666666664,0.22111111111111106],[-0.04364583333333331,0.1668518518518519],[-0.04364583333333331,0.1668518518518519],[-0.03187500000000002,0.18499999999999997],[-0.03187500000000002,0.18499999999999997],[-0.017812500000000023,0.17314814814814813],[0.006458333333333381,0.18111111111111103],[0.002291666666666714,0.2],[0.0003124999999999526,0.23111111111111102],[-0.0036458333333333334,0.22685185185185186],[-0.002812500000000047,0.2544444444444444],[-0.018020833333333285,0.2874074074074075],[-0.024687500000000046,0.31444444444444436],[-0.04479166666666667,0.3287037037037037],[-0.04812500000000005,0.3177777777777778],[-0.06468750000000002,0.3164814814814814],[-0.07364583333333338,0.28851851851851845],[-0.06541666666666662,0.2977777777777777],[-0.06447916666666664,0.31574074074074077],[-0.03968750000000002,0.33259259259259266],[-0.01895833333333338,0.35],[0.0017708333333333807,0.36740740740740735],[0.01260416666666669,0.37537037037037047],[0.0234375,0.38333333333333336],[0.03302083333333338,0.35111111111111115],[0.029999999999999954,0.34629629629629627],[0.03145833333333338,0.322037037037037],[0.04510416666666662,0.29555555555555557],[0.07239583333333334,0.2774074074074073],[0.07583333333333328,0.2603703703703704],[0.043020833333333286,0.22851851851851848],[0.010208333333333286,0.19666666666666674],[0.0046875,0.17981481481481484],[-0.000833333333333286,0.16296296296296298],[-0.008958333333333356,0.16962962962962966],[0.0007291666666667141,0.15425925925925918],[-0.017083333333333308,0.15462962962962962],[-0.04708333333333338,0.15722222222222218],[-0.05552083333333328,0.1587037037037038],[-0.06395833333333331,0.16018518518518518],[-0.04083333333333338,0.17703703703703708],[-0.017708333333333333,0.19388888888888897],[-0.024479166666666666,0.18888888888888888],[-0.03125,0.1838888888888888],[-0.03125,0.1838888888888888],[-0.013854166666666619,0.17685185185185184],[-0.027499999999999976,0.14833333333333337],[-0.019375000000000024,0.13703703703703704],[-0.01072916666666662,0.10574074074074079],[-0.029999999999999954,0.05851851851851856],[-0.05572916666666667,0.06444444444444436],[-0.07270833333333329,0.06314814814814819],[-0.0734375,0.10185185185185185],[-0.06760416666666665,0.172037037037037],[-0.06760416666666665,0.172037037037037],[-0.060000000000000026,0.2411111111111112],[-0.0704166666666667,0.2975925925925927],[-0.05499999999999995,0.3701851851851851],[-0.03958333333333333,0.4427777777777778],[-0.030312500000000023,0.5222222222222223],[-0.00614583333333331,0.5848148148148147],[0.004062499999999977,0.61],[0.028854166666666715,0.6194444444444445],[0.034062500000000044,0.5890740740740741],[0.04656250000000005,0.5218518518518518],[0.05447916666666662,0.4607407407407407],[0.065625,0.44074074074074077],[0.06947916666666672,0.4137037037037037],[0.04718749999999995,0.3418518518518519],[0.022708333333333285,0.2764814814814814],[-0.017083333333333308,0.22870370370370371],[-0.03218749999999997,0.18370370370370379],[-0.04760416666666671,0.15981481481481474],[-0.059687499999999956,0.13574074074074066],[-0.08218749999999998,0.11537037037037029],[-0.10187499999999995,0.09000000000000004],[-0.10187499999999995,0.09000000000000004],[-0.1373958333333333,0.04351851851851852],[-0.16687500000000005,0.024629629629629547],[-0.16447916666666665,0.04296296296296305],[-0.14739583333333334,0.06870370370370374],[-0.12989583333333338,0.09370370370370375],[-0.11666666666666667,0.10018518518518522],[-0.11531250000000005,0.11666666666666667],[-0.11583333333333339,0.12037037037037036],[-0.11041666666666666,0.14203703703703713],[-0.09312499999999997,0.1646296296296296],[-0.06937500000000002,0.18185185185185193],[-0.05249999999999998,0.18370370370370379],[-0.04135416666666671,0.19314814814814807],[-0.041666666666666664,0.20111111111111116],[-0.041979166666666616,0.20907407407407402],[-0.03677083333333329,0.202962962962963],[-0.033958333333333354,0.1814814814814815],[-0.026979166666666644,0.16370370370370366],[-0.014791666666666713,0.14370370370370375],[-0.010312499999999976,0.16074074074074066],[-0.016145833333333335,0.1479629629629629],[-0.013125000000000024,0.1331481481481481],[-0.010104166666666714,0.11833333333333329],[-0.0018749999999999527,0.09648148148148153],[0.005520833333333286,0.07592592592592592],[0.005937500000000048,0.05759259259259263],[0.00635416666666669,0.03925925925925934],[0.00635416666666669,0.03925925925925934],[0.009375,0.026666666666666623],[0.009375,0.026666666666666623],[0.007187499999999976,0.01629629629629621],[0.007187499999999976,0.01629629629629621],[-0.00916666666666662,-0.0235185185185186],[-0.004166666666666667,-0.026851851851851852],[0.002916666666666619,-0.030740740740740784],[0.0036458333333333334,-0.03685185185185181],[0.0037500000000000237,-0.03518518518518519],[0.0037500000000000237,-0.03518518518518519],[0.002812500000000047,-0.036481481481481566],[0.002812500000000047,-0.036481481481481566],[0.007604166666666619,-0.0338888888888888],[0.007604166666666619,-0.0338888888888888],[0.014895833333333285,-0.017592592592592594],[0.014895833333333285,-0.017592592592592594],[0.003333333333333381,0.019259259259259216],[0.003333333333333381,0.019259259259259216],[-0.019270833333333334,0.03518518518518519],[-0.019270833333333334,0.03518518518518519],[-0.004791666666666691,0.06925925925925921],[-0.014895833333333285,0.06370370370370367],[-0.02781250000000005,0.05555555555555555],[-0.02385416666666664,0.07518518518518523],[-0.02385416666666664,0.07518518518518523],[-0.019895833333333356,0.0948148148148149],[-0.044166666666666646,0.08888888888888889],[-0.052291666666666715,0.09666666666666675],[-0.06291666666666665,0.09074074074074075],[-0.05802083333333338,0.07907407407407416],[-0.04208333333333331,0.08833333333333342],[-0.043333333333333356,0.07796296296296301],[-0.043333333333333356,0.07796296296296301],[-0.03104166666666662,0.10055555555555547],[-0.01416666666666669,0.11685185185185189],[-0.009791666666666643,0.08037037037037033],[-0.005416666666666714,0.04388888888888897],[0.01416666666666669,0.04518518518518514],[0.013333333333333286,0.040740740740740744],[0.02166666666666662,0.05592592592592601],[0.040625,0.06814814814814807],[0.05406249999999998,0.053703703703703705],[0.057604166666666616,0.03222222222222218],[0.0640625,0.021296296296296296],[0.06593749999999995,0.016666666666666666],[0.05583333333333336,0.027407407407407325],[0.05499999999999995,0.07833333333333325],[0.07239583333333334,0.07851851851851847],[0.08979166666666671,0.0787037037037037],[0.10822916666666677,0.07111111111111107],[0.10822916666666677,0.07111111111111107],[0.08989583333333329,0.035740740740740656],[0.06947916666666672,0.024629629629629547],[0.06218750000000005,0.032407407407407406],[0.06291666666666665,0.07018518518518514],[0.043333333333333356,0.058333333333333334],[0.043333333333333356,0.058333333333333334],[0.03916666666666669,0.06055555555555564],[0.024583333333333356,0.01703703703703712],[-0.0067708333333333336,0.009999999999999959],[-0.02374999999999995,0.012777777777777735],[-0.041666666666666664,0.002962962962963005],[-0.035000000000000024,0.012407407407407492],[-0.035000000000000024,0.012407407407407492],[-0.05687500000000002,0.07444444444444454],[-0.04375,0.15407407407407417],[-0.04864583333333338,0.18351851851851855],[-0.06593749999999995,0.17888888888888893],[-0.06593749999999995,0.17888888888888893],[-0.04822916666666662,0.21203703703703702],[-0.04593750000000003,0.21740740740740735],[-0.036666666666666715,0.2490740740740741],[-0.0359375,0.2661111111111112],[-0.05614583333333331,0.33722222222222226],[-0.06843750000000005,0.39351851851851855],[-0.05552083333333328,0.3861111111111111],[-0.0907291666666667,0.34222222222222215],[-0.0907291666666667,0.34222222222222215],[-0.1358333333333333,0.26296296296296295],[-0.12406250000000002,0.290925925925926],[-0.16145833333333334,0.2785185185185185],[-0.17447916666666666,0.25870370370370377],[-0.18104166666666663,0.2162962962962962],[-0.20385416666666673,0.19074074074074074],[-0.21499999999999997,0.11185185185185181],[-0.21499999999999997,0.11185185185185181],[-0.20989583333333334,0.04222222222222214],[-0.19479166666666667,0.009444444444444486],[-0.19656250000000006,-0.041111111111111195],[-0.19031250000000005,-0.045740740740740825],[-0.18333333333333332,-0.07185185185185188],[-0.15249999999999997,-0.08037037037037033],[-0.15249999999999997,-0.08037037037037033],[-0.1265625,-0.052037037037037076],[-0.10843750000000002,-0.0235185185185186],[-0.07489583333333331,-0.006296296296296254],[-0.04135416666666671,0.010925925925925884],[-0.035416666666666666,0.032407407407407406],[-0.036562500000000026,0.031111111111111027],[-0.015208333333333357,0.04796296296296292],[0.010000000000000024,0.06074074074074066],[0.004166666666666667,0.07462962962962955],[-0.012812499999999952,0.0712962962962963],[-0.030208333333333334,0.05537037037037033],[-0.03979166666666671,0.03925925925925934],[-0.036354166666666646,0.05759259259259263],[-0.03291666666666669,0.07592592592592592],[-0.019166666666666644,0.09666666666666675],[0.0026041666666666665,0.11685185185185189],[0.015104166666666667,0.1051851851851851],[0.027708333333333356,0.10444444444444441],[0.04833333333333331,0.1014814814814814],[0.05416666666666667,0.10222222222222231],[0.0728125000000001,0.12629629629629638],[0.09145833333333328,0.15037037037037046],[0.09145833333333328,0.15037037037037046],[0.08864583333333324,0.13296296296296287],[0.07614583333333323,0.11277777777777774],[0.05677083333333333,0.09148148148148144],[0.05677083333333333,0.09148148148148144],[0.03427083333333331,0.06351851851851843],[0.01729166666666669,0.07611111111111116],[0.01729166666666669,0.07611111111111116],[0.008958333333333356,0.06833333333333329],[0.0018749999999999527,0.06592592592592597],[0.01270833333333338,0.07333333333333338],[0.01270833333333338,0.07333333333333338],[-0.0017708333333333807,0.054259259259259174],[-0.011666666666666714,0.06462962962962959],[-0.011666666666666714,0.06462962962962959],[-0.013750000000000047,0.04000000000000004],[-0.005312500000000024,0.04407407407407399],[-0.005312500000000024,0.04407407407407399],[-0.007291666666666667,0.027777777777777776],[-0.007291666666666667,0.027777777777777776],[-0.008854166666666666,0.02555555555555547],[-0.008854166666666666,0.02555555555555547],[-0.006979166666666714,-0.009814814814814731],[-0.006979166666666714,-0.009814814814814731],[-0.005208333333333333,-0.01444444444444436],[-0.01114583333333338,-0.02296296296296292],[-0.01114583333333338,-0.02296296296296292],[-0.015104166666666667,-0.0544444444444444],[-0.011666666666666714,-0.05759259259259263],[-0.012812499999999952,-0.09018518518518516],[-0.013333333333333286,-0.075],[-0.013333333333333286,-0.075],[-0.01572916666666669,-0.0933333333333333],[-0.007291666666666667,-0.05388888888888893],[-0.0034374999999999527,-0.04296296296296305],[0.013541666666666667,0.005740740740740783],[0.027291666666666714,0.04259259259259259],[0.04802083333333336,0.07888888888888893],[0.05395833333333329,0.11999999999999991],[0.0625,0.15240740740740732],[0.06281249999999995,0.17925925925925917],[0.06989583333333324,0.1985185185185186],[0.09302083333333329,0.1962962962962963],[0.10645833333333338,0.16111111111111112],[0.12999999999999995,0.18574074074074065],[0.13510416666666672,0.19666666666666674],[0.12666666666666657,0.2140740740740741],[0.12114583333333329,0.227962962962963],[0.12218749999999995,0.22981481481481486],[0.12322916666666663,0.23166666666666672],[0.12354166666666658,0.23296296296296287],[0.11208333333333324,0.23537037037037042],[0.08687500000000009,0.26500000000000007],[0.06739583333333338,0.29888888888888887],[0.0484375,0.290925925925926],[0.0265625,0.2796296296296296],[0.030729166666666665,0.25203703703703706],[0.0328125,0.2153703703703703],[0.0296875,0.18277777777777787],[0.0265625,0.15018518518518523],[0.022604166666666713,0.11907407407407399],[0.01864583333333331,0.08796296296296297],[0.02645833333333331,0.05944444444444449],[0.03781249999999995,0.022222222222222223],[0.033749999999999974,-0.03037037037037033],[0.033749999999999974,-0.03037037037037033],[0.03260416666666662,-0.07962962962962963],[0.03083333333333336,-0.12037037037037036],[0.029999999999999954,-0.14833333333333337],[0.03135416666666669,-0.16796296296296295],[0.027395833333333286,-0.16962962962962966],[0.03291666666666669,-0.16740740740740737],[0.0375,-0.1557407407407408],[0.029062499999999977,-0.14481481481481479],[0.02010416666666662,-0.14537037037037037],[0.02010416666666662,-0.14537037037037037],[0.034166666666666616,-0.03092592592592601],[0.04645833333333336,0.08129629629629626],[0.053125,0.1638888888888889],[0.05562499999999997,0.24444444444444444],[0.06333333333333328,0.34685185185185174],[0.07645833333333343,0.43129629629629623],[0.07645833333333343,0.43129629629629623],[0.07781250000000005,0.4861111111111111],[0.07781250000000005,0.4861111111111111],[0.10343749999999995,0.5214814814814815],[0.11822916666666666,0.5755555555555555],[0.13354166666666673,0.6407407407407407],[0.12552083333333333,0.600925925925926],[0.11927083333333334,0.5633333333333335],[0.1196875000000001,0.5305555555555556],[0.1196875000000001,0.5305555555555556],[0.12010416666666662,0.4977777777777777],[0.12010416666666662,0.4977777777777777],[0.11687500000000005,0.4516666666666666],[0.10333333333333337,0.3896296296296296],[0.103125,0.3635185185185184],[0.103125,0.3635185185185184],[0.07958333333333342,0.34740740740740744],[0.052083333333333336,0.3072222222222222],[0.020937500000000022,0.2655555555555555],[0.0021875000000000236,0.2324074074074074],[-0.008124999999999953,0.21870370370370373],[-0.008124999999999953,0.21870370370370373],[-0.03166666666666664,0.22481481481481477],[-0.05260416666666667,0.20425925925925917],[-0.06833333333333336,0.1985185185185186],[-0.06833333333333336,0.1985185185185186],[-0.07385416666666664,0.20870370370370378],[-0.09166666666666666,0.20481481481481487],[-0.10187499999999995,0.23481481481481473],[-0.09729166666666664,0.27018518518518514],[-0.08354166666666671,0.30574074074074076],[-0.06979166666666667,0.3412962962962962],[-0.0703125,0.3381481481481482],[-0.07083333333333333,0.33499999999999996],[-0.06937500000000002,0.3412962962962962],[-0.06854166666666663,0.3285185185185185],[-0.06697916666666662,0.3296296296296296],[-0.05437500000000005,0.3392592592592593],[-0.05270833333333336,0.3042592592592592],[-0.051041666666666666,0.2692592592592592],[-0.04093749999999995,0.2331481481481481],[-0.041666666666666664,0.1911111111111112],[-0.041666666666666664,0.1911111111111112],[-0.043437500000000046,0.15851851851851856],[-0.02645833333333331,0.15629629629629627],[-0.0140625,0.1712962962962963],[0.0012500000000000473,0.11796296296296305],[-0.002916666666666619,0.09574074074074082],[0.019687499999999976,0.07148148148148152],[0.030729166666666665,0.051666666666666625],[0.057500000000000044,0.04870370370370362],[0.051770833333333384,0.0448148148148149],[0.051770833333333384,0.0448148148148149],[0.051770833333333384,0.0448148148148149],[0.06020833333333329,0.05925925925925926],[0.06020833333333329,0.05925925925925926],[0.0921875,0.05814814814814811],[0.0921875,0.05814814814814811],[0.1087500000000001,0.05907407407407403],[0.1087500000000001,0.05907407407407403],[0.1087500000000001,0.05907407407407403],[0.1087500000000001,0.05907407407407403],[0.1087500000000001,0.05907407407407403],[0.1087500000000001,0.05907407407407403],[0.1087500000000001,0.05907407407407403],[0.1087500000000001,0.05907407407407403],[0.1087500000000001,0.05907407407407403],[0.1,0.04518518518518514],[0.1,0.04518518518518514],[0.0953125,0.0911111111111112],[0.0953125,0.0911111111111112],[0.10572916666666667,0.0787037037037037],[0.10572916666666667,0.0787037037037037],[0.1,0.09185185185185189],[0.1,0.09185185185185189],[0.09270833333333334,0.07814814814814823],[0.09270833333333334,0.07814814814814823],[0.09270833333333334,0.07814814814814823],[0.07510416666666657,0.05129629629629638],[0.07510416666666657,0.05129629629629638],[0.06291666666666665,0.024074074074074074],[0.06291666666666665,0.024074074074074074],[0.04739583333333333,-0.015555555555555513],[0.04614583333333329,-0.020555555555555598],[0.036354166666666646,-0.02629629629629638],[0.036354166666666646,-0.02629629629629638],[0.03927083333333338,-0.04148148148148144],[0.035208333333333286,-0.04814814814814815],[0.04989583333333331,-0.02166666666666675],[0.03781249999999995,-0.04148148148148144],[0.05656249999999995,-0.016666666666666666],[0.05020833333333338,0.002407407407407323],[0.059062500000000046,0.08148148148148149],[0.06135416666666664,0.17481481481481478],[0.041562499999999974,0.24537037037037038],[0.024166666666666715,0.28055555555555556],[0.016666666666666666,0.34],[0.01270833333333338,0.40962962962962973],[0.0003124999999999526,0.43796296296296294],[0.008645833333333287,0.4994444444444445],[0.008645833333333287,0.4994444444444445],[-0.02020833333333331,0.5031481481481482],[-0.03864583333333336,0.5212962962962963],[-0.05916666666666662,0.48351851851851857],[-0.06072916666666662,0.4448148148148149],[-0.06479166666666672,0.4390740740740741],[-0.09208333333333331,0.3625925925925925],[-0.11666666666666667,0.2861111111111111],[-0.10072916666666672,0.19314814814814807],[-0.09145833333333328,0.12166666666666676],[-0.09145833333333328,0.12166666666666676],[-0.12104166666666671,0.05944444444444449],[-0.1391666666666667,0.027037037037037078],[-0.14802083333333335,-0.01777777777777782],[-0.1453125,-0.0727777777777778],[-0.15499999999999994,-0.1411111111111111],[-0.16802083333333329,-0.21814814814814817],[-0.15499999999999994,-0.2207407407407407],[-0.14010416666666667,-0.21851851851851853],[-0.16927083333333334,-0.20999999999999996],[-0.19406249999999994,-0.20481481481481487],[-0.18947916666666664,-0.20203703703703707]]","[[-0.059583333333333384,0.052962962962963,0.0003000001907409455],[-0.059583333333333384,0.052962962962963,0.05759999990463882],[-0.03989583333333328,0.04888888888888885,0.06890000009536834],[-0.03989583333333328,0.04888888888888885,0.07990000009537113],[-0.021249999999999977,0.055000000000000084,0.0923000001907397],[-0.028645833333333332,0.03944444444444436,0.1119000000953676],[-0.028645833333333332,0.03944444444444436,0.1266999998092686],[-0.02958333333333331,0.03629629629629634,0.14130000019073918],[-0.04385416666666669,0.0020370370370370794,0.15800000000000125],[-0.02333333333333331,0.0014814814814813973,0.1756999998092681],[-0.016250000000000025,-0.005000000000000084,0.19590000009537079],[-0.011249999999999953,-0.01722222222222214,0.2115000000000009],[-0.007291666666666667,-0.025,0.2290000000000063],[0.00302083333333331,-0.0198148148148149,0.24359999990463876],[-0.013541666666666667,-0.02111111111111107,0.26109999990463706],[-0.03729166666666662,-0.03462962962962971,0.27469999980926474],[-0.04031250000000005,-0.03722222222222227,0.29130000019073776],[-0.043333333333333356,-0.03981481481481482,0.30799999999999983],[-0.033958333333333354,-0.018333333333333292,0.32709999990463245],[-0.04031250000000005,-0.019444444444444445,0.3430999999046378],[-0.0453125,-0.026851851851851852,0.3589000000953675],[-0.04604166666666672,-0.016851851851851896,0.37519999980926855],[-0.04697916666666669,-0.01907407407407399,0.3913000001907392],[-0.05489583333333338,-0.029814814814814856,0.40800000000000125],[-0.050625000000000024,-0.03166666666666671,0.43340000009536794],[-0.050625000000000024,-0.03166666666666671,0.4465999999046346],[-0.03895833333333331,-0.026481481481481398,0.4580000000000055],[-0.043437500000000046,-0.03759259259259251,0.4746999998092676],[-0.04729166666666664,-0.04814814814814815,0.4914000000953678],[-0.04510416666666662,-0.05555555555555555,0.5080000000000027],[-0.03895833333333331,-0.05814814814814811,0.5276999998092649],[-0.029062499999999977,-0.06870370370370374,0.5415000000000063],[-0.021354166666666667,-0.09092592592592597,0.5583000001907408],[-0.011249999999999953,-0.08499999999999996,0.574699999809269],[-0.0005208333333333333,-0.08351851851851856,0.5913000001907349],[-0.006458333333333381,-0.09055555555555551,0.6080999999046384],[-0.006458333333333381,-0.09055555555555551,0.6248000001907386],[-0.019791666666666666,-0.10462962962962963,0.6413000001907392],[-0.017812500000000023,-0.1081481481481481,0.66269999980927],[-0.0203125,-0.0962962962962963,0.6756999998092681],[-0.034375,-0.09296296296296294,0.6914000000953706],[-0.0484375,-0.08962962962962959,0.7080000000000055],[-0.07281249999999997,-0.07999999999999997,0.7246999998092676],[-0.08458333333333339,-0.062037037037037036,0.7413000001907406],[-0.0985416666666667,-0.059999999999999956,0.758099999904637],[-0.11281249999999995,-0.07018518518518514,0.7745999999046376],[-0.11041666666666666,-0.07185185185185188,0.791400000095372],[-0.11187499999999997,-0.056666666666666705,0.8080999999046341],[-0.1125,-0.035740740740740656,0.824699999809269],[-0.11677083333333335,-0.044999999999999915,0.8413000001907349],[-0.12104166666666671,-0.05425925925925928,0.8580999999046384],[-0.12208333333333338,-0.07796296296296301,0.8748000001907386],[-0.11791666666666671,-0.09370370370370375,0.8945000000000007],[-0.1404166666666666,-0.0868518518518518,0.9105000000000061],[-0.16291666666666665,-0.07999999999999997,0.9285999999046339],[-0.16354166666666667,0.007592592592592635,0.9418000001907387],[-0.16416666666666668,0.09518518518518514,0.9580999999046327],[-0.1688541666666667,0.14296296296296304,0.9746999998092676],[-0.15697916666666673,0.21944444444444444,0.9914000000953678],[-0.13708333333333336,0.2825925925925926,1.0080000000000027],[-0.1171875,0.34574074074074085,1.0255999999046352],[-0.09249999999999996,0.43796296296296294,1.0478000001907404],[-0.09249999999999996,0.43796296296296294,1.061400000095368],[-0.08885416666666662,0.49962962962962953,1.074699999809269],[-0.08885416666666662,0.49962962962962953,1.0925000000000011],[-0.06020833333333329,0.5507407407407408,1.1140000000000043],[-0.06020833333333329,0.5507407407407408,1.1246999998092662],[-0.04812500000000005,0.5951851851851852,1.1414000000953735],[-0.04812500000000005,0.5951851851851852,1.1620999999046333],[-0.04635416666666667,0.522962962962963,1.17490000009537],[-0.04635416666666667,0.522962962962963,1.191900000095373],[-0.04677083333333331,0.4385185185185184,1.2080000000000055],[-0.04677083333333331,0.4385185185185184,1.2301999998092654],[-0.03729166666666662,0.4124074074074075,1.2414000000953678],[-0.03729166666666662,0.4124074074074075,1.2580000000000027],[-0.04916666666666671,0.33185185185185195,1.2745999999046376],[-0.04916666666666671,0.33185185185185195,1.2913000001907378],[-0.04552083333333338,0.2735185185185186,1.308099999904634],[-0.04552083333333338,0.2735185185185186,1.324699999809269],[-0.04729166666666664,0.22111111111111106,1.3415000000000035],[-0.04364583333333331,0.1668518518518519,1.363199999809268],[-0.04364583333333331,0.1668518518518519,1.3790999999046392],[-0.03187500000000002,0.18499999999999997,1.391599999904635],[-0.03187500000000002,0.18499999999999997,1.4080999999046355],[-0.017812500000000023,0.17314814814814813,1.4246999998092704],[0.006458333333333381,0.18111111111111103,1.4458000001907365],[0.002291666666666714,0.2,1.4616999998092695],[0.0003124999999999526,0.23111111111111102,1.4769000000953696],[-0.0036458333333333334,0.22685185185185186,1.4920999999046387],[-0.002812500000000047,0.2544444444444444,1.5096999998092713],[-0.018020833333333285,0.2874074074074075,1.5276999998092649],[-0.024687500000000046,0.31444444444444436,1.5424000000953697],[-0.04479166666666667,0.3287037037037037,1.5598000001907408],[-0.04812500000000005,0.3177777777777778,1.574699999809269],[-0.06468750000000002,0.3164814814814814,1.591300000190735],[-0.07364583333333338,0.28851851851851845,1.608000000000004],[-0.06541666666666662,0.2977777777777777,1.624599999904639],[-0.06447916666666664,0.31574074074074077,1.6436999998092716],[-0.03968750000000002,0.33259259259259266,1.6590999999046332],[-0.01895833333333338,0.35,1.6750000000000043],[0.0017708333333333807,0.36740740740740735,1.6913000001907363],[0.01260416666666669,0.37537037037037047,1.7080000000000055],[0.0234375,0.38333333333333336,1.7246999998092676],[0.03302083333333338,0.35111111111111115,1.7413000001907406],[0.029999999999999954,0.34629629629629627,1.7580000000000027],[0.03145833333333338,0.322037037037037,1.7746999998092647],[0.04510416666666662,0.29555555555555557,1.7913000001907378],[0.07239583333333334,0.2774074074074073,1.8079999999999998],[0.07583333333333328,0.2603703703703704,1.8248000001907414],[0.043020833333333286,0.22851851851851848,1.841300000190735],[0.010208333333333286,0.19666666666666674,1.858699999809268],[0.0046875,0.17981481481481484,1.8748000001907386],[-0.000833333333333286,0.16296296296296298,1.8913000001907392],[-0.008958333333333356,0.16962962962962966,1.9080000000000013],[0.0007291666666667141,0.15425925925925918,1.9250999999046385],[-0.017083333333333308,0.15462962962962962,1.9415999999046392],[-0.04708333333333338,0.15722222222222218,1.9586999998092693],[-0.05552083333333328,0.1587037037037038,1.9745999999046333],[-0.06395833333333331,0.16018518518518518,1.9913000001907406],[-0.04083333333333338,0.17703703703703708,2.0080000000000027],[-0.017708333333333333,0.19388888888888897,2.0283000001907396],[-0.024479166666666666,0.18888888888888888,2.0439000000953698],[-0.03125,0.1838888888888888,2.063599999904639],[-0.03125,0.1838888888888888,2.074699999809269],[-0.013854166666666619,0.17685185185185184,2.0915000000000035],[-0.027499999999999976,0.14833333333333337,2.108000000000004],[-0.019375000000000024,0.13703703703703704,2.127599999904639],[-0.01072916666666662,0.10574074074074079,2.1420999999046373],[-0.029999999999999954,0.05851851851851856,2.157900000095374],[-0.05572916666666667,0.06444444444444436,2.1750000000000043],[-0.07270833333333329,0.06314814814814819,2.193099999904639],[-0.0734375,0.10185185185185185,2.2080000000000055],[-0.06760416666666665,0.172037037037037,2.2269000000953696],[-0.06760416666666665,0.172037037037037,2.2414000000953678],[-0.060000000000000026,0.2411111111111112,2.2580000000000027],[-0.0704166666666667,0.2975925925925927,2.2745999999046376],[-0.05499999999999995,0.3701851851851851,2.291400000095372],[-0.03958333333333333,0.4427777777777778,2.308],[-0.030312500000000023,0.5222222222222223,2.324699999809269],[-0.00614583333333331,0.5848148148148147,2.3418000001907373],[0.004062499999999977,0.61,2.3580999999046384],[0.028854166666666715,0.6194444444444445,2.374699999809266],[0.034062500000000044,0.5890740740740741,2.391300000190739],[0.04656250000000005,0.5218518518518518,2.4080999999046355],[0.05447916666666662,0.4607407407407407,2.4251999998092657],[0.065625,0.44074074074074077,2.4413000001907363],[0.06947916666666672,0.4137037037037037,2.4580000000000055],[0.04718749999999995,0.3418518518518519,2.4746999998092676],[0.022708333333333285,0.2764814814814814,2.4914000000953678],[-0.017083333333333308,0.22870370370370371,2.5080000000000027],[-0.03218749999999997,0.18370370370370379,2.528500000000001],[-0.04760416666666671,0.15981481481481474,2.5441999998092655],[-0.059687499999999956,0.13574074074074066,2.5615000000000023],[-0.08218749999999998,0.11537037037037029,2.5775000000000006],[-0.10187499999999995,0.09000000000000004,2.602099999904638],[-0.10187499999999995,0.09000000000000004,2.6103000001907404],[-0.1373958333333333,0.04351851851851852,2.6248000001907386],[-0.16687500000000005,0.024629629629629547,2.6414000000953735],[-0.16447916666666665,0.04296296296296305,2.658300000190735],[-0.14739583333333334,0.06870370370370374,2.6746999998092704],[-0.12989583333333338,0.09370370370370375,2.6913000001907363],[-0.11666666666666667,0.10018518518518522,2.710800000190737],[-0.11531250000000005,0.11666666666666667,2.72819999980927],[-0.11583333333333339,0.12037037037037036,2.742199999809266],[-0.11041666666666666,0.14203703703703713,2.761500000000005],[-0.09312499999999997,0.1646296296296296,2.7755999999046352],[-0.06937500000000002,0.18185185185185193,2.7916999998092678],[-0.05249999999999998,0.18370370370370379,2.808099999904634],[-0.04135416666666671,0.19314814814814807,2.8275000000000006],[-0.041666666666666664,0.20111111111111116,2.8415000000000035],[-0.041979166666666616,0.20907407407407402,2.8581999998092655],[-0.03677083333333329,0.202962962962963,2.874699999809266],[-0.033958333333333354,0.1814814814814815,2.8950999999046374],[-0.026979166666666644,0.16370370370370366,2.91080000019074],[-0.014791666666666713,0.14370370370370375,2.928599999904634],[-0.010312499999999976,0.16074074074074066,2.946000000000005],[-0.016145833333333335,0.1479629629629629,2.9618000001907347],[-0.013125000000000024,0.1331481481481481,2.975599999904638],[-0.010104166666666714,0.11833333333333329,2.9914000000953678],[-0.0018749999999999527,0.09648148148148153,3.0108000001907413],[0.005520833333333286,0.07592592592592592,3.028400000095374],[0.005937500000000048,0.05759259259259263,3.0426999998092654],[0.00635416666666669,0.03925925925925934,3.0660999999046368],[0.00635416666666669,0.03925925925925934,3.076599999904637],[0.009375,0.026666666666666623,3.0915999999046377],[0.009375,0.026666666666666623,3.108300000190738],[0.007187499999999976,0.01629629629629621,3.136099999904637],[0.007187499999999976,0.01629629629629621,3.1440999999046326],[-0.00916666666666662,-0.0235185185185186,3.1580999999046355],[-0.004166666666666667,-0.026851851851851852,3.1748000001907357],[0.002916666666666619,-0.030740740740740784,3.194800000190739],[0.0036458333333333334,-0.03685185185185181,3.2101999998092694],[0.0037500000000000237,-0.03518518518518519,3.2301999998092654],[0.0037500000000000237,-0.03518518518518519,3.2413000001907406],[0.002812500000000047,-0.036481481481481566,3.2630000000000052],[0.002812500000000047,-0.036481481481481566,3.274800000190737],[0.007604166666666619,-0.0338888888888888,3.291400000095372],[0.007604166666666619,-0.0338888888888888,3.308],[0.014895833333333285,-0.017592592592592594,3.3304000000953735],[0.014895833333333285,-0.017592592592592594,3.341400000095369],[0.003333333333333381,0.019259259259259216,3.3580999999046384],[0.003333333333333381,0.019259259259259216,3.374699999809266],[-0.019270833333333334,0.03518518518518519,3.3914000000953735],[-0.019270833333333334,0.03518518518518519,3.4118000001907376],[-0.004791666666666691,0.06925925925925921,3.4250999999046385],[-0.014895833333333285,0.06370370370370367,3.4436999998092688],[-0.02781250000000005,0.05555555555555555,3.462900000095374],[-0.02385416666666664,0.07518518518518523,3.4790999999046335],[-0.02385416666666664,0.07518518518518523,3.4915999999046363],[-0.019895833333333356,0.0948148148148149,3.508099999904637],[-0.044166666666666646,0.08888888888888889,3.528099999904633],[-0.052291666666666715,0.09666666666666675,3.5423000001907354],[-0.06291666666666665,0.09074074074074075,3.558400000095368],[-0.05802083333333338,0.07907407407407416,3.5748000001907414],[-0.04208333333333331,0.08833333333333342,3.5945000000000036],[-0.043333333333333356,0.07796296296296301,3.610199999809268],[-0.043333333333333356,0.07796296296296301,3.6248000001907386],[-0.03104166666666662,0.10055555555555547,3.641300000190739],[-0.01416666666666669,0.11685185185185189,3.6580999999046355],[-0.009791666666666643,0.08037037037037033,3.6746999998092704],[-0.005416666666666714,0.04388888888888897,3.6914000000953706],[0.01416666666666669,0.04518518518518514,3.7088000001907346],[0.013333333333333286,0.040740740740740744,3.7275999999046334],[0.02166666666666662,0.05592592592592601,3.7431999998092707],[0.040625,0.06814814814814807,3.7601999998092666],[0.05406249999999998,0.053703703703703705,3.7745999999046376],[0.057604166666666616,0.03222222222222218,3.7913000001907378],[0.0640625,0.021296296296296296,3.808],[0.06593749999999995,0.016666666666666666,3.826599999904637],[0.05583333333333336,0.027407407407407325,3.8421999998092673],[0.05499999999999995,0.07833333333333325,3.858000000000004],[0.07239583333333334,0.07851851851851847,3.874599999904639],[0.08979166666666671,0.0787037037037037,3.891300000190739],[0.10822916666666677,0.07111111111111107,3.9114000000953695],[0.10822916666666677,0.07111111111111107,3.9250000000000043],[0.08989583333333329,0.035740740740740656,3.941599999904639],[0.06947916666666672,0.024629629629629547,3.9620000000000033],[0.06218750000000005,0.032407407407407406,3.97819999980927],[0.06291666666666665,0.07018518518518514,3.9946999998092707],[0.043333333333333356,0.058333333333333334,4.014900000095373],[0.043333333333333356,0.058333333333333334,4.0253000001907395],[0.03916666666666669,0.06055555555555564,4.041500000000006],[0.024583333333333356,0.01703703703703712,4.058800000190736],[-0.0067708333333333336,0.009999999999999959,4.078800000190739],[-0.02374999999999995,0.012777777777777735,4.09419999980927],[-0.041666666666666664,0.002962962962963005,4.1125999999046385],[-0.035000000000000024,0.012407407407407492,4.133000000000003],[-0.035000000000000024,0.012407407407407492,4.1414000000953735],[-0.05687500000000002,0.07444444444444454,4.158400000095369],[-0.04375,0.15407407407407417,4.177599999904636],[-0.04864583333333338,0.18351851851851855,4.197000000000003],[-0.06593749999999995,0.17888888888888893,4.212000000000003],[-0.06593749999999995,0.17888888888888893,4.224900000095367],[-0.04822916666666662,0.21203703703703702,4.241599999904636],[-0.04593750000000003,0.21740740740740735,4.260699999809269],[-0.036666666666666715,0.2490740740740741,4.275599999904635],[-0.0359375,0.2661111111111112,4.29390000009537],[-0.05614583333333331,0.33722222222222226,4.308],[-0.06843750000000005,0.39351851851851855,4.327699999809269],[-0.05552083333333328,0.3861111111111111,4.341699999809265],[-0.0907291666666667,0.34222222222222215,4.3633000001907405],[-0.0907291666666667,0.34222222222222215,4.374699999809266],[-0.1358333333333333,0.26296296296296295,4.391500000000001],[-0.12406250000000002,0.290925925925926,4.40819999980927],[-0.16145833333333334,0.2785185185185185,4.429300000190736],[-0.17447916666666666,0.25870370370370377,4.445500000000003],[-0.18104166666666663,0.2162962962962962,4.461400000095374],[-0.20385416666666673,0.19074074074074074,4.477900000095367],[-0.21499999999999997,0.11185185185185181,4.494199999809268],[-0.21499999999999997,0.11185185185185181,4.5109000000953685],[-0.20989583333333334,0.04222222222222214,4.524800000190737],[-0.19479166666666667,0.009444444444444486,4.543500000000002],[-0.19656250000000006,-0.041111111111111195,4.558099999904634],[-0.19031250000000005,-0.045740740740740825,4.574599999904635],[-0.18333333333333332,-0.07185185185185188,4.593500000000006],[-0.15249999999999997,-0.08037037037037033,4.612900000095372],[-0.15249999999999997,-0.08037037037037033,4.627400000095371],[-0.1265625,-0.052037037037037076,4.641199999809267],[-0.10843750000000002,-0.0235185185185186,4.660500000000006],[-0.07489583333333331,-0.006296296296296254,4.675300000190738],[-0.04135416666666671,0.010925925925925884,4.691900000095373],[-0.035416666666666666,0.032407407407407406,4.7113000001907395],[-0.036562500000000026,0.031111111111111027,4.728699999809265],[-0.015208333333333357,0.04796296296296292,4.7450000000000045],[0.010000000000000024,0.06074074074074066,4.762199999809269],[0.004166666666666667,0.07462962962962955,4.778000000000006],[-0.012812499999999952,0.0712962962962963,4.794900000095367],[-0.030208333333333334,0.05537037037037033,4.808699999809271],[-0.03979166666666671,0.03925925925925934,4.827000000000005],[-0.036354166666666646,0.05759259259259263,4.841400000095369],[-0.03291666666666669,0.07592592592592592,4.858000000000004],[-0.019166666666666644,0.09666666666666675,4.874699999809266],[0.0026041666666666665,0.11685185185185189,4.892400000095371],[0.015104166666666667,0.1051851851851851,4.908000000000001],[0.027708333333333356,0.10444444444444441,4.925400000095372],[0.04833333333333331,0.1014814814814814,4.9465],[0.05416666666666667,0.10222222222222231,4.962199999809265],[0.0728125000000001,0.12629629629629638,4.97780000019074],[0.09145833333333328,0.15037037037037046,4.9983000001907385],[0.09145833333333328,0.15037037037037046,5.008099999904637],[0.08864583333333324,0.13296296296296287,5.024900000095371],[0.07614583333333323,0.11277777777777774,5.041500000000006],[0.05677083333333333,0.09148148148148144,5.063199999809271],[0.05677083333333333,0.09148148148148144,5.074800000190741],[0.03427083333333331,0.06351851851851843,5.091699999809265],[0.01729166666666669,0.07611111111111116,5.113800000190736],[0.01729166666666669,0.07611111111111116,5.124900000095373],[0.008958333333333356,0.06833333333333329,5.141500000000001],[0.0018749999999999527,0.06592592592592597,5.15819999980927],[0.01270833333333338,0.07333333333333338,5.177099999904634],[0.01270833333333338,0.07333333333333338,5.191500000000005],[-0.0017708333333333807,0.054259259259259174,5.208199999809267],[-0.011666666666666714,0.06462962962962959,5.229800000190735],[-0.011666666666666714,0.06462962962962959,5.241500000000002],[-0.013750000000000047,0.04000000000000004,5.258199999809271],[-0.005312500000000024,0.04407407407407399,5.281000000000006],[-0.005312500000000024,0.04407407407407399,5.291500000000006],[-0.007291666666666667,0.027777777777777776,5.308199999809268],[-0.007291666666666667,0.027777777777777776,5.325000000000003],[-0.008854166666666666,0.02555555555555547,5.345000000000006],[-0.008854166666666666,0.02555555555555547,5.358099999904638],[-0.006979166666666714,-0.009814814814814731,5.374800000190739],[-0.006979166666666714,-0.009814814814814731,5.397800000190735],[-0.005208333333333333,-0.01444444444444436,5.4080999999046355],[-0.01114583333333338,-0.02296296296296292,5.430500000000002],[-0.01114583333333338,-0.02296296296296292,5.443800000190741],[-0.015104166666666667,-0.0544444444444444,5.4580000000000055],[-0.011666666666666714,-0.05759259259259263,5.474599999904633],[-0.012812499999999952,-0.09018518518518516,5.491300000190741],[-0.013333333333333286,-0.075,5.508199999809271],[-0.013333333333333286,-0.075,5.524699999809265],[-0.01572916666666669,-0.0933333333333333,5.541300000190738],[-0.007291666666666667,-0.05388888888888893,5.558],[-0.0034374999999999527,-0.04296296296296305,5.574900000095369],[0.013541666666666667,0.005740740740740783,5.591800000190737],[0.027291666666666714,0.04259259259259259,5.6081999998092655],[0.04802083333333336,0.07888888888888893,5.625300000190741],[0.05395833333333329,0.11999999999999991,5.641300000190739],[0.0625,0.15240740740740732,5.658000000000001],[0.06281249999999995,0.17925925925925917,5.674599999904636],[0.06989583333333324,0.1985185185185186,5.691300000190736],[0.09302083333333329,0.1962962962962963,5.708599999904635],[0.10645833333333338,0.16111111111111112,5.727699999809268],[0.12999999999999995,0.18574074074074065,5.741400000095368],[0.13510416666666672,0.19666666666666674,5.758000000000003],[0.12666666666666657,0.2140740740740741,5.774599999904638],[0.12114583333333329,0.227962962962963,5.791300000190738],[0.12218749999999995,0.22981481481481486,5.807900000095373],[0.12322916666666663,0.23166666666666672,5.827000000000005],[0.12354166666666658,0.23296296296296287,5.843599999904633],[0.11208333333333324,0.23537037037037042,5.859800000190738],[0.08687500000000009,0.26500000000000007,5.8751999998092685],[0.06739583333333338,0.29888888888888887,5.8914000000953735],[0.0484375,0.290925925925926,5.907900000095374],[0.0265625,0.2796296296296296,5.92790000009537],[0.030729166666666665,0.25203703703703706,5.944099999904637],[0.0328125,0.2153703703703703,5.9590999999046375],[0.0296875,0.18277777777777787,5.9765000000000015],[0.0265625,0.15018518518518523,5.993300000190736],[0.022604166666666713,0.11907407407407399,6.008000000000003],[0.01864583333333331,0.08796296296296297,6.024699999809265],[0.02645833333333331,0.05944444444444449,6.041199999809265],[0.03781249999999995,0.022222222222222223,6.060699999809266],[0.033749999999999974,-0.03037037037037033,6.079500000000003],[0.033749999999999974,-0.03037037037037033,6.091400000095369],[0.03260416666666662,-0.07962962962962963,6.108000000000004],[0.03083333333333336,-0.12037037037037036,6.124599999904639],[0.029999999999999954,-0.14833333333333337,6.141300000190739],[0.03135416666666669,-0.16796296296296295,6.158000000000001],[0.027395833333333286,-0.16962962962962966,6.174599999904636],[0.03291666666666669,-0.16740740740740737,6.1920999999046344],[0.0375,-0.1557407407407408,6.207900000095371],[0.029062499999999977,-0.14481481481481479,6.228500000000004],[0.02010416666666662,-0.14537037037037037,6.246500000000005],[0.02010416666666662,-0.14537037037037037,6.258000000000003],[0.034166666666666616,-0.03092592592592601,6.274599999904638],[0.04645833333333336,0.08129629629629626,6.291300000190738],[0.053125,0.1638888888888889,6.308],[0.05562499999999997,0.24444444444444444,6.325099999904637],[0.06333333333333328,0.34685185185185174,6.341300000190735],[0.07645833333333343,0.43129629629629623,6.362900000095372],[0.07645833333333343,0.43129629629629623,6.382900000095368],[0.07781250000000005,0.4861111111111111,6.401900000095374],[0.07781250000000005,0.4861111111111111,6.408400000095369],[0.10343749999999995,0.5214814814814815,6.424599999904636],[0.11822916666666666,0.5755555555555555,6.441300000190736],[0.13354166666666673,0.6407407407407407,6.4580000000000055],[0.12552083333333333,0.600925925925926,6.474599999904633],[0.11927083333333334,0.5633333333333335,6.491300000190741],[0.1196875000000001,0.5305555555555556,6.507900000095368],[0.1196875000000001,0.5305555555555556,6.524599999904638],[0.12010416666666662,0.4977777777777777,6.541300000190738],[0.12010416666666662,0.4977777777777777,6.558],[0.11687500000000005,0.4516666666666666,6.574800000190741],[0.10333333333333337,0.3896296296296296,6.5915000000000035],[0.103125,0.3635185185185184,6.60790000009537],[0.103125,0.3635185185185184,6.624699999809266],[0.07958333333333342,0.34740740740740744,6.641300000190739],[0.052083333333333336,0.3072222222222222,6.658000000000001],[0.020937500000000022,0.2655555555555555,6.674599999904636],[0.0021875000000000236,0.2324074074074074,6.691300000190736],[-0.008124999999999953,0.21870370370370373,6.707900000095371],[-0.008124999999999953,0.21870370370370373,6.724699999809268],[-0.03166666666666664,0.22481481481481477,6.741500000000002],[-0.05260416666666667,0.20425925925925917,6.759900000095371],[-0.06833333333333336,0.1985185185185186,6.776599999904633],[-0.06833333333333336,0.1985185185185186,6.791300000190738],[-0.07385416666666664,0.20870370370370378,6.808],[-0.09166666666666666,0.20481481481481487,6.824599999904635],[-0.10187499999999995,0.23481481481481473,6.841300000190735],[-0.09729166666666664,0.27018518518518514,6.85790000009537],[-0.08354166666666671,0.30574074074074076,6.874599999904639],[-0.06979166666666667,0.3412962962962962,6.891300000190739],[-0.0703125,0.3381481481481482,6.907900000095374],[-0.07083333333333333,0.33499999999999996,6.926699999809266],[-0.06937500000000002,0.3412962962962962,6.941199999809271],[-0.06854166666666663,0.3285185185185185,6.9580000000000055],[-0.06697916666666662,0.3296296296296296,6.974599999904633],[-0.05437500000000005,0.3392592592592593,6.991300000190741],[-0.05270833333333336,0.3042592592592592,7.008099999904637],[-0.051041666666666666,0.2692592592592592,7.0264000000953715],[-0.04093749999999995,0.2331481481481481,7.041199999809265],[-0.041666666666666664,0.1911111111111112,7.058099999904634],[-0.041666666666666664,0.1911111111111112,7.074699999809269],[-0.043437500000000046,0.15851851851851856,7.0915000000000035],[-0.02645833333333331,0.15629629629629627,7.110199999809268],[-0.0140625,0.1712962962962963,7.1259000000953705],[0.0012500000000000473,0.11796296296296305,7.142000000000003],[-0.002916666666666619,0.09574074074074082,7.157900000095374],[0.019687499999999976,0.07148148148148152,7.174599999904636],[0.030729166666666665,0.051666666666666625,7.191300000190736],[0.057500000000000044,0.04870370370370362,7.2080000000000055],[0.051770833333333384,0.0448148148148149,7.224599999904633],[0.051770833333333384,0.0448148148148149,7.241500000000002],[0.051770833333333384,0.0448148148148149,7.259500000000003],[0.06020833333333329,0.05925925925925926,7.3093000001907384],[0.06020833333333329,0.05925925925925926,7.3208000001907365],[0.0921875,0.05814814814814811,7.34680000019074],[0.0921875,0.05814814814814811,7.35490000009537],[0.1087500000000001,0.05907407407407403,7.380099999904637],[0.1087500000000001,0.05907407407407403,7.388199999809267],[0.1087500000000001,0.05907407407407403,7.398000000000003],[0.1087500000000001,0.05907407407407403,7.410000000000004],[0.1087500000000001,0.05907407407407403,7.429199999809271],[0.1087500000000001,0.05907407407407403,7.447300000190737],[0.1087500000000001,0.05907407407407403,7.462599999904633],[0.1087500000000001,0.05907407407407403,7.477900000095367],[0.1087500000000001,0.05907407407407403,7.496000000000002],[0.1,0.04518518518518514,7.533000000000001],[0.1,0.04518518518518514,7.540599999904636],[0.0953125,0.0911111111111112,7.563900000095373],[0.0953125,0.0911111111111112,7.571099999904632],[0.10572916666666667,0.0787037037037037,7.59530000019074],[0.10572916666666667,0.0787037037037037,7.602500000000006],[0.1,0.09185185185185189,7.630300000190736],[0.1,0.09185185185185189,7.638000000000005],[0.09270833333333334,0.07814814814814823,7.663599999904633],[0.09270833333333334,0.07814814814814823,7.6706999998092655],[0.09270833333333334,0.07814814814814823,7.675400000095372],[0.07510416666666657,0.05129629629629638,7.714900000095369],[0.07510416666666657,0.05129629629629638,7.729400000095367],[0.06291666666666665,0.024074074074074074,7.741199999809268],[0.06291666666666665,0.024074074074074074,7.758000000000003],[0.04739583333333333,-0.015555555555555513,7.774599999904638],[0.04614583333333329,-0.020555555555555598,7.795599999904638],[0.036354166666666646,-0.02629629629629638,7.813500000000005],[0.036354166666666646,-0.02629629629629638,7.826199999809269],[0.03927083333333338,-0.04148148148148144,7.841300000190735],[0.035208333333333286,-0.04814814814814815,7.858000000000004],[0.04989583333333331,-0.02166666666666675,7.874599999904639],[0.03781249999999995,-0.04148148148148144,7.891599999904635],[0.05656249999999995,-0.016666666666666666,7.907900000095374],[0.05020833333333338,0.002407407407407323,7.926900000095372],[0.059062500000000046,0.08148148148148149,7.942400000095368],[0.06135416666666664,0.17481481481481478,7.958300000190739],[0.041562499999999974,0.24537037037037038,7.974599999904633],[0.024166666666666715,0.28055555555555556,7.991300000190741],[0.016666666666666666,0.34,8.007900000095368],[0.01270833333333338,0.40962962962962973,8.02569999980927],[0.0003124999999999526,0.43796296296296294,8.041400000095372],[0.008645833333333287,0.4994444444444445,8.0595],[0.008645833333333287,0.4994444444444445,8.074599999904635],[-0.02020833333333331,0.5031481481481482,8.091300000190735],[-0.03864583333333336,0.5212962962962963,8.108699999809268],[-0.05916666666666662,0.48351851851851857,8.124599999904639],[-0.06072916666666662,0.4448148148148149,8.141199999809267],[-0.06479166666666672,0.4390740740740741,8.157900000095374],[-0.09208333333333331,0.3625925925925925,8.17730000019074],[-0.11666666666666667,0.2861111111111111,8.191699999809266],[-0.10072916666666672,0.19314814814814807,8.207900000095371],[-0.09145833333333328,0.12166666666666676,8.224599999904633],[-0.09145833333333328,0.12166666666666676,8.241199999809268],[-0.12104166666666671,0.05944444444444449,8.257900000095368],[-0.1391666666666667,0.027037037037037078,8.274599999904638],[-0.14802083333333335,-0.01777777777777782,8.291199999809265],[-0.1453125,-0.0727777777777778,8.307900000095373],[-0.15499999999999994,-0.1411111111111111,8.325800000190739],[-0.16802083333333329,-0.21814814814814817,8.34119999980927],[-0.15499999999999994,-0.2207407407407407,8.358000000000004],[-0.14010416666666667,-0.21851851851851853,8.374500000000005],[-0.16927083333333334,-0.20999999999999996,8.391400000095373],[-0.19406249999999994,-0.20481481481481487,8.407900000095374],[-0.18947916666666664,-0.20203703703703707,8.424500000000002]]","[0.0003000001907409455,0.05759999990463882,0.06890000009536834,0.07990000009537113,0.0923000001907397,0.1119000000953676,0.1266999998092686,0.14130000019073918,0.15800000000000125,0.1756999998092681,0.19590000009537079,0.2115000000000009,0.2290000000000063,0.24359999990463876,0.26109999990463706,0.27469999980926474,0.29130000019073776,0.30799999999999983,0.32709999990463245,0.3430999999046378,0.3589000000953675,0.37519999980926855,0.3913000001907392,0.40800000000000125,0.43340000009536794,0.4465999999046346,0.4580000000000055,0.4746999998092676,0.4914000000953678,0.5080000000000027,0.5276999998092649,0.5415000000000063,0.5583000001907408,0.574699999809269,0.5913000001907349,0.6080999999046384,0.6248000001907386,0.6413000001907392,0.66269999980927,0.6756999998092681,0.6914000000953706,0.7080000000000055,0.7246999998092676,0.7413000001907406,0.758099999904637,0.7745999999046376,0.791400000095372,0.8080999999046341,0.824699999809269,0.8413000001907349,0.8580999999046384,0.8748000001907386,0.8945000000000007,0.9105000000000061,0.9285999999046339,0.9418000001907387,0.9580999999046327,0.9746999998092676,0.9914000000953678,1.0080000000000027,1.0255999999046352,1.0478000001907404,1.061400000095368,1.074699999809269,1.0925000000000011,1.1140000000000043,1.1246999998092662,1.1414000000953735,1.1620999999046333,1.17490000009537,1.191900000095373,1.2080000000000055,1.2301999998092654,1.2414000000953678,1.2580000000000027,1.2745999999046376,1.2913000001907378,1.308099999904634,1.324699999809269,1.3415000000000035,1.363199999809268,1.3790999999046392,1.391599999904635,1.4080999999046355,1.4246999998092704,1.4458000001907365,1.4616999998092695,1.4769000000953696,1.4920999999046387,1.5096999998092713,1.5276999998092649,1.5424000000953697,1.5598000001907408,1.574699999809269,1.591300000190735,1.608000000000004,1.624599999904639,1.6436999998092716,1.6590999999046332,1.6750000000000043,1.6913000001907363,1.7080000000000055,1.7246999998092676,1.7413000001907406,1.7580000000000027,1.7746999998092647,1.7913000001907378,1.8079999999999998,1.8248000001907414,1.841300000190735,1.858699999809268,1.8748000001907386,1.8913000001907392,1.9080000000000013,1.9250999999046385,1.9415999999046392,1.9586999998092693,1.9745999999046333,1.9913000001907406,2.0080000000000027,2.0283000001907396,2.0439000000953698,2.063599999904639,2.074699999809269,2.0915000000000035,2.108000000000004,2.127599999904639,2.1420999999046373,2.157900000095374,2.1750000000000043,2.193099999904639,2.2080000000000055,2.2269000000953696,2.2414000000953678,2.2580000000000027,2.2745999999046376,2.291400000095372,2.308,2.324699999809269,2.3418000001907373,2.3580999999046384,2.374699999809266,2.391300000190739,2.4080999999046355,2.4251999998092657,2.4413000001907363,2.4580000000000055,2.4746999998092676,2.4914000000953678,2.5080000000000027,2.528500000000001,2.5441999998092655,2.5615000000000023,2.5775000000000006,2.602099999904638,2.6103000001907404,2.6248000001907386,2.6414000000953735,2.658300000190735,2.6746999998092704,2.6913000001907363,2.710800000190737,2.72819999980927,2.742199999809266,2.761500000000005,2.7755999999046352,2.7916999998092678,2.808099999904634,2.8275000000000006,2.8415000000000035,2.8581999998092655,2.874699999809266,2.8950999999046374,2.91080000019074,2.928599999904634,2.946000000000005,2.9618000001907347,2.975599999904638,2.9914000000953678,3.0108000001907413,3.028400000095374,3.0426999998092654,3.0660999999046368,3.076599999904637,3.0915999999046377,3.108300000190738,3.136099999904637,3.1440999999046326,3.1580999999046355,3.1748000001907357,3.194800000190739,3.2101999998092694,3.2301999998092654,3.2413000001907406,3.2630000000000052,3.274800000190737,3.291400000095372,3.308,3.3304000000953735,3.341400000095369,3.3580999999046384,3.374699999809266,3.3914000000953735,3.4118000001907376,3.4250999999046385,3.4436999998092688,3.462900000095374,3.4790999999046335,3.4915999999046363,3.508099999904637,3.528099999904633,3.5423000001907354,3.558400000095368,3.5748000001907414,3.5945000000000036,3.610199999809268,3.6248000001907386,3.641300000190739,3.6580999999046355,3.6746999998092704,3.6914000000953706,3.7088000001907346,3.7275999999046334,3.7431999998092707,3.7601999998092666,3.7745999999046376,3.7913000001907378,3.808,3.826599999904637,3.8421999998092673,3.858000000000004,3.874599999904639,3.891300000190739,3.9114000000953695,3.9250000000000043,3.941599999904639,3.9620000000000033,3.97819999980927,3.9946999998092707,4.014900000095373,4.0253000001907395,4.041500000000006,4.058800000190736,4.078800000190739,4.09419999980927,4.1125999999046385,4.133000000000003,4.1414000000953735,4.158400000095369,4.177599999904636,4.197000000000003,4.212000000000003,4.224900000095367,4.241599999904636,4.260699999809269,4.275599999904635,4.29390000009537,4.308,4.327699999809269,4.341699999809265,4.3633000001907405,4.374699999809266,4.391500000000001,4.40819999980927,4.429300000190736,4.445500000000003,4.461400000095374,4.477900000095367,4.494199999809268,4.5109000000953685,4.524800000190737,4.543500000000002,4.558099999904634,4.574599999904635,4.593500000000006,4.612900000095372,4.627400000095371,4.641199999809267,4.660500000000006,4.675300000190738,4.691900000095373,4.7113000001907395,4.728699999809265,4.7450000000000045,4.762199999809269,4.778000000000006,4.794900000095367,4.808699999809271,4.827000000000005,4.841400000095369,4.858000000000004,4.874699999809266,4.892400000095371,4.908000000000001,4.925400000095372,4.9465,4.962199999809265,4.97780000019074,4.9983000001907385,5.008099999904637,5.024900000095371,5.041500000000006,5.063199999809271,5.074800000190741,5.091699999809265,5.113800000190736,5.124900000095373,5.141500000000001,5.15819999980927,5.177099999904634,5.191500000000005,5.208199999809267,5.229800000190735,5.241500000000002,5.258199999809271,5.281000000000006,5.291500000000006,5.308199999809268,5.325000000000003,5.345000000000006,5.358099999904638,5.374800000190739,5.397800000190735,5.4080999999046355,5.430500000000002,5.443800000190741,5.4580000000000055,5.474599999904633,5.491300000190741,5.508199999809271,5.524699999809265,5.541300000190738,5.558,5.574900000095369,5.591800000190737,5.6081999998092655,5.625300000190741,5.641300000190739,5.658000000000001,5.674599999904636,5.691300000190736,5.708599999904635,5.727699999809268,5.741400000095368,5.758000000000003,5.774599999904638,5.791300000190738,5.807900000095373,5.827000000000005,5.843599999904633,5.859800000190738,5.8751999998092685,5.8914000000953735,5.907900000095374,5.92790000009537,5.944099999904637,5.9590999999046375,5.9765000000000015,5.993300000190736,6.008000000000003,6.024699999809265,6.041199999809265,6.060699999809266,6.079500000000003,6.091400000095369,6.108000000000004,6.124599999904639,6.141300000190739,6.158000000000001,6.174599999904636,6.1920999999046344,6.207900000095371,6.228500000000004,6.246500000000005,6.258000000000003,6.274599999904638,6.291300000190738,6.308,6.325099999904637,6.341300000190735,6.362900000095372,6.382900000095368,6.401900000095374,6.408400000095369,6.424599999904636,6.441300000190736,6.4580000000000055,6.474599999904633,6.491300000190741,6.507900000095368,6.524599999904638,6.541300000190738,6.558,6.574800000190741,6.5915000000000035,6.60790000009537,6.624699999809266,6.641300000190739,6.658000000000001,6.674599999904636,6.691300000190736,6.707900000095371,6.724699999809268,6.741500000000002,6.759900000095371,6.776599999904633,6.791300000190738,6.808,6.824599999904635,6.841300000190735,6.85790000009537,6.874599999904639,6.891300000190739,6.907900000095374,6.926699999809266,6.941199999809271,6.9580000000000055,6.974599999904633,6.991300000190741,7.008099999904637,7.0264000000953715,7.041199999809265,7.058099999904634,7.074699999809269,7.0915000000000035,7.110199999809268,7.1259000000953705,7.142000000000003,7.157900000095374,7.174599999904636,7.191300000190736,7.2080000000000055,7.224599999904633,7.241500000000002,7.259500000000003,7.3093000001907384,7.3208000001907365,7.34680000019074,7.35490000009537,7.380099999904637,7.388199999809267,7.398000000000003,7.410000000000004,7.429199999809271,7.447300000190737,7.462599999904633,7.477900000095367,7.496000000000002,7.533000000000001,7.540599999904636,7.563900000095373,7.571099999904632,7.59530000019074,7.602500000000006,7.630300000190736,7.638000000000005,7.663599999904633,7.6706999998092655,7.675400000095372,7.714900000095369,7.729400000095367,7.741199999809268,7.758000000000003,7.774599999904638,7.795599999904638,7.813500000000005,7.826199999809269,7.841300000190735,7.858000000000004,7.874599999904639,7.891599999904635,7.907900000095374,7.926900000095372,7.942400000095368,7.958300000190739,7.974599999904633,7.991300000190741,8.007900000095368,8.02569999980927,8.041400000095372,8.0595,8.074599999904635,8.091300000190735,8.108699999809268,8.124599999904639,8.141199999809267,8.157900000095374,8.17730000019074,8.191699999809266,8.207900000095371,8.224599999904633,8.241199999809268,8.257900000095368,8.274599999904638,8.291199999809265,8.307900000095373,8.325800000190739,8.34119999980927,8.358000000000004,8.374500000000005,8.391400000095373,8.407900000095374,8.424500000000002]","[1732008364440,1732008364488,1732008364500,1732008364511,1732008364523,1732008364543,1732008364557,1732008364572,1732008364589,1732008364606,1732008364627,1732008364642,1732008364660,1732008364674,1732008364692,1732008364705,1732008364722,1732008364739,1732008364758,1732008364774,1732008364790,1732008364806,1732008364822,1732008364839,1732008364864,1732008364877,1732008364889,1732008364905,1732008364922,1732008364939,1732008364958,1732008364972,1732008364989,1732008365005,1732008365022,1732008365039,1732008365056,1732008365072,1732008365093,1732008365106,1732008365122,1732008365139,1732008365155,1732008365172,1732008365189,1732008365205,1732008365222,1732008365239,1732008365255,1732008365272,1732008365289,1732008365306,1732008365325,1732008365341,1732008365359,1732008365373,1732008365389,1732008365405,1732008365422,1732008365439,1732008365456,1732008365479,1732008365492,1732008365505,1732008365523,1732008365545,1732008365555,1732008365572,1732008365593,1732008365606,1732008365623,1732008365639,1732008365661,1732008365672,1732008365689,1732008365705,1732008365722,1732008365739,1732008365755,1732008365772,1732008365794,1732008365810,1732008365822,1732008365839,1732008365855,1732008365877,1732008365892,1732008365908,1732008365923,1732008365940,1732008365958,1732008365973,1732008365990,1732008366005,1732008366022,1732008366039,1732008366055,1732008366074,1732008366090,1732008366106,1732008366122,1732008366139,1732008366155,1732008366172,1732008366189,1732008366206,1732008366222,1732008366239,1732008366256,1732008366272,1732008366289,1732008366306,1732008366322,1732008366339,1732008366356,1732008366372,1732008366389,1732008366405,1732008366422,1732008366439,1732008366459,1732008366475,1732008366494,1732008366506,1732008366522,1732008366539,1732008366558,1732008366573,1732008366589,1732008366606,1732008366624,1732008366639,1732008366658,1732008366672,1732008366689,1732008366705,1732008366722,1732008366739,1732008366755,1732008366773,1732008366789,1732008366805,1732008366822,1732008366839,1732008366856,1732008366872,1732008366889,1732008366905,1732008366922,1732008366939,1732008366959,1732008366975,1732008366992,1732008367008,1732008367033,1732008367041,1732008367056,1732008367072,1732008367089,1732008367105,1732008367122,1732008367142,1732008367159,1732008367173,1732008367192,1732008367206,1732008367223,1732008367239,1732008367258,1732008367272,1732008367289,1732008367305,1732008367326,1732008367342,1732008367359,1732008367377,1732008367393,1732008367406,1732008367422,1732008367442,1732008367459,1732008367474,1732008367497,1732008367507,1732008367522,1732008367539,1732008367567,1732008367575,1732008367589,1732008367606,1732008367625,1732008367641,1732008367661,1732008367672,1732008367694,1732008367706,1732008367722,1732008367739,1732008367761,1732008367772,1732008367789,1732008367805,1732008367822,1732008367843,1732008367856,1732008367875,1732008367894,1732008367910,1732008367922,1732008367939,1732008367959,1732008367973,1732008367989,1732008368006,1732008368025,1732008368041,1732008368056,1732008368072,1732008368089,1732008368105,1732008368122,1732008368140,1732008368158,1732008368174,1732008368191,1732008368205,1732008368222,1732008368239,1732008368257,1732008368273,1732008368289,1732008368305,1732008368322,1732008368342,1732008368356,1732008368372,1732008368393,1732008368409,1732008368425,1732008368446,1732008368456,1732008368472,1732008368490,1732008368510,1732008368525,1732008368543,1732008368564,1732008368572,1732008368589,1732008368608,1732008368628,1732008368643,1732008368656,1732008368672,1732008368692,1732008368706,1732008368725,1732008368739,1732008368758,1732008368772,1732008368794,1732008368805,1732008368822,1732008368839,1732008368860,1732008368876,1732008368892,1732008368909,1732008368925,1732008368942,1732008368956,1732008368974,1732008368989,1732008369005,1732008369024,1732008369044,1732008369059,1732008369072,1732008369091,1732008369106,1732008369123,1732008369142,1732008369159,1732008369176,1732008369193,1732008369209,1732008369226,1732008369239,1732008369258,1732008369272,1732008369289,1732008369305,1732008369323,1732008369339,1732008369356,1732008369377,1732008369393,1732008369409,1732008369429,1732008369439,1732008369456,1732008369472,1732008369494,1732008369506,1732008369522,1732008369545,1732008369556,1732008369572,1732008369589,1732008369608,1732008369622,1732008369639,1732008369660,1732008369672,1732008369689,1732008369712,1732008369722,1732008369739,1732008369756,1732008369776,1732008369789,1732008369806,1732008369828,1732008369839,1732008369861,1732008369875,1732008369889,1732008369905,1732008369922,1732008369939,1732008369956,1732008369972,1732008369989,1732008370006,1732008370022,1732008370039,1732008370056,1732008370072,1732008370089,1732008370105,1732008370122,1732008370139,1732008370158,1732008370172,1732008370189,1732008370205,1732008370222,1732008370239,1732008370258,1732008370274,1732008370291,1732008370306,1732008370322,1732008370339,1732008370359,1732008370375,1732008370390,1732008370407,1732008370424,1732008370439,1732008370455,1732008370472,1732008370491,1732008370510,1732008370522,1732008370539,1732008370555,1732008370572,1732008370589,1732008370605,1732008370623,1732008370639,1732008370659,1732008370677,1732008370689,1732008370705,1732008370722,1732008370739,1732008370756,1732008370772,1732008370794,1732008370814,1732008370833,1732008370839,1732008370855,1732008370872,1732008370889,1732008370905,1732008370922,1732008370939,1732008370955,1732008370972,1732008370989,1732008371006,1732008371022,1732008371039,1732008371055,1732008371072,1732008371089,1732008371105,1732008371122,1732008371139,1732008371155,1732008371172,1732008371191,1732008371207,1732008371222,1732008371239,1732008371255,1732008371272,1732008371289,1732008371305,1732008371322,1732008371339,1732008371357,1732008371372,1732008371389,1732008371405,1732008371422,1732008371439,1732008371457,1732008371472,1732008371489,1732008371505,1732008371522,1732008371541,1732008371557,1732008371573,1732008371589,1732008371605,1732008371622,1732008371639,1732008371655,1732008371672,1732008371690,1732008371740,1732008371752,1732008371778,1732008371786,1732008371811,1732008371819,1732008371829,1732008371841,1732008371860,1732008371878,1732008371893,1732008371909,1732008371927,1732008371964,1732008371971,1732008371995,1732008372002,1732008372026,1732008372033,1732008372061,1732008372069,1732008372094,1732008372101,1732008372106,1732008372146,1732008372160,1732008372172,1732008372189,1732008372205,1732008372226,1732008372244,1732008372257,1732008372272,1732008372289,1732008372305,1732008372322,1732008372339,1732008372358,1732008372373,1732008372389,1732008372405,1732008372422,1732008372439,1732008372456,1732008372472,1732008372490,1732008372505,1732008372522,1732008372539,1732008372555,1732008372572,1732008372589,1732008372608,1732008372622,1732008372639,1732008372655,1732008372672,1732008372689,1732008372705,1732008372722,1732008372739,1732008372757,1732008372772,1732008372789,1732008372805,1732008372822,1732008372839,1732008372855]","[[902.8,568.6],[902.8,568.6],[921.7,566.4],[921.7,566.4],[939.6,569.7],[932.5,561.3],[932.5,561.3],[931.6,559.6],[917.9,541.1],[937.6,540.8],[944.4,537.3],[949.2,530.7],[953,526.5],[962.9,529.3],[947,528.6],[924.2,521.3],[921.3,519.9],[918.4,518.5],[927.4,530.1],[921.3,529.5],[916.5,525.5],[915.8,530.9],[914.9,529.7],[907.3,523.9],[911.4,522.9],[911.4,522.9],[922.6,525.7],[918.3,519.7],[914.6,514],[916.7,510],[922.6,508.6],[932.1,502.9],[939.5,490.9],[949.2,494.1],[959.5,494.9],[953.8,491.1],[953.8,491.1],[941,483.5],[942.9,481.6],[940.5,488],[927,489.8],[913.5,491.6],[890.1,496.8],[878.8,506.5],[865.4,507.6],[851.7,502.1],[854,501.2],[852.6,509.4],[852,520.7],[847.9,515.7],[843.8,510.7],[842.8,497.9],[846.8,489.4],[825.2,493.1],[803.6,496.8],[803,544.1],[802.4,591.4],[797.9,617.2],[809.3,658.5],[828.4,692.6],[847.5,726.7],[871.2,776.5],[871.2,776.5],[874.7,809.8],[874.7,809.8],[902.2,837.4],[902.2,837.4],[913.8,861.4],[913.8,861.4],[915.5,822.4],[915.5,822.4],[915.1,776.8],[915.1,776.8],[924.2,762.7],[924.2,762.7],[912.8,719.2],[912.8,719.2],[916.3,687.7],[916.3,687.7],[914.6,659.4],[918.1,630.1],[918.1,630.1],[929.4,639.9],[929.4,639.9],[942.9,633.5],[966.2,637.8],[962.2,648],[960.3,664.8],[956.5,662.5],[957.3,677.4],[942.7,695.2],[936.3,709.8],[917,717.5],[913.8,711.6],[897.9,710.9],[889.3,695.8],[897.2,700.8],[898.1,710.5],[921.9,719.6],[941.8,729],[961.7,738.4],[972.1,742.7],[982.5,747],[991.7,729.6],[988.8,727],[990.2,713.9],[1003.3,699.6],[1029.5,689.8],[1032.8,680.6],[1001.3,663.4],[969.8,646.2],[964.5,637.1],[959.2,628],[951.4,631.6],[960.7,623.3],[943.6,623.5],[914.8,624.9],[906.7,625.7],[898.6,626.5],[920.8,635.6],[943,644.7],[936.5,642],[930,639.3],[930,639.3],[946.7,635.5],[933.6,620.1],[941.4,614],[949.7,597.1],[931.2,571.6],[906.5,574.8],[890.2,574.1],[889.5,595],[895.1,632.9],[895.1,632.9],[902.4,670.2],[892.4,700.7],[907.2,739.9],[922,779.1],[930.9,822],[954.1,855.8],[963.9,869.4],[987.7,874.5],[992.7,858.1],[1004.7,821.8],[1012.3,788.8],[1023,778],[1026.7,763.4],[1005.3,724.6],[981.8,689.3],[943.6,663.5],[929.1,639.2],[914.3,626.3],[902.7,613.3],[881.1,602.3],[862.2,588.6],[862.2,588.6],[828.1,563.5],[799.8,553.3],[802.1,563.2],[818.5,577.1],[835.3,590.6],[848,594.1],[849.3,603],[848.8,605],[854,616.7],[870.6,628.9],[893.4,638.2],[909.6,639.2],[920.3,644.3],[920,648.6],[919.7,652.9],[924.7,649.6],[927.4,638],[934.1,628.4],[945.8,617.6],[950.1,626.8],[944.5,619.9],[947.4,611.9],[950.3,603.9],[958.2,592.1],[965.3,581],[965.7,571.1],[966.1,561.2],[966.1,561.2],[969,554.4],[969,554.4],[966.9,548.8],[966.9,548.8],[951.2,527.3],[956,525.5],[962.8,523.4],[963.5,520.1],[963.6,521],[963.6,521],[962.7,520.3],[962.7,520.3],[967.3,521.7],[967.3,521.7],[974.3,530.5],[974.3,530.5],[963.2,550.4],[963.2,550.4],[941.5,559],[941.5,559],[955.4,577.4],[945.7,574.4],[933.3,570],[937.1,580.6],[937.1,580.6],[940.9,591.2],[917.6,588],[909.8,592.2],[899.6,589],[904.3,582.7],[919.6,587.7],[918.4,582.1],[918.4,582.1],[930.2,594.3],[946.4,603.1],[950.6,583.4],[954.8,563.7],[973.6,564.4],[972.8,562],[980.8,570.2],[999,576.8],[1011.9,569],[1015.3,557.4],[1021.5,551.5],[1023.3,549],[1013.6,554.8],[1012.8,582.3],[1029.5,582.4],[1046.2,582.5],[1063.9,578.4],[1063.9,578.4],[1046.3,559.3],[1026.7,553.3],[1019.7,557.5],[1020.4,577.9],[1001.6,571.5],[1001.6,571.5],[997.6,572.7],[983.6,549.2],[953.5,545.4],[937.2,546.9],[920,541.6],[926.4,546.7],[926.4,546.7],[905.4,580.2],[918,623.2],[913.3,639.1],[896.7,636.6],[896.7,636.6],[913.7,654.5],[915.9,657.4],[924.8,674.5],[925.5,683.7],[906.1,722.1],[894.3,752.5],[906.7,748.5],[872.9,724.8],[872.9,724.8],[829.6,682],[840.9,697.1],[805,690.4],[792.5,679.7],[786.2,656.8],[764.3,643],[753.6,600.4],[753.6,600.4],[758.5,562.8],[773,545.1],[771.3,517.8],[777.3,515.3],[784,501.2],[813.6,496.6],[813.6,496.6],[838.5,511.9],[855.9,527.3],[888.1,536.6],[920.3,545.9],[926,557.5],[924.9,556.8],[945.4,565.9],[969.6,572.8],[964,580.3],[947.7,578.5],[931,569.9],[921.8,561.2],[925.1,571.1],[928.4,581],[941.6,592.2],[962.5,603.1],[974.5,596.8],[986.6,596.4],[1006.4,594.8],[1012,595.2],[1029.9,608.2],[1047.8,621.2],[1047.8,621.2],[1045.1,611.8],[1033.1,600.9],[1014.5,589.4],[1014.5,589.4],[992.9,574.3],[976.6,581.1],[976.6,581.1],[968.6,576.9],[961.8,575.6],[972.2,579.6],[972.2,579.6],[958.3,569.3],[948.8,574.9],[948.8,574.9],[946.8,561.6],[954.9,563.8],[954.9,563.8],[953,555],[953,555],[951.5,553.8],[951.5,553.8],[953.3,534.7],[953.3,534.7],[955,532.2],[949.3,527.6],[949.3,527.6],[945.5,510.6],[948.8,508.9],[947.7,491.3],[947.2,499.5],[947.2,499.5],[944.9,489.6],[953,510.9],[956.7,516.8],[973,543.1],[986.2,563],[1006.1,582.6],[1011.8,604.8],[1020,622.3],[1020.3,636.8],[1027.1,647.2],[1049.3,646],[1062.2,627],[1084.8,640.3],[1089.7,646.2],[1081.6,655.6],[1076.3,663.1],[1077.3,664.1],[1078.3,665.1],[1078.6,665.8],[1067.6,667.1],[1043.4,683.1],[1024.7,701.4],[1006.5,697.1],[985.5,691],[989.5,676.1],[991.5,656.3],[988.5,638.7],[985.5,621.1],[981.7,604.3],[977.9,587.5],[985.4,572.1],[996.3,552],[992.4,523.6],[992.4,523.6],[991.3,497],[989.6,475],[988.8,459.9],[990.1,449.3],[986.3,448.4],[991.6,449.6],[996,455.9],[987.9,461.8],[979.3,461.5],[979.3,461.5],[992.8,523.3],[1004.6,583.9],[1011,628.5],[1013.4,672],[1020.8,727.3],[1033.4,772.9],[1033.4,772.9],[1034.7,802.5],[1034.7,802.5],[1059.3,821.6],[1073.5,850.8],[1088.2,886],[1080.5,864.5],[1074.5,844.2],[1074.9,826.5],[1074.9,826.5],[1075.3,808.8],[1075.3,808.8],[1072.2,783.9],[1059.2,750.4],[1059,736.3],[1059,736.3],[1036.4,727.6],[1010,705.9],[980.1,683.4],[962.1,665.5],[952.2,658.1],[952.2,658.1],[929.6,661.4],[909.5,650.3],[894.4,647.2],[894.4,647.2],[889.1,652.7],[872,650.6],[862.2,666.8],[866.6,685.9],[879.8,705.1],[893,724.3],[892.5,722.6],[892,720.9],[893.4,724.3],[894.2,717.4],[895.7,718],[907.8,723.2],[909.4,704.3],[911,685.4],[920.7,665.9],[920,643.2],[920,643.2],[918.3,625.6],[934.6,624.4],[946.5,632.5],[961.2,603.7],[957.2,591.7],[978.9,578.6],[989.5,567.9],[1015.2,566.3],[1009.7,564.2],[1009.7,564.2],[1009.7,564.2],[1017.8,572],[1017.8,572],[1048.5,571.4],[1048.5,571.4],[1064.4,571.9],[1064.4,571.9],[1064.4,571.9],[1064.4,571.9],[1064.4,571.9],[1064.4,571.9],[1064.4,571.9],[1064.4,571.9],[1064.4,571.9],[1056,564.4],[1056,564.4],[1051.5,589.2],[1051.5,589.2],[1061.5,582.5],[1061.5,582.5],[1056,589.6],[1056,589.6],[1049,582.2],[1049,582.2],[1049,582.2],[1032.1,567.7],[1032.1,567.7],[1020.4,553],[1020.4,553],[1005.5,531.6],[1004.3,528.9],[994.9,525.8],[994.9,525.8],[997.7,517.6],[993.8,514],[1007.9,528.3],[996.3,517.6],[1014.3,531],[1008.2,541.3],[1016.7,584],[1018.9,