inst1_resp.keys,inst1_resp.rt,calibrationMouse.x,calibrationMouse.y,calibrationMouse.leftButton,calibrationMouse.midButton,calibrationMouse.rightButton,calibrationClick.x,calibrationClick.y,calibrationClick.leftButton,calibrationClick.midButton,calibrationClick.rightButton,calibrationClick.clicked_name,trialsc.thisRepN,trialsc.thisTrialN,trialsc.thisN,trialsc.thisIndex,trialsc.ran,calibration_x,calibration_y,participant,session,date,expName,psychopyVersion,OS,frameRate,ScreenRes_pixels,mouse_2.x,mouse_2.y,mouse_2.leftButton,mouse_2.midButton,mouse_2.rightButton,mouse_2.time,mouse_2.clicked_name,Camera_pixels,mouse.x,mouse.y,mouse.leftButton,mouse.midButton,mouse.rightButton,mouse.time,mouse.clicked_name,Choice,Trial,TrialDuration,MOUSE_GAZE,ET_GAZE,ET_GAZE_x_T,time,unixTime,ET_GAZE_NF,Loc_Bus_label,Loc_Metro_label,Loc_RH_label,Loc_Cost_label,Loc_Travel_label,Loc_Comfort_label,Loc_Bus_cost,Loc_Metro_cost,Loc_RH_cost,Loc_Bus_travel,Loc_Metro_travel,Loc_RH_travel,Loc_Bus_comfort,Loc_Metro_comfort,Loc_RH_comfort,trials.thisRepN,trials.thisTrialN,trials.thisN,trials.thisIndex,trials.ran,Block,Device,RH_cost,RH_travel_time,RH_Comfort,metro_cost,metro_travel_time,metro_Comfort,Bus_cost,Bus_travel_time,Bus_Comfort
space,3.0795,-0.04375,-0.127777778,1,0,0,0.003125,0.672222222,1,0,0,calibration_square,0,0,0,13,1,0,0.67,15,001,2024-11-20_10h52.14.618,Attention_exp_legacy,2023.1.0,Win32,59.52380952,,,,,,,,,,,,,,,,,,,,,,,,,,,,,,,,,,,,,,,,,,,,,,,,,,,,,,,,
,,,,,,,0.00625,-0.337037037,1,0,0,calibration_square,0,1,1,10,1,0,-0.33,15,001,2024-11-20_10h52.14.618,Attention_exp_legacy,2023.1.0,Win32,59.52380952,,,,,,,,,,,,,,,,,,,,,,,,,,,,,,,,,,,,,,,,,,,,,,,,,,,,,,,,
,,,,,,,0.33125,0.331481481,1,0,0,calibration_square,0,2,2,17,1,0.33,0.33,15,001,2024-11-20_10h52.14.618,Attention_exp_legacy,2023.1.0,Win32,59.52380952,,,,,,,,,,,,,,,,,,,,,,,,,,,,,,,,,,,,,,,,,,,,,,,,,,,,,,,,
,,,,,,,0.326041667,-0.327777778,1,0,0,calibration_square,0,3,3,15,1,0.33,-0.33,15,001,2024-11-20_10h52.14.618,Attention_exp_legacy,2023.1.0,Win32,59.52380952,,,,,,,,,,,,,,,,,,,,,,,,,,,,,,,,,,,,,,,,,,,,,,,,,,,,,,,,
,,,,,,,-0.672916667,-0.67037037,1,0,0,calibration_square,0,4,4,0,1,-0.67,-0.67,15,001,2024-11-20_10h52.14.618,Attention_exp_legacy,2023.1.0,Win32,59.52380952,,,,,,,,,,,,,,,,,,,,,,,,,,,,,,,,,,,,,,,,,,,,,,,,,,,,,,,,
,,,,,,,-0.326041667,0.659259259,1,0,0,,0,5,5,8,1,-0.33,0.67,15,001,2024-11-20_10h52.14.618,Attention_exp_legacy,2023.1.0,Win32,59.52380952,,,,,,,,,,,,,,,,,,,,,,,,,,,,,,,,,,,,,,,,,,,,,,,,,,,,,,,,
,,,,,,,-0.339583333,-0.316666667,1,0,0,,0,6,6,5,1,-0.33,-0.33,15,001,2024-11-20_10h52.14.618,Attention_exp_legacy,2023.1.0,Win32,59.52380952,,,,,,,,,,,,,,,,,,,,,,,,,,,,,,,,,,,,,,,,,,,,,,,,,,,,,,,,
,,,,,,,-0.667708333,0.018518519,1,0,0,,0,7,7,2,1,-0.67,0,15,001,2024-11-20_10h52.14.618,Attention_exp_legacy,2023.1.0,Win32,59.52380952,,,,,,,,,,,,,,,,,,,,,,,,,,,,,,,,,,,,,,,,,,,,,,,,,,,,,,,,
,,,,,,,0.333333333,-0.001851852,1,0,0,calibration_square,0,8,8,16,1,0.33,0,15,001,2024-11-20_10h52.14.618,Attention_exp_legacy,2023.1.0,Win32,59.52380952,,,,,,,,,,,,,,,,,,,,,,,,,,,,,,,,,,,,,,,,,,,,,,,,,,,,,,,,
,,,,,,,-0.670833333,0.322222222,1,0,0,calibration_square,0,9,9,3,1,-0.67,0.33,15,001,2024-11-20_10h52.14.618,Attention_exp_legacy,2023.1.0,Win32,59.52380952,,,,,,,,,,,,,,,,,,,,,,,,,,,,,,,,,,,,,,,,,,,,,,,,,,,,,,,,
,,,,,,,-0.321875,0.337037037,1,0,0,calibration_square,0,10,10,7,1,-0.33,0.33,15,001,2024-11-20_10h52.14.618,Attention_exp_legacy,2023.1.0,Win32,59.52380952,,,,,,,,,,,,,,,,,,,,,,,,,,,,,,,,,,,,,,,,,,,,,,,,,,,,,,,,
,,,,,,,0.322916667,0.681481481,1,0,0,,0,11,11,18,1,0.33,0.67,15,001,2024-11-20_10h52.14.618,Attention_exp_legacy,2023.1.0,Win32,59.52380952,,,,,,,,,,,,,,,,,,,,,,,,,,,,,,,,,,,,,,,,,,,,,,,,,,,,,,,,
,,,,,,,0.666666667,-0.661111111,1,0,0,calibration_square,0,12,12,20,1,0.67,-0.67,15,001,2024-11-20_10h52.14.618,Attention_exp_legacy,2023.1.0,Win32,59.52380952,,,,,,,,,,,,,,,,,,,,,,,,,,,,,,,,,,,,,,,,,,,,,,,,,,,,,,,,
,,,,,,,0.005208333,0.37037037,1,0,0,,0,13,13,12,1,0,0.33,15,001,2024-11-20_10h52.14.618,Attention_exp_legacy,2023.1.0,Win32,59.52380952,,,,,,,,,,,,,,,,,,,,,,,,,,,,,,,,,,,,,,,,,,,,,,,,,,,,,,,,
,,,,,,,0.021875,0.038888889,1,0,0,,0,14,14,11,1,0,0,15,001,2024-11-20_10h52.14.618,Attention_exp_legacy,2023.1.0,Win32,59.52380952,,,,,,,,,,,,,,,,,,,,,,,,,,,,,,,,,,,,,,,,,,,,,,,,,,,,,,,,
,,,,,,,0.658333333,0.692592593,1,0,0,,0,15,15,19,1,0.67,0.67,15,001,2024-11-20_10h52.14.618,Attention_exp_legacy,2023.1.0,Win32,59.52380952,,,,,,,,,,,,,,,,,,,,,,,,,,,,,,,,,,,,,,,,,,,,,,,,,,,,,,,,
,,,,,,,-0.369791667,-0.009259259,1,0,0,,0,16,16,6,1,-0.33,0,15,001,2024-11-20_10h52.14.618,Attention_exp_legacy,2023.1.0,Win32,59.52380952,,,,,,,,,,,,,,,,,,,,,,,,,,,,,,,,,,,,,,,,,,,,,,,,,,,,,,,,
,,,,,,,-0.655208333,-0.340740741,1,0,0,,0,17,17,1,1,-0.67,-0.33,15,001,2024-11-20_10h52.14.618,Attention_exp_legacy,2023.1.0,Win32,59.52380952,,,,,,,,,,,,,,,,,,,,,,,,,,,,,,,,,,,,,,,,,,,,,,,,,,,,,,,,
,,,,,,,0.327083333,-0.675925926,1,0,0,calibration_square,0,18,18,14,1,0.33,-0.67,15,001,2024-11-20_10h52.14.618,Attention_exp_legacy,2023.1.0,Win32,59.52380952,,,,,,,,,,,,,,,,,,,,,,,,,,,,,,,,,,,,,,,,,,,,,,,,,,,,,,,,
,,,,,,,0.002083333,-0.675925926,1,0,0,calibration_square,0,19,19,9,1,0,-0.67,15,001,2024-11-20_10h52.14.618,Attention_exp_legacy,2023.1.0,Win32,59.52380952,,,,,,,,,,,,,,,,,,,,,,,,,,,,,,,,,,,,,,,,,,,,,,,,,,,,,,,,
,,,,,,,-0.319791667,-0.690740741,1,0,0,,0,20,20,4,1,-0.33,-0.67,15,001,2024-11-20_10h52.14.618,Attention_exp_legacy,2023.1.0,Win32,59.52380952,,,,,,,,,,,,,,,,,,,,,,,,,,,,,,,,,,,,,,,,,,,,,,,,,,,,,,,,
,,,,,,,,,,,,,,,,,,,,15,001,2024-11-20_10h52.14.618,Attention_exp_legacy,2023.1.0,Win32,59.52380952,"[1920,1080]",[-0.0625],[-0.5166666666666667],[1],[0],[0],[0.8288000001907321],"[""StartButton""]","[640,480]",[0.26875],[0.674074074074074],[1],[0],[0],[5.214500000000001],"[""Metro_label""]",Metro_label,1,6.2244,"[[-0.029166666666666667,-0.25925925925925924],[-0.029166666666666667,-0.25925925925925924],[-0.029166666666666667,-0.25925925925925924],[-0.029166666666666667,-0.25925925925925924],[-0.029166666666666667,-0.25925925925925924],[-0.029166666666666667,-0.25925925925925924],[-0.029166666666666667,-0.25925925925925924],[-0.029166666666666667,-0.25925925925925924],[-0.029166666666666667,-0.25925925925925924],[-0.029166666666666667,-0.25925925925925924],[-0.029166666666666667,-0.25925925925925924],[-0.029166666666666667,-0.25925925925925924],[-0.029166666666666667,-0.25925925925925924],[-0.029166666666666667,-0.25925925925925924],[-0.029166666666666667,-0.25925925925925924],[-0.029166666666666667,-0.2574074074074074],[-0.029166666666666667,-0.25555555555555554],[-0.028125,-0.25],[-0.027083333333333334,-0.25],[-0.026041666666666668,-0.24814814814814815],[-0.026041666666666668,-0.2462962962962963],[-0.023958333333333335,-0.24074074074074073],[-0.022916666666666665,-0.23703703703703705],[-0.020833333333333332,-0.22962962962962963],[-0.017708333333333333,-0.2222222222222222],[-0.014583333333333334,-0.2074074074074074],[-0.013541666666666667,-0.1962962962962963],[-0.013541666666666667,-0.19074074074074074],[-0.013541666666666667,-0.17962962962962964],[-0.013541666666666667,-0.1685185185185185],[-0.013541666666666667,-0.15555555555555556],[-0.014583333333333334,-0.1388888888888889],[-0.016666666666666666,-0.13518518518518519],[-0.016666666666666666,-0.13333333333333333],[-0.016666666666666666,-0.13333333333333333],[-0.016666666666666666,-0.13333333333333333],[-0.016666666666666666,-0.13333333333333333],[-0.016666666666666666,-0.13333333333333333],[-0.016666666666666666,-0.13333333333333333],[-0.016666666666666666,-0.13333333333333333],[-0.016666666666666666,-0.13333333333333333],[-0.016666666666666666,-0.13333333333333333],[-0.016666666666666666,-0.13333333333333333],[-0.01875,-0.13148148148148148],[-0.022916666666666665,-0.1425925925925926],[-0.030208333333333334,-0.16111111111111112],[-0.03229166666666667,-0.1648148148148148],[-0.03229166666666667,-0.1648148148148148],[-0.03229166666666667,-0.1648148148148148],[-0.03229166666666667,-0.1648148148148148],[-0.03229166666666667,-0.1648148148148148],[-0.03229166666666667,-0.1648148148148148],[-0.03229166666666667,-0.1648148148148148],[-0.03229166666666667,-0.1648148148148148],[-0.03229166666666667,-0.1648148148148148],[-0.03229166666666667,-0.1648148148148148],[-0.03229166666666667,-0.1648148148148148],[-0.03229166666666667,-0.1648148148148148],[-0.03229166666666667,-0.1648148148148148],[-0.03229166666666667,-0.1648148148148148],[-0.03229166666666667,-0.1648148148148148],[-0.03229166666666667,-0.1648148148148148],[-0.03229166666666667,-0.1648148148148148],[-0.03229166666666667,-0.1648148148148148],[-0.03229166666666667,-0.1648148148148148],[-0.03229166666666667,-0.1648148148148148],[-0.03229166666666667,-0.1648148148148148],[-0.03229166666666667,-0.1648148148148148],[-0.03229166666666667,-0.1648148148148148],[-0.03229166666666667,-0.1648148148148148],[-0.03229166666666667,-0.1648148148148148],[-0.03229166666666667,-0.1648148148148148],[-0.03229166666666667,-0.1648148148148148],[-0.03229166666666667,-0.1648148148148148],[-0.03229166666666667,-0.1648148148148148],[-0.03229166666666667,-0.1648148148148148],[-0.03229166666666667,-0.1648148148148148],[-0.03229166666666667,-0.1648148148148148],[-0.03229166666666667,-0.1648148148148148],[-0.03229166666666667,-0.1648148148148148],[-0.03229166666666667,-0.1648148148148148],[-0.03229166666666667,-0.1648148148148148],[-0.03229166666666667,-0.1648148148148148],[-0.03229166666666667,-0.1648148148148148],[-0.03125,-0.16296296296296298],[-0.030208333333333334,-0.16111111111111112],[-0.027083333333333334,-0.1574074074074074],[-0.027083333333333334,-0.1537037037037037],[-0.026041666666666668,-0.15185185185185185],[-0.026041666666666668,-0.15185185185185185],[-0.025,-0.15],[-0.025,-0.15],[-0.025,-0.15],[-0.023958333333333335,-0.14814814814814814],[-0.022916666666666665,-0.14629629629629629],[-0.022916666666666665,-0.14629629629629629],[-0.022916666666666665,-0.14629629629629629],[-0.021875,-0.14444444444444443],[-0.021875,-0.14444444444444443],[-0.021875,-0.14444444444444443],[-0.021875,-0.14444444444444443],[-0.021875,-0.14444444444444443],[-0.021875,-0.14444444444444443],[-0.021875,-0.14444444444444443],[-0.021875,-0.14444444444444443],[-0.021875,-0.14444444444444443],[-0.021875,-0.14444444444444443],[-0.020833333333333332,-0.14444444444444443],[-0.020833333333333332,-0.14444444444444443],[-0.020833333333333332,-0.14444444444444443],[-0.020833333333333332,-0.14444444444444443],[-0.020833333333333332,-0.14444444444444443],[-0.020833333333333332,-0.14444444444444443],[-0.020833333333333332,-0.14444444444444443],[-0.020833333333333332,-0.14444444444444443],[-0.020833333333333332,-0.14444444444444443],[-0.020833333333333332,-0.14444444444444443],[-0.020833333333333332,-0.14444444444444443],[-0.020833333333333332,-0.14444444444444443],[-0.020833333333333332,-0.14444444444444443],[-0.020833333333333332,-0.14444444444444443],[-0.020833333333333332,-0.14444444444444443],[-0.020833333333333332,-0.14444444444444443],[-0.020833333333333332,-0.14444444444444443],[-0.020833333333333332,-0.14444444444444443],[-0.020833333333333332,-0.14444444444444443],[-0.020833333333333332,-0.14444444444444443],[-0.020833333333333332,-0.14444444444444443],[-0.020833333333333332,-0.14444444444444443],[-0.020833333333333332,-0.14444444444444443],[-0.020833333333333332,-0.14444444444444443],[-0.020833333333333332,-0.14444444444444443],[-0.020833333333333332,-0.14444444444444443],[-0.020833333333333332,-0.14444444444444443],[-0.020833333333333332,-0.14444444444444443],[-0.020833333333333332,-0.14444444444444443],[-0.020833333333333332,-0.14444444444444443],[-0.020833333333333332,-0.14444444444444443],[-0.020833333333333332,-0.14444444444444443],[-0.020833333333333332,-0.14444444444444443],[-0.020833333333333332,-0.14444444444444443],[-0.020833333333333332,-0.14444444444444443],[-0.020833333333333332,-0.14444444444444443],[-0.020833333333333332,-0.14444444444444443],[-0.020833333333333332,-0.14444444444444443],[-0.020833333333333332,-0.14444444444444443],[-0.020833333333333332,-0.14444444444444443],[-0.020833333333333332,-0.14444444444444443],[-0.020833333333333332,-0.14444444444444443],[-0.020833333333333332,-0.14444444444444443],[-0.020833333333333332,-0.14444444444444443],[-0.020833333333333332,-0.14444444444444443],[-0.020833333333333332,-0.14444444444444443],[-0.020833333333333332,-0.14444444444444443],[-0.020833333333333332,-0.14444444444444443],[-0.020833333333333332,-0.14444444444444443],[-0.020833333333333332,-0.14444444444444443],[-0.020833333333333332,-0.14444444444444443],[-0.020833333333333332,-0.14444444444444443],[-0.020833333333333332,-0.14444444444444443],[-0.020833333333333332,-0.14444444444444443],[-0.020833333333333332,-0.14444444444444443],[-0.020833333333333332,-0.14444444444444443],[-0.020833333333333332,-0.14444444444444443],[-0.020833333333333332,-0.14444444444444443],[-0.020833333333333332,-0.14444444444444443],[-0.020833333333333332,-0.14444444444444443],[-0.020833333333333332,-0.14444444444444443],[-0.020833333333333332,-0.14444444444444443],[-0.020833333333333332,-0.14444444444444443],[-0.020833333333333332,-0.14444444444444443],[-0.020833333333333332,-0.14444444444444443],[-0.020833333333333332,-0.14444444444444443],[-0.020833333333333332,-0.14444444444444443],[-0.020833333333333332,-0.14444444444444443],[-0.020833333333333332,-0.14444444444444443],[-0.020833333333333332,-0.14444444444444443],[-0.020833333333333332,-0.14444444444444443],[-0.020833333333333332,-0.14444444444444443],[-0.020833333333333332,-0.14444444444444443],[-0.020833333333333332,-0.14444444444444443],[-0.020833333333333332,-0.14444444444444443],[-0.020833333333333332,-0.14444444444444443],[-0.020833333333333332,-0.14444444444444443],[-0.020833333333333332,-0.14444444444444443],[-0.020833333333333332,-0.14444444444444443],[-0.020833333333333332,-0.14444444444444443],[-0.020833333333333332,-0.14444444444444443],[-0.020833333333333332,-0.14444444444444443],[-0.020833333333333332,-0.14444444444444443],[-0.020833333333333332,-0.14444444444444443],[-0.020833333333333332,-0.14444444444444443],[-0.020833333333333332,-0.14444444444444443],[-0.020833333333333332,-0.14444444444444443],[-0.020833333333333332,-0.14444444444444443],[-0.020833333333333332,-0.14444444444444443],[-0.020833333333333332,-0.14444444444444443],[-0.020833333333333332,-0.14444444444444443],[-0.020833333333333332,-0.14444444444444443],[-0.020833333333333332,-0.14444444444444443],[-0.020833333333333332,-0.14444444444444443],[-0.020833333333333332,-0.14444444444444443],[-0.020833333333333332,-0.14444444444444443],[-0.020833333333333332,-0.14444444444444443],[-0.020833333333333332,-0.14444444444444443],[-0.020833333333333332,-0.14444444444444443],[-0.020833333333333332,-0.14444444444444443],[-0.020833333333333332,-0.14444444444444443],[-0.020833333333333332,-0.14444444444444443],[-0.020833333333333332,-0.14444444444444443],[-0.020833333333333332,-0.14444444444444443],[-0.020833333333333332,-0.14444444444444443],[-0.020833333333333332,-0.14444444444444443],[-0.020833333333333332,-0.14444444444444443],[-0.020833333333333332,-0.14444444444444443],[-0.020833333333333332,-0.14444444444444443],[-0.020833333333333332,-0.14444444444444443],[-0.020833333333333332,-0.14444444444444443],[-0.020833333333333332,-0.14444444444444443],[-0.020833333333333332,-0.14444444444444443],[-0.020833333333333332,-0.14444444444444443],[-0.020833333333333332,-0.14444444444444443],[-0.020833333333333332,-0.14444444444444443],[-0.020833333333333332,-0.14444444444444443],[-0.020833333333333332,-0.14444444444444443],[-0.020833333333333332,-0.14444444444444443],[-0.020833333333333332,-0.14444444444444443],[-0.020833333333333332,-0.14444444444444443],[-0.020833333333333332,-0.14444444444444443],[-0.020833333333333332,-0.14444444444444443],[-0.020833333333333332,-0.14444444444444443],[-0.020833333333333332,-0.14444444444444443],[-0.020833333333333332,-0.14444444444444443],[-0.01875,-0.14444444444444443],[-0.014583333333333334,-0.14814814814814814],[-0.011458333333333333,-0.15],[-0.009375,-0.1537037037037037],[-0.009375,-0.1685185185185185],[-0.01875,-0.18888888888888888],[-0.01875,-0.18888888888888888],[-0.01875,-0.18888888888888888],[-0.01875,-0.18888888888888888],[-0.01875,-0.18888888888888888],[-0.01875,-0.18888888888888888],[-0.01875,-0.18888888888888888],[-0.01875,-0.18888888888888888],[-0.01875,-0.18888888888888888],[-0.01875,-0.18888888888888888],[-0.01875,-0.18888888888888888],[-0.01875,-0.18888888888888888],[-0.01875,-0.18888888888888888],[-0.01875,-0.18888888888888888],[-0.01875,-0.1925925925925926],[-0.01875,-0.1925925925925926],[-0.01875,-0.1925925925925926],[-0.01875,-0.1925925925925926],[-0.01875,-0.1925925925925926],[-0.01875,-0.1925925925925926],[-0.013541666666666667,-0.17407407407407408],[-0.010416666666666666,-0.15],[-0.003125,-0.11666666666666667],[0.005208333333333333,-0.09074074074074075],[0.014583333333333334,-0.06481481481481481],[0.025,-0.03888888888888889],[0.034375,-0.012962962962962963],[0.041666666666666664,0.003703703703703704],[0.051041666666666666,0.025925925925925925],[0.058333333333333334,0.046296296296296294],[0.06666666666666667,0.06481481481481481],[0.071875,0.07962962962962963],[0.075,0.08888888888888889],[0.07604166666666666,0.09814814814814815],[0.08020833333333334,0.11296296296296296],[0.08229166666666667,0.12962962962962962],[0.084375,0.14074074074074075],[0.08541666666666667,0.14814814814814814],[0.08541666666666667,0.14814814814814814],[0.08541666666666667,0.14814814814814814],[0.08541666666666667,0.14814814814814814],[0.08541666666666667,0.14814814814814814],[0.08541666666666667,0.14814814814814814],[0.08541666666666667,0.14814814814814814],[0.08541666666666667,0.14814814814814814],[0.08541666666666667,0.14814814814814814],[0.08541666666666667,0.14814814814814814],[0.08541666666666667,0.14814814814814814],[0.08541666666666667,0.14814814814814814],[0.08541666666666667,0.14814814814814814],[0.08541666666666667,0.14814814814814814],[0.08541666666666667,0.14814814814814814],[0.08541666666666667,0.14814814814814814],[0.08541666666666667,0.14814814814814814],[0.08541666666666667,0.14814814814814814],[0.08541666666666667,0.14814814814814814],[0.08541666666666667,0.14814814814814814],[0.08541666666666667,0.14814814814814814],[0.08645833333333333,0.1537037037037037],[0.09583333333333334,0.17962962962962964],[0.11354166666666667,0.2222222222222222],[0.140625,0.29444444444444445],[0.17916666666666667,0.3907407407407407],[0.215625,0.48703703703703705],[0.24791666666666667,0.5851851851851851],[0.25833333333333336,0.6259259259259259],[0.2604166666666667,0.6351851851851852],[0.265625,0.6574074074074074],[0.26875,0.6703703703703704],[0.26875,0.674074074074074],[0.26875,0.674074074074074],[0.26875,0.674074074074074],[0.26875,0.674074074074074],[0.26875,0.674074074074074],[0.26875,0.674074074074074],[0.26875,0.674074074074074],[0.26875,0.674074074074074],[0.26875,0.674074074074074],[0.26875,0.674074074074074],[0.26875,0.674074074074074],[0.26875,0.674074074074074],[0.26875,0.674074074074074],[0.26875,0.674074074074074],[0.26875,0.674074074074074],[0.26875,0.674074074074074],[0.26875,0.674074074074074],[0.26875,0.674074074074074],[0.26875,0.674074074074074],[0.26875,0.674074074074074],[0.26875,0.674074074074074],[0.26875,0.674074074074074],[0.26875,0.6685185185185185],[0.26666666666666666,0.6592592592592592],[0.265625,0.6537037037037037],[0.2635416666666667,0.65],[0.2635416666666667,0.6462962962962963],[0.2635416666666667,0.6462962962962963],[0.2625,0.6444444444444445],[0.2625,0.6444444444444445],[0.2625,0.6444444444444445],[0.2625,0.6444444444444445],[0.2625,0.6444444444444445],[0.2625,0.6444444444444445],[0.2625,0.6444444444444445],[0.2625,0.6444444444444445],[0.2625,0.6444444444444445],[0.2625,0.6444444444444445],[0.2625,0.6444444444444445],[0.2625,0.6444444444444445],[0.2625,0.6444444444444445],[0.2625,0.6444444444444445],[0.2625,0.6444444444444445],[0.2625,0.6444444444444445],[0.2625,0.6444444444444445],[0.2625,0.6444444444444445],[0.2625,0.6444444444444445],[0.2625,0.6444444444444445],[0.25625,0.6444444444444445],[0.24375,0.6240740740740741],[0.23125,0.6037037037037037],[0.215625,0.5740740740740741],[0.203125,0.5351851851851852],[0.19166666666666668,0.48333333333333334],[0.18541666666666667,0.43148148148148147],[0.18229166666666666,0.387037037037037],[0.178125,0.3333333333333333],[0.175,0.30185185185185187],[0.175,0.28703703703703703],[0.17291666666666666,0.2537037037037037],[0.16979166666666667,0.2351851851851852],[0.16979166666666667,0.22962962962962963],[0.16979166666666667,0.22777777777777777],[0.16979166666666667,0.22777777777777777],[0.16979166666666667,0.22777777777777777],[0.16979166666666667,0.22777777777777777]]","[[-0.06791666666666671,0.31962962962962965],[-0.06791666666666671,0.31962962962962965],[-0.06166666666666672,0.3501851851851852],[-0.05239583333333329,0.36055555555555563],[-0.03885416666666662,0.39222222222222214],[-0.04135416666666671,0.3968518518518518],[-0.03822916666666672,0.4131481481481482],[-0.03822916666666672,0.4131481481481482],[-0.04562499999999995,0.3768518518518518],[-0.04562499999999995,0.3768518518518518],[-0.020624999999999952,0.31870370370370377],[-0.020624999999999952,0.31870370370370377],[0.005416666666666714,0.24666666666666676],[0.03302083333333338,0.20333333333333325],[0.06437499999999995,0.13870370370370366],[0.09260416666666677,0.06092592592592588],[0.09510416666666661,0.04611111111111107],[0.09156250000000009,-0.032037037037036954],[0.09645833333333324,-0.07888888888888893],[0.09645833333333324,-0.07888888888888893],[0.0709374999999999,-0.11555555555555551],[0.03427083333333331,-0.11370370370370367],[-0.01260416666666669,-0.09277777777777782],[-0.059062500000000046,-0.053148148148148125],[-0.07875000000000003,-0.01518518518518527],[-0.10822916666666664,0.022222222222222223],[-0.10822916666666664,0.022222222222222223],[-0.134375,0.06703703703703712],[-0.16875,0.06222222222222226],[-0.2172916666666667,0.0868518518518518],[-0.2546875,0.06407407407407412],[-0.29093749999999996,0.07074074074074083],[-0.32052083333333337,0.08333333333333333],[-0.3217708333333333,0.08129629629629626],[-0.3246875000000001,0.08499999999999996],[-0.35052083333333334,0.0742592592592593],[-0.3679166666666667,0.09814814814814815],[-0.4214583333333334,0.07555555555555547],[-0.40270833333333333,0.040740740740740744],[-0.39166666666666666,-0.010740740740740657],[-0.36822916666666666,0.03722222222222227],[-0.37479166666666663,-0.005185185185185101],[-0.3549999999999999,-0.021851851851851768],[-0.3549999999999999,-0.021851851851851768],[-0.37166666666666665,-0.0301851851851851],[-0.3603125,-0.03518518518518519],[-0.3734375,-0.04888888888888885],[-0.3719791666666667,-0.08314814814814811],[-0.3719791666666667,-0.08314814814814811],[-0.33927083333333335,-0.08611111111111111],[-0.33927083333333335,-0.08611111111111111],[-0.3759375,-0.08499999999999996],[-0.3759375,-0.08499999999999996],[-0.36354166666666665,-0.032037037037036954],[-0.36354166666666665,-0.032037037037036954],[-0.36614583333333334,-0.0448148148148149],[-0.36614583333333334,-0.0448148148148149],[-0.30874999999999997,-0.0544444444444444],[-0.30874999999999997,-0.0544444444444444],[-0.28187500000000004,-0.06425925925925924],[-0.22364583333333338,-0.10870370370370368],[-0.19322916666666667,-0.167037037037037],[-0.1382291666666667,-0.2322222222222222],[-0.10020833333333339,-0.28962962962962957],[-0.05479166666666669,-0.3472222222222222],[0.02958333333333331,-0.37833333333333335],[0.07239583333333334,-0.4444444444444444],[0.11416666666666657,-0.5007407407407407],[0.15208333333333332,-0.5316666666666667],[0.21770833333333334,-0.5574074074074075],[0.2601041666666667,-0.5422222222222223],[0.30531249999999993,-0.5125925925925926],[0.35041666666666677,-0.4674074074074074],[0.35041666666666677,-0.4674074074074074],[0.40572916666666664,-0.43499999999999994],[0.43770833333333337,-0.44592592592592595],[0.4836458333333333,-0.4564814814814815],[0.4836458333333333,-0.4564814814814815],[0.5454166666666665,-0.4551851851851852],[0.5808333333333332,-0.44611111111111107],[0.6325000000000001,-0.44351851851851853],[0.6160416666666667,-0.41574074074074074],[0.5995833333333332,-0.38796296296296295],[0.5803124999999999,-0.37462962962962965],[0.5027083333333332,-0.32629629629629625],[0.5027083333333332,-0.32629629629629625],[0.4148958333333333,-0.2651851851851852],[0.4148958333333333,-0.2651851851851852],[0.34500000000000003,-0.15462962962962962],[0.23968749999999991,-0.09685185185185187],[0.13468749999999996,-0.03851851851851843],[0.08239583333333324,0.17092592592592584],[0.013854166666666619,0.38685185185185184],[0.034895833333333334,0.6198148148148149],[-0.007187499999999976,0.6429629629629631],[-0.05354166666666664,0.6685185185185185],[-0.041562499999999974,0.659074074074074],[-0.041562499999999974,0.659074074074074],[-0.028854166666666715,0.6112962962962963],[-0.05343749999999995,0.6129629629629629],[-0.0359375,0.6792592592592592],[-0.0359375,0.6792592592592592],[-0.030520833333333285,0.6979629629629629],[-0.030520833333333285,0.6979629629629629],[-0.07729166666666672,0.5548148148148149],[-0.11385416666666662,0.4170370370370371],[-0.21385416666666662,0.22185185185185177],[-0.25281250000000005,0.23555555555555563],[-0.26979166666666665,0.23296296296296287],[-0.26979166666666665,0.23296296296296287],[-0.2867708333333333,0.23037037037037034],[-0.25895833333333335,0.24833333333333338],[-0.21447916666666664,0.20962962962962972],[-0.19666666666666663,0.13907407407407413],[-0.16177083333333328,0.1337037037037038],[-0.10218750000000003,0.11444444444444436],[-0.049791666666666616,0.10129629629629638],[0.008229166666666643,0.0837037037037038],[0.06833333333333323,0.06703703703703712],[0.11083333333333342,0.07925925925925917],[0.16010416666666671,0.09666666666666675],[0.16010416666666671,0.09666666666666675],[0.17145833333333324,0.13185185185185194],[0.1853125000000001,0.14444444444444443],[0.19979166666666662,0.1579629629629629],[0.20989583333333334,0.1527777777777778],[0.21364583333333323,0.16833333333333328],[0.21364583333333323,0.16833333333333328],[0.22239583333333332,0.14574074074074084],[0.22239583333333332,0.14574074074074084],[0.19895833333333332,0.11925925925925922],[0.19656250000000006,0.08648148148148156],[0.19656250000000006,0.08648148148148156],[0.19145833333333329,0.04666666666666675],[0.1892708333333334,0.027222222222222307],[0.17177083333333343,-0.00851851851851856],[0.1727083333333333,-0.03685185185185181],[0.1538541666666667,-0.03518518518518519],[0.15270833333333325,-0.03314814814814811],[0.14874999999999997,-0.03925925925925934],[0.14489583333333325,0.012592592592592508],[0.1859375,0.04981481481481477],[0.20593750000000005,0.0933333333333333],[0.20593750000000005,0.0933333333333333],[0.2639583333333334,0.07333333333333338],[0.28781249999999997,0.03944444444444436],[0.3193749999999999,0.021851851851851768],[0.35906250000000006,0.0022222222222223064],[0.4179166666666667,-0.048333333333333374],[0.46427083333333335,-0.0787037037037037],[0.4946875000000001,-0.13851851851851854],[0.5329166666666666,-0.17592592592592593],[0.5666666666666667,-0.2192592592592592],[0.604375,-0.23722222222222225],[0.6069791666666667,-0.1985185185185185],[0.6340625000000001,-0.1714814814814815],[0.6469791666666665,-0.1374074074074074],[0.6487499999999999,-0.09296296296296294],[0.6457291666666668,-0.04685185185185177],[0.6367708333333333,-0.01444444444444436],[0.6594791666666666,0.051111111111111156],[0.6551041666666667,0.069074074074074],[0.6428124999999999,0.11018518518518519],[0.6421875,0.12092592592592584],[0.6412499999999999,0.13055555555555556],[0.6353125000000001,0.12388888888888884],[0.6435416666666666,0.11018518518518519],[0.6375,0.11037037037037041],[0.6375,0.11037037037037041],[0.6483333333333334,0.10555555555555556],[0.6483333333333334,0.10555555555555556],[0.6433333333333332,0.09722222222222222],[0.6433333333333332,0.09722222222222222],[0.6226041666666667,0.10851851851851856],[0.6215625,0.11592592592592597],[0.6215625,0.11592592592592597],[0.6119791666666666,0.12759259259259256],[0.6119791666666666,0.12759259259259256],[0.5890625,0.1492592592592593],[0.5890625,0.1492592592592593],[0.5695833333333333,0.1737037037037036],[0.5695833333333333,0.1737037037037036],[0.5513541666666666,0.19314814814814807],[0.5359375,0.22666666666666663],[0.5032291666666666,0.2625925925925925],[0.46239583333333345,0.30185185185185187],[0.4375,0.3388888888888889],[0.4132291666666667,0.3538888888888889],[0.38041666666666674,0.36666666666666664],[0.3601041666666667,0.375],[0.3375,0.37833333333333324],[0.30572916666666666,0.3801851851851851],[0.30572916666666666,0.3801851851851851],[0.2777083333333332,0.40333333333333327],[0.26062500000000005,0.4196296296296297],[0.2626041666666666,0.4264814814814814],[0.26062500000000005,0.43333333333333335],[0.26749999999999996,0.4420370370370371],[0.27458333333333323,0.4579629629629629],[0.25447916666666665,0.4800000000000001],[0.23083333333333325,0.4988888888888888],[0.196875,0.49314814814814806],[0.196875,0.49314814814814806],[0.16864583333333344,0.4861111111111111],[0.14395833333333338,0.45981481481481473],[0.14395833333333338,0.45981481481481473],[0.10552083333333329,0.4262962962962964],[0.06395833333333331,0.4131481481481482],[0.06395833333333331,0.4131481481481482],[0.03687499999999998,0.38055555555555554],[-0.0032291666666666905,0.3431481481481481],[-0.035104166666666714,0.31666666666666665],[-0.03979166666666671,0.28407407407407403],[-0.049374999999999974,0.25333333333333324],[-0.04864583333333338,0.24722222222222223],[-0.03729166666666662,0.21851851851851853],[-0.02947916666666662,0.20907407407407402],[0.0014583333333333095,0.23759259259259252],[0.046875,0.24370370370370376],[0.07614583333333323,0.2796296296296296],[0.11427083333333338,0.3146296296296296],[0.13864583333333325,0.3292592592592592],[0.16302083333333334,0.34388888888888897],[0.16302083333333334,0.34388888888888897],[0.1896874999999999,0.3701851851851851],[0.21843750000000003,0.4014814814814814],[0.2365624999999999,0.4553703703703703],[0.2546875,0.5092592592592593],[0.26593749999999994,0.5151851851851853],[0.2771874999999999,0.5211111111111111],[0.27979166666666655,0.5174074074074073],[0.2777083333333332,0.5175925925925926],[0.2929166666666667,0.5268518518518519],[0.3081249999999999,0.5361111111111111],[0.2912499999999999,0.4964814814814815],[0.2671875,0.46037037037037043],[0.2431250000000001,0.4242592592592593],[0.2497916666666666,0.36203703703703705],[0.2091666666666666,0.32888888888888895],[0.17489583333333342,0.28462962962962973],[0.15093750000000009,0.23962962962962958],[0.1319791666666667,0.17814814814814822],[0.10322916666666657,0.12759259259259256],[0.07177083333333342,0.04018518518518527],[0.07333333333333343,-0.005740740740740783],[0.09895833333333333,-0.08629629629629634],[0.12458333333333324,-0.1668518518518519],[0.12458333333333324,-0.1668518518518519],[0.11052083333333323,-0.22925925925925927],[0.12052083333333338,-0.30777777777777776],[0.12416666666666672,-0.37518518518518523],[0.12781250000000005,-0.4425925925925926],[0.12281250000000009,-0.5014814814814815],[0.11052083333333323,-0.4824074074074074],[0.10260416666666666,-0.42666666666666664],[0.09635416666666667,-0.37703703703703706],[0.058333333333333334,-0.3188888888888889],[0.03093750000000005,-0.2727777777777778],[0.0125,-0.21870370370370373],[0.0125,-0.21870370370370373],[-0.0005208333333333333,-0.12759259259259256],[-0.0032291666666666905,-0.04018518518518527],[-0.011770833333333286,0.030740740740740784],[-0.005208333333333333,0.10018518518518522],[0.008645833333333287,0.08074074074074078],[0.019270833333333334,0.08907407407407411],[0.027499999999999976,0.11388888888888889],[0.050312499999999954,0.14388888888888898],[0.0625,0.18592592592592588],[0.059895833333333336,0.1794444444444444],[0.058854166666666666,0.13296296296296287],[0.04604166666666672,0.1346296296296297],[0.042499999999999954,0.10351851851851848],[0.034895833333333334,0.10018518518518522],[0.03999999999999997,0.0837037037037038],[0.04229166666666669,0.05537037037037033],[0.043333333333333356,0.036481481481481566],[0.041979166666666616,0.01574074074074074],[0.044479166666666715,0.004074074074074159],[0.06458333333333334,0.03740740740740749],[0.08489583333333334,0.10129629629629638],[0.10666666666666676,0.12074074074074083],[0.12697916666666675,0.175],[0.13760416666666658,0.19666666666666674],[0.13760416666666658,0.19666666666666674],[0.1287499999999999,0.27611111111111114],[0.0900000000000001,0.29296296296296304],[0.0609375,0.2935185185185185],[0.0609375,0.2935185185185185],[0.03250000000000005,0.30833333333333335],[0.03250000000000005,0.30833333333333335],[0.005937500000000048,0.30111111111111116],[0.005937500000000048,0.30111111111111116],[-0.051770833333333384,0.3431481481481481],[-0.051770833333333384,0.3431481481481481],[-0.11458333333333333,0.32629629629629636],[-0.11458333333333333,0.32629629629629636],[-0.1202083333333333,0.2716666666666668],[-0.1202083333333333,0.2716666666666668],[-0.1359375,0.22833333333333325],[-0.1359375,0.22833333333333325],[-0.1686458333333333,0.19592592592592584],[-0.20208333333333334,0.10722222222222218],[-0.20541666666666672,0.07185185185185176],[-0.20541666666666672,0.07185185185185176],[-0.15968749999999995,-0.016111111111111194],[-0.17177083333333332,-0.07888888888888893],[-0.17177083333333332,-0.07888888888888893],[-0.1248958333333333,-0.15],[-0.1248958333333333,-0.15],[-0.0609375,-0.2657407407407407],[-0.0609375,-0.2657407407407407],[-0.03145833333333338,-0.34592592592592597],[-0.05625,-0.3827777777777778],[-0.04083333333333338,-0.41629629629629633],[0.003854166666666714,-0.4207407407407407],[0.05604166666666662,-0.41351851851851856],[0.11541666666666663,-0.4546296296296296],[0.1196875000000001,-0.4527777777777778],[0.17260416666666673,-0.43944444444444447],[0.16083333333333344,-0.40481481481481485],[0.12635416666666663,-0.32629629629629625],[0.12447916666666667,-0.2705555555555556],[0.12447916666666667,-0.2705555555555556],[0.1196875000000001,-0.22037037037037038],[0.1196875000000001,-0.22037037037037038],[0.1212500000000001,-0.2175925925925926],[0.09427083333333333,-0.22685185185185186],[0.08010416666666677,-0.24000000000000005],[0.08583333333333343,-0.2270370370370371],[0.08270833333333343,-0.2331481481481481],[0.08270833333333343,-0.2331481481481481],[0.0890625,-0.2753703703703704],[0.11416666666666657,-0.31592592592592594],[0.17322916666666663,-0.4014814814814815],[0.215625,-0.4209259259259259],[0.2617708333333333,-0.49074074074074076],[0.2484375,-0.5011111111111112],[0.2484375,-0.5011111111111112],[0.2982291666666666,-0.5627777777777777],[0.30489583333333337,-0.5857407407407408],[0.29270833333333335,-0.5979629629629629],[0.28937499999999994,-0.5911111111111111],[0.29187500000000005,-0.5840740740740741],[0.2756249999999999,-0.5787037037037037],[0.24958333333333324,-0.5468518518518519],[0.24697916666666658,-0.5655555555555555],[0.240625,-0.5338888888888889],[0.2613541666666668,-0.542037037037037],[0.2613541666666668,-0.542037037037037],[0.2573958333333332,-0.5012962962962962],[0.24364583333333342,-0.5029629629629631],[0.2540625000000001,-0.49722222222222223],[0.26447916666666677,-0.49148148148148146],[0.2548958333333334,-0.4922222222222222],[0.2453125,-0.49296296296296294],[0.23395833333333324,-0.5185185185185185],[0.23395833333333324,-0.5185185185185185],[0.2115624999999999,-0.5585185185185185],[0.1814583333333334,-0.5875925925925927],[0.17572916666666671,-0.580925925925926],[0.12895833333333329,-0.553888888888889],[0.12625000000000006,-0.5187037037037038],[0.08989583333333329,-0.5042592592592593],[0.06739583333333338,-0.4842592592592593],[0.06979166666666667,-0.4557407407407408],[0.06375000000000004,-0.42962962962962964],[0.06375000000000004,-0.42962962962962964],[0.07427083333333329,-0.41574074074074074],[0.10416666666666667,-0.41148148148148145],[0.10416666666666667,-0.41148148148148145],[0.14177083333333323,-0.41814814814814816],[0.14177083333333323,-0.41814814814814816]]","[[-0.06791666666666671,0.31962962962962965,0.00029999971389571556],[-0.06791666666666671,0.31962962962962965,0.04979999971389759],[-0.06166666666666672,0.3501851851851852,0.058099999904627],[-0.05239583333333329,0.36055555555555563,0.07440000009536618],[-0.03885416666666662,0.39222222222222214,0.0912999997138968],[-0.04135416666666671,0.3968518518518518,0.10990000009536516],[-0.03822916666666672,0.4131481481481482,0.12429999971389094],[-0.03822916666666672,0.4131481481481482,0.14119999980925968],[-0.04562499999999995,0.3768518518518518,0.15779999971389458],[-0.04562499999999995,0.3768518518518518,0.17459999990462904],[-0.020624999999999952,0.31870370370370377,0.19119999980926394],[-0.020624999999999952,0.31870370370370377,0.20779999971389174],[0.005416666666666714,0.24666666666666676,0.22449999999999903],[0.03302083333333338,0.20333333333333325,0.24440000009536078],[0.06437499999999995,0.13870370370370366,0.26109999990462995],[0.09260416666666677,0.06092592592592588,0.2794000000953645],[0.09510416666666661,0.04611111111111107,0.29490000009536743],[0.09156250000000009,-0.032037037037036954,0.3104000000953633],[0.09645833333333324,-0.07888888888888893,0.32669999980926434],[0.09645833333333324,-0.07888888888888893,0.3460999999046308],[0.0709374999999999,-0.11555555555555551,0.357999999999997],[0.03427083333333331,-0.11370370370370367,0.3745999999046319],[-0.01260416666666669,-0.09277777777777782,0.3919999999999959],[-0.059062500000000046,-0.053148148148148125,0.41290000009536243],[-0.07875000000000003,-0.01518518518518527,0.4274999999999949],[-0.10822916666666664,0.022222222222222223,0.4457999997138913],[-0.10822916666666664,0.022222222222222223,0.46959999990463075],[-0.134375,0.06703703703703712,0.47449999999999903],[-0.16875,0.06222222222222226,0.4912999997138954],[-0.2172916666666667,0.0868518518518518,0.507799999713896],[-0.2546875,0.06407407407407412,0.5264000000953644],[-0.29093749999999996,0.07074074074074083,0.5442999997138926],[-0.32052083333333337,0.08333333333333333,0.5594999999999999],[-0.3217708333333333,0.08129629629629626,0.5745999999046276],[-0.3246875000000001,0.08499999999999996,0.590999999999994],[-0.35052083333333334,0.0742592592592593,0.6076999998092631],[-0.3679166666666667,0.09814814814814815,0.6242999997138909],[-0.4214583333333334,0.07555555555555547,0.6410999999046325],[-0.40270833333333333,0.040740740740740744,0.6576999998092603],[-0.39166666666666666,-0.010740740740740657,0.6744999999999948],[-0.36822916666666666,0.03722222222222227,0.6909999999999954],[-0.37479166666666663,-0.005185185185185101,0.7076999998092646],[-0.3549999999999999,-0.021851851851851768,0.7244000000953648],[-0.3549999999999999,-0.021851851851851768,0.7441999998092612],[-0.37166666666666665,-0.0301851851851851,0.7579000000953613],[-0.3603125,-0.03518518518518519,0.7744999999999962],[-0.3734375,-0.04888888888888885,0.7930999999046264],[-0.3719791666666667,-0.08314814814814811,0.8076999998092589],[-0.3719791666666667,-0.08314814814814811,0.8244000000953662],[-0.33927083333333335,-0.08611111111111111,0.8411999998092625],[-0.33927083333333335,-0.08611111111111111,0.8577999997138974],[-0.3759375,-0.08499999999999996,0.8744000000953633],[-0.3759375,-0.08499999999999996,0.8910999999046325],[-0.36354166666666665,-0.032037037037036954,0.9077999997138946],[-0.36354166666666665,-0.032037037037036954,0.9244999999999948],[-0.36614583333333334,-0.0448148148148149,0.9410999999046297],[-0.36614583333333334,-0.0448148148148149,0.9577999997138917],[-0.30874999999999997,-0.0544444444444444,0.9744000000953648],[-0.30874999999999997,-0.0544444444444444,0.9909999999999997],[-0.28187500000000004,-0.06425925925925924,1.0076999998092617],[-0.22364583333333338,-0.10870370370370368,1.0264999999999986],[-0.19322916666666667,-0.167037037037037,1.0449000000953674],[-0.1382291666666667,-0.2322222222222222,1.059900000095361],[-0.10020833333333339,-0.28962962962962957,1.0745999999046276],[-0.05479166666666669,-0.3472222222222222,1.090999999999994],[0.02958333333333331,-0.37833333333333335,1.1096999998092585],[0.07239583333333334,-0.4444444444444444,1.124299999713891],[0.11416666666666657,-0.5007407407407407,1.1419000000953616],[0.15208333333333332,-0.5316666666666667,1.1576999998092603],[0.21770833333333334,-0.5574074074074075,1.1744000000953605],[0.2601041666666667,-0.5422222222222223,1.1929000000953636],[0.30531249999999993,-0.5125925925925926,1.2087999997138965],[0.35041666666666677,-0.4674074074074074,1.2245999999046262],[0.35041666666666677,-0.4674074074074074,1.2439999999999998],[0.40572916666666664,-0.43499999999999994,1.2576999998092617],[0.43770833333333337,-0.44592592592592595,1.274799999713892],[0.4836458333333333,-0.4564814814814815,1.2911999998092583],[0.4836458333333333,-0.4564814814814815,1.3076999998092589],[0.5454166666666665,-0.4551851851851852,1.3244000000953662],[0.5808333333333332,-0.44611111111111107,1.3427999997138969],[0.6325000000000001,-0.44351851851851853,1.3584999999999994],[0.6160416666666667,-0.41574074074074074,1.3751999998092614],[0.5995833333333332,-0.38796296296296295,1.391299999713894],[0.5803124999999999,-0.37462962962962965,1.4102999997138923],[0.5027083333333332,-0.32629629629629625,1.426400000095363],[0.5027083333333332,-0.32629629629629625,1.4414000000953635],[0.4148958333333333,-0.2651851851851852,1.4621999998092647],[0.4148958333333333,-0.2651851851851852,1.474499999999999],[0.34500000000000003,-0.15462962962962962,1.491199999809261],[0.23968749999999991,-0.09685185185185187,1.5107999997138961],[0.13468749999999996,-0.03851851851851843,1.5286999998092625],[0.08239583333333324,0.17092592592592584,1.5449999999999946],[0.013854166666666619,0.38685185185185184,1.5619000000953633],[0.034895833333333334,0.6198148148148149,1.5794000000953616],[-0.007187499999999976,0.6429629629629631,1.5949999999999989],[-0.05354166666666664,0.6685185185185185,1.6099999999999994],[-0.041562499999999974,0.659074074074074,1.626099999904632],[-0.041562499999999974,0.659074074074074,1.6467999997138918],[-0.028854166666666715,0.6112962962962963,1.6576999998092603],[-0.05343749999999995,0.6129629629629629,1.6742999997138952],[-0.0359375,0.6792592592592592,1.6982999997138961],[-0.0359375,0.6792592592592592,1.7076999998092646],[-0.030520833333333285,0.6979629629629629,1.7244000000953648],[-0.030520833333333285,0.6979629629629629,1.7410999999046268],[-0.07729166666666672,0.5548148148148149,1.7576999998092617],[-0.11385416666666662,0.4170370370370371,1.774400000095362],[-0.21385416666666662,0.22185185185185177,1.792900000095365],[-0.25281250000000005,0.23555555555555563,1.8105999999046318],[-0.26979166666666665,0.23296296296296287,1.8260999999046277],[-0.26979166666666665,0.23296296296296287,1.8410999999046282],[-0.2867708333333333,0.23037037037037034,1.8576999998092631],[-0.25895833333333335,0.24833333333333338,1.8764000000953658],[-0.21447916666666664,0.20962962962962972,1.8909999999999982],[-0.19666666666666663,0.13907407407407413,1.9076999998092603],[-0.16177083333333328,0.1337037037037038,1.926799999713893],[-0.10218750000000003,0.11444444444444436,1.9439000000953612],[-0.049791666666666616,0.10129629629629638,1.9584000000953665],[0.008229166666666643,0.0837037037037038,1.9750999999046286],[0.06833333333333323,0.06703703703703712,1.9930999999046293],[0.11083333333333342,0.07925925925925917,2.0094999999999956],[0.16010416666666671,0.09666666666666675,2.0245999999046305],[0.16010416666666671,0.09666666666666675,2.041099999904631],[0.17145833333333324,0.13185185185185194,2.057699999809259],[0.1853125000000001,0.14444444444444443,2.0771999998092596],[0.19979166666666662,0.1579629629629629,2.094699999809265],[0.20989583333333334,0.1527777777777778,2.111400000095365],[0.21364583333333323,0.16833333333333328,2.127900000095366],[0.21364583333333323,0.16833333333333328,2.1414999999999935],[0.22239583333333332,0.14574074074074084,2.1576999998092603],[0.22239583333333332,0.14574074074074084,2.1744000000953605],[0.19895833333333332,0.11925925925925922,2.1910999999046297],[0.19656250000000006,0.08648148148148156,2.2121999998092647],[0.19656250000000006,0.08648148148148156,2.2244000000953648],[0.19145833333333329,0.04666666666666675,2.241199999809261],[0.1892708333333334,0.027222222222222307,2.2579000000953613],[0.17177083333333343,-0.00851851851851856,2.2746999998092647],[0.1727083333333333,-0.03685185185185181,2.294400000095365],[0.1538541666666667,-0.03518518518518519,2.3115999999046295],[0.15270833333333325,-0.03314814814814811,2.3284999999999982],[0.14874999999999997,-0.03925925925925934,2.3459000000953623],[0.14489583333333325,0.012592592592592508,2.360999999999997],[0.1859375,0.04981481481481477,2.376400000095366],[0.20593750000000005,0.0933333333333333,2.3924999999999983],[0.20593750000000005,0.0933333333333333,2.4076999998092603],[0.2639583333333334,0.07333333333333338,2.4244000000953605],[0.28781249999999997,0.03944444444444436,2.4414000000953635],[0.3193749999999999,0.021851851851851768,2.460499999999996],[0.35906250000000006,0.0022222222222223064,2.476400000095367],[0.4179166666666667,-0.048333333333333374,2.4909999999999997],[0.46427083333333335,-0.0787037037037037,2.5075999999046275],[0.4946875000000001,-0.13851851851851854,2.5242999997138966],[0.5329166666666666,-0.17592592592592593,2.5420999999046288],[0.5666666666666667,-0.2192592592592592,2.562199999809259],[0.604375,-0.23722222222222225,2.5775999999046277],[0.6069791666666667,-0.1985185185185185,2.5914999999999964],[0.6340625000000001,-0.1714814814814815,2.607699999809263],[0.6469791666666665,-0.1374074074074074,2.624299999713891],[0.6487499999999999,-0.09296296296296294,2.641299999713894],[0.6457291666666668,-0.04685185185185177,2.659400000095367],[0.6367708333333333,-0.01444444444444436,2.6744000000953605],[0.6594791666666666,0.051111111111111156,2.6909999999999954],[0.6551041666666667,0.069074074074074,2.70969999980926],[0.6428124999999999,0.11018518518518519,2.727099999904631],[0.6421875,0.12092592592592584,2.7457999997138955],[0.6412499999999999,0.13055555555555556,2.76259999990463],[0.6353125000000001,0.12388888888888884,2.778499999999994],[0.6435416666666666,0.11018518518518519,2.7941999998092584],[0.6375,0.11037037037037041,2.8095],[0.6375,0.11037037037037041,2.824400000095366],[0.6483333333333334,0.10555555555555556,2.8410999999046282],[0.6483333333333334,0.10555555555555556,2.857999999999997],[0.6433333333333332,0.09722222222222222,2.8744000000953633],[0.6433333333333332,0.09722222222222222,2.8910999999046325],[0.6226041666666667,0.10851851851851856,2.9076999998092603],[0.6215625,0.11592592592592597,2.929799999713893],[0.6215625,0.11592592592592597,2.9410999999046297],[0.6119791666666666,0.12759259259259256,2.9577999997138917],[0.6119791666666666,0.12759259259259256,2.9744000000953648],[0.5890625,0.1492592592592593,2.9909999999999997],[0.5890625,0.1492592592592593,3.007799999713896],[0.5695833333333333,0.1737037037037036,3.0242999997138966],[0.5695833333333333,0.1737037037037036,3.041099999904631],[0.5513541666666666,0.19314814814814807,3.057799999713893],[0.5359375,0.22666666666666663,3.0774000000953663],[0.5032291666666666,0.2625925925925925,3.0936999998092602],[0.46239583333333345,0.30185185185185187,3.1100999999046266],[0.4375,0.3388888888888889,3.124699999809259],[0.4132291666666667,0.3538888888888889,3.1439999999999984],[0.38041666666666674,0.36666666666666664,3.1576999998092603],[0.3601041666666667,0.375,3.1762999997138976],[0.3375,0.37833333333333324,3.194199999809264],[0.30572916666666666,0.3801851851851851,3.2090999999046304],[0.30572916666666666,0.3801851851851851,3.2244000000953648],[0.2777083333333332,0.40333333333333327,3.241199999809261],[0.26062500000000005,0.4196296296296297,3.2582999997138913],[0.2626041666666666,0.4264814814814814,3.2742999997138966],[0.26062500000000005,0.43333333333333335,3.290999999999997],[0.26749999999999996,0.4420370370370371,3.307699999809259],[0.27458333333333323,0.4579629629629629,3.32659999990463],[0.25447916666666665,0.4800000000000001,3.3426999998092626],[0.23083333333333325,0.4988888888888888,3.3582999997138927],[0.196875,0.49314814814814806,3.374299999713891],[0.196875,0.49314814814814806,3.3909999999999982],[0.16864583333333344,0.4861111111111111,3.4076999998092603],[0.14395833333333338,0.45981481481481473,3.4244000000953605],[0.14395833333333338,0.45981481481481473,3.441199999809264],[0.10552083333333329,0.4262962962962964,3.4576999998092646],[0.06395833333333331,0.4131481481481482,3.4742999997138924],[0.06395833333333331,0.4131481481481482,3.4909999999999997],[0.03687499999999998,0.38055555555555554,3.507799999713896],[-0.0032291666666666905,0.3431481481481481,3.524400000095362],[-0.035104166666666714,0.31666666666666665,3.5454000000953627],[-0.03979166666666671,0.28407407407407403,3.561],[-0.049374999999999974,0.25333333333333324,3.5749000000953615],[-0.04864583333333338,0.24722222222222223,3.5911999998092625],[-0.03729166666666662,0.21851851851851853,3.6077999997138974],[-0.02947916666666662,0.20907407407407402,3.624299999713891],[0.0014583333333333095,0.23759259259259252,3.6434000000953617],[0.046875,0.24370370370370376,3.6606999998092604],[0.07614583333333323,0.2796296296296296,3.6757999997138953],[0.11427083333333338,0.3146296296296296,3.692699999809264],[0.13864583333333325,0.3292592592592592,3.7076999998092646],[0.16302083333333334,0.34388888888888897,3.7249999999999943],[0.16302083333333334,0.34388888888888897,3.7431999998092635],[0.1896874999999999,0.3701851851851851,3.7575999999046275],[0.21843750000000003,0.4014814814814814,3.7742999997138966],[0.2365624999999999,0.4553703703703703,3.790999999999997],[0.2546875,0.5092592592592593,3.807699999809259],[0.26593749999999994,0.5151851851851853,3.824299999713894],[0.2771874999999999,0.5211111111111111,3.8411999998092625],[0.27979166666666655,0.5174074074074073,3.857699999809263],[0.2777083333333332,0.5175925925925926,3.874299999713891],[0.2929166666666667,0.5268518518518519,3.8909999999999982],[0.3081249999999999,0.5361111111111111,3.9107999997138947],[0.2912499999999999,0.4964814814814815,3.9284000000953654],[0.2671875,0.46037037037037043,3.943400000095366],[0.2431250000000001,0.4242592592592593,3.957900000095364],[0.2497916666666666,0.36203703703703705,3.9775999999046263],[0.2091666666666666,0.32888888888888895,3.9942999997138955],[0.17489583333333342,0.28462962962962973,4.0075999999046275],[0.15093750000000009,0.23962962962962958,4.024299999713897],[0.1319791666666667,0.17814814814814822,4.041099999904631],[0.10322916666666657,0.12759259259259256,4.057699999809259],[0.07177083333333342,0.04018518518518527,4.074400000095366],[0.07333333333333343,-0.005740740740740783,4.091400000095362],[0.09895833333333333,-0.08629629629629634,4.107599999904629],[0.12458333333333324,-0.1668518518518519,4.124299999713891],[0.12458333333333324,-0.1668518518518519,4.1410999999046325],[0.11052083333333323,-0.22925925925925927,4.15769999980926],[0.12052083333333338,-0.30777777777777776,4.174499999999995],[0.12416666666666672,-0.37518518518518523,4.192199999809262],[0.12781250000000005,-0.4425925925925926,4.210499999999996],[0.12281250000000009,-0.5014814814814815,4.228499999999997],[0.11052083333333323,-0.4824074074074074,4.242599999904627],[0.10260416666666666,-0.42666666666666664,4.257699999809262],[0.09635416666666667,-0.37703703703703706,4.274299999713897],[0.058333333333333334,-0.3188888888888889,4.292299999713897],[0.03093750000000005,-0.2727777777777778,4.307699999809259],[0.0125,-0.21870370370370373,4.328199999809264],[0.0125,-0.21870370370370373,4.343299999713892],[-0.0005208333333333333,-0.12759259259259256,4.358099999904631],[-0.0032291666666666905,-0.04018518518518527,4.376400000095366],[-0.011770833333333286,0.030740740740740784,4.3910999999046325],[-0.005208333333333333,0.10018518518518522,4.407999999999994],[0.008645833333333287,0.08074074074074078,4.426499999999997],[0.019270833333333334,0.08907407407407411,4.441999999999993],[0.027499999999999976,0.11388888888888889,4.457799999713892],[0.050312499999999954,0.14388888888888898,4.474499999999999],[0.0625,0.18592592592592588,4.4939000000953655],[0.059895833333333336,0.1794444444444444,4.509900000095364],[0.058854166666666666,0.13296296296296287,4.524799999713892],[0.04604166666666672,0.1346296296296297,4.543799999713897],[0.042499999999999954,0.10351851851851848,4.557799999713893],[0.034895833333333334,0.10018518518518522,4.574499999999993],[0.03999999999999997,0.0837037037037038,4.5911999998092625],[0.04229166666666669,0.05537037037037033,4.610299999713895],[0.043333333333333356,0.036481481481481566,4.624400000095363],[0.041979166666666616,0.01574074074074074,4.640999999999998],[0.044479166666666715,0.004074074074074159,4.657599999904626],[0.06458333333333334,0.03740740740740749,4.6744000000953605],[0.08489583333333334,0.10129629629629638,4.691299999713891],[0.10666666666666676,0.12074074074074083,4.707699999809265],[0.12697916666666675,0.175,4.724599999904626],[0.13760416666666658,0.19666666666666674,4.742400000095365],[0.13760416666666658,0.19666666666666674,4.758400000095364],[0.1287499999999999,0.27611111111111114,4.774400000095362],[0.0900000000000001,0.29296296296296304,4.791400000095365],[0.0609375,0.2935185185185185,4.807599999904632],[0.0609375,0.2935185185185185,4.824299999713894],[0.03250000000000005,0.30833333333333335,4.8411999998092625],[0.03250000000000005,0.30833333333333335,4.857699999809263],[0.005937500000000048,0.30111111111111116,4.874299999713891],[0.005937500000000048,0.30111111111111116,4.890999999999998],[-0.051770833333333384,0.3431481481481481,4.907599999904626],[-0.051770833333333384,0.3431481481481481,4.924299999713895],[-0.11458333333333333,0.32629629629629636,4.94109999990463],[-0.11458333333333333,0.32629629629629636,4.962499999999999],[-0.1202083333333333,0.2716666666666668,4.975299999713897],[-0.1202083333333333,0.2716666666666668,4.991199999809261],[-0.1359375,0.22833333333333325,5.007999999999996],[-0.1359375,0.22833333333333325,5.028400000095367],[-0.1686458333333333,0.19592592592592584,5.041400000095365],[-0.20208333333333334,0.10722222222222218,5.061999999999998],[-0.20541666666666672,0.07185185185185176,5.082699999809265],[-0.20541666666666672,0.07185185185185176,5.0911999998092625],[-0.15968749999999995,-0.016111111111111194,5.107900000095363],[-0.17177083333333332,-0.07888888888888893,5.1266999998092615],[-0.17177083333333332,-0.07888888888888893,5.145199999809265],[-0.1248958333333333,-0.15,5.157799999713895],[-0.1248958333333333,-0.15,5.174499999999995],[-0.0609375,-0.2657407407407407,5.190999999999995],[-0.0609375,-0.2657407407407407,5.207699999809265],[-0.03145833333333338,-0.34592592592592597,5.224299999713892],[-0.05625,-0.3827777777777778,5.244999999999997],[-0.04083333333333338,-0.41629629629629633,5.261799999713894],[0.003854166666666714,-0.4207407407407407,5.277099999904628],[0.05604166666666662,-0.41351851851851856,5.293699999809263],[0.11541666666666663,-0.4546296296296296,5.308199999809261],[0.1196875000000001,-0.4527777777777778,5.326199999809262],[0.17260416666666673,-0.43944444444444447,5.3419000000953645],[0.16083333333333344,-0.40481481481481485,5.357699999809263],[0.12635416666666663,-0.32629629629629625,5.375199999809261],[0.12447916666666667,-0.2705555555555556,5.395299999713892],[0.12447916666666667,-0.2705555555555556,5.409900000095362],[0.1196875000000001,-0.22037037037037038,5.4244000000953605],[0.1196875000000001,-0.22037037037037038,5.440999999999995],[0.1212500000000001,-0.2175925925925926,5.457699999809265],[0.09427083333333333,-0.22685185185185186,5.474299999713892],[0.08010416666666677,-0.24000000000000005,5.490900000095365],[0.08583333333333343,-0.2270370370370371,5.509999999999998],[0.08270833333333343,-0.2331481481481481,5.524400000095362],[0.08270833333333343,-0.2331481481481481,5.541199999809258],[0.0890625,-0.2753703703703704,5.561099999904627],[0.11416666666666657,-0.31592592592592594,5.574599999904628],[0.17322916666666663,-0.4014814814814815,5.590999999999994],[0.215625,-0.4209259259259259,5.610499999999995],[0.2617708333333333,-0.49074074074074076,5.624199999809264],[0.2484375,-0.5011111111111112,5.655999999999999],[0.2484375,-0.5011111111111112,5.663400000095365],[0.2982291666666666,-0.5627777777777777,5.6744000000953605],[0.30489583333333337,-0.5857407407407408,5.690999999999995],[0.29270833333333335,-0.5979629629629629,5.709400000095364],[0.28937499999999994,-0.5911111111111111,5.724900000095367],[0.29187500000000005,-0.5840740740740741,5.744199999809261],[0.2756249999999999,-0.5787037037037037,5.7575999999046275],[0.24958333333333324,-0.5468518518518519,5.774499999999996],[0.24697916666666658,-0.5655555555555555,5.790999999999997],[0.240625,-0.5338888888888889,5.807699999809259],[0.2613541666666668,-0.542037037037037,5.824699999809262],[0.2613541666666668,-0.542037037037037,5.841099999904628],[0.2573958333333332,-0.5012962962962962,5.857699999809263],[0.24364583333333342,-0.5029629629629631,5.874299999713891],[0.2540625000000001,-0.49722222222222223,5.890999999999998],[0.26447916666666677,-0.49148148148148146,5.907599999904626],[0.2548958333333334,-0.4922222222222222,5.924299999713895],[0.2453125,-0.49296296296296294,5.944400000095364],[0.23395833333333324,-0.5185185185185185,5.958499999999994],[0.23395833333333324,-0.5185185185185185,5.974400000095365],[0.2115624999999999,-0.5585185185185185,5.991199999809261],[0.1814583333333334,-0.5875925925925927,6.009699999809264],[0.17572916666666671,-0.580925925925926,6.024400000095362],[0.12895833333333329,-0.553888888888889,6.041599999904626],[0.12625000000000006,-0.5187037037037038,6.0579000000953656],[0.08989583333333329,-0.5042592592592593,6.078299999713892],[0.06739583333333338,-0.4842592592592593,6.09369999980926],[0.06979166666666667,-0.4557407407407408,6.108199999809258],[0.06375000000000004,-0.42962962962962964,6.124599999904632],[0.06375000000000004,-0.42962962962962964,6.1440999999046255],[0.07427083333333329,-0.41574074074074074,6.157900000095367],[0.10416666666666667,-0.41148148148148145,6.177999999999997],[0.10416666666666667,-0.41148148148148145,6.190999999999995],[0.14177083333333323,-0.41814814814814816,6.207699999809265],[0.14177083333333323,-0.41814814814814816,6.224400000095365]]","[0.00029999971389571556,0.04979999971389759,0.058099999904627,0.07440000009536618,0.0912999997138968,0.10990000009536516,0.12429999971389094,0.14119999980925968,0.15779999971389458,0.17459999990462904,0.19119999980926394,0.20779999971389174,0.22449999999999903,0.24440000009536078,0.26109999990462995,0.2794000000953645,0.29490000009536743,0.3104000000953633,0.32669999980926434,0.3460999999046308,0.357999999999997,0.3745999999046319,0.3919999999999959,0.41290000009536243,0.4274999999999949,0.4457999997138913,0.46959999990463075,0.47449999999999903,0.4912999997138954,0.507799999713896,0.5264000000953644,0.5442999997138926,0.5594999999999999,0.5745999999046276,0.590999999999994,0.6076999998092631,0.6242999997138909,0.6410999999046325,0.6576999998092603,0.6744999999999948,0.6909999999999954,0.7076999998092646,0.7244000000953648,0.7441999998092612,0.7579000000953613,0.7744999999999962,0.7930999999046264,0.8076999998092589,0.8244000000953662,0.8411999998092625,0.8577999997138974,0.8744000000953633,0.8910999999046325,0.9077999997138946,0.9244999999999948,0.9410999999046297,0.9577999997138917,0.9744000000953648,0.9909999999999997,1.0076999998092617,1.0264999999999986,1.0449000000953674,1.059900000095361,1.0745999999046276,1.090999999999994,1.1096999998092585,1.124299999713891,1.1419000000953616,1.1576999998092603,1.1744000000953605,1.1929000000953636,1.2087999997138965,1.2245999999046262,1.2439999999999998,1.2576999998092617,1.274799999713892,1.2911999998092583,1.3076999998092589,1.3244000000953662,1.3427999997138969,1.3584999999999994,1.3751999998092614,1.391299999713894,1.4102999997138923,1.426400000095363,1.4414000000953635,1.4621999998092647,1.474499999999999,1.491199999809261,1.5107999997138961,1.5286999998092625,1.5449999999999946,1.5619000000953633,1.5794000000953616,1.5949999999999989,1.6099999999999994,1.626099999904632,1.6467999997138918,1.6576999998092603,1.6742999997138952,1.6982999997138961,1.7076999998092646,1.7244000000953648,1.7410999999046268,1.7576999998092617,1.774400000095362,1.792900000095365,1.8105999999046318,1.8260999999046277,1.8410999999046282,1.8576999998092631,1.8764000000953658,1.8909999999999982,1.9076999998092603,1.926799999713893,1.9439000000953612,1.9584000000953665,1.9750999999046286,1.9930999999046293,2.0094999999999956,2.0245999999046305,2.041099999904631,2.057699999809259,2.0771999998092596,2.094699999809265,2.111400000095365,2.127900000095366,2.1414999999999935,2.1576999998092603,2.1744000000953605,2.1910999999046297,2.2121999998092647,2.2244000000953648,2.241199999809261,2.2579000000953613,2.2746999998092647,2.294400000095365,2.3115999999046295,2.3284999999999982,2.3459000000953623,2.360999999999997,2.376400000095366,2.3924999999999983,2.4076999998092603,2.4244000000953605,2.4414000000953635,2.460499999999996,2.476400000095367,2.4909999999999997,2.5075999999046275,2.5242999997138966,2.5420999999046288,2.562199999809259,2.5775999999046277,2.5914999999999964,2.607699999809263,2.624299999713891,2.641299999713894,2.659400000095367,2.6744000000953605,2.6909999999999954,2.70969999980926,2.727099999904631,2.7457999997138955,2.76259999990463,2.778499999999994,2.7941999998092584,2.8095,2.824400000095366,2.8410999999046282,2.857999999999997,2.8744000000953633,2.8910999999046325,2.9076999998092603,2.929799999713893,2.9410999999046297,2.9577999997138917,2.9744000000953648,2.9909999999999997,3.007799999713896,3.0242999997138966,3.041099999904631,3.057799999713893,3.0774000000953663,3.0936999998092602,3.1100999999046266,3.124699999809259,3.1439999999999984,3.1576999998092603,3.1762999997138976,3.194199999809264,3.2090999999046304,3.2244000000953648,3.241199999809261,3.2582999997138913,3.2742999997138966,3.290999999999997,3.307699999809259,3.32659999990463,3.3426999998092626,3.3582999997138927,3.374299999713891,3.3909999999999982,3.4076999998092603,3.4244000000953605,3.441199999809264,3.4576999998092646,3.4742999997138924,3.4909999999999997,3.507799999713896,3.524400000095362,3.5454000000953627,3.561,3.5749000000953615,3.5911999998092625,3.6077999997138974,3.624299999713891,3.6434000000953617,3.6606999998092604,3.6757999997138953,3.692699999809264,3.7076999998092646,3.7249999999999943,3.7431999998092635,3.7575999999046275,3.7742999997138966,3.790999999999997,3.807699999809259,3.824299999713894,3.8411999998092625,3.857699999809263,3.874299999713891,3.8909999999999982,3.9107999997138947,3.9284000000953654,3.943400000095366,3.957900000095364,3.9775999999046263,3.9942999997138955,4.0075999999046275,4.024299999713897,4.041099999904631,4.057699999809259,4.074400000095366,4.091400000095362,4.107599999904629,4.124299999713891,4.1410999999046325,4.15769999980926,4.174499999999995,4.192199999809262,4.210499999999996,4.228499999999997,4.242599999904627,4.257699999809262,4.274299999713897,4.292299999713897,4.307699999809259,4.328199999809264,4.343299999713892,4.358099999904631,4.376400000095366,4.3910999999046325,4.407999999999994,4.426499999999997,4.441999999999993,4.457799999713892,4.474499999999999,4.4939000000953655,4.509900000095364,4.524799999713892,4.543799999713897,4.557799999713893,4.574499999999993,4.5911999998092625,4.610299999713895,4.624400000095363,4.640999999999998,4.657599999904626,4.6744000000953605,4.691299999713891,4.707699999809265,4.724599999904626,4.742400000095365,4.758400000095364,4.774400000095362,4.791400000095365,4.807599999904632,4.824299999713894,4.8411999998092625,4.857699999809263,4.874299999713891,4.890999999999998,4.907599999904626,4.924299999713895,4.94109999990463,4.962499999999999,4.975299999713897,4.991199999809261,5.007999999999996,5.028400000095367,5.041400000095365,5.061999999999998,5.082699999809265,5.0911999998092625,5.107900000095363,5.1266999998092615,5.145199999809265,5.157799999713895,5.174499999999995,5.190999999999995,5.207699999809265,5.224299999713892,5.244999999999997,5.261799999713894,5.277099999904628,5.293699999809263,5.308199999809261,5.326199999809262,5.3419000000953645,5.357699999809263,5.375199999809261,5.395299999713892,5.409900000095362,5.4244000000953605,5.440999999999995,5.457699999809265,5.474299999713892,5.490900000095365,5.509999999999998,5.524400000095362,5.541199999809258,5.561099999904627,5.574599999904628,5.590999999999994,5.610499999999995,5.624199999809264,5.655999999999999,5.663400000095365,5.6744000000953605,5.690999999999995,5.709400000095364,5.724900000095367,5.744199999809261,5.7575999999046275,5.774499999999996,5.790999999999997,5.807699999809259,5.824699999809262,5.841099999904628,5.857699999809263,5.874299999713891,5.890999999999998,5.907599999904626,5.924299999713895,5.944400000095364,5.958499999999994,5.974400000095365,5.991199999809261,6.009699999809264,6.024400000095362,6.041599999904626,6.0579000000953656,6.078299999713892,6.09369999980926,6.108199999809258,6.124599999904632,6.1440999999046255,6.157900000095367,6.177999999999997,6.190999999999995,6.207699999809265,6.224400000095365]","[1732071177188,1732071177228,1732071177236,1732071177252,1732071177269,1732071177288,1732071177302,1732071177319,1732071177336,1732071177352,1732071177369,1732071177386,1732071177402,1732071177422,1732071177439,1732071177457,1732071177473,1732071177488,1732071177504,1732071177524,1732071177536,1732071177552,1732071177570,1732071177591,1732071177605,1732071177624,1732071177647,1732071177652,1732071177669,1732071177686,1732071177704,1732071177722,1732071177737,1732071177752,1732071177769,1732071177786,1732071177802,1732071177819,1732071177836,1732071177852,1732071177869,1732071177886,1732071177902,1732071177922,1732071177936,1732071177952,1732071177971,1732071177986,1732071178002,1732071178019,1732071178036,1732071178052,1732071178069,1732071178086,1732071178102,1732071178119,1732071178136,1732071178152,1732071178169,1732071178186,1732071178204,1732071178223,1732071178238,1732071178252,1732071178269,1732071178287,1732071178302,1732071178320,1732071178335,1732071178352,1732071178371,1732071178387,1732071178402,1732071178422,1732071178436,1732071178453,1732071178469,1732071178486,1732071178502,1732071178521,1732071178536,1732071178553,1732071178569,1732071178588,1732071178604,1732071178619,1732071178640,1732071178652,1732071178669,1732071178689,1732071178707,1732071178723,1732071178740,1732071178757,1732071178773,1732071178788,1732071178804,1732071178825,1732071178836,1732071178852,1732071178876,1732071178886,1732071178902,1732071178919,1732071178936,1732071178952,1732071178971,1732071178988,1732071179004,1732071179019,1732071179036,1732071179054,1732071179069,1732071179086,1732071179105,1732071179122,1732071179136,1732071179153,1732071179171,1732071179187,1732071179202,1732071179219,1732071179236,1732071179255,1732071179272,1732071179289,1732071179306,1732071179319,1732071179336,1732071179352,1732071179369,1732071179390,1732071179402,1732071179419,1732071179436,1732071179453,1732071179472,1732071179489,1732071179506,1732071179524,1732071179539,1732071179554,1732071179570,1732071179585,1732071179602,1732071179619,1732071179638,1732071179654,1732071179669,1732071179685,1732071179702,1732071179720,1732071179740,1732071179755,1732071179769,1732071179786,1732071179802,1732071179819,1732071179837,1732071179852,1732071179869,1732071179887,1732071179905,1732071179924,1732071179940,1732071179956,1732071179972,1732071179987,1732071180002,1732071180019,1732071180036,1732071180052,1732071180069,1732071180086,1732071180108,1732071180119,1732071180136,1732071180152,1732071180169,1732071180186,1732071180202,1732071180219,1732071180236,1732071180255,1732071180272,1732071180288,1732071180303,1732071180322,1732071180336,1732071180354,1732071180372,1732071180387,1732071180402,1732071180419,1732071180436,1732071180452,1732071180469,1732071180486,1732071180504,1732071180521,1732071180536,1732071180552,1732071180569,1732071180586,1732071180602,1732071180619,1732071180636,1732071180652,1732071180669,1732071180686,1732071180702,1732071180723,1732071180739,1732071180753,1732071180769,1732071180786,1732071180802,1732071180821,1732071180839,1732071180854,1732071180871,1732071180885,1732071180903,1732071180921,1732071180935,1732071180952,1732071180969,1732071180986,1732071181002,1732071181019,1732071181035,1732071181052,1732071181069,1732071181089,1732071181106,1732071181121,1732071181136,1732071181155,1732071181172,1732071181185,1732071181202,1732071181219,1732071181235,1732071181252,1732071181269,1732071181285,1732071181302,1732071181319,1732071181335,1732071181352,1732071181370,1732071181388,1732071181406,1732071181420,1732071181435,1732071181452,1732071181470,1732071181485,1732071181506,1732071181521,1732071181536,1732071181554,1732071181569,1732071181586,1732071181604,1732071181620,1732071181636,1732071181652,1732071181672,1732071181688,1732071181703,1732071181722,1732071181736,1732071181752,1732071181769,1732071181788,1732071181802,1732071181819,1732071181835,1732071181852,1732071181869,1732071181885,1732071181902,1732071181920,1732071181936,1732071181952,1732071181969,1732071181985,1732071182002,1732071182019,1732071182036,1732071182052,1732071182069,1732071182085,1732071182102,1732071182119,1732071182140,1732071182153,1732071182169,1732071182186,1732071182206,1732071182219,1732071182240,1732071182261,1732071182269,1732071182286,1732071182305,1732071182323,1732071182336,1732071182352,1732071182369,1732071182386,1732071182402,1732071182423,1732071182440,1732071182455,1732071182472,1732071182486,1732071182504,1732071182520,1732071182536,1732071182553,1732071182573,1732071182588,1732071182602,1732071182619,1732071182635,1732071182652,1732071182669,1732071182688,1732071182702,1732071182719,1732071182739,1732071182752,1732071182769,1732071182788,1732071182802,1732071182834,1732071182841,1732071182852,1732071182869,1732071182887,1732071182903,1732071182922,1732071182935,1732071182952,1732071182969,1732071182985,1732071183003,1732071183019,1732071183036,1732071183052,1732071183069,1732071183085,1732071183102,1732071183122,1732071183136,1732071183152,1732071183169,1732071183187,1732071183202,1732071183219,1732071183236,1732071183256,1732071183272,1732071183286,1732071183302,1732071183322,1732071183336,1732071183356,1732071183369,1732071183386,1732071183402]","[[894.8,712.6],[894.8,712.6],[900.8,729.1],[909.7,734.7],[922.7,751.8],[920.3,754.3],[923.3,763.1],[923.3,763.1],[916.2,743.5],[916.2,743.5],[940.2,712.1],[940.2,712.1],[965.2,673.2],[991.7,649.8],[1021.8,614.9],[1048.9,572.9],[1051.3,564.9],[1047.9,522.7],[1052.6,497.4],[1052.6,497.4],[1028.1,477.6],[992.9,478.6],[947.9,489.9],[903.3,511.3],[884.4,531.8],[856.1,552],[856.1,552],[831,576.2],[798,573.6],[751.4,586.9],[715.5,574.6],[680.7,578.2],[652.3,585],[651.1,583.9],[648.3,585.9],[623.5,580.1],[606.8,593],[555.4,580.8],[573.4,562],[584,534.2],[606.5,560.1],[600.2,537.2],[619.2,528.2],[619.2,528.2],[603.2,523.7],[614.1,521],[601.5,513.6],[602.9,495.1],[602.9,495.1],[634.3,493.5],[634.3,493.5],[599.1,494.1],[599.1,494.1],[611,522.7],[611,522.7],[608.5,515.8],[608.5,515.8],[663.6,510.6],[663.6,510.6],[689.4,505.3],[745.3,481.3],[774.5,449.8],[827.3,414.6],[863.8,383.6],[907.4,352.5],[988.4,335.7],[1029.5,300],[1069.6,269.6],[1106,252.9],[1169,239],[1209.7,247.2],[1253.1,263.2],[1296.4,287.6],[1296.4,287.6],[1349.5,305.1],[1380.2,299.2],[1424.3,293.5],[1424.3,293.5],[1483.6,294.2],[1517.6,299.1],[1567.2,300.5],[1551.4,315.5],[1535.6,330.5],[1517.1,337.7],[1442.6,363.8],[1442.6,363.8],[1358.3,396.8],[1358.3,396.8],[1291.2,456.5],[1190.1,487.7],[1089.3,519.2],[1039.1,632.3],[973.3,748.9],[993.5,874.7],[953.1,887.2],[908.6,901],[920.1,895.9],[920.1,895.9],[932.3,870.1],[908.7,871],[925.5,906.8],[925.5,906.8],[930.7,916.9],[930.7,916.9],[885.8,839.6],[850.7,765.2],[754.7,659.8],[717.3,667.2],[701,665.8],[701,665.8],[684.7,664.4],[711.4,674.1],[754.1,653.2],[771.2,615.1],[804.7,612.2],[861.9,601.8],[912.2,594.7],[967.9,585.2],[1025.6,576.2],[1066.4,582.8],[1113.7,592.2],[1113.7,592.2],[1124.6,611.2],[1137.9,618],[1151.8,625.3],[1161.5,622.5],[1165.1,630.9],[1165.1,630.9],[1173.5,618.7],[1173.5,618.7],[1151,604.4],[1148.7,586.7],[1148.7,586.7],[1143.8,565.2],[1141.7,554.7],[1124.9,535.4],[1125.8,520.1],[1107.7,521],[1106.6,522.1],[1102.8,518.8],[1099.1,546.8],[1138.5,566.9],[1157.7,590.4],[1157.7,590.4],[1213.4,579.6],[1236.3,561.3],[1266.6,551.8],[1304.7,541.2],[1361.2,513.9],[1405.7,497.5],[1434.9,465.2],[1471.6,445],[1504,421.6],[1540.2,411.9],[1542.7,432.8],[1568.7,447.4],[1581.1,465.8],[1582.8,489.8],[1579.9,514.7],[1571.3,532.2],[1593.1,567.6],[1588.9,577.3],[1577.1,599.5],[1576.5,605.3],[1575.6,610.5],[1569.9,606.9],[1577.8,599.5],[1572,599.6],[1572,599.6],[1582.4,597],[1582.4,597],[1577.6,592.5],[1577.6,592.5],[1557.7,598.6],[1556.7,602.6],[1556.7,602.6],[1547.5,608.9],[1547.5,608.9],[1525.5,620.6],[1525.5,620.6],[1506.8,633.8],[1506.8,633.8],[1489.3,644.3],[1474.5,662.4],[1443.1,681.8],[1403.9,703],[1380,723],[1356.7,731.1],[1325.2,738],[1305.7,742.5],[1284,744.3],[1253.5,745.3],[1253.5,745.3],[1226.6,757.8],[1210.2,766.6],[1212.1,770.3],[1210.2,774],[1216.8,778.7],[1223.6,787.3],[1204.3,799.2],[1181.6,809.4],[1149,806.3],[1149,806.3],[1121.9,802.5],[1098.2,788.3],[1098.2,788.3],[1061.3,770.2],[1021.4,763.1],[1021.4,763.1],[995.4,745.5],[956.9,725.3],[926.3,711],[921.8,693.4],[912.6,676.8],[913.3,673.5],[924.2,658],[931.7,652.9],[961.4,668.3],[1005,671.6],[1033.1,691],[1069.7,709.9],[1093.1,717.8],[1116.5,725.7],[1116.5,725.7],[1142.1,739.9],[1169.7,756.8],[1187.1,785.9],[1204.5,815],[1215.3,818.2],[1226.1,821.4],[1228.6,819.4],[1226.6,819.5],[1241.2,824.5],[1255.8,829.5],[1239.6,808.1],[1216.5,788.6],[1193.4,769.1],[1199.8,735.5],[1160.8,717.6],[1127.9,693.7],[1104.9,669.4],[1086.7,636.2],[1059.1,608.9],[1028.9,561.7],[1030.4,536.9],[1055,493.4],[1079.6,449.9],[1079.6,449.9],[1066.1,416.2],[1075.7,373.8],[1079.2,337.4],[1082.7,301],[1077.9,269.2],[1066.1,279.5],[1058.5,309.6],[1052.5,336.4],[1016,367.8],[989.7,392.7],[972,421.9],[972,421.9],[959.5,471.1],[956.9,518.3],[948.7,556.6],[955,594.1],[968.3,583.6],[978.5,588.1],[986.4,601.5],[1008.3,617.7],[1020,640.4],[1017.5,636.9],[1016.5,611.8],[1004.2,612.7],[1000.8,595.9],[993.5,594.1],[998.4,585.2],[1000.6,569.9],[1001.6,559.7],[1000.3,548.5],[1002.7,542.2],[1022,560.2],[1041.5,594.7],[1062.4,605.2],[1081.9,634.5],[1092.1,646.2],[1092.1,646.2],[1083.6,689.1],[1046.4,698.2],[1018.5,698.5],[1018.5,698.5],[991.2,706.5],[991.2,706.5],[965.7,702.6],[965.7,702.6],[910.3,725.3],[910.3,725.3],[850,716.2],[850,716.2],[844.6,686.7],[844.6,686.7],[829.5,663.3],[829.5,663.3],[798.1,645.8],[766,597.9],[762.8,578.8],[762.8,578.8],[806.7,531.3],[795.1,497.4],[795.1,497.4],[840.1,459],[840.1,459],[901.5,396.5],[901.5,396.5],[929.8,353.2],[906,333.3],[920.8,315.2],[963.7,312.8],[1013.8,316.7],[1070.8,294.5],[1074.9,295.5],[1125.7,302.7],[1114.4,321.4],[1081.3,363.8],[1079.5,393.9],[1079.5,393.9],[1074.9,421],[1074.9,421],[1076.4,422.5],[1050.5,417.5],[1036.9,410.4],[1042.4,417.4],[1039.4,414.1],[1039.4,414.1],[1045.5,391.3],[1069.6,369.4],[1126.3,323.2],[1167,312.7],[1211.3,275],[1198.5,269.4],[1198.5,269.4],[1246.3,236.1],[1252.7,223.7],[1241,217.1],[1237.8,220.8],[1240.2,224.6],[1224.6,227.5],[1199.6,244.7],[1197.1,234.6],[1191,251.7],[1210.9,247.3],[1210.9,247.3],[1207.1,269.3],[1193.9,268.4],[1203.9,271.5],[1213.9,274.6],[1204.7,274.2],[1195.5,273.8],[1184.6,260],[1184.6,260],[1163.1,238.4],[1134.2,222.7],[1128.7,226.3],[1083.8,240.9],[1081.2,259.9],[1046.3,267.7],[1024.7,278.5],[1027,293.9],[1021.2,308],[1021.2,308],[1031.3,315.5],[1060,317.8],[1060,317.8],[1096.1,314.2],[1096.1,314.2]]","[-0.2,0.6000000000000001]","[0.2,0.6000000000000001]","[0.6000000000000001,0.6000000000000001]","[-0.6000000000000001,-0.6000000000000001]","[-0.6000000000000001,-0.2]","[-0.6000000000000001,0.2]","[-0.2,-0.6000000000000001]","[0.2,-0.6000000000000001]","[0.6000000000000001,-0.6000000000000001]","[-0.2,-0.2]","[0.2,-0.2]","[0.6000000000000001,-0.2]","[-0.2,0.2]","[0.2,0.2]","[0.6000000000000001,0.2]",0,0,0,0,1,4,Monitor,25,20,8,1,60,4,1,60,3
