inst1_resp.keys,inst1_resp.rt,calibrationMouse.x,calibrationMouse.y,calibrationMouse.leftButton,calibrationMouse.midButton,calibrationMouse.rightButton,calibrationClick.x,calibrationClick.y,calibrationClick.leftButton,calibrationClick.midButton,calibrationClick.rightButton,trialsc.thisRepN,trialsc.thisTrialN,trialsc.thisN,trialsc.thisIndex,trialsc.ran,calibration_x,calibration_y,participant,session,date,expName,psychopyVersion,OS,frameRate,calibrationClick.clicked_name,ScreenRes_pixels,mouse_2.x,mouse_2.y,mouse_2.leftButton,mouse_2.midButton,mouse_2.rightButton,mouse_2.time,mouse_2.clicked_name,Camera_pixels,mouse.x,mouse.y,mouse.leftButton,mouse.midButton,mouse.rightButton,mouse.time,mouse.clicked_name,Choice,Trial,TrialDuration,MOUSE_GAZE,ET_GAZE,ET_GAZE_x_T,time,unixTime,ET_GAZE_NF,Loc_Bus_label,Loc_Metro_label,Loc_RH_label,Loc_Cost_label,Loc_Travel_label,Loc_Comfort_label,Loc_Bus_cost,Loc_Metro_cost,Loc_RH_cost,Loc_Bus_travel,Loc_Metro_travel,Loc_RH_travel,Loc_Bus_comfort,Loc_Metro_comfort,Loc_RH_comfort,trials.thisRepN,trials.thisTrialN,trials.thisN,trials.thisIndex,trials.ran,Block,Device,RH_cost,RH_travel_time,RH_Comfort,metro_cost,metro_travel_time,metro_Comfort,Bus_cost,Bus_travel_time,Bus_Comfort
space,1.4667,0.079166667,-0.390740741,1,0,0,-0.002083333,-0.675925926,0,0,0,0,0,0,9,1,0,-0.67,27,001,2024-11-18_10h31.55.558,Attention_exp_legacy,2023.1.0,Win32,59.88023952,,,,,,,,,,,,,,,,,,,,,,,,,,,,,,,,,,,,,,,,,,,,,,,,,,,,,,,,,
,,,,,,,-0.321875,0.666666667,1,0,0,0,1,1,8,1,-0.33,0.67,27,001,2024-11-18_10h31.55.558,Attention_exp_legacy,2023.1.0,Win32,59.88023952,calibration_square,,,,,,,,,,,,,,,,,,,,,,,,,,,,,,,,,,,,,,,,,,,,,,,,,,,,,,,,
,,,,,,,-0.0125,0.012962963,1,0,0,0,2,2,11,1,0,0,27,001,2024-11-18_10h31.55.558,Attention_exp_legacy,2023.1.0,Win32,59.88023952,,,,,,,,,,,,,,,,,,,,,,,,,,,,,,,,,,,,,,,,,,,,,,,,,,,,,,,,,
,,,,,,,0.332291667,0.687037037,1,0,0,0,3,3,18,1,0.33,0.67,27,001,2024-11-18_10h31.55.558,Attention_exp_legacy,2023.1.0,Win32,59.88023952,,,,,,,,,,,,,,,,,,,,,,,,,,,,,,,,,,,,,,,,,,,,,,,,,,,,,,,,,
,,,,,,,-0.655208333,-0.687037037,1,0,0,0,4,4,0,1,-0.67,-0.67,27,001,2024-11-18_10h31.55.558,Attention_exp_legacy,2023.1.0,Win32,59.88023952,,,,,,,,,,,,,,,,,,,,,,,,,,,,,,,,,,,,,,,,,,,,,,,,,,,,,,,,,
,,,,,,,-0.003125,-0.307407407,1,0,0,0,5,5,10,1,0,-0.33,27,001,2024-11-18_10h31.55.558,Attention_exp_legacy,2023.1.0,Win32,59.88023952,,,,,,,,,,,,,,,,,,,,,,,,,,,,,,,,,,,,,,,,,,,,,,,,,,,,,,,,,
,,,,,,,-0.663541667,-0.014814815,1,0,0,0,6,6,2,1,-0.67,0,27,001,2024-11-18_10h31.55.558,Attention_exp_legacy,2023.1.0,Win32,59.88023952,,,,,,,,,,,,,,,,,,,,,,,,,,,,,,,,,,,,,,,,,,,,,,,,,,,,,,,,,
,,,,,,,-0.338541667,-0.337037037,1,0,0,0,7,7,5,1,-0.33,-0.33,27,001,2024-11-18_10h31.55.558,Attention_exp_legacy,2023.1.0,Win32,59.88023952,calibration_square,,,,,,,,,,,,,,,,,,,,,,,,,,,,,,,,,,,,,,,,,,,,,,,,,,,,,,,,
,,,,,,,0.34375,-0.659259259,1,0,0,0,8,8,14,1,0.33,-0.67,27,001,2024-11-18_10h31.55.558,Attention_exp_legacy,2023.1.0,Win32,59.88023952,,,,,,,,,,,,,,,,,,,,,,,,,,,,,,,,,,,,,,,,,,,,,,,,,,,,,,,,,
,,,,,,,0.3375,-0.333333333,1,0,0,0,9,9,15,1,0.33,-0.33,27,001,2024-11-18_10h31.55.558,Attention_exp_legacy,2023.1.0,Win32,59.88023952,calibration_square,,,,,,,,,,,,,,,,,,,,,,,,,,,,,,,,,,,,,,,,,,,,,,,,,,,,,,,,
,,,,,,,0.654166667,0.672222222,1,0,0,0,10,10,19,1,0.67,0.67,27,001,2024-11-18_10h31.55.558,Attention_exp_legacy,2023.1.0,Win32,59.88023952,,,,,,,,,,,,,,,,,,,,,,,,,,,,,,,,,,,,,,,,,,,,,,,,,,,,,,,,,
,,,,,,,-0.323958333,0.296296296,1,0,0,0,11,11,7,1,-0.33,0.33,27,001,2024-11-18_10h31.55.558,Attention_exp_legacy,2023.1.0,Win32,59.88023952,,,,,,,,,,,,,,,,,,,,,,,,,,,,,,,,,,,,,,,,,,,,,,,,,,,,,,,,,
,,,,,,,-0.317708333,-0.001851852,1,0,0,0,12,12,6,1,-0.33,0,27,001,2024-11-18_10h31.55.558,Attention_exp_legacy,2023.1.0,Win32,59.88023952,,,,,,,,,,,,,,,,,,,,,,,,,,,,,,,,,,,,,,,,,,,,,,,,,,,,,,,,,
,,,,,,,0.339583333,-0.007407407,1,0,0,0,13,13,16,1,0.33,0,27,001,2024-11-18_10h31.55.558,Attention_exp_legacy,2023.1.0,Win32,59.88023952,calibration_square,,,,,,,,,,,,,,,,,,,,,,,,,,,,,,,,,,,,,,,,,,,,,,,,,,,,,,,,
,,,,,,,0.673958333,-0.657407407,1,0,0,0,14,14,20,1,0.67,-0.67,27,001,2024-11-18_10h31.55.558,Attention_exp_legacy,2023.1.0,Win32,59.88023952,,,,,,,,,,,,,,,,,,,,,,,,,,,,,,,,,,,,,,,,,,,,,,,,,,,,,,,,,
,,,,,,,0.328125,0.322222222,1,0,0,0,15,15,17,1,0.33,0.33,27,001,2024-11-18_10h31.55.558,Attention_exp_legacy,2023.1.0,Win32,59.88023952,calibration_square,,,,,,,,,,,,,,,,,,,,,,,,,,,,,,,,,,,,,,,,,,,,,,,,,,,,,,,,
,,,,,,,-0.665625,0.327777778,1,0,0,0,16,16,3,1,-0.67,0.33,27,001,2024-11-18_10h31.55.558,Attention_exp_legacy,2023.1.0,Win32,59.88023952,calibration_square,,,,,,,,,,,,,,,,,,,,,,,,,,,,,,,,,,,,,,,,,,,,,,,,,,,,,,,,
,,,,,,,-0.325,-0.668518519,1,0,0,0,17,17,4,1,-0.33,-0.67,27,001,2024-11-18_10h31.55.558,Attention_exp_legacy,2023.1.0,Win32,59.88023952,calibration_square,,,,,,,,,,,,,,,,,,,,,,,,,,,,,,,,,,,,,,,,,,,,,,,,,,,,,,,,
,,,,,,,-0.004166667,0.681481481,1,0,0,0,18,18,13,1,0,0.67,27,001,2024-11-18_10h31.55.558,Attention_exp_legacy,2023.1.0,Win32,59.88023952,,,,,,,,,,,,,,,,,,,,,,,,,,,,,,,,,,,,,,,,,,,,,,,,,,,,,,,,,
,,,,,,,0.003125,0.309259259,1,0,0,0,19,19,12,1,0,0.33,27,001,2024-11-18_10h31.55.558,Attention_exp_legacy,2023.1.0,Win32,59.88023952,,,,,,,,,,,,,,,,,,,,,,,,,,,,,,,,,,,,,,,,,,,,,,,,,,,,,,,,,
,,,,,,,-0.68125,-0.338888889,1,0,0,0,20,20,1,1,-0.67,-0.33,27,001,2024-11-18_10h31.55.558,Attention_exp_legacy,2023.1.0,Win32,59.88023952,,,,,,,,,,,,,,,,,,,,,,,,,,,,,,,,,,,,,,,,,,,,,,,,,,,,,,,,,
,,,,,,,,,,,,,,,,,,,27,001,2024-11-18_10h31.55.558,Attention_exp_legacy,2023.1.0,Win32,59.88023952,,"[1920,1080]",[-0.096875],[-0.5092592592592593],[1],[0],[0],[0.9795999999046288],"[""StartButton""]","[640,480]",[0.3541666666666667],[0.40370370370370373],[1],[0],[0],[5.7505999999046296],"[""RH_label""]",RH_label,1,6.7769,"[[-0.029166666666666667,-0.07592592592592592],[-0.029166666666666667,-0.07592592592592592],[-0.029166666666666667,-0.07592592592592592],[-0.029166666666666667,-0.07592592592592592],[-0.029166666666666667,-0.07592592592592592],[-0.029166666666666667,-0.07592592592592592],[-0.029166666666666667,-0.07592592592592592],[-0.029166666666666667,-0.07592592592592592],[-0.029166666666666667,-0.07592592592592592],[-0.029166666666666667,-0.07592592592592592],[-0.029166666666666667,-0.07592592592592592],[-0.029166666666666667,-0.07592592592592592],[-0.029166666666666667,-0.07592592592592592],[-0.029166666666666667,-0.07592592592592592],[-0.029166666666666667,-0.07592592592592592],[-0.029166666666666667,-0.07592592592592592],[-0.029166666666666667,-0.07592592592592592],[-0.029166666666666667,-0.07592592592592592],[-0.029166666666666667,-0.07592592592592592],[-0.029166666666666667,-0.07592592592592592],[-0.029166666666666667,-0.07592592592592592],[-0.029166666666666667,-0.07592592592592592],[-0.029166666666666667,-0.07592592592592592],[-0.029166666666666667,-0.07592592592592592],[-0.029166666666666667,-0.07592592592592592],[-0.029166666666666667,-0.07592592592592592],[-0.029166666666666667,-0.07592592592592592],[-0.029166666666666667,-0.07592592592592592],[-0.029166666666666667,-0.07592592592592592],[-0.029166666666666667,-0.07592592592592592],[-0.029166666666666667,-0.07592592592592592],[-0.029166666666666667,-0.07592592592592592],[-0.029166666666666667,-0.07592592592592592],[-0.029166666666666667,-0.07592592592592592],[-0.029166666666666667,-0.07592592592592592],[-0.029166666666666667,-0.07592592592592592],[-0.029166666666666667,-0.07592592592592592],[-0.029166666666666667,-0.07592592592592592],[-0.029166666666666667,-0.07592592592592592],[-0.029166666666666667,-0.07592592592592592],[-0.029166666666666667,-0.07592592592592592],[-0.029166666666666667,-0.07592592592592592],[-0.029166666666666667,-0.07592592592592592],[-0.029166666666666667,-0.07592592592592592],[-0.029166666666666667,-0.07592592592592592],[-0.029166666666666667,-0.07592592592592592],[-0.029166666666666667,-0.07592592592592592],[-0.029166666666666667,-0.07592592592592592],[-0.029166666666666667,-0.07592592592592592],[-0.029166666666666667,-0.07592592592592592],[-0.029166666666666667,-0.07592592592592592],[-0.029166666666666667,-0.07592592592592592],[-0.029166666666666667,-0.07592592592592592],[-0.029166666666666667,-0.07592592592592592],[-0.029166666666666667,-0.07592592592592592],[-0.029166666666666667,-0.07592592592592592],[-0.029166666666666667,-0.07592592592592592],[-0.029166666666666667,-0.07592592592592592],[-0.029166666666666667,-0.07592592592592592],[-0.029166666666666667,-0.07592592592592592],[-0.029166666666666667,-0.07592592592592592],[-0.029166666666666667,-0.07592592592592592],[-0.029166666666666667,-0.07592592592592592],[-0.029166666666666667,-0.07592592592592592],[-0.029166666666666667,-0.07592592592592592],[-0.029166666666666667,-0.07592592592592592],[-0.029166666666666667,-0.07592592592592592],[-0.029166666666666667,-0.07592592592592592],[-0.029166666666666667,-0.07592592592592592],[-0.029166666666666667,-0.07592592592592592],[-0.029166666666666667,-0.07592592592592592],[-0.029166666666666667,-0.07592592592592592],[-0.029166666666666667,-0.07592592592592592],[-0.029166666666666667,-0.07592592592592592],[-0.029166666666666667,-0.07592592592592592],[-0.029166666666666667,-0.07592592592592592],[-0.029166666666666667,-0.07592592592592592],[-0.029166666666666667,-0.07592592592592592],[-0.029166666666666667,-0.07592592592592592],[-0.029166666666666667,-0.07592592592592592],[-0.029166666666666667,-0.07592592592592592],[-0.029166666666666667,-0.07592592592592592],[-0.029166666666666667,-0.07592592592592592],[-0.029166666666666667,-0.07592592592592592],[-0.029166666666666667,-0.07592592592592592],[-0.029166666666666667,-0.07592592592592592],[-0.029166666666666667,-0.07592592592592592],[-0.029166666666666667,-0.07592592592592592],[-0.029166666666666667,-0.07592592592592592],[-0.029166666666666667,-0.07592592592592592],[-0.029166666666666667,-0.07592592592592592],[-0.029166666666666667,-0.07592592592592592],[-0.029166666666666667,-0.07592592592592592],[-0.029166666666666667,-0.07592592592592592],[-0.029166666666666667,-0.07592592592592592],[-0.029166666666666667,-0.07592592592592592],[-0.029166666666666667,-0.07592592592592592],[-0.029166666666666667,-0.07592592592592592],[-0.029166666666666667,-0.07592592592592592],[-0.029166666666666667,-0.07592592592592592],[-0.029166666666666667,-0.07592592592592592],[-0.029166666666666667,-0.07592592592592592],[-0.029166666666666667,-0.07592592592592592],[-0.029166666666666667,-0.07592592592592592],[-0.029166666666666667,-0.07592592592592592],[-0.029166666666666667,-0.07592592592592592],[-0.029166666666666667,-0.07592592592592592],[-0.029166666666666667,-0.07592592592592592],[-0.029166666666666667,-0.07592592592592592],[-0.029166666666666667,-0.07592592592592592],[-0.029166666666666667,-0.07592592592592592],[-0.029166666666666667,-0.07592592592592592],[-0.029166666666666667,-0.07592592592592592],[-0.029166666666666667,-0.07592592592592592],[-0.029166666666666667,-0.07592592592592592],[-0.029166666666666667,-0.07592592592592592],[-0.029166666666666667,-0.07592592592592592],[-0.029166666666666667,-0.07592592592592592],[-0.029166666666666667,-0.07592592592592592],[-0.029166666666666667,-0.07592592592592592],[-0.029166666666666667,-0.07592592592592592],[-0.029166666666666667,-0.07592592592592592],[-0.029166666666666667,-0.07592592592592592],[-0.029166666666666667,-0.07592592592592592],[-0.029166666666666667,-0.07592592592592592],[-0.029166666666666667,-0.07592592592592592],[-0.029166666666666667,-0.07592592592592592],[-0.029166666666666667,-0.07592592592592592],[-0.029166666666666667,-0.07592592592592592],[-0.029166666666666667,-0.07592592592592592],[-0.029166666666666667,-0.07592592592592592],[-0.029166666666666667,-0.07592592592592592],[-0.029166666666666667,-0.07592592592592592],[-0.029166666666666667,-0.07592592592592592],[-0.029166666666666667,-0.07592592592592592],[-0.029166666666666667,-0.07592592592592592],[-0.029166666666666667,-0.07592592592592592],[-0.029166666666666667,-0.07592592592592592],[-0.029166666666666667,-0.07592592592592592],[-0.029166666666666667,-0.07592592592592592],[-0.029166666666666667,-0.07592592592592592],[-0.029166666666666667,-0.07592592592592592],[-0.029166666666666667,-0.07592592592592592],[-0.029166666666666667,-0.07592592592592592],[-0.029166666666666667,-0.07592592592592592],[-0.029166666666666667,-0.07592592592592592],[-0.029166666666666667,-0.07592592592592592],[-0.029166666666666667,-0.07592592592592592],[-0.029166666666666667,-0.07592592592592592],[-0.029166666666666667,-0.07592592592592592],[-0.029166666666666667,-0.07592592592592592],[-0.029166666666666667,-0.07592592592592592],[-0.029166666666666667,-0.07592592592592592],[-0.029166666666666667,-0.07592592592592592],[-0.029166666666666667,-0.07592592592592592],[-0.029166666666666667,-0.07592592592592592],[-0.029166666666666667,-0.07592592592592592],[-0.029166666666666667,-0.07592592592592592],[-0.029166666666666667,-0.07592592592592592],[-0.029166666666666667,-0.07592592592592592],[-0.029166666666666667,-0.07592592592592592],[-0.029166666666666667,-0.07592592592592592],[-0.029166666666666667,-0.07592592592592592],[-0.029166666666666667,-0.07592592592592592],[-0.029166666666666667,-0.07592592592592592],[-0.029166666666666667,-0.07592592592592592],[-0.029166666666666667,-0.07592592592592592],[-0.029166666666666667,-0.07592592592592592],[-0.029166666666666667,-0.07592592592592592],[-0.029166666666666667,-0.07592592592592592],[-0.029166666666666667,-0.07592592592592592],[-0.029166666666666667,-0.07592592592592592],[-0.029166666666666667,-0.07592592592592592],[-0.029166666666666667,-0.07592592592592592],[-0.029166666666666667,-0.07592592592592592],[-0.029166666666666667,-0.07592592592592592],[-0.029166666666666667,-0.07592592592592592],[-0.029166666666666667,-0.07592592592592592],[-0.029166666666666667,-0.07592592592592592],[-0.029166666666666667,-0.07592592592592592],[-0.029166666666666667,-0.07592592592592592],[-0.029166666666666667,-0.07592592592592592],[-0.029166666666666667,-0.07592592592592592],[-0.029166666666666667,-0.07592592592592592],[-0.029166666666666667,-0.07592592592592592],[-0.027083333333333334,-0.07222222222222222],[-0.021875,-0.06481481481481481],[-0.013541666666666667,-0.05925925925925926],[-0.005208333333333333,-0.05555555555555555],[0.0020833333333333333,-0.05],[0.009375,-0.046296296296296294],[0.020833333333333332,-0.03888888888888889],[0.04791666666666667,-0.025925925925925925],[0.065625,-0.018518518518518517],[0.08020833333333334,-0.014814814814814815],[0.09166666666666666,-0.012962962962962963],[0.103125,-0.009259259259259259],[0.11770833333333333,-0.007407407407407408],[0.13333333333333333,-0.001851851851851852],[0.15104166666666666,0.001851851851851852],[0.17708333333333334,0.009259259259259259],[0.203125,0.016666666666666666],[0.23125,0.024074074074074074],[0.28125,0.03518518518518519],[0.2947916666666667,0.040740740740740744],[0.32395833333333335,0.04814814814814815],[0.35104166666666664,0.05555555555555555],[0.3802083333333333,0.07222222222222222],[0.39791666666666664,0.08888888888888889],[0.4114583333333333,0.1037037037037037],[0.4270833333333333,0.12962962962962962],[0.4395833333333333,0.15],[0.446875,0.17407407407407408],[0.45208333333333334,0.19444444444444445],[0.4552083333333333,0.22037037037037038],[0.45729166666666665,0.24074074074074073],[0.459375,0.2611111111111111],[0.46041666666666664,0.2777777777777778],[0.46145833333333336,0.2962962962962963],[0.46145833333333336,0.30925925925925923],[0.46145833333333336,0.32037037037037036],[0.46041666666666664,0.3296296296296296],[0.45729166666666665,0.3351851851851852],[0.453125,0.34074074074074073],[0.4479166666666667,0.3425925925925926],[0.44166666666666665,0.34629629629629627],[0.43645833333333334,0.34814814814814815],[0.43333333333333335,0.35185185185185186],[0.43020833333333336,0.35185185185185186],[0.42916666666666664,0.3537037037037037],[0.428125,0.3537037037037037],[0.4270833333333333,0.3537037037037037],[0.4270833333333333,0.3537037037037037],[0.42604166666666665,0.3537037037037037],[0.425,0.35555555555555557],[0.4239583333333333,0.35555555555555557],[0.42291666666666666,0.35555555555555557],[0.421875,0.35555555555555557],[0.4197916666666667,0.3574074074074074],[0.4197916666666667,0.3574074074074074],[0.4197916666666667,0.3574074074074074],[0.41770833333333335,0.3592592592592593],[0.415625,0.37037037037037035],[0.41458333333333336,0.37407407407407406],[0.4125,0.3814814814814815],[0.409375,0.3962962962962963],[0.4083333333333333,0.40185185185185185],[0.40520833333333334,0.40925925925925927],[0.403125,0.4166666666666667],[0.4010416666666667,0.4203703703703704],[0.4,0.4222222222222222],[0.39895833333333336,0.42592592592592593],[0.39791666666666664,0.42777777777777776],[0.39791666666666664,0.42777777777777776],[0.39791666666666664,0.42777777777777776],[0.39791666666666664,0.42777777777777776],[0.39791666666666664,0.42777777777777776],[0.39791666666666664,0.42777777777777776],[0.39791666666666664,0.42777777777777776],[0.39791666666666664,0.42777777777777776],[0.39791666666666664,0.42777777777777776],[0.39791666666666664,0.42777777777777776],[0.39791666666666664,0.42777777777777776],[0.39791666666666664,0.42777777777777776],[0.39791666666666664,0.42777777777777776],[0.39791666666666664,0.42777777777777776],[0.39791666666666664,0.42777777777777776],[0.39791666666666664,0.42777777777777776],[0.39791666666666664,0.42777777777777776],[0.39791666666666664,0.42777777777777776],[0.39791666666666664,0.42777777777777776],[0.39791666666666664,0.42777777777777776],[0.39791666666666664,0.42777777777777776],[0.39791666666666664,0.42777777777777776],[0.39791666666666664,0.42777777777777776],[0.39791666666666664,0.42777777777777776],[0.39791666666666664,0.42777777777777776],[0.39791666666666664,0.42777777777777776],[0.39791666666666664,0.42777777777777776],[0.39791666666666664,0.42777777777777776],[0.39791666666666664,0.42777777777777776],[0.39791666666666664,0.42777777777777776],[0.39791666666666664,0.42777777777777776],[0.39791666666666664,0.42777777777777776],[0.39791666666666664,0.42777777777777776],[0.39791666666666664,0.42777777777777776],[0.39791666666666664,0.42777777777777776],[0.39791666666666664,0.42777777777777776],[0.39791666666666664,0.42777777777777776],[0.39791666666666664,0.42777777777777776],[0.39791666666666664,0.42777777777777776],[0.39791666666666664,0.42777777777777776],[0.39791666666666664,0.42777777777777776],[0.396875,0.42962962962962964],[0.3958333333333333,0.43148148148148147],[0.3958333333333333,0.43148148148148147],[0.39479166666666665,0.43333333333333335],[0.39479166666666665,0.43333333333333335],[0.39479166666666665,0.4351851851851852],[0.39479166666666665,0.4351851851851852],[0.39479166666666665,0.4351851851851852],[0.39479166666666665,0.4351851851851852],[0.39479166666666665,0.4351851851851852],[0.39479166666666665,0.4351851851851852],[0.39479166666666665,0.4351851851851852],[0.39479166666666665,0.4351851851851852],[0.39479166666666665,0.4351851851851852],[0.39479166666666665,0.4351851851851852],[0.39479166666666665,0.4351851851851852],[0.39479166666666665,0.4351851851851852],[0.39479166666666665,0.4351851851851852],[0.39479166666666665,0.4351851851851852],[0.39479166666666665,0.4351851851851852],[0.39479166666666665,0.4351851851851852],[0.39479166666666665,0.4351851851851852],[0.39479166666666665,0.4351851851851852],[0.39479166666666665,0.4351851851851852],[0.39479166666666665,0.4351851851851852],[0.39479166666666665,0.4351851851851852],[0.39479166666666665,0.4351851851851852],[0.39479166666666665,0.4351851851851852],[0.39479166666666665,0.4351851851851852],[0.39479166666666665,0.4351851851851852],[0.39479166666666665,0.4351851851851852],[0.39479166666666665,0.4351851851851852],[0.39479166666666665,0.4351851851851852],[0.39375,0.4351851851851852],[0.39375,0.4351851851851852],[0.3885416666666667,0.4351851851851852],[0.37395833333333334,0.4351851851851852],[0.35625,0.4203703703703704],[0.3458333333333333,0.4074074074074074],[0.34375,0.40370370370370373],[0.34375,0.40370370370370373],[0.34479166666666666,0.40185185185185185],[0.3489583333333333,0.40185185185185185],[0.35208333333333336,0.40370370370370373],[0.3541666666666667,0.40370370370370373],[0.3541666666666667,0.40370370370370373],[0.3541666666666667,0.40370370370370373],[0.3541666666666667,0.40370370370370373],[0.3541666666666667,0.40370370370370373],[0.3541666666666667,0.40370370370370373],[0.3541666666666667,0.40370370370370373],[0.3541666666666667,0.40370370370370373],[0.3541666666666667,0.40370370370370373],[0.3541666666666667,0.40370370370370373],[0.3541666666666667,0.40370370370370373],[0.3541666666666667,0.40370370370370373],[0.3541666666666667,0.40370370370370373],[0.3541666666666667,0.40370370370370373],[0.3541666666666667,0.40370370370370373],[0.3541666666666667,0.40370370370370373],[0.3541666666666667,0.40370370370370373],[0.3541666666666667,0.40370370370370373],[0.3541666666666667,0.40370370370370373],[0.3541666666666667,0.40370370370370373],[0.3541666666666667,0.40370370370370373],[0.3541666666666667,0.40370370370370373],[0.3541666666666667,0.40370370370370373],[0.3541666666666667,0.40370370370370373],[0.3541666666666667,0.40370370370370373],[0.3541666666666667,0.40370370370370373],[0.3541666666666667,0.40370370370370373],[0.3541666666666667,0.40370370370370373],[0.3541666666666667,0.40370370370370373],[0.3541666666666667,0.40370370370370373],[0.3541666666666667,0.40370370370370373],[0.3541666666666667,0.40370370370370373],[0.3541666666666667,0.40370370370370373],[0.3541666666666667,0.40370370370370373],[0.3541666666666667,0.40370370370370373],[0.3541666666666667,0.40370370370370373],[0.3541666666666667,0.40370370370370373],[0.3541666666666667,0.40370370370370373],[0.3541666666666667,0.40370370370370373],[0.3541666666666667,0.40370370370370373],[0.3541666666666667,0.40370370370370373],[0.3541666666666667,0.40370370370370373],[0.3541666666666667,0.40370370370370373],[0.353125,0.40370370370370373],[0.353125,0.40370370370370373],[0.353125,0.40370370370370373],[0.353125,0.40370370370370373],[0.35208333333333336,0.40370370370370373],[0.35208333333333336,0.40370370370370373],[0.35208333333333336,0.40370370370370373],[0.35208333333333336,0.40370370370370373],[0.35208333333333336,0.40370370370370373],[0.35208333333333336,0.40370370370370373],[0.35208333333333336,0.40370370370370373],[0.35208333333333336,0.40370370370370373],[0.35208333333333336,0.40370370370370373],[0.35208333333333336,0.40370370370370373],[0.35208333333333336,0.40370370370370373],[0.35208333333333336,0.40370370370370373],[0.35208333333333336,0.40370370370370373],[0.35208333333333336,0.40370370370370373],[0.35208333333333336,0.40370370370370373],[0.35208333333333336,0.40370370370370373],[0.35208333333333336,0.40370370370370373],[0.35208333333333336,0.40370370370370373],[0.35208333333333336,0.40370370370370373],[0.35208333333333336,0.40370370370370373],[0.35208333333333336,0.40370370370370373],[0.35208333333333336,0.40370370370370373]]","[[-0.02166666666666662,0.06407407407407412],[-0.02166666666666662,0.06407407407407412],[-0.007708333333333309,0.04611111111111107],[0.00635416666666669,0.04888888888888885],[-0.005416666666666714,0.027037037037037078],[0.0009374999999999763,0.026111111111111154],[0.003541666666666643,0.01648148148148144],[-0.015416666666666618,-0.044444444444444446],[-0.0078125,-0.09351851851851851],[0.016458333333333287,-0.12407407407407407],[0.04072916666666669,-0.15462962962962962],[0.06510416666666667,-0.14629629629629629],[0.06510416666666667,-0.14629629629629629],[0.07843749999999995,-0.13240740740740742],[0.07843749999999995,-0.13240740740740742],[0.1258333333333333,-0.05018518518518523],[0.1258333333333333,-0.05018518518518523],[0.15270833333333325,0.07370370370370362],[0.15270833333333325,0.07370370370370362],[0.21124999999999997,0.16407407407407412],[0.21124999999999997,0.16407407407407412],[0.24500000000000005,0.2442592592592592],[0.24500000000000005,0.2442592592592592],[0.29489583333333325,0.35851851851851857],[0.29489583333333325,0.35851851851851857],[0.3,0.3983333333333334],[0.3,0.3983333333333334],[0.2993750000000001,0.41277777777777774],[0.27229166666666677,0.4140740740740741],[0.2621875000000001,0.35240740740740734],[0.2525000000000001,0.31074074074074065],[0.1961458333333333,0.18259259259259264],[0.1580208333333334,0.024814814814814772],[0.12385416666666677,-0.10185185185185185],[0.12072916666666676,-0.22370370370370374],[0.09166666666666666,-0.3394444444444445],[0.07854166666666676,-0.3962962962962963],[0.06375000000000004,-0.43129629629629623],[0.06510416666666667,-0.46148148148148144],[0.009062500000000048,-0.46277777777777773],[0.009062500000000048,-0.46277777777777773],[-0.027395833333333286,-0.47537037037037033],[-0.027395833333333286,-0.47537037037037033],[-0.05145833333333331,-0.46870370370370373],[-0.06822916666666666,-0.45981481481481484],[-0.06822916666666666,-0.45981481481481484],[-0.11979166666666667,-0.4535185185185185],[-0.16343749999999999,-0.447037037037037],[-0.14593750000000003,-0.4564814814814815],[-0.17781250000000004,-0.4377777777777777],[-0.14677083333333332,-0.4398148148148148],[-0.11822916666666666,-0.4190740740740741],[-0.11822916666666666,-0.4190740740740741],[-0.04354166666666662,-0.3937037037037037],[0.033854166666666664,-0.3901851851851852],[0.1009375000000001,-0.40555555555555556],[0.17489583333333342,-0.4192592592592592],[0.26687500000000003,-0.4044444444444444],[0.35093750000000007,-0.38981481481481484],[0.3787499999999999,-0.36148148148148146],[0.45427083333333323,-0.35611111111111116],[0.4653125000000001,-0.3237037037037037],[0.5033333333333334,-0.31574074074074077],[0.5033333333333334,-0.31574074074074077],[0.5485416666666666,-0.31666666666666665],[0.5489583333333333,-0.27166666666666667],[0.5576041666666666,-0.20925925925925926],[0.575,-0.17388888888888884],[0.5607291666666666,-0.15962962962962962],[0.5464583333333333,-0.14537037037037037],[0.5508333333333333,-0.11925925925925922],[0.5591666666666666,-0.09462962962962967],[0.5591666666666666,-0.09462962962962967],[0.5853125000000001,-0.09018518518518516],[0.615625,-0.08537037037037042],[0.5960416666666667,-0.06648148148148143],[0.6076041666666666,-0.07703703703703708],[0.6060416666666666,-0.11703703703703702],[0.6060416666666666,-0.11703703703703702],[0.6246875000000001,-0.13555555555555554],[0.6372916666666666,-0.152962962962963],[0.6641666666666666,-0.11185185185185181],[0.6747916666666666,-0.049074074074074076],[0.6742708333333333,0.009259259259259259],[0.6598958333333333,0.07814814814814823],[0.6357291666666666,0.1427777777777778],[0.6484375,0.19277777777777783],[0.6242708333333333,0.25259259259259254],[0.6132291666666667,0.3418518518518519],[0.5927083333333333,0.4444444444444444],[0.5936458333333334,0.537962962962963],[0.5957291666666668,0.557037037037037],[0.6019791666666667,0.543148148148148],[0.6193749999999999,0.5337037037037038],[0.6443749999999999,0.4985185185185186],[0.6608333333333334,0.4772222222222223],[0.6608333333333334,0.4772222222222223],[0.6798958333333334,0.44666666666666677],[0.7268749999999999,0.3851851851851852],[0.7738541666666667,0.3237037037037036],[0.775,0.26500000000000007],[0.7695833333333333,0.19370370370370374],[0.7487499999999999,0.13833333333333342],[0.7457291666666668,0.06870370370370374],[0.7457291666666668,0.06870370370370374],[0.7427083333333333,-0.000925925925925926],[0.7219791666666666,-0.041666666666666664],[0.6839583333333332,-0.0801851851851852],[0.6433333333333332,-0.10944444444444448],[0.6364583333333333,-0.13351851851851856],[0.6295833333333334,-0.15759259259259265],[0.6478125000000001,-0.19018518518518515],[0.6708333333333333,-0.2096296296296296],[0.6819791666666667,-0.22388888888888886],[0.6753125,-0.22388888888888886],[0.6688541666666665,-0.227962962962963],[0.6724999999999999,-0.2351851851851852],[0.6934375,-0.24462962962962967],[0.7204166666666666,-0.27166666666666667],[0.7080208333333334,-0.27611111111111114],[0.6589583333333332,-0.25851851851851854],[0.6497916666666667,-0.272037037037037],[0.6181250000000001,-0.2707407407407407],[0.6085416666666668,-0.26648148148148143],[0.5910416666666668,-0.2887037037037037],[0.5673958333333334,-0.28944444444444445],[0.5486458333333334,-0.3074074074074074],[0.5346875,-0.3229629629629629],[0.5146874999999999,-0.32092592592592595],[0.5051041666666668,-0.3127777777777777],[0.5235416666666666,-0.322037037037037],[0.5110416666666666,-0.3122222222222223],[0.5110416666666666,-0.3122222222222223],[0.5210416666666667,-0.31722222222222224],[0.5184375,-0.3287037037037037],[0.5186458333333335,-0.3101851851851852],[0.5297916666666665,-0.30944444444444447],[0.53125,-0.2887037037037037],[0.5279166666666666,-0.27037037037037037],[0.5148958333333333,-0.25018518518518523],[0.4969791666666666,-0.24611111111111106],[0.48770833333333335,-0.24666666666666665],[0.43031249999999993,-0.22740740740740742],[0.36833333333333323,-0.20666666666666672],[0.3055208333333333,-0.2007407407407407],[0.2478125000000001,-0.1983333333333334],[0.16729166666666656,-0.18592592592592588],[0.09156250000000009,-0.17629629629629628],[0.010520833333333358,-0.18074074074074079],[-0.06375000000000004,-0.1787037037037037],[-0.06375000000000004,-0.1787037037037037],[-0.11322916666666671,-0.19000000000000003],[-0.1866666666666667,-0.18462962962962962],[-0.23312499999999994,-0.18703703703703703],[-0.275,-0.19092592592592597],[-0.2997916666666666,-0.19166666666666668],[-0.32458333333333333,-0.19240740740740736],[-0.32458333333333333,-0.19240740740740736],[-0.3408333333333334,-0.19796296296296292],[-0.3408333333333334,-0.19796296296296292],[-0.33947916666666667,-0.22240740740740744],[-0.34791666666666665,-0.2146296296296296],[-0.35343749999999996,-0.21518518518518517],[-0.35343749999999996,-0.21518518518518517],[-0.37864583333333335,-0.17555555555555558],[-0.3798958333333334,-0.15259259259259256],[-0.3797916666666667,-0.12907407407407406],[-0.3797916666666667,-0.12907407407407406],[-0.3796875,-0.10555555555555556],[-0.3796875,-0.10555555555555556],[-0.3625,-0.07148148148148152],[-0.34104166666666663,-0.00722222222222218],[-0.34104166666666663,-0.00722222222222218],[-0.32145833333333335,0.03518518518518519],[-0.32145833333333335,0.03518518518518519],[-0.2711458333333333,0.06796296296296304],[-0.2711458333333333,0.06796296296296304],[-0.20375000000000001,0.08703703703703704],[-0.20375000000000001,0.08703703703703704],[-0.1564583333333334,0.09981481481481477],[-0.11645833333333329,0.09703703703703699],[-0.11645833333333329,0.09703703703703699],[-0.06479166666666672,0.08444444444444449],[0.016354166666666715,0.069074074074074],[0.0974999999999999,0.053703703703703705],[0.14031250000000003,0.036481481481481566],[0.14031250000000003,0.036481481481481566],[0.14958333333333323,0.0025925925925925505],[0.1859375,-0.005185185185185101],[0.1859375,-0.005185185185185101],[0.1609375,0.004444444444444402],[0.09854166666666657,0.028703703703703703],[0.10885416666666667,0.028518518518518478],[0.1087500000000001,0.026111111111111154],[0.08322916666666676,0.04092592592592597],[0.04031250000000005,0.05592592592592601],[0.05479166666666669,0.06407407407407412],[0.021041666666666715,0.07462962962962955],[0.016562499999999977,0.07166666666666675],[0.03854166666666667,0.06074074074074066],[0.05343749999999995,0.05555555555555555],[0.10041666666666677,-0.004814814814814857],[0.06322916666666671,0.0020370370370370794],[0.042916666666666714,-0.015370370370370286],[0.042916666666666714,-0.015370370370370286],[0.036354166666666646,-0.04018518518518527],[0.041770833333333354,-0.09962962962962965],[0.05791666666666669,-0.09685185185185187],[0.1296875,-0.09518518518518514],[0.13572916666666662,-0.08129629629629626],[0.13572916666666662,-0.08129629629629626],[0.10635416666666657,-0.07907407407407405],[0.12197916666666657,-0.06518518518518517],[0.14093749999999997,-0.01518518518518527],[0.18395833333333325,-0.024074074074074074],[0.22270833333333329,-0.01777777777777782],[0.2672916666666666,-0.003703703703703704],[0.2672916666666666,-0.003703703703703704],[0.29635416666666664,0.03185185185185194],[0.25729166666666664,0.012037037037037037],[0.22406249999999991,-0.001851851851851852],[0.22406249999999991,-0.001851851851851852],[0.25906250000000003,-0.03351851851851856],[0.2849999999999999,-0.07111111111111107],[0.2849999999999999,-0.07111111111111107],[0.2994791666666667,-0.11888888888888886],[0.27239583333333334,-0.13518518518518519],[0.2821875000000001,-0.10722222222222218],[0.2837500000000001,-0.11370370370370367],[0.22687499999999997,-0.1096296296296296],[0.1759375000000001,-0.10925925925925926],[0.15666666666666676,-0.10407407407407405],[0.13156249999999994,-0.10481481481481486],[0.10989583333333333,-0.10888888888888891],[0.07708333333333334,-0.11296296296296296],[0.08489583333333334,-0.1],[0.13427083333333342,-0.11851851851851852],[0.15427083333333325,-0.1588888888888889],[0.08989583333333329,-0.12462962962962965],[0.1318749999999999,-0.17092592592592595],[0.1318749999999999,-0.17092592592592595],[0.19760416666666672,-0.19222222222222224],[0.19364583333333343,-0.20999999999999996],[0.1896874999999999,-0.22777777777777777],[0.17260416666666673,-0.22666666666666663],[0.19052083333333342,-0.24444444444444444],[0.19052083333333342,-0.24444444444444444],[0.15989583333333332,-0.24574074074074073],[0.1414583333333333,-0.262037037037037],[0.1414583333333333,-0.262037037037037],[0.11541666666666663,-0.2683333333333333],[0.19302083333333328,-0.3320370370370371],[0.21687500000000004,-0.33351851851851855],[0.21843750000000003,-0.3225925925925926],[0.25802083333333337,-0.32],[0.31437499999999996,-0.3405555555555555],[0.3779166666666666,-0.37111111111111106],[0.44468750000000007,-0.3574074074074074],[0.44468750000000007,-0.3574074074074074],[0.5059375,-0.37333333333333335],[0.5665625000000001,-0.3742592592592593],[0.6347916666666668,-0.3851851851851852],[0.6871875000000001,-0.37111111111111106],[0.7395833333333334,-0.35703703703703704],[0.7760416666666666,-0.3638888888888889],[0.8125,-0.3707407407407407],[0.7957291666666667,-0.32814814814814813],[0.7789583333333333,-0.2855555555555555],[0.7569791666666668,-0.2737037037037037],[0.7465625,-0.28185185185185185],[0.7465625,-0.28185185185185185],[0.7066666666666668,-0.259074074074074],[0.6643749999999999,-0.22962962962962963],[0.6369791666666667,-0.2331481481481481],[0.6369791666666667,-0.2331481481481481],[0.5715625000000001,-0.21629629629629632],[0.5407291666666666,-0.1983333333333334],[0.5554166666666667,-0.20314814814814813],[0.6065625,-0.23425925925925925],[0.6178124999999999,-0.2403703703703704],[0.6092708333333334,-0.22462962962962965],[0.6092708333333334,-0.22462962962962965],[0.6608333333333334,-0.2190740740740741],[0.6608333333333334,-0.2190740740740741],[0.7006249999999999,-0.2518518518518518],[0.7928124999999999,-0.30907407407407406],[0.8228125000000001,-0.31148148148148147],[0.8228125000000001,-0.31148148148148147],[0.8623958333333335,-0.29555555555555557],[0.8623958333333335,-0.29555555555555557],[0.8625,-0.28703703703703703],[0.7928124999999999,-0.24444444444444444],[0.7928124999999999,-0.24444444444444444],[0.723125,-0.20185185185185187],[0.723125,-0.20185185185185187],[0.7224999999999999,-0.22296296296296292],[0.7224999999999999,-0.22296296296296292],[0.7200000000000001,-0.2535185185185185],[0.7200000000000001,-0.2535185185185185],[0.6470833333333333,-0.2390740740740741],[0.6342708333333335,-0.22851851851851848],[0.5652083333333332,-0.1948148148148148],[0.5493750000000001,-0.19592592592592595],[0.5525000000000001,-0.23981481481481481],[0.5525000000000001,-0.23981481481481481],[0.5726041666666667,-0.2770370370370371],[0.6405208333333334,-0.32462962962962966],[0.7066666666666668,-0.39000000000000007],[0.723125,-0.4083333333333333],[0.7418750000000001,-0.4142592592592592],[0.7636458333333332,-0.43277777777777776],[0.7445833333333333,-0.41648148148148145],[0.7445833333333333,-0.41648148148148145],[0.7283333333333334,-0.43037037037037035],[0.7283333333333334,-0.43037037037037035],[0.7032291666666666,-0.44907407407407407],[0.6972916666666668,-0.4607407407407408],[0.6913541666666667,-0.47240740740740744],[0.6644791666666667,-0.46296296296296297],[0.6412499999999999,-0.4516666666666666],[0.6385416666666667,-0.4487037037037037],[0.6248958333333334,-0.44888888888888884],[0.6069791666666667,-0.45129629629629625],[0.583125,-0.48648148148148146],[0.5894791666666668,-0.48203703703703704],[0.5860416666666666,-0.46648148148148144],[0.5729166666666666,-0.45388888888888895],[0.5570833333333333,-0.4542592592592593],[0.5526041666666667,-0.48055555555555557],[0.5368750000000001,-0.45185185185185184],[0.5285416666666668,-0.40481481481481485],[0.5034375,-0.41574074074074074],[0.4783333333333334,-0.42666666666666664],[0.47322916666666665,-0.4105555555555555],[0.44770833333333326,-0.41148148148148145],[0.4557291666666667,-0.42296296296296293],[0.45343749999999994,-0.42462962962962963],[0.4427083333333333,-0.41148148148148145],[0.42291666666666666,-0.3785185185185185],[0.4313541666666666,-0.3757407407407407],[0.43156249999999996,-0.40796296296296297],[0.45906250000000004,-0.38203703703703706],[0.47760416666666666,-0.33907407407407414],[0.4884375000000001,-0.3116666666666667],[0.4884375000000001,-0.3116666666666667],[0.49239583333333337,-0.29000000000000004],[0.48802083333333335,-0.27629629629629626],[0.5011458333333333,-0.2833333333333333],[0.5254166666666668,-0.2922222222222222],[0.5264583333333335,-0.31555555555555553],[0.4946875000000001,-0.3292592592592593],[0.4666666666666667,-0.3085185185185186],[0.4568749999999999,-0.3127777777777777],[0.4569791666666667,-0.3227777777777778],[0.44562499999999994,-0.3272222222222222],[0.453125,-0.32407407407407407],[0.45291666666666663,-0.30351851851851847],[0.44677083333333345,-0.2770370370370371],[0.41677083333333326,-0.26537037037037037],[0.40510416666666677,-0.2551851851851852],[0.40510416666666677,-0.2551851851851852],[0.4227083333333333,-0.2566666666666667],[0.4189583333333334,-0.2959259259259259],[0.39697916666666655,-0.3101851851851852],[0.38552083333333326,-0.322037037037037],[0.38958333333333334,-0.3416666666666667],[0.3758333333333333,-0.3605555555555555],[0.3485416666666666,-0.382962962962963],[0.32000000000000006,-0.4003703703703704],[0.32541666666666674,-0.39351851851851855],[0.33083333333333326,-0.3866666666666667],[0.30708333333333326,-0.402962962962963],[0.29968750000000005,-0.39888888888888885],[0.29958333333333326,-0.3851851851851852],[0.28802083333333334,-0.3851851851851852],[0.2959374999999999,-0.382962962962963],[0.3033333333333334,-0.3811111111111111],[0.31124999999999997,-0.377962962962963],[0.3195833333333333,-0.38055555555555554],[0.33312499999999995,-0.37407407407407406],[0.34520833333333345,-0.3731481481481482],[0.35489583333333335,-0.3683333333333333],[0.39083333333333337,-0.3520370370370371],[0.4055208333333333,-0.33666666666666667],[0.4276041666666667,-0.34629629629629627],[0.4234375,-0.3542592592592593],[0.42697916666666674,-0.34574074074074074],[0.42385416666666675,-0.3344444444444445],[0.42312500000000003,-0.3244444444444444],[0.3770833333333333,-0.35333333333333333],[0.39385416666666656,-0.37037037037037035],[0.41677083333333326,-0.3677777777777778],[0.384375,-0.3542592592592593],[0.36208333333333326,-0.34388888888888886],[0.3486458333333334,-0.3101851851851852],[0.35166666666666657,-0.22370370370370374],[0.34697916666666656,-0.1537037037037037],[0.39052083333333343,-0.072037037037037],[0.43125,0.016666666666666666],[0.4727083333333333,0.11592592592592597],[0.46989583333333323,0.21592592592592597],[0.45374999999999993,0.30111111111111116],[0.4513541666666666,0.34518518518518515],[0.4638541666666666,0.39518518518518514],[0.4638541666666666,0.39518518518518514],[0.4595833333333334,0.43759259259259253]]","[[-0.02166666666666662,0.06407407407407412,0.00029999971389571556],[-0.02166666666666662,0.06407407407407412,0.05269999980926343],[-0.007708333333333309,0.04611111111111107,0.06219999980926616],[0.00635416666666669,0.04888888888888885,0.07709999990463245],[-0.005416666666666714,0.027037037037037078,0.09559999990462842],[0.0009374999999999763,0.026111111111111154,0.11349999999999483],[0.003541666666666643,0.01648148148148144,0.12899999999999778],[-0.015416666666666618,-0.044444444444444446,0.1436999998092645],[-0.0078125,-0.09351851851851851,0.16039999961852658],[0.016458333333333287,-0.12407407407407407,0.17709999990463388],[0.04072916666666669,-0.15462962962962962,0.1935999999046274],[0.06510416666666667,-0.14629629629629629,0.21039999961853084],[0.06510416666666667,-0.14629629629629629,0.22699999999999676],[0.07843749999999995,-0.13240740740740742,0.24389999961852737],[0.07843749999999995,-0.13240740740740742,0.2602999997138937],[0.1258333333333333,-0.05018518518518523,0.2770999999046282],[0.1258333333333333,-0.05018518518518523,0.2936999998092631],[0.15270833333333325,0.07370370370370362,0.310299999713898],[0.15270833333333325,0.07370370370370362,0.32709999990463245],[0.21124999999999997,0.16407407407407412,0.34369999980926025],[0.21124999999999997,0.16407407407407412,0.3603999996185294],[0.24500000000000005,0.2442592592592592,0.3770999999046296],[0.24500000000000005,0.2442592592592592,0.39389999961852595],[0.29489583333333325,0.35851851851851857,0.4103999996185266],[0.29489583333333325,0.35851851851851857,0.4270999999046339],[0.3,0.3983333333333334,0.44379999971389594],[0.3,0.3983333333333334,0.4636999998092648],[0.2993750000000001,0.41277777777777774,0.47699999999999676],[0.27229166666666677,0.4140740740740741,0.4947999997138979],[0.2621875000000001,0.35240740740740734,0.5111999998092642],[0.2525000000000001,0.31074074074074065,0.5302999997138969],[0.1961458333333333,0.18259259259259264,0.5467999997138975],[0.1580208333333334,0.024814814814814772,0.5622999997138933],[0.12385416666666677,-0.10185185185185185,0.5777999997138963],[0.12072916666666676,-0.22370370370370374,0.5940000000000012],[0.09166666666666666,-0.3394444444444445,0.6102999997138951],[0.07854166666666676,-0.3962962962962963,0.6276999998092663],[0.06375000000000004,-0.43129629629629623,0.6436999998092645],[0.06510416666666667,-0.46148148148148144,0.6606999998092604],[0.009062500000000048,-0.46277777777777773,0.6799999999999997],[0.009062500000000048,-0.46277777777777773,0.6936999998092617],[-0.027395833333333286,-0.47537037037037033,0.7104999999999961],[-0.027395833333333286,-0.47537037037037033,0.727099999904631],[-0.05145833333333331,-0.46870370370370373,0.744099999904634],[-0.06822916666666666,-0.45981481481481484,0.7643999996185258],[-0.06822916666666666,-0.45981481481481484,0.7770999999046282],[-0.11979166666666667,-0.4535185185185185,0.7936999998092631],[-0.16343749999999999,-0.447037037037037,0.810299999713898],[-0.14593750000000003,-0.4564814814814815,0.8300999999046326],[-0.17781250000000004,-0.4377777777777777,0.8464999999999989],[-0.14677083333333332,-0.4398148148148148,0.8634999999999948],[-0.11822916666666666,-0.4190740740740741,0.8870000000000005],[-0.11822916666666666,-0.4190740740740741,0.8937999997138988],[-0.04354166666666662,-0.3937037037037037,0.910499999999999],[0.033854166666666664,-0.3901851851851852,0.9279999999999973],[0.1009375000000001,-0.40555555555555556,0.9436999998092617],[0.17489583333333342,-0.4192592592592592,0.9603999996185308],[0.26687500000000003,-0.4044444444444444,0.9778999996185291],[0.35093750000000007,-0.38981481481481484,0.9937999997138931],[0.3787499999999999,-0.36148148148148146,1.011499999999998],[0.45427083333333323,-0.35611111111111116,1.0287999997138968],[0.4653125000000001,-0.3237037037037037,1.043699999809263],[0.5033333333333334,-0.31574074074074077,1.0605999999046318],[0.5033333333333334,-0.31574074074074077,1.0771999998092596],[0.5485416666666666,-0.31666666666666665,1.0936999998092602],[0.5489583333333333,-0.27166666666666667,1.1103999996185294],[0.5576041666666666,-0.20925925925925926,1.131299999713896],[0.575,-0.17388888888888884,1.1470999999046327],[0.5607291666666666,-0.15962962962962962,1.1621999998092605],[0.5464583333333333,-0.14537037037037037,1.1769999999999996],[0.5508333333333333,-0.11925925925925922,1.1939999999999955],[0.5591666666666666,-0.09462962962962967,1.2103999996185308],[0.5591666666666666,-0.09462962962962967,1.2269999999999968],[0.5853125000000001,-0.09018518518518516,1.243699999809266],[0.615625,-0.08537037037037042,1.260399999618528],[0.5960416666666667,-0.06648148148148143,1.277000000000001],[0.6076041666666666,-0.07703703703703708,1.2937999997138974],[0.6060416666666666,-0.11703703703703702,1.310299999713898],[0.6060416666666666,-0.11703703703703702,1.3269999999999982],[0.6246875000000001,-0.13555555555555554,1.343599999904633],[0.6372916666666666,-0.152962962962963,1.3602999997138951],[0.6641666666666666,-0.11185185185185181,1.3769999999999953],[0.6747916666666666,-0.049074074074074076,1.3947999997138965],[0.6742708333333333,0.009259259259259259,1.4107999997138947],[0.6598958333333333,0.07814814814814823,1.4298999996185273],[0.6357291666666666,0.1427777777777778,1.4462999997138937],[0.6484375,0.19277777777777783,1.4610999999046328],[0.6242708333333333,0.25259259259259254,1.4769999999999968],[0.6132291666666667,0.3418518518518519,1.4941999998092612],[0.5927083333333333,0.4444444444444444,1.5108999996185304],[0.5936458333333334,0.537962962962963,1.5300999999046283],[0.5957291666666668,0.557037037037037,1.5457999997138927],[0.6019791666666667,0.543148148148148,1.5627999997138957],[0.6193749999999999,0.5337037037037038,1.5769999999999982],[0.6443749999999999,0.4985185185185186,1.5955999999046284],[0.6608333333333334,0.4772222222222223,1.619499999999995],[0.6608333333333334,0.4772222222222223,1.6355999999046276],[0.6798958333333334,0.44666666666666677,1.6491999998092624],[0.7268749999999999,0.3851851851851852,1.663099999904631],[0.7738541666666667,0.3237037037037036,1.6770999999046339],[0.775,0.26500000000000007,1.6973999996185256],[0.7695833333333333,0.19370370370370374,1.71119999980926],[0.7487499999999999,0.13833333333333342,1.729299999713895],[0.7457291666666668,0.06870370370370374,1.7458999996185298],[0.7457291666666668,0.06870370370370374,1.7605000000000004],[0.7427083333333333,-0.000925925925925926,1.777000000000001],[0.7219791666666666,-0.041666666666666664,1.7938999996185316],[0.6839583333333332,-0.0801851851851852,1.8103999996185252],[0.6433333333333332,-0.10944444444444448,1.8270999999046325],[0.6364583333333333,-0.13351851851851856,1.843599999904633],[0.6295833333333334,-0.15759259259259265,1.8602999997138951],[0.6478125000000001,-0.19018518518518515,1.8769999999999953],[0.6708333333333333,-0.2096296296296296,1.8935999999046302],[0.6819791666666667,-0.22388888888888886,1.9102999997138923],[0.6753125,-0.22388888888888886,1.9269999999999996],[0.6688541666666665,-0.227962962962963,1.9435999999046274],[0.6724999999999999,-0.2351851851851852,1.9604999999999961],[0.6934375,-0.24462962962962967,1.9769999999999968],[0.7204166666666666,-0.27166666666666667,1.9935999999046317],[0.7080208333333334,-0.27611111111111114,2.0101999998092666],[0.6589583333333332,-0.25851851851851854,2.028799999713897],[0.6497916666666667,-0.272037037037037,2.043599999904629],[0.6181250000000001,-0.2707407407407407,2.060299999713898],[0.6085416666666668,-0.26648148148148143,2.0770999999046325],[0.5910416666666668,-0.2887037037037037,2.0936999998092602],[0.5673958333333334,-0.28944444444444445,2.110299999713895],[0.5486458333333334,-0.3074074074074074,2.128],[0.5346875,-0.3229629629629629,2.1439999999999984],[0.5146874999999999,-0.32092592592592595,2.1603999996185266],[0.5051041666666668,-0.3127777777777777,2.1769999999999996],[0.5235416666666666,-0.322037037037037,2.1942999997138983],[0.5110416666666666,-0.3122222222222223,2.2102999997138966],[0.5110416666666666,-0.3122222222222223,2.2269999999999968],[0.5210416666666667,-0.31722222222222224,2.243699999809266],[0.5184375,-0.3287037037037037,2.260699999809262],[0.5186458333333335,-0.3101851851851852,2.277000000000001],[0.5297916666666665,-0.30944444444444447,2.293699999809263],[0.53125,-0.2887037037037037,2.310299999713898],[0.5279166666666666,-0.27037037037037037,2.3278999996185306],[0.5148958333333333,-0.25018518518518523,2.3440999999046284],[0.4969791666666666,-0.24611111111111106,2.360599999904629],[0.48770833333333335,-0.24666666666666665,2.37689999961853],[0.43031249999999993,-0.22740740740740742,2.3939999999999984],[0.36833333333333323,-0.20666666666666672,2.4102999997138923],[0.3055208333333333,-0.2007407407407407,2.4269999999999996],[0.2478125000000001,-0.1983333333333334,2.4435999999046274],[0.16729166666666656,-0.18592592592592588,2.4602999997138966],[0.09156250000000009,-0.17629629629629628,2.4769999999999968],[0.010520833333333358,-0.18074074074074079,2.493699999809266],[-0.06375000000000004,-0.1787037037037037,2.510399999618528],[-0.06375000000000004,-0.1787037037037037,2.5268999996185286],[-0.11322916666666671,-0.19000000000000003,2.543699999809263],[-0.1866666666666667,-0.18462962962962962,2.560299999713898],[-0.23312499999999994,-0.18703703703703703,2.576899999618526],[-0.275,-0.19092592592592597,2.5941999998092626],[-0.2997916666666666,-0.19166666666666668,2.610299999713895],[-0.32458333333333333,-0.19240740740740736,2.6307999997138936],[-0.32458333333333333,-0.19240740740740736,2.6435999999046302],[-0.3408333333333334,-0.19796296296296292,2.6602999997138923],[-0.3408333333333334,-0.19796296296296292,2.677099999904634],[-0.33947916666666667,-0.22240740740740744,2.693799999713896],[-0.34791666666666665,-0.2146296296296296,2.7105999999046304],[-0.35343749999999996,-0.21518518518518517,2.7316999998092655],[-0.35343749999999996,-0.21518518518518517,2.743699999809266],[-0.37864583333333335,-0.17555555555555558,2.7605999999046276],[-0.3798958333333334,-0.15259259259259256,2.777000000000001],[-0.3797916666666667,-0.12907407407407406,2.793599999904629],[-0.3797916666666667,-0.12907407407407406,2.810399999618525],[-0.3796875,-0.10555555555555556,2.8270999999046325],[-0.3796875,-0.10555555555555556,2.8437999997138945],[-0.3625,-0.07148148148148152,2.8603999996185294],[-0.34104166666666663,-0.00722222222222218,2.884199999809262],[-0.34104166666666663,-0.00722222222222218,2.8936999998092645],[-0.32145833333333335,0.03518518518518519,2.9102999997138923],[-0.32145833333333335,0.03518518518518519,2.9269999999999996],[-0.2711458333333333,0.06796296296296304,2.9436999998092617],[-0.2711458333333333,0.06796296296296304,2.960499999999996],[-0.20375000000000001,0.08703703703703704,2.9768999996185315],[-0.20375000000000001,0.08703703703703704,2.993699999809266],[-0.1564583333333334,0.09981481481481477,3.0101999998092666],[-0.11645833333333329,0.09703703703703699,3.0271999998092625],[-0.11645833333333329,0.09703703703703699,3.043599999904629],[-0.06479166666666672,0.08444444444444449,3.060299999713898],[0.016354166666666715,0.069074074074074,3.0771999998092596],[0.0974999999999999,0.053703703703703705,3.093899999618529],[0.14031250000000003,0.036481481481481566,3.115399999618525],[0.14031250000000003,0.036481481481481566,3.1270999999046296],[0.14958333333333323,0.0025925925925925505,3.1439999999999984],[0.1859375,-0.005185185185185101,3.1603999996185266],[0.1859375,-0.005185185185185101,3.1803999996185297],[0.1609375,0.004444444444444402,3.19389999961853],[0.09854166666666657,0.028703703703703703,3.2106999998092647],[0.10885416666666667,0.028518518518518478,3.231599999904631],[0.1087500000000001,0.026111111111111154,3.2468999996185275],[0.08322916666666676,0.04092592592592597,3.2623999996185304],[0.04031250000000005,0.05592592592592601,3.2779999999999987],[0.05479166666666669,0.06407407407407412,3.297399999618527],[0.021041666666666715,0.07462962962962955,3.3148999996185253],[0.016562499999999977,0.07166666666666675,3.3307999997138964],[0.03854166666666667,0.06074074074074066,3.3478999996185266],[0.05343749999999995,0.05555555555555555,3.3636999998092634],[0.10041666666666677,-0.004814814814814857,3.3776999998092663],[0.06322916666666671,0.0020370370370370794,3.3992999997138966],[0.042916666666666714,-0.015370370370370286,3.4150999999046334],[0.042916666666666714,-0.015370370370370286,3.427199999809261],[0.036354166666666646,-0.04018518518518527,3.4439999999999955],[0.041770833333333354,-0.09962962962962965,3.4642999997138944],[0.05791666666666669,-0.09685185185185187,3.4791999998092606],[0.1296875,-0.09518518518518514,3.494199999809261],[0.13572916666666662,-0.08129629629629626,3.516699999809262],[0.13572916666666662,-0.08129629629629626,3.527099999904628],[0.10635416666666657,-0.07907407407407405,3.5437999997138974],[0.12197916666666657,-0.06518518518518517,3.560599999904632],[0.14093749999999997,-0.01518518518518527,3.5803999996185283],[0.18395833333333325,-0.024074074074074074,3.5955999999046284],[0.22270833333333329,-0.01777777777777782,3.610999999999997],[0.2672916666666666,-0.003703703703703704,3.6361999998092642],[0.2672916666666666,-0.003703703703703704,3.6439999999999984],[0.29635416666666664,0.03185185185185194,3.6605999999046333],[0.25729166666666664,0.012037037037037037,3.6772999997138953],[0.22406249999999991,-0.001851851851851852,3.699299999713894],[0.22406249999999991,-0.001851851851851852,3.7105999999046304],[0.25906250000000003,-0.03351851851851856,3.7273999996185267],[0.2849999999999999,-0.07111111111111107,3.75],[0.2849999999999999,-0.07111111111111107,3.7605000000000004],[0.2994791666666667,-0.11888888888888886,3.7771999998092625],[0.27239583333333334,-0.13518518518518519,3.7938999996185316],[0.2821875000000001,-0.10722222222222218,3.8137999997138934],[0.2837500000000001,-0.11370370370370367,3.8315999999046326],[0.22687499999999997,-0.1096296296296296,3.847999999999999],[0.1759375000000001,-0.10925925925925926,3.8652999997138977],[0.15666666666666676,-0.10407407407407405,3.8802999997138983],[0.13156249999999994,-0.10481481481481486,3.8965999999046304],[0.10989583333333333,-0.10888888888888891,3.912399999618529],[0.07708333333333334,-0.11296296296296296,3.9320999999046293],[0.08489583333333334,-0.1,3.9472999997138984],[0.13427083333333342,-0.11851851851851852,3.963399999618531],[0.15427083333333325,-0.1588888888888889,3.978999999999999],[0.08989583333333329,-0.12462962962962965,3.997],[0.1318749999999999,-0.17092592592592595,4.0135000000000005],[0.1318749999999999,-0.17092592592592595,4.027000000000001],[0.19760416666666672,-0.19222222222222224,4.047399999618527],[0.19364583333333343,-0.20999999999999996,4.06289999961853],[0.1896874999999999,-0.22777777777777777,4.07719999980926],[0.17260416666666673,-0.22666666666666663,4.098500000000001],[0.19052083333333342,-0.24444444444444444,4.117599999904634],[0.19052083333333342,-0.24444444444444444,4.12709999990463],[0.15989583333333332,-0.24574074074074073,4.143999999999998],[0.1414583333333333,-0.262037037037037,4.165599999904629],[0.1414583333333333,-0.262037037037037,4.177299999713895],[0.11541666666666663,-0.2683333333333333,4.19389999961853],[0.19302083333333328,-0.3320370370370371,4.212199999809265],[0.21687500000000004,-0.33351851851851855,4.233099999904631],[0.21843750000000003,-0.3225925925925926,4.247199999809261],[0.25802083333333337,-0.32,4.263399999618528],[0.31437499999999996,-0.3405555555555555,4.277799999713899],[0.3779166666666666,-0.37111111111111106,4.293599999904629],[0.44468750000000007,-0.3574074074074074,4.310699999809266],[0.44468750000000007,-0.3574074074074074,4.326899999618526],[0.5059375,-0.37333333333333335,4.34369999980926],[0.5665625000000001,-0.3742592592592593,4.360299999713895],[0.6347916666666668,-0.3851851851851852,4.379799999713896],[0.6871875000000001,-0.37111111111111106,4.394299999713894],[0.7395833333333334,-0.35703703703703704,4.410499999999999],[0.7760416666666666,-0.3638888888888889,4.430899999618525],[0.8125,-0.3707407407407407,4.446299999713894],[0.7957291666666667,-0.32814814814814813,4.462799999713894],[0.7789583333333333,-0.2855555555555555,4.476999999999997],[0.7569791666666668,-0.2737037037037037,4.493599999904632],[0.7465625,-0.28185185185185185,4.510299999713894],[0.7465625,-0.28185185185185185,4.526899999618529],[0.7066666666666668,-0.259074074074074,4.543699999809263],[0.6643749999999999,-0.22962962962962963,4.563199999809264],[0.6369791666666667,-0.2331481481481481,4.582099999904628],[0.6369791666666667,-0.2331481481481481,4.59369999980926],[0.5715625000000001,-0.21629629629629632,4.612099999904629],[0.5407291666666666,-0.1983333333333334,4.631199999809262],[0.5554166666666667,-0.20314814814814813,4.646699999809265],[0.6065625,-0.23425925925925925,4.663099999904631],[0.6178124999999999,-0.2403703703703704,4.679099999904629],[0.6092708333333334,-0.22462962962962965,4.697699999809267],[0.6092708333333334,-0.22462962962962965,4.710499999999996],[0.6608333333333334,-0.2190740740740741,4.726999999999997],[0.6608333333333334,-0.2190740740740741,4.743599999904632],[0.7006249999999999,-0.2518518518518518,4.760599999904628],[0.7928124999999999,-0.30907407407407406,4.777399999618531],[0.8228125000000001,-0.31148148148148147,4.796299999713895],[0.8228125000000001,-0.31148148148148147,4.810299999713898],[0.8623958333333335,-0.29555555555555557,4.826899999618526],[0.8623958333333335,-0.29555555555555557,4.843599999904633],[0.8625,-0.28703703703703703,4.860299999713895],[0.7928124999999999,-0.24444444444444444,4.884199999809262],[0.7928124999999999,-0.24444444444444444,4.893799999713899],[0.723125,-0.20185185185185187,4.917599999904631],[0.723125,-0.20185185185185187,4.927199999809261],[0.7224999999999999,-0.22296296296296292,4.943699999809262],[0.7224999999999999,-0.22296296296296292,4.966899999618526],[0.7200000000000001,-0.2535185185185185,4.9768999996185315],[0.7200000000000001,-0.2535185185185185,4.993799999713893],[0.6470833333333333,-0.2390740740740741,5.010299999713894],[0.6342708333333335,-0.22851851851851848,5.02969999980926],[0.5652083333333332,-0.1948148148148148,5.046299999713895],[0.5493750000000001,-0.19592592592592595,5.063299999713898],[0.5525000000000001,-0.23981481481481481,5.077699999809262],[0.5525000000000001,-0.23981481481481481,5.093599999904633],[0.5726041666666667,-0.2770370370370371,5.110299999713895],[0.6405208333333334,-0.32462962962962966,5.130199999809264],[0.7066666666666668,-0.39000000000000007,5.145499999999998],[0.723125,-0.4083333333333333,5.160799999713895],[0.7418750000000001,-0.4142592592592592,5.177799999713898],[0.7636458333333332,-0.43277777777777776,5.193599999904627],[0.7445833333333333,-0.41648148148148145,5.210899999618526],[0.7445833333333333,-0.41648148148148145,5.236599999904634],[0.7283333333333334,-0.43037037037037035,5.253099999904627],[0.7283333333333334,-0.43037037037037035,5.260299999713894],[0.7032291666666666,-0.44907407407407407,5.277099999904628],[0.6972916666666668,-0.4607407407407408,5.293799999713897],[0.6913541666666667,-0.47240740740740744,5.310399999618525],[0.6644791666666667,-0.46296296296296297,5.330099999904633],[0.6412499999999999,-0.4516666666666666,5.343599999904633],[0.6385416666666667,-0.4487037037037037,5.360299999713895],[0.6248958333333334,-0.44888888888888884,5.37689999961853],[0.6069791666666667,-0.45129629629629625,5.39359999990463],[0.583125,-0.48648148148148146,5.410299999713892],[0.5894791666666668,-0.48203703703703704,5.426899999618527],[0.5860416666666666,-0.46648148148148144,5.444199999809264],[0.5729166666666666,-0.45388888888888895,5.462899999618529],[0.5570833333333333,-0.4542592592592593,5.476999999999997],[0.5526041666666667,-0.48055555555555557,5.493899999618527],[0.5368750000000001,-0.45185185185185184,5.514899999618528],[0.5285416666666668,-0.40481481481481485,5.529899999618529],[0.5034375,-0.41574074074074074,5.543999999999997],[0.4783333333333334,-0.42666666666666664,5.562999999999995],[0.47322916666666665,-0.4105555555555555,5.576899999618526],[0.44770833333333326,-0.41148148148148145,5.593899999618529],[0.4557291666666667,-0.42296296296296293,5.610399999618529],[0.45343749999999994,-0.42462962962962963,5.6292999997138935],[0.4427083333333333,-0.41148148148148145,5.643799999713899],[0.42291666666666666,-0.3785185185185185,5.660199999809265],[0.4313541666666666,-0.3757407407407407,5.676899999618527],[0.43156249999999996,-0.40796296296296297,5.693699999809262],[0.45906250000000004,-0.38203703703703706,5.710399999618531],[0.47760416666666666,-0.33907407407407414,5.730899999618529],[0.4884375000000001,-0.3116666666666667,5.7455],[0.4884375000000001,-0.3116666666666667,5.760399999618528],[0.49239583333333337,-0.29000000000000004,5.777000000000001],[0.48802083333333335,-0.27629629629629626,5.793599999904629],[0.5011458333333333,-0.2833333333333333,5.810299999713898],[0.5254166666666668,-0.2922222222222222,5.827299999713894],[0.5264583333333335,-0.31555555555555553,5.843899999618529],[0.4946875000000001,-0.3292592592592593,5.862499999999997],[0.4666666666666667,-0.3085185185185186,5.879199999809266],[0.4568749999999999,-0.3127777777777777,5.89359999990463],[0.4569791666666667,-0.3227777777777778,5.910299999713892],[0.44562499999999994,-0.3272222222222222,5.926899999618527],[0.453125,-0.32407407407407407,5.9458999996185256],[0.45291666666666663,-0.30351851851851847,5.960299999713897],[0.44677083333333345,-0.2770370370370371,5.976999999999997],[0.41677083333333326,-0.26537037037037037,5.993699999809266],[0.40510416666666677,-0.2551851851851852,6.015199999809262],[0.40510416666666677,-0.2551851851851852,6.027000000000001],[0.4227083333333333,-0.2566666666666667,6.043599999904629],[0.4189583333333334,-0.2959259259259259,6.060199999809264],[0.39697916666666655,-0.3101851851851852,6.076899999618526],[0.38552083333333326,-0.322037037037037,6.09369999980926],[0.38958333333333334,-0.3416666666666667,6.110299999713895],[0.3758333333333333,-0.3605555555555555,6.12989999961853],[0.3485416666666666,-0.382962962962963,6.14359999990463],[0.32000000000000006,-0.4003703703703704,6.160199999809265],[0.32541666666666674,-0.39351851851851855,6.176899999618527],[0.33083333333333326,-0.3866666666666667,6.194299999713898],[0.30708333333333326,-0.402962962962963,6.210299999713897],[0.29968750000000005,-0.39888888888888885,6.227399999618527],[0.29958333333333326,-0.3851851851851852,6.243699999809266],[0.28802083333333334,-0.3851851851851852,6.260299999713894],[0.2959374999999999,-0.382962962962963,6.276899999618529],[0.3033333333333334,-0.3811111111111111,6.293599999904629],[0.31124999999999997,-0.377962962962963,6.310299999713898],[0.3195833333333333,-0.38055555555555554,6.329399999618531],[0.33312499999999995,-0.37407407407407406,6.343599999904633],[0.34520833333333345,-0.3731481481481482,6.362599999904631],[0.35489583333333335,-0.3683333333333333,6.376999999999995],[0.39083333333333337,-0.3520370370370371,6.393499999999996],[0.4055208333333333,-0.33666666666666667,6.410299999713892],[0.4276041666666667,-0.34629629629629627,6.429899999618527],[0.4234375,-0.3542592592592593,6.444599999904632],[0.42697916666666674,-0.34574074074074074,6.461999999999996],[0.42385416666666675,-0.3344444444444445,6.4768999996185315],[0.42312500000000003,-0.3244444444444444,6.493599999904632],[0.3770833333333333,-0.35333333333333333,6.510299999713894],[0.39385416666666656,-0.37037037037037035,6.530799999713899],[0.41677083333333326,-0.3677777777777778,6.545599999904631],[0.384375,-0.3542592592592593,6.560299999713898],[0.36208333333333326,-0.34388888888888886,6.576899999618526],[0.3486458333333334,-0.3101851851851852,6.593599999904633],[0.35166666666666657,-0.22370370370370374,6.610299999713895],[0.34697916666666656,-0.1537037037037037,6.62689999961853],[0.39052083333333343,-0.072037037037037,6.64359999990463],[0.43125,0.016666666666666666,6.660199999809265],[0.4727083333333333,0.11592592592592597,6.676899999618527],[0.46989583333333323,0.21592592592592597,6.69389999961853],[0.45374999999999993,0.30111111111111116,6.711599999904628],[0.4513541666666666,0.34518518518518515,6.731099999904629],[0.4638541666666666,0.39518518518518514,6.748099999904632],[0.4638541666666666,0.39518518518518514,6.760399999618528],[0.4595833333333334,0.43759259259259253,6.776899999618529]]","[0.00029999971389571556,0.05269999980926343,0.06219999980926616,0.07709999990463245,0.09559999990462842,0.11349999999999483,0.12899999999999778,0.1436999998092645,0.16039999961852658,0.17709999990463388,0.1935999999046274,0.21039999961853084,0.22699999999999676,0.24389999961852737,0.2602999997138937,0.2770999999046282,0.2936999998092631,0.310299999713898,0.32709999990463245,0.34369999980926025,0.3603999996185294,0.3770999999046296,0.39389999961852595,0.4103999996185266,0.4270999999046339,0.44379999971389594,0.4636999998092648,0.47699999999999676,0.4947999997138979,0.5111999998092642,0.5302999997138969,0.5467999997138975,0.5622999997138933,0.5777999997138963,0.5940000000000012,0.6102999997138951,0.6276999998092663,0.6436999998092645,0.6606999998092604,0.6799999999999997,0.6936999998092617,0.7104999999999961,0.727099999904631,0.744099999904634,0.7643999996185258,0.7770999999046282,0.7936999998092631,0.810299999713898,0.8300999999046326,0.8464999999999989,0.8634999999999948,0.8870000000000005,0.8937999997138988,0.910499999999999,0.9279999999999973,0.9436999998092617,0.9603999996185308,0.9778999996185291,0.9937999997138931,1.011499999999998,1.0287999997138968,1.043699999809263,1.0605999999046318,1.0771999998092596,1.0936999998092602,1.1103999996185294,1.131299999713896,1.1470999999046327,1.1621999998092605,1.1769999999999996,1.1939999999999955,1.2103999996185308,1.2269999999999968,1.243699999809266,1.260399999618528,1.277000000000001,1.2937999997138974,1.310299999713898,1.3269999999999982,1.343599999904633,1.3602999997138951,1.3769999999999953,1.3947999997138965,1.4107999997138947,1.4298999996185273,1.4462999997138937,1.4610999999046328,1.4769999999999968,1.4941999998092612,1.5108999996185304,1.5300999999046283,1.5457999997138927,1.5627999997138957,1.5769999999999982,1.5955999999046284,1.619499999999995,1.6355999999046276,1.6491999998092624,1.663099999904631,1.6770999999046339,1.6973999996185256,1.71119999980926,1.729299999713895,1.7458999996185298,1.7605000000000004,1.777000000000001,1.7938999996185316,1.8103999996185252,1.8270999999046325,1.843599999904633,1.8602999997138951,1.8769999999999953,1.8935999999046302,1.9102999997138923,1.9269999999999996,1.9435999999046274,1.9604999999999961,1.9769999999999968,1.9935999999046317,2.0101999998092666,2.028799999713897,2.043599999904629,2.060299999713898,2.0770999999046325,2.0936999998092602,2.110299999713895,2.128,2.1439999999999984,2.1603999996185266,2.1769999999999996,2.1942999997138983,2.2102999997138966,2.2269999999999968,2.243699999809266,2.260699999809262,2.277000000000001,2.293699999809263,2.310299999713898,2.3278999996185306,2.3440999999046284,2.360599999904629,2.37689999961853,2.3939999999999984,2.4102999997138923,2.4269999999999996,2.4435999999046274,2.4602999997138966,2.4769999999999968,2.493699999809266,2.510399999618528,2.5268999996185286,2.543699999809263,2.560299999713898,2.576899999618526,2.5941999998092626,2.610299999713895,2.6307999997138936,2.6435999999046302,2.6602999997138923,2.677099999904634,2.693799999713896,2.7105999999046304,2.7316999998092655,2.743699999809266,2.7605999999046276,2.777000000000001,2.793599999904629,2.810399999618525,2.8270999999046325,2.8437999997138945,2.8603999996185294,2.884199999809262,2.8936999998092645,2.9102999997138923,2.9269999999999996,2.9436999998092617,2.960499999999996,2.9768999996185315,2.993699999809266,3.0101999998092666,3.0271999998092625,3.043599999904629,3.060299999713898,3.0771999998092596,3.093899999618529,3.115399999618525,3.1270999999046296,3.1439999999999984,3.1603999996185266,3.1803999996185297,3.19389999961853,3.2106999998092647,3.231599999904631,3.2468999996185275,3.2623999996185304,3.2779999999999987,3.297399999618527,3.3148999996185253,3.3307999997138964,3.3478999996185266,3.3636999998092634,3.3776999998092663,3.3992999997138966,3.4150999999046334,3.427199999809261,3.4439999999999955,3.4642999997138944,3.4791999998092606,3.494199999809261,3.516699999809262,3.527099999904628,3.5437999997138974,3.560599999904632,3.5803999996185283,3.5955999999046284,3.610999999999997,3.6361999998092642,3.6439999999999984,3.6605999999046333,3.6772999997138953,3.699299999713894,3.7105999999046304,3.7273999996185267,3.75,3.7605000000000004,3.7771999998092625,3.7938999996185316,3.8137999997138934,3.8315999999046326,3.847999999999999,3.8652999997138977,3.8802999997138983,3.8965999999046304,3.912399999618529,3.9320999999046293,3.9472999997138984,3.963399999618531,3.978999999999999,3.997,4.0135000000000005,4.027000000000001,4.047399999618527,4.06289999961853,4.07719999980926,4.098500000000001,4.117599999904634,4.12709999990463,4.143999999999998,4.165599999904629,4.177299999713895,4.19389999961853,4.212199999809265,4.233099999904631,4.247199999809261,4.263399999618528,4.277799999713899,4.293599999904629,4.310699999809266,4.326899999618526,4.34369999980926,4.360299999713895,4.379799999713896,4.394299999713894,4.410499999999999,4.430899999618525,4.446299999713894,4.462799999713894,4.476999999999997,4.493599999904632,4.510299999713894,4.526899999618529,4.543699999809263,4.563199999809264,4.582099999904628,4.59369999980926,4.612099999904629,4.631199999809262,4.646699999809265,4.663099999904631,4.679099999904629,4.697699999809267,4.710499999999996,4.726999999999997,4.743599999904632,4.760599999904628,4.777399999618531,4.796299999713895,4.810299999713898,4.826899999618526,4.843599999904633,4.860299999713895,4.884199999809262,4.893799999713899,4.917599999904631,4.927199999809261,4.943699999809262,4.966899999618526,4.9768999996185315,4.993799999713893,5.010299999713894,5.02969999980926,5.046299999713895,5.063299999713898,5.077699999809262,5.093599999904633,5.110299999713895,5.130199999809264,5.145499999999998,5.160799999713895,5.177799999713898,5.193599999904627,5.210899999618526,5.236599999904634,5.253099999904627,5.260299999713894,5.277099999904628,5.293799999713897,5.310399999618525,5.330099999904633,5.343599999904633,5.360299999713895,5.37689999961853,5.39359999990463,5.410299999713892,5.426899999618527,5.444199999809264,5.462899999618529,5.476999999999997,5.493899999618527,5.514899999618528,5.529899999618529,5.543999999999997,5.562999999999995,5.576899999618526,5.593899999618529,5.610399999618529,5.6292999997138935,5.643799999713899,5.660199999809265,5.676899999618527,5.693699999809262,5.710399999618531,5.730899999618529,5.7455,5.760399999618528,5.777000000000001,5.793599999904629,5.810299999713898,5.827299999713894,5.843899999618529,5.862499999999997,5.879199999809266,5.89359999990463,5.910299999713892,5.926899999618527,5.9458999996185256,5.960299999713897,5.976999999999997,5.993699999809266,6.015199999809262,6.027000000000001,6.043599999904629,6.060199999809264,6.076899999618526,6.09369999980926,6.110299999713895,6.12989999961853,6.14359999990463,6.160199999809265,6.176899999618527,6.194299999713898,6.210299999713897,6.227399999618527,6.243699999809266,6.260299999713894,6.276899999618529,6.293599999904629,6.310299999713898,6.329399999618531,6.343599999904633,6.362599999904631,6.376999999999995,6.393499999999996,6.410299999713892,6.429899999618527,6.444599999904632,6.461999999999996,6.4768999996185315,6.493599999904632,6.510299999713894,6.530799999713899,6.545599999904631,6.560299999713898,6.576899999618526,6.593599999904633,6.610299999713895,6.62689999961853,6.64359999990463,6.660199999809265,6.676899999618527,6.69389999961853,6.711599999904628,6.731099999904629,6.748099999904632,6.760399999618528,6.776899999618529]","[1731897159942,1731897159984,1731897159994,1731897160009,1731897160027,1731897160045,1731897160060,1731897160075,1731897160092,1731897160109,1731897160125,1731897160142,1731897160159,1731897160176,1731897160192,1731897160209,1731897160225,1731897160242,1731897160259,1731897160275,1731897160292,1731897160309,1731897160325,1731897160342,1731897160359,1731897160375,1731897160395,1731897160409,1731897160426,1731897160443,1731897160462,1731897160478,1731897160494,1731897160509,1731897160526,1731897160542,1731897160559,1731897160575,1731897160592,1731897160612,1731897160625,1731897160642,1731897160659,1731897160676,1731897160696,1731897160709,1731897160725,1731897160742,1731897160762,1731897160778,1731897160795,1731897160819,1731897160825,1731897160842,1731897160860,1731897160875,1731897160892,1731897160909,1731897160925,1731897160943,1731897160960,1731897160975,1731897160992,1731897161009,1731897161025,1731897161042,1731897161063,1731897161079,1731897161094,1731897161109,1731897161126,1731897161142,1731897161159,1731897161175,1731897161192,1731897161209,1731897161225,1731897161242,1731897161259,1731897161275,1731897161292,1731897161309,1731897161326,1731897161342,1731897161361,1731897161378,1731897161393,1731897161409,1731897161426,1731897161442,1731897161462,1731897161477,1731897161494,1731897161509,1731897161527,1731897161551,1731897161567,1731897161581,1731897161595,1731897161609,1731897161629,1731897161643,1731897161661,1731897161677,1731897161692,1731897161709,1731897161725,1731897161742,1731897161759,1731897161775,1731897161792,1731897161809,1731897161825,1731897161842,1731897161859,1731897161875,1731897161892,1731897161909,1731897161925,1731897161942,1731897161960,1731897161975,1731897161992,1731897162009,1731897162025,1731897162042,1731897162060,1731897162075,1731897162092,1731897162109,1731897162126,1731897162142,1731897162159,1731897162175,1731897162192,1731897162209,1731897162225,1731897162242,1731897162260,1731897162276,1731897162292,1731897162309,1731897162326,1731897162342,1731897162359,1731897162375,1731897162392,1731897162409,1731897162425,1731897162442,1731897162459,1731897162475,1731897162492,1731897162508,1731897162526,1731897162542,1731897162562,1731897162575,1731897162592,1731897162609,1731897162625,1731897162642,1731897162663,1731897162675,1731897162692,1731897162709,1731897162725,1731897162742,1731897162759,1731897162775,1731897162792,1731897162816,1731897162825,1731897162842,1731897162859,1731897162875,1731897162892,1731897162908,1731897162925,1731897162942,1731897162959,1731897162975,1731897162992,1731897163009,1731897163025,1731897163047,1731897163059,1731897163076,1731897163092,1731897163112,1731897163125,1731897163142,1731897163163,1731897163178,1731897163194,1731897163210,1731897163229,1731897163246,1731897163262,1731897163279,1731897163295,1731897163309,1731897163331,1731897163347,1731897163359,1731897163376,1731897163396,1731897163411,1731897163426,1731897163448,1731897163459,1731897163475,1731897163492,1731897163512,1731897163527,1731897163543,1731897163568,1731897163576,1731897163592,1731897163609,1731897163631,1731897163642,1731897163659,1731897163682,1731897163692,1731897163709,1731897163725,1731897163745,1731897163763,1731897163780,1731897163797,1731897163812,1731897163828,1731897163844,1731897163864,1731897163879,1731897163895,1731897163911,1731897163929,1731897163945,1731897163959,1731897163979,1731897163994,1731897164009,1731897164030,1731897164049,1731897164059,1731897164076,1731897164097,1731897164109,1731897164125,1731897164144,1731897164165,1731897164179,1731897164195,1731897164209,1731897164225,1731897164242,1731897164259,1731897164275,1731897164292,1731897164311,1731897164326,1731897164342,1731897164362,1731897164378,1731897164394,1731897164409,1731897164425,1731897164442,1731897164459,1731897164475,1731897164495,1731897164514,1731897164525,1731897164544,1731897164563,1731897164578,1731897164595,1731897164611,1731897164629,1731897164642,1731897164659,1731897164675,1731897164692,1731897164709,1731897164728,1731897164742,1731897164758,1731897164775,1731897164792,1731897164816,1731897164825,1731897164849,1731897164859,1731897164875,1731897164898,1731897164908,1731897164925,1731897164942,1731897164961,1731897164978,1731897164995,1731897165009,1731897165025,1731897165042,1731897165062,1731897165077,1731897165092,1731897165109,1731897165125,1731897165142,1731897165168,1731897165185,1731897165192,1731897165209,1731897165225,1731897165242,1731897165262,1731897165275,1731897165292,1731897165308,1731897165325,1731897165342,1731897165359,1731897165376,1731897165394,1731897165409,1731897165425,1731897165447,1731897165461,1731897165476,1731897165495,1731897165508,1731897165525,1731897165542,1731897165561,1731897165575,1731897165592,1731897165608,1731897165625,1731897165642,1731897165662,1731897165677,1731897165692,1731897165709,1731897165725,1731897165742,1731897165759,1731897165775,1731897165794,1731897165811,1731897165825,1731897165842,1731897165859,1731897165877,1731897165892,1731897165909,1731897165925,1731897165947,1731897165958,1731897165975,1731897165992,1731897166009,1731897166025,1731897166042,1731897166062,1731897166075,1731897166092,1731897166108,1731897166126,1731897166142,1731897166159,1731897166175,1731897166192,1731897166208,1731897166225,1731897166242,1731897166261,1731897166275,1731897166294,1731897166309,1731897166325,1731897166342,1731897166361,1731897166376,1731897166394,1731897166408,1731897166425,1731897166442,1731897166462,1731897166477,1731897166492,1731897166508,1731897166525,1731897166542,1731897166558,1731897166575,1731897166592,1731897166609,1731897166625,1731897166643,1731897166663,1731897166680,1731897166692,1731897166709]","[[939.2,574.6],[939.2,574.6],[952.6,564.9],[966.1,566.4],[954.8,554.6],[960.9,554.1],[963.4,548.9],[945.2,516],[952.5,489.5],[975.8,473],[999.1,456.5],[1022.5,461],[1022.5,461],[1035.3,468.5],[1035.3,468.5],[1080.8,512.9],[1080.8,512.9],[1106.6,579.8],[1106.6,579.8],[1162.8,628.6],[1162.8,628.6],[1195.2,671.9],[1195.2,671.9],[1243.1,733.6],[1243.1,733.6],[1248,755.1],[1248,755.1],[1247.4,762.9],[1221.4,763.6],[1211.7,730.3],[1202.4,707.8],[1148.3,638.6],[1111.7,553.4],[1078.9,485],[1075.9,419.2],[1048,356.7],[1035.4,326],[1021.2,307.1],[1022.5,290.8],[968.7,290.1],[968.7,290.1],[933.7,283.3],[933.7,283.3],[910.6,286.9],[894.5,291.7],[894.5,291.7],[845,295.1],[803.1,298.6],[819.9,293.5],[789.3,303.6],[819.1,302.5],[846.5,313.7],[846.5,313.7],[918.2,327.4],[992.5,329.3],[1056.9,321],[1127.9,313.6],[1216.2,321.6],[1296.9,329.5],[1323.6,344.8],[1396.1,347.7],[1406.7,365.2],[1443.2,369.5],[1443.2,369.5],[1486.6,369],[1487,393.3],[1495.3,427],[1512,446.1],[1498.3,453.8],[1484.6,461.5],[1488.8,475.6],[1496.8,488.9],[1496.8,488.9],[1521.9,491.3],[1551,493.9],[1532.2,504.1],[1543.3,498.4],[1541.8,476.8],[1541.8,476.8],[1559.7,466.8],[1571.8,457.4],[1597.6,479.6],[1607.8,513.5],[1607.3,545],[1593.5,582.2],[1570.3,617.1],[1582.5,644.1],[1559.3,676.4],[1548.7,724.6],[1529,780],[1529.9,830.5],[1531.9,840.8],[1537.9,833.3],[1554.6,828.2],[1578.6,809.2],[1594.4,797.7],[1594.4,797.7],[1612.7,781.2],[1657.8,748],[1702.9,714.8],[1704,683.1],[1698.8,644.6],[1678.8,614.7],[1675.9,577.1],[1675.9,577.1],[1673,539.5],[1653.1,517.5],[1616.6,496.7],[1577.6,480.9],[1571,467.9],[1564.4,454.9],[1581.9,437.3],[1604,426.8],[1614.7,419.1],[1608.3,419.1],[1602.1,416.9],[1605.6,413],[1625.7,407.9],[1651.6,393.3],[1639.7,390.9],[1592.6,400.4],[1583.8,393.1],[1553.4,393.8],[1544.2,396.1],[1527.4,384.1],[1504.7,383.7],[1486.7,374],[1473.3,365.6],[1454.1,366.7],[1444.9,371.1],[1462.6,366.1],[1450.6,371.4],[1450.6,371.4],[1460.2,368.7],[1457.7,362.5],[1457.9,372.5],[1468.6,372.9],[1470,384.1],[1466.8,394],[1454.3,404.9],[1437.1,407.1],[1428.2,406.8],[1373.1,417.2],[1313.6,428.4],[1253.3,431.6],[1197.9,432.9],[1120.6,439.6],[1047.9,444.8],[970.1,442.4],[898.8,443.5],[898.8,443.5],[851.3,437.4],[780.8,440.3],[736.2,439],[696,436.9],[672.2,436.5],[648.4,436.1],[648.4,436.1],[632.8,433.1],[632.8,433.1],[634.1,419.9],[626,424.1],[620.7,423.8],[620.7,423.8],[596.5,445.2],[595.3,457.6],[595.4,470.3],[595.4,470.3],[595.5,483],[595.5,483],[612,501.4],[632.6,536.1],[632.6,536.1],[651.4,559],[651.4,559],[699.7,576.7],[699.7,576.7],[764.4,587],[764.4,587],[809.8,593.9],[848.2,592.4],[848.2,592.4],[897.8,585.6],[975.7,577.3],[1053.6,569],[1094.7,559.7],[1094.7,559.7],[1103.6,541.4],[1138.5,537.2],[1138.5,537.2],[1114.5,542.4],[1054.6,555.5],[1064.5,555.4],[1064.4,554.1],[1039.9,562.1],[998.7,570.2],[1012.6,574.6],[980.2,580.3],[975.9,578.7],[997,572.8],[1011.3,570],[1056.4,537.4],[1020.7,541.1],[1001.2,531.7],[1001.2,531.7],[994.9,518.3],[1000.1,486.2],[1015.6,487.7],[1084.5,488.6],[1090.3,496.1],[1090.3,496.1],[1062.1,497.3],[1077.1,504.8],[1095.3,531.8],[1136.6,527],[1173.8,530.4],[1216.6,538],[1216.6,538],[1244.5,557.2],[1207,546.5],[1175.1,539],[1175.1,539],[1208.7,521.9],[1233.6,501.6],[1233.6,501.6],[1247.5,475.8],[1221.5,467],[1230.9,482.1],[1232.4,478.6],[1177.8,480.8],[1128.9,481],[1110.4,483.8],[1086.3,483.4],[1065.5,481.2],[1034,479],[1041.5,486],[1088.9,476],[1108.1,454.2],[1046.3,472.7],[1086.6,447.7],[1086.6,447.7],[1149.7,436.2],[1145.9,426.6],[1142.1,417],[1125.7,417.6],[1142.9,408],[1142.9,408],[1113.5,407.3],[1095.8,398.5],[1095.8,398.5],[1070.8,395.1],[1145.3,360.7],[1168.2,359.9],[1169.7,365.8],[1207.7,367.2],[1261.8,356.1],[1322.8,339.6],[1386.9,347],[1386.9,347],[1445.7,338.4],[1503.9,337.9],[1569.4,332],[1619.7,339.6],[1670,347.2],[1705,343.5],[1740,339.8],[1723.9,362.8],[1707.8,385.8],[1686.7,392.2],[1676.7,387.8],[1676.7,387.8],[1638.4,400.1],[1597.8,416],[1571.5,414.1],[1571.5,414.1],[1508.7,423.2],[1479.1,432.9],[1493.2,430.3],[1542.3,413.5],[1553.1,410.2],[1544.9,418.7],[1544.9,418.7],[1594.4,421.7],[1594.4,421.7],[1632.6,404],[1721.1,373.1],[1749.9,371.8],[1749.9,371.8],[1787.9,380.4],[1787.9,380.4],[1788,385],[1721.1,408],[1721.1,408],[1654.2,431],[1654.2,431],[1653.6,419.6],[1653.6,419.6],[1651.2,403.1],[1651.2,403.1],[1581.2,410.9],[1568.9,416.6],[1502.6,434.8],[1487.4,434.2],[1490.4,410.5],[1490.4,410.5],[1509.7,390.4],[1574.9,364.7],[1638.4,329.4],[1654.2,319.5],[1672.2,316.3],[1693.1,306.3],[1674.8,315.1],[1674.8,315.1],[1659.2,307.6],[1659.2,307.6],[1635.1,297.5],[1629.4,291.2],[1623.7,284.9],[1597.9,290],[1575.6,296.1],[1573,297.7],[1559.9,297.6],[1542.7,296.3],[1519.8,277.3],[1525.9,279.7],[1522.6,288.1],[1510,294.9],[1494.8,294.7],[1490.5,280.5],[1475.4,296],[1467.4,321.4],[1443.3,315.5],[1419.2,309.6],[1414.3,318.3],[1389.8,317.8],[1397.5,311.6],[1395.3,310.7],[1385,317.8],[1366,335.6],[1374.1,337.1],[1374.3,319.7],[1400.7,333.7],[1418.5,356.9],[1428.9,371.7],[1428.9,371.7],[1432.7,383.4],[1428.5,390.8],[1441.1,387],[1464.4,382.2],[1465.4,369.6],[1434.9,362.2],[1408,373.4],[1398.6,371.1],[1398.7,365.7],[1387.8,363.3],[1395,365],[1394.8,376.1],[1388.9,390.4],[1360.1,396.7],[1348.9,402.2],[1348.9,402.2],[1365.8,401.4],[1362.2,380.2],[1341.1,372.5],[1330.1,366.1],[1334,355.5],[1320.8,345.3],[1294.6,333.2],[1267.2,323.8],[1272.4,327.5],[1277.6,331.2],[1254.8,322.4],[1247.7,324.6],[1247.6,332],[1236.5,332],[1244.1,333.2],[1251.2,334.2],[1258.8,335.9],[1266.8,334.5],[1279.8,338],[1291.4,338.5],[1300.7,341.1],[1335.2,349.9],[1349.3,358.2],[1370.5,353],[1366.5,348.7],[1369.9,353.3],[1366.9,359.4],[1366.2,364.8],[1322,349.2],[1338.1,340],[1360.1,341.4],[1329,348.7],[1307.6,354.3],[1294.7,372.5],[1297.6,419.2],[1293.1,457],[1334.9,501.1],[1374,549],[1413.8,602.6],[1411.1,656.6],[1395.6,702.6],[1393.3,726.4],[1405.3,753.4],[1405.3,753.4],[1401.2,776.3]]","[-0.142,0.42599999999999993]","[0.142,0.42599999999999993]","[0.42599999999999993,0.42599999999999993]","[-0.42599999999999993,-0.142]","[-0.42599999999999993,0.142]","[-0.42599999999999993,-0.42599999999999993]","[-0.142,-0.142]","[0.142,-0.142]","[0.42599999999999993,-0.142]","[-0.142,0.142]","[0.142,0.142]","[0.42599999999999993,0.142]","[-0.142,-0.42599999999999993]","[0.142,-0.42599999999999993]","[0.42599999999999993,-0.42599999999999993]",0,0,0,0,1,2,Laptop,15,20,8,3,70,4,3,60,4
