inst1_resp.keys,inst1_resp.rt,calibrationMouse.x,calibrationMouse.y,calibrationMouse.leftButton,calibrationMouse.midButton,calibrationMouse.rightButton,calibrationClick.x,calibrationClick.y,calibrationClick.leftButton,calibrationClick.midButton,calibrationClick.rightButton,trialsc.thisRepN,trialsc.thisTrialN,trialsc.thisN,trialsc.thisIndex,trialsc.ran,calibration_x,calibration_y,participant,session,date,expName,psychopyVersion,OS,frameRate,calibrationClick.clicked_name,ScreenRes_pixels,Camera_pixels,mouse_2.x,mouse_2.y,mouse_2.leftButton,mouse_2.midButton,mouse_2.rightButton,mouse_2.time,mouse_2.clicked_name,mouse.x,mouse.y,mouse.leftButton,mouse.midButton,mouse.rightButton,mouse.time,mouse.clicked_name,Choice,Trial,TrialDuration,MOUSE_GAZE,ET_GAZE,ET_GAZE_x_T,time,unixTime,ET_GAZE_NF,Loc_Bus_label,Loc_Metro_label,Loc_RH_label,Loc_Cost_label,Loc_Travel_label,Loc_Comfort_label,Loc_Bus_cost,Loc_Metro_cost,Loc_RH_cost,Loc_Bus_travel,Loc_Metro_travel,Loc_RH_travel,Loc_Bus_comfort,Loc_Metro_comfort,Loc_RH_comfort,trials.thisRepN,trials.thisTrialN,trials.thisN,trials.thisIndex,trials.ran,Block,Device,RH_cost,RH_travel_time,RH_Comfort,metro_cost,metro_travel_time,metro_Comfort,Bus_cost,Bus_travel_time,Bus_Comfort
space,1.8845,0.122916667,-0.316666667,1,0,0,0.319791667,-0.314814815,1,0,0,0,0,0,15,1,0.33,-0.33,34,001,2024-11-18_10h22.05.711,Attention_exp_legacy,2023.1.0,Win32,59.88023952,,,,,,,,,,,,,,,,,,,,,,,,,,,,,,,,,,,,,,,,,,,,,,,,,,,,,,,,,
,,,,,,,-0.657291667,0.32037037,1,0,0,0,1,1,3,1,-0.67,0.33,34,001,2024-11-18_10h22.05.711,Attention_exp_legacy,2023.1.0,Win32,59.88023952,,,,,,,,,,,,,,,,,,,,,,,,,,,,,,,,,,,,,,,,,,,,,,,,,,,,,,,,,
,,,,,,,-0.328125,-0.683333333,1,0,0,0,2,2,4,1,-0.33,-0.67,34,001,2024-11-18_10h22.05.711,Attention_exp_legacy,2023.1.0,Win32,59.88023952,,,,,,,,,,,,,,,,,,,,,,,,,,,,,,,,,,,,,,,,,,,,,,,,,,,,,,,,,
,,,,,,,0.68125,-0.672222222,1,0,0,0,3,3,20,1,0.67,-0.67,34,001,2024-11-18_10h22.05.711,Attention_exp_legacy,2023.1.0,Win32,59.88023952,,,,,,,,,,,,,,,,,,,,,,,,,,,,,,,,,,,,,,,,,,,,,,,,,,,,,,,,,
,,,,,,,-0.005208333,-0.672222222,1,0,0,0,4,4,9,1,0,-0.67,34,001,2024-11-18_10h22.05.711,Attention_exp_legacy,2023.1.0,Win32,59.88023952,calibration_square,,,,,,,,,,,,,,,,,,,,,,,,,,,,,,,,,,,,,,,,,,,,,,,,,,,,,,,,
,,,,,,,-0.665625,-0.346296296,1,0,0,0,5,5,1,1,-0.67,-0.33,34,001,2024-11-18_10h22.05.711,Attention_exp_legacy,2023.1.0,Win32,59.88023952,,,,,,,,,,,,,,,,,,,,,,,,,,,,,,,,,,,,,,,,,,,,,,,,,,,,,,,,,
,,,,,,,-0.3125,0.337037037,1,0,0,0,6,6,7,1,-0.33,0.33,34,001,2024-11-18_10h22.05.711,Attention_exp_legacy,2023.1.0,Win32,59.88023952,,,,,,,,,,,,,,,,,,,,,,,,,,,,,,,,,,,,,,,,,,,,,,,,,,,,,,,,,
,,,,,,,-0.013541667,-0.331481481,1,0,0,0,7,7,10,1,0,-0.33,34,001,2024-11-18_10h22.05.711,Attention_exp_legacy,2023.1.0,Win32,59.88023952,,,,,,,,,,,,,,,,,,,,,,,,,,,,,,,,,,,,,,,,,,,,,,,,,,,,,,,,,
,,,,,,,-0.001041667,0.35,1,0,0,0,8,8,12,1,0,0.33,34,001,2024-11-18_10h22.05.711,Attention_exp_legacy,2023.1.0,Win32,59.88023952,,,,,,,,,,,,,,,,,,,,,,,,,,,,,,,,,,,,,,,,,,,,,,,,,,,,,,,,,
,,,,,,,0.321875,0.001851852,1,0,0,0,9,9,16,1,0.33,0,34,001,2024-11-18_10h22.05.711,Attention_exp_legacy,2023.1.0,Win32,59.88023952,calibration_square,,,,,,,,,,,,,,,,,,,,,,,,,,,,,,,,,,,,,,,,,,,,,,,,,,,,,,,,
,,,,,,,-0.684375,0.016666667,1,0,0,0,10,10,2,1,-0.67,0,34,001,2024-11-18_10h22.05.711,Attention_exp_legacy,2023.1.0,Win32,59.88023952,,,,,,,,,,,,,,,,,,,,,,,,,,,,,,,,,,,,,,,,,,,,,,,,,,,,,,,,,
,,,,,,,-0.339583333,-0.318518519,1,0,0,0,11,11,5,1,-0.33,-0.33,34,001,2024-11-18_10h22.05.711,Attention_exp_legacy,2023.1.0,Win32,59.88023952,,,,,,,,,,,,,,,,,,,,,,,,,,,,,,,,,,,,,,,,,,,,,,,,,,,,,,,,,
,,,,,,,-0.340625,0.666666667,1,0,0,0,12,12,8,1,-0.33,0.67,34,001,2024-11-18_10h22.05.711,Attention_exp_legacy,2023.1.0,Win32,59.88023952,,,,,,,,,,,,,,,,,,,,,,,,,,,,,,,,,,,,,,,,,,,,,,,,,,,,,,,,,
,,,,,,,0.31875,-0.67962963,1,0,0,0,13,13,14,1,0.33,-0.67,34,001,2024-11-18_10h22.05.711,Attention_exp_legacy,2023.1.0,Win32,59.88023952,,,,,,,,,,,,,,,,,,,,,,,,,,,,,,,,,,,,,,,,,,,,,,,,,,,,,,,,,
,,,,,,,-0.014583333,-0.009259259,1,0,0,0,14,14,11,1,0,0,34,001,2024-11-18_10h22.05.711,Attention_exp_legacy,2023.1.0,Win32,59.88023952,,,,,,,,,,,,,,,,,,,,,,,,,,,,,,,,,,,,,,,,,,,,,,,,,,,,,,,,,
,,,,,,,-0.66875,-0.662962963,1,0,0,0,15,15,0,1,-0.67,-0.67,34,001,2024-11-18_10h22.05.711,Attention_exp_legacy,2023.1.0,Win32,59.88023952,calibration_square,,,,,,,,,,,,,,,,,,,,,,,,,,,,,,,,,,,,,,,,,,,,,,,,,,,,,,,,
,,,,,,,0.326041667,0.342592593,1,0,0,0,16,16,17,1,0.33,0.33,34,001,2024-11-18_10h22.05.711,Attention_exp_legacy,2023.1.0,Win32,59.88023952,,,,,,,,,,,,,,,,,,,,,,,,,,,,,,,,,,,,,,,,,,,,,,,,,,,,,,,,,
,,,,,,,-0.007291667,0.657407407,1,0,0,0,17,17,13,1,0,0.67,34,001,2024-11-18_10h22.05.711,Attention_exp_legacy,2023.1.0,Win32,59.88023952,,,,,,,,,,,,,,,,,,,,,,,,,,,,,,,,,,,,,,,,,,,,,,,,,,,,,,,,,
,,,,,,,0.326041667,0.672222222,1,0,0,0,18,18,18,1,0.33,0.67,34,001,2024-11-18_10h22.05.711,Attention_exp_legacy,2023.1.0,Win32,59.88023952,calibration_square,,,,,,,,,,,,,,,,,,,,,,,,,,,,,,,,,,,,,,,,,,,,,,,,,,,,,,,,
,,,,,,,-0.339583333,-0.007407407,1,0,0,0,19,19,6,1,-0.33,0,34,001,2024-11-18_10h22.05.711,Attention_exp_legacy,2023.1.0,Win32,59.88023952,calibration_square,,,,,,,,,,,,,,,,,,,,,,,,,,,,,,,,,,,,,,,,,,,,,,,,,,,,,,,,
,,,,,,,0.664583333,0.690740741,1,0,0,0,20,20,19,1,0.67,0.67,34,001,2024-11-18_10h22.05.711,Attention_exp_legacy,2023.1.0,Win32,59.88023952,,,,,,,,,,,,,,,,,,,,,,,,,,,,,,,,,,,,,,,,,,,,,,,,,,,,,,,,,
,,,,,,,,,,,,,,,,,,,34,001,2024-11-18_10h22.05.711,Attention_exp_legacy,2023.1.0,Win32,59.88023952,,"[1920,1080]","[640,480]",[0.046875],[-0.48333333333333334],[1],[0],[0],[1.4979000000953704],"[""StartButton""]",[0.16979166666666667],[0.1814814814814815],[1],[0],[0],[9.415099999904626],"[""RH_label""]",RH_label,1,10.4483,"[[0.05416666666666667,-0.4759259259259259],[0.05416666666666667,-0.4759259259259259],[0.05416666666666667,-0.4759259259259259],[0.05416666666666667,-0.4759259259259259],[0.05416666666666667,-0.4759259259259259],[0.05416666666666667,-0.4759259259259259],[0.05416666666666667,-0.4759259259259259],[0.05416666666666667,-0.4759259259259259],[0.05416666666666667,-0.4759259259259259],[0.05416666666666667,-0.4759259259259259],[0.05416666666666667,-0.4759259259259259],[0.05416666666666667,-0.4759259259259259],[0.05416666666666667,-0.4759259259259259],[0.05416666666666667,-0.4759259259259259],[0.05416666666666667,-0.4759259259259259],[0.05416666666666667,-0.4759259259259259],[0.05416666666666667,-0.4759259259259259],[0.05416666666666667,-0.4759259259259259],[0.05416666666666667,-0.4759259259259259],[0.05416666666666667,-0.4759259259259259],[0.05416666666666667,-0.4759259259259259],[0.05416666666666667,-0.4759259259259259],[0.05416666666666667,-0.4759259259259259],[0.05416666666666667,-0.4759259259259259],[0.05416666666666667,-0.4759259259259259],[0.05416666666666667,-0.4759259259259259],[0.05416666666666667,-0.4759259259259259],[0.05416666666666667,-0.4759259259259259],[0.05416666666666667,-0.4759259259259259],[0.05416666666666667,-0.4759259259259259],[0.05416666666666667,-0.4759259259259259],[0.05416666666666667,-0.4759259259259259],[0.05416666666666667,-0.4759259259259259],[0.05416666666666667,-0.4759259259259259],[0.05416666666666667,-0.4759259259259259],[0.05416666666666667,-0.4759259259259259],[0.05416666666666667,-0.4759259259259259],[0.05416666666666667,-0.4759259259259259],[0.05416666666666667,-0.4759259259259259],[0.05416666666666667,-0.4759259259259259],[0.05416666666666667,-0.4759259259259259],[0.05416666666666667,-0.4759259259259259],[0.05416666666666667,-0.4759259259259259],[0.05416666666666667,-0.4759259259259259],[0.05416666666666667,-0.4759259259259259],[0.05416666666666667,-0.4759259259259259],[0.05416666666666667,-0.4759259259259259],[0.05416666666666667,-0.4759259259259259],[0.05416666666666667,-0.4759259259259259],[0.05416666666666667,-0.4759259259259259],[0.05416666666666667,-0.4759259259259259],[0.05416666666666667,-0.4759259259259259],[0.05416666666666667,-0.4759259259259259],[0.05416666666666667,-0.4759259259259259],[0.05416666666666667,-0.46111111111111114],[0.05416666666666667,-0.4462962962962963],[0.05416666666666667,-0.42777777777777776],[0.05416666666666667,-0.412962962962963],[0.05,-0.3907407407407407],[0.04479166666666667,-0.37407407407407406],[0.03229166666666667,-0.3388888888888889],[0.020833333333333332,-0.30925925925925923],[0.011458333333333333,-0.28888888888888886],[0.0010416666666666667,-0.26851851851851855],[-0.009375,-0.25],[-0.026041666666666668,-0.22777777777777777],[-0.034375,-0.21296296296296297],[-0.04375,-0.19444444444444445],[-0.04895833333333333,-0.18333333333333332],[-0.053125,-0.17407407407407408],[-0.05625,-0.1648148148148148],[-0.06041666666666667,-0.15],[-0.06354166666666666,-0.1388888888888889],[-0.065625,-0.12962962962962962],[-0.065625,-0.12407407407407407],[-0.06666666666666667,-0.11851851851851852],[-0.06666666666666667,-0.11296296296296296],[-0.06875,-0.10555555555555556],[-0.07083333333333333,-0.09814814814814815],[-0.07395833333333333,-0.09444444444444444],[-0.078125,-0.09259259259259259],[-0.08854166666666667,-0.08703703703703704],[-0.09270833333333334,-0.08333333333333333],[-0.09375,-0.08148148148148149],[-0.09479166666666666,-0.07962962962962963],[-0.096875,-0.07592592592592592],[-0.096875,-0.07592592592592592],[-0.096875,-0.07592592592592592],[-0.096875,-0.07592592592592592],[-0.096875,-0.07407407407407407],[-0.096875,-0.07407407407407407],[-0.096875,-0.07222222222222222],[-0.09479166666666666,-0.06111111111111111],[-0.08541666666666667,-0.016666666666666666],[-0.08333333333333333,0.005555555555555556],[-0.08020833333333334,0.02962962962962963],[-0.08020833333333334,0.04259259259259259],[-0.07916666666666666,0.053703703703703705],[-0.07916666666666666,0.06111111111111111],[-0.07916666666666666,0.07037037037037037],[-0.07604166666666666,0.07962962962962963],[-0.07604166666666666,0.08703703703703704],[-0.07604166666666666,0.09444444444444444],[-0.07291666666666667,0.1037037037037037],[-0.07083333333333333,0.11851851851851852],[-0.06979166666666667,0.12777777777777777],[-0.06875,0.13148148148148148],[-0.06666666666666667,0.13703703703703704],[-0.065625,0.1388888888888889],[-0.06458333333333334,0.14074074074074075],[-0.06145833333333333,0.14629629629629629],[-0.059375,0.14814814814814814],[-0.058333333333333334,0.14814814814814814],[-0.058333333333333334,0.14814814814814814],[-0.05625,0.14814814814814814],[-0.05520833333333333,0.14814814814814814],[-0.052083333333333336,0.15],[-0.052083333333333336,0.15],[-0.052083333333333336,0.15],[-0.051041666666666666,0.15],[-0.05,0.15],[-0.04895833333333333,0.15],[-0.040625,0.14814814814814814],[-0.034375,0.14444444444444443],[-0.029166666666666667,0.1388888888888889],[-0.026041666666666668,0.13518518518518519],[-0.025,0.13518518518518519],[-0.025,0.13333333333333333],[-0.025,0.13333333333333333],[-0.025,0.13333333333333333],[-0.025,0.12777777777777777],[-0.025,0.12222222222222222],[-0.028125,0.11666666666666667],[-0.03229166666666667,0.10740740740740741],[-0.0375,0.1],[-0.042708333333333334,0.09074074074074075],[-0.046875,0.08518518518518518],[-0.05,0.08333333333333333],[-0.052083333333333336,0.07777777777777778],[-0.05416666666666667,0.07222222222222222],[-0.058333333333333334,0.06851851851851852],[-0.0625,0.06296296296296296],[-0.06458333333333334,0.05925925925925926],[-0.06770833333333333,0.05555555555555555],[-0.06770833333333333,0.05555555555555555],[-0.06770833333333333,0.053703703703703705],[-0.06770833333333333,0.053703703703703705],[-0.06770833333333333,0.053703703703703705],[-0.06770833333333333,0.053703703703703705],[-0.06770833333333333,0.053703703703703705],[-0.06770833333333333,0.053703703703703705],[-0.06770833333333333,0.053703703703703705],[-0.06770833333333333,0.053703703703703705],[-0.06770833333333333,0.053703703703703705],[-0.06354166666666666,0.053703703703703705],[-0.052083333333333336,0.053703703703703705],[-0.042708333333333334,0.053703703703703705],[-0.03229166666666667,0.053703703703703705],[-0.025,0.053703703703703705],[-0.01875,0.053703703703703705],[-0.014583333333333334,0.053703703703703705],[-0.009375,0.053703703703703705],[-0.0020833333333333333,0.053703703703703705],[0.007291666666666667,0.053703703703703705],[0.021875,0.053703703703703705],[0.059375,0.053703703703703705],[0.08854166666666667,0.053703703703703705],[0.11041666666666666,0.053703703703703705],[0.12291666666666666,0.053703703703703705],[0.134375,0.053703703703703705],[0.13854166666666667,0.053703703703703705],[0.14270833333333333,0.053703703703703705],[0.14583333333333334,0.05],[0.14895833333333333,0.05],[0.15,0.05],[0.15208333333333332,0.04814814814814815],[0.15520833333333334,0.046296296296296294],[0.15833333333333333,0.044444444444444446],[0.16041666666666668,0.04259259259259259],[0.16145833333333334,0.04259259259259259],[0.16354166666666667,0.04259259259259259],[0.16354166666666667,0.04259259259259259],[0.16354166666666667,0.04259259259259259],[0.16354166666666667,0.04259259259259259],[0.16354166666666667,0.04259259259259259],[0.16354166666666667,0.040740740740740744],[0.16354166666666667,0.040740740740740744],[0.16354166666666667,0.03888888888888889],[0.1625,0.03518518518518519],[0.16041666666666668,0.03333333333333333],[0.15416666666666667,0.02962962962962963],[0.15104166666666666,0.025925925925925925],[0.14375,0.022222222222222223],[0.134375,0.016666666666666666],[0.12083333333333333,0.009259259259259259],[0.10520833333333333,0.003703703703703704],[0.090625,-0.005555555555555556],[0.07604166666666666,-0.012962962962962963],[0.06354166666666666,-0.020370370370370372],[0.053125,-0.024074074074074074],[0.042708333333333334,-0.03333333333333333],[0.029166666666666667,-0.03888888888888889],[0.017708333333333333,-0.046296296296296294],[0.010416666666666666,-0.04814814814814815],[0.00625,-0.05185185185185185],[-0.0010416666666666667,-0.053703703703703705],[-0.008333333333333333,-0.05925925925925926],[-0.016666666666666666,-0.06296296296296296],[-0.027083333333333334,-0.06666666666666667],[-0.03333333333333333,-0.07037037037037037],[-0.040625,-0.07407407407407407],[-0.04791666666666667,-0.07777777777777778],[-0.053125,-0.08148148148148149],[-0.05416666666666667,-0.08333333333333333],[-0.05625,-0.08333333333333333],[-0.058333333333333334,-0.08333333333333333],[-0.059375,-0.08333333333333333],[-0.059375,-0.08518518518518518],[-0.06041666666666667,-0.08518518518518518],[-0.06145833333333333,-0.08518518518518518],[-0.0625,-0.08518518518518518],[-0.0625,-0.08518518518518518],[-0.06354166666666666,-0.08703703703703704],[-0.06354166666666666,-0.08703703703703704],[-0.06354166666666666,-0.08703703703703704],[-0.06354166666666666,-0.08703703703703704],[-0.06354166666666666,-0.08703703703703704],[-0.06354166666666666,-0.08703703703703704],[-0.06354166666666666,-0.08703703703703704],[-0.06354166666666666,-0.08703703703703704],[-0.06354166666666666,-0.08703703703703704],[-0.06354166666666666,-0.08703703703703704],[-0.06354166666666666,-0.08703703703703704],[-0.06354166666666666,-0.08703703703703704],[-0.06354166666666666,-0.08703703703703704],[-0.06354166666666666,-0.08703703703703704],[-0.06354166666666666,-0.08703703703703704],[-0.06354166666666666,-0.08703703703703704],[-0.06354166666666666,-0.08703703703703704],[-0.06354166666666666,-0.08703703703703704],[-0.06354166666666666,-0.08703703703703704],[-0.06354166666666666,-0.08703703703703704],[-0.06354166666666666,-0.08703703703703704],[-0.06354166666666666,-0.08703703703703704],[-0.06354166666666666,-0.08703703703703704],[-0.06354166666666666,-0.08703703703703704],[-0.06354166666666666,-0.08703703703703704],[-0.06354166666666666,-0.08703703703703704],[-0.06354166666666666,-0.08703703703703704],[-0.06354166666666666,-0.08703703703703704],[-0.06354166666666666,-0.08703703703703704],[-0.06354166666666666,-0.08703703703703704],[-0.06354166666666666,-0.08703703703703704],[-0.06354166666666666,-0.08703703703703704],[-0.06354166666666666,-0.08703703703703704],[-0.0625,-0.08888888888888889],[-0.0625,-0.08888888888888889],[-0.0625,-0.08888888888888889],[-0.0625,-0.08888888888888889],[-0.0625,-0.08888888888888889],[-0.06145833333333333,-0.08888888888888889],[-0.06145833333333333,-0.08888888888888889],[-0.06145833333333333,-0.08888888888888889],[-0.06145833333333333,-0.08888888888888889],[-0.06145833333333333,-0.08888888888888889],[-0.06145833333333333,-0.08888888888888889],[-0.06145833333333333,-0.08888888888888889],[-0.06145833333333333,-0.08888888888888889],[-0.06145833333333333,-0.08888888888888889],[-0.06145833333333333,-0.08888888888888889],[-0.06145833333333333,-0.08888888888888889],[-0.06145833333333333,-0.08888888888888889],[-0.06145833333333333,-0.08888888888888889],[-0.06145833333333333,-0.08888888888888889],[-0.06145833333333333,-0.08888888888888889],[-0.06145833333333333,-0.08888888888888889],[-0.06145833333333333,-0.08888888888888889],[-0.06145833333333333,-0.08888888888888889],[-0.06145833333333333,-0.08888888888888889],[-0.06145833333333333,-0.08888888888888889],[-0.06145833333333333,-0.08888888888888889],[-0.06145833333333333,-0.08888888888888889],[-0.06145833333333333,-0.08888888888888889],[-0.06145833333333333,-0.08888888888888889],[-0.06145833333333333,-0.08888888888888889],[-0.06145833333333333,-0.08888888888888889],[-0.06145833333333333,-0.08888888888888889],[-0.06145833333333333,-0.08888888888888889],[-0.06145833333333333,-0.08888888888888889],[-0.06145833333333333,-0.08888888888888889],[-0.06145833333333333,-0.08888888888888889],[-0.06145833333333333,-0.08888888888888889],[-0.06145833333333333,-0.08888888888888889],[-0.06145833333333333,-0.08888888888888889],[-0.06145833333333333,-0.08888888888888889],[-0.06145833333333333,-0.08888888888888889],[-0.06145833333333333,-0.08888888888888889],[-0.06145833333333333,-0.08888888888888889],[-0.06145833333333333,-0.08888888888888889],[-0.06041666666666667,-0.08888888888888889],[-0.059375,-0.08888888888888889],[-0.05625,-0.08888888888888889],[-0.052083333333333336,-0.08888888888888889],[-0.046875,-0.08888888888888889],[-0.04479166666666667,-0.08888888888888889],[-0.04375,-0.08888888888888889],[-0.03854166666666667,-0.08888888888888889],[-0.03229166666666667,-0.08888888888888889],[-0.025,-0.08888888888888889],[-0.013541666666666667,-0.08888888888888889],[-0.0020833333333333333,-0.08888888888888889],[0.008333333333333333,-0.08888888888888889],[0.021875,-0.08888888888888889],[0.03229166666666667,-0.08888888888888889],[0.03854166666666667,-0.08888888888888889],[0.041666666666666664,-0.08888888888888889],[0.04375,-0.08888888888888889],[0.04583333333333333,-0.08888888888888889],[0.04791666666666667,-0.08888888888888889],[0.051041666666666666,-0.08888888888888889],[0.052083333333333336,-0.08888888888888889],[0.05416666666666667,-0.08888888888888889],[0.05520833333333333,-0.08888888888888889],[0.05625,-0.08888888888888889],[0.057291666666666664,-0.08888888888888889],[0.058333333333333334,-0.08888888888888889],[0.058333333333333334,-0.08888888888888889],[0.058333333333333334,-0.08888888888888889],[0.058333333333333334,-0.08888888888888889],[0.058333333333333334,-0.08888888888888889],[0.058333333333333334,-0.08888888888888889],[0.058333333333333334,-0.08888888888888889],[0.058333333333333334,-0.08888888888888889],[0.058333333333333334,-0.08888888888888889],[0.058333333333333334,-0.08888888888888889],[0.058333333333333334,-0.08888888888888889],[0.058333333333333334,-0.08888888888888889],[0.058333333333333334,-0.08888888888888889],[0.058333333333333334,-0.08888888888888889],[0.058333333333333334,-0.08888888888888889],[0.058333333333333334,-0.08888888888888889],[0.058333333333333334,-0.08888888888888889],[0.058333333333333334,-0.08888888888888889],[0.058333333333333334,-0.08888888888888889],[0.058333333333333334,-0.08888888888888889],[0.058333333333333334,-0.08888888888888889],[0.058333333333333334,-0.08888888888888889],[0.058333333333333334,-0.08888888888888889],[0.058333333333333334,-0.08888888888888889],[0.058333333333333334,-0.08888888888888889],[0.058333333333333334,-0.08888888888888889],[0.058333333333333334,-0.08888888888888889],[0.058333333333333334,-0.08888888888888889],[0.058333333333333334,-0.08888888888888889],[0.058333333333333334,-0.08888888888888889],[0.058333333333333334,-0.08888888888888889],[0.058333333333333334,-0.08888888888888889],[0.058333333333333334,-0.08888888888888889],[0.058333333333333334,-0.08888888888888889],[0.058333333333333334,-0.08888888888888889],[0.058333333333333334,-0.08888888888888889],[0.058333333333333334,-0.08888888888888889],[0.058333333333333334,-0.08888888888888889],[0.058333333333333334,-0.08888888888888889],[0.058333333333333334,-0.08888888888888889],[0.058333333333333334,-0.08888888888888889],[0.058333333333333334,-0.08888888888888889],[0.058333333333333334,-0.08888888888888889],[0.058333333333333334,-0.08888888888888889],[0.058333333333333334,-0.08888888888888889],[0.058333333333333334,-0.08888888888888889],[0.058333333333333334,-0.08888888888888889],[0.058333333333333334,-0.08888888888888889],[0.058333333333333334,-0.08888888888888889],[0.058333333333333334,-0.08888888888888889],[0.058333333333333334,-0.08888888888888889],[0.058333333333333334,-0.08888888888888889],[0.058333333333333334,-0.08888888888888889],[0.058333333333333334,-0.08888888888888889],[0.06041666666666667,-0.08703703703703704],[0.065625,-0.08703703703703704],[0.07083333333333333,-0.08703703703703704],[0.07916666666666666,-0.08703703703703704],[0.084375,-0.08703703703703704],[0.0875,-0.08518518518518518],[0.09166666666666666,-0.08518518518518518],[0.09895833333333333,-0.08333333333333333],[0.103125,-0.08333333333333333],[0.10729166666666666,-0.08333333333333333],[0.11145833333333334,-0.08333333333333333],[0.11458333333333333,-0.08333333333333333],[0.11979166666666667,-0.08333333333333333],[0.125,-0.08333333333333333],[0.128125,-0.08333333333333333],[0.13229166666666667,-0.08333333333333333],[0.13541666666666666,-0.08333333333333333],[0.13854166666666667,-0.08333333333333333],[0.14375,-0.08333333333333333],[0.146875,-0.08333333333333333],[0.15104166666666666,-0.08333333333333333],[0.15208333333333332,-0.08333333333333333],[0.15208333333333332,-0.08333333333333333],[0.15208333333333332,-0.08333333333333333],[0.15208333333333332,-0.08333333333333333],[0.15208333333333332,-0.08333333333333333],[0.15208333333333332,-0.08333333333333333],[0.15208333333333332,-0.08518518518518518],[0.15104166666666666,-0.08888888888888889],[0.14895833333333333,-0.09259259259259259],[0.14583333333333334,-0.09814814814814815],[0.14166666666666666,-0.1037037037037037],[0.13854166666666667,-0.10925925925925926],[0.13333333333333333,-0.11666666666666667],[0.128125,-0.12407407407407407],[0.125,-0.12962962962962962],[0.11979166666666667,-0.13703703703703704],[0.11666666666666667,-0.14074074074074075],[0.11354166666666667,-0.14444444444444443],[0.11145833333333334,-0.14629629629629629],[0.11041666666666666,-0.14814814814814814],[0.11041666666666666,-0.14814814814814814],[0.109375,-0.15],[0.109375,-0.15],[0.109375,-0.15],[0.10833333333333334,-0.15185185185185185],[0.10833333333333334,-0.15185185185185185],[0.10833333333333334,-0.15185185185185185],[0.10833333333333334,-0.15185185185185185],[0.10833333333333334,-0.15185185185185185],[0.10833333333333334,-0.15185185185185185],[0.10833333333333334,-0.15185185185185185],[0.10833333333333334,-0.15185185185185185],[0.10833333333333334,-0.15185185185185185],[0.10833333333333334,-0.15185185185185185],[0.10833333333333334,-0.15185185185185185],[0.10833333333333334,-0.15185185185185185],[0.10833333333333334,-0.1537037037037037],[0.109375,-0.1537037037037037],[0.11145833333333334,-0.15555555555555556],[0.115625,-0.15555555555555556],[0.121875,-0.15555555555555556],[0.12604166666666666,-0.15555555555555556],[0.12916666666666668,-0.15555555555555556],[0.13229166666666667,-0.15555555555555556],[0.13333333333333333,-0.15555555555555556],[0.13333333333333333,-0.15555555555555556],[0.13541666666666666,-0.15555555555555556],[0.13645833333333332,-0.15555555555555556],[0.1375,-0.1537037037037037],[0.13854166666666667,-0.15185185185185185],[0.13958333333333334,-0.14444444444444443],[0.13958333333333334,-0.13518518518518519],[0.140625,-0.11296296296296296],[0.140625,-0.08518518518518518],[0.140625,-0.06851851851851852],[0.13020833333333334,-0.016666666666666666],[0.121875,0.011111111111111112],[0.11458333333333333,0.03148148148148148],[0.10625,0.05555555555555555],[0.09895833333333333,0.07222222222222222],[0.090625,0.09259259259259259],[0.08645833333333333,0.10185185185185185],[0.08229166666666667,0.11296296296296296],[0.08125,0.11851851851851852],[0.08020833333333334,0.12222222222222222],[0.07916666666666666,0.12407407407407407],[0.078125,0.13333333333333333],[0.075,0.14814814814814814],[0.07395833333333333,0.15],[0.07395833333333333,0.15185185185185185],[0.07395833333333333,0.15185185185185185],[0.07395833333333333,0.15185185185185185],[0.07395833333333333,0.15185185185185185],[0.07395833333333333,0.15185185185185185],[0.07395833333333333,0.15185185185185185],[0.07395833333333333,0.15185185185185185],[0.07395833333333333,0.15185185185185185],[0.07395833333333333,0.15185185185185185],[0.07395833333333333,0.15185185185185185],[0.07395833333333333,0.15185185185185185],[0.07291666666666667,0.15185185185185185],[0.07291666666666667,0.15185185185185185],[0.07291666666666667,0.15185185185185185],[0.07291666666666667,0.15185185185185185],[0.07291666666666667,0.15185185185185185],[0.07291666666666667,0.15185185185185185],[0.071875,0.15185185185185185],[0.071875,0.15185185185185185],[0.06979166666666667,0.1537037037037037],[0.06875,0.15555555555555556],[0.06770833333333333,0.1574074074074074],[0.06354166666666666,0.16111111111111112],[0.06354166666666666,0.16111111111111112],[0.0625,0.16111111111111112],[0.06041666666666667,0.1648148148148148],[0.058333333333333334,0.1648148148148148],[0.058333333333333334,0.1648148148148148],[0.058333333333333334,0.16666666666666666],[0.058333333333333334,0.16666666666666666],[0.058333333333333334,0.16666666666666666],[0.058333333333333334,0.16666666666666666],[0.058333333333333334,0.16666666666666666],[0.058333333333333334,0.16666666666666666],[0.058333333333333334,0.16666666666666666],[0.058333333333333334,0.16666666666666666],[0.058333333333333334,0.16666666666666666],[0.058333333333333334,0.16666666666666666],[0.058333333333333334,0.16666666666666666],[0.058333333333333334,0.16666666666666666],[0.058333333333333334,0.16666666666666666],[0.058333333333333334,0.16666666666666666],[0.058333333333333334,0.16666666666666666],[0.058333333333333334,0.16666666666666666],[0.058333333333333334,0.16666666666666666],[0.058333333333333334,0.16666666666666666],[0.058333333333333334,0.16666666666666666],[0.058333333333333334,0.16666666666666666],[0.058333333333333334,0.16666666666666666],[0.058333333333333334,0.16666666666666666],[0.058333333333333334,0.16666666666666666],[0.059375,0.1685185185185185],[0.06875,0.1685185185185185],[0.084375,0.17037037037037037],[0.09375,0.17592592592592593],[0.10416666666666667,0.17777777777777778],[0.10729166666666666,0.17962962962962964],[0.1125,0.1814814814814815],[0.115625,0.1814814814814815],[0.11979166666666667,0.18333333333333332],[0.12395833333333334,0.18518518518518517],[0.13020833333333334,0.19074074074074074],[0.13541666666666666,0.19074074074074074],[0.140625,0.1962962962962963],[0.14270833333333333,0.1962962962962963],[0.14479166666666668,0.1962962962962963],[0.14583333333333334,0.19814814814814816],[0.14895833333333333,0.19814814814814816],[0.14895833333333333,0.19814814814814816],[0.14895833333333333,0.19814814814814816],[0.15104166666666666,0.19814814814814816],[0.15104166666666666,0.19814814814814816],[0.15104166666666666,0.19814814814814816],[0.15104166666666666,0.19814814814814816],[0.15104166666666666,0.19814814814814816],[0.15104166666666666,0.19814814814814816],[0.15104166666666666,0.19814814814814816],[0.15208333333333332,0.19814814814814816],[0.153125,0.1962962962962963],[0.15729166666666666,0.1925925925925926],[0.16145833333333334,0.18703703703703703],[0.165625,0.18333333333333332],[0.165625,0.18333333333333332],[0.165625,0.18333333333333332],[0.165625,0.18333333333333332],[0.165625,0.18333333333333332],[0.165625,0.18333333333333332],[0.16666666666666666,0.18333333333333332],[0.16666666666666666,0.18333333333333332],[0.16666666666666666,0.18333333333333332],[0.16666666666666666,0.18333333333333332],[0.16666666666666666,0.18333333333333332],[0.16666666666666666,0.18333333333333332],[0.16770833333333332,0.18333333333333332],[0.16979166666666667,0.1814814814814815],[0.17291666666666666,0.17962962962962964],[0.17291666666666666,0.17962962962962964],[0.17291666666666666,0.17962962962962964],[0.17291666666666666,0.17962962962962964],[0.17291666666666666,0.17962962962962964],[0.17291666666666666,0.17962962962962964],[0.17291666666666666,0.17962962962962964],[0.17291666666666666,0.17962962962962964],[0.17291666666666666,0.17962962962962964],[0.17291666666666666,0.17962962962962964],[0.17291666666666666,0.17962962962962964],[0.17291666666666666,0.17962962962962964],[0.17291666666666666,0.17962962962962964],[0.17291666666666666,0.17962962962962964],[0.17291666666666666,0.17962962962962964],[0.17291666666666666,0.17962962962962964],[0.17291666666666666,0.17962962962962964],[0.17291666666666666,0.17962962962962964],[0.17291666666666666,0.17962962962962964],[0.17291666666666666,0.17962962962962964],[0.17291666666666666,0.17962962962962964],[0.17291666666666666,0.17962962962962964],[0.17291666666666666,0.17962962962962964],[0.17291666666666666,0.17962962962962964],[0.17291666666666666,0.17962962962962964],[0.17291666666666666,0.17962962962962964],[0.17291666666666666,0.17962962962962964],[0.17291666666666666,0.17962962962962964],[0.17291666666666666,0.17962962962962964],[0.17291666666666666,0.17962962962962964],[0.17291666666666666,0.17962962962962964],[0.17291666666666666,0.17962962962962964],[0.17395833333333333,0.17962962962962964],[0.175,0.17222222222222222],[0.175,0.17037037037037037],[0.175,0.16666666666666666],[0.175,0.16666666666666666],[0.175,0.16666666666666666],[0.175,0.16666666666666666],[0.175,0.16666666666666666],[0.175,0.16666666666666666],[0.175,0.16666666666666666],[0.175,0.16666666666666666],[0.175,0.16666666666666666],[0.175,0.16666666666666666],[0.175,0.16666666666666666],[0.175,0.16666666666666666],[0.175,0.16666666666666666],[0.175,0.16666666666666666],[0.175,0.16666666666666666],[0.175,0.16666666666666666],[0.175,0.16666666666666666],[0.175,0.16666666666666666],[0.175,0.16666666666666666],[0.175,0.16666666666666666],[0.175,0.16666666666666666],[0.175,0.16666666666666666],[0.175,0.16666666666666666],[0.175,0.16666666666666666],[0.175,0.16666666666666666],[0.175,0.16666666666666666]]","[[-0.025625000000000023,-0.21240740740740738],[-0.025625000000000023,-0.21240740740740738],[-0.0017708333333333807,-0.20555555555555555],[0.022604166666666713,-0.2155555555555555],[0.028750000000000022,-0.15259259259259256],[0.05135416666666662,-0.13629629629629633],[0.06510416666666667,-0.13222222222222219],[0.060104166666666715,-0.14148148148148143],[0.0787499999999999,-0.18277777777777776],[0.09156250000000009,-0.2161111111111111],[0.09156250000000009,-0.2161111111111111],[0.10395833333333329,-0.18888888888888888],[0.1131249999999999,-0.12666666666666662],[0.10656249999999995,-0.1],[0.09614583333333329,-0.06851851851851852],[0.09614583333333329,-0.06851851851851852],[0.11364583333333324,-0.06148148148148146],[0.12156250000000005,-0.08870370370370366],[0.10333333333333337,-0.07444444444444442],[0.12958333333333344,-0.09500000000000001],[0.12958333333333344,-0.09500000000000001],[0.14166666666666666,-0.06111111111111111],[0.14343750000000005,-0.0735185185185185],[0.14343750000000005,-0.0735185185185185],[0.12916666666666668,-0.056666666666666705],[0.12916666666666668,-0.056666666666666705],[0.11437499999999995,-0.09277777777777782],[0.12645833333333342,-0.11796296296296294],[0.12645833333333342,-0.11796296296296294],[0.13177083333333334,-0.15259259259259256],[0.13177083333333334,-0.15259259259259256],[0.12916666666666668,-0.21148148148148146],[0.1243750000000001,-0.16129629629629633],[0.14260416666666675,-0.20259259259259255],[0.12281250000000009,-0.24500000000000002],[0.13812499999999991,-0.3168518518518519],[0.14885416666666676,-0.3351851851851852],[0.1625,-0.38333333333333336],[0.1571875000000001,-0.3327777777777778],[0.12229166666666676,-0.27240740740740743],[0.09656250000000005,-0.22166666666666665],[0.09656250000000005,-0.22166666666666665],[0.0696875000000001,-0.15999999999999995],[0.06083333333333331,-0.1764814814814815],[0.05249999999999998,-0.1307407407407408],[0.03843749999999998,-0.0544444444444444],[0.003958333333333286,0.009259259259259259],[0.008333333333333333,0.02907407407407416],[-0.034687499999999954,0.10666666666666672],[-0.05499999999999995,0.10351851851851848],[-0.0829166666666667,0.11407407407407412],[-0.109375,0.1388888888888889],[-0.12354166666666669,0.13722222222222227],[-0.14395833333333338,0.1388888888888889],[-0.14395833333333338,0.1388888888888889],[-0.15343749999999995,0.11018518518518519],[-0.15416666666666667,0.1014814814814814],[-0.15489583333333337,0.1051851851851851],[-0.15072916666666672,0.13111111111111104],[-0.09916666666666671,0.0992592592592593],[-0.05375000000000003,0.09740740740740746],[-0.01593749999999995,0.09277777777777782],[0.035000000000000024,0.08425925925925926],[0.07364583333333338,0.10222222222222231],[0.1165625000000001,0.09796296296296292],[0.1146874999999999,0.1485185185185186],[0.1146874999999999,0.1485185185185186],[0.11802083333333328,0.16611111111111118],[0.11802083333333328,0.16611111111111118],[0.1259375000000001,0.1485185185185186],[0.10333333333333337,0.1574074074074074],[0.07583333333333328,0.17388888888888884],[0.04916666666666671,0.16537037037037028],[0.03770833333333338,0.14592592592592585],[0.008749999999999977,0.10222222222222231],[-0.01427083333333338,0.08462962962962971],[-0.02520833333333338,0.07962962962962963],[-0.014583333333333334,0.05740740740740741],[0.0034374999999999527,0.05185185185185185],[0.021041666666666715,0.09148148148148144],[0.028750000000000022,0.12037037037037036],[0.02385416666666664,0.12037037037037036],[0.03802083333333333,0.15],[0.052187500000000026,0.17962962962962964],[0.15281250000000005,0.16777777777777783],[0.11697916666666662,0.16018518518518518],[0.08583333333333343,0.14222222222222214],[0.08583333333333343,0.14222222222222214],[0.030416666666666713,0.13259259259259262],[0.0032291666666666905,0.09592592592592585],[-0.02645833333333331,0.08666666666666659],[-0.0515625,0.0955555555555556],[-0.04510416666666662,0.16314814814814818],[-0.05416666666666667,0.14740740740740746],[-0.04874999999999995,0.10092592592592593],[-0.12541666666666665,0.12407407407407407],[-0.08937499999999995,0.11722222222222214],[-0.07593749999999998,0.12833333333333324],[-0.07593749999999998,0.12833333333333324],[-0.005937500000000048,0.12518518518518523],[0.034375,0.13333333333333333],[0.035208333333333286,0.1051851851851851],[0.08395833333333323,0.09666666666666675],[0.103125,0.03777777777777774],[0.11177083333333329,0.003333333333333249],[0.11572916666666658,0.012592592592592508],[0.08427083333333343,-0.003703703703703704],[0.08427083333333343,-0.003703703703703704],[0.08375000000000009,-0.014814814814814815],[0.09385416666666657,-0.01055555555555564],[0.040625,-0.03222222222222218],[0.0003124999999999526,-0.035740740740740656],[0.012187500000000047,-0.04740740740740745],[-0.016875000000000046,-0.09814814814814815],[-0.030416666666666713,-0.1359259259259259],[-0.05281250000000005,-0.1381481481481482],[-0.058645833333333286,-0.16351851851851854],[-0.043958333333333384,-0.1742592592592593],[-0.043958333333333384,-0.1742592592592593],[-0.05406249999999998,-0.1742592592592593],[-0.05479166666666669,-0.2190740740740741],[-0.024479166666666666,-0.23203703703703707],[-0.015312500000000047,-0.23018518518518521],[-0.02364583333333338,-0.22518518518518524],[-0.04479166666666667,-0.24296296296296294],[-0.06593749999999995,-0.2607407407407408],[-0.06593749999999995,-0.2607407407407408],[-0.06427083333333337,-0.2518518518518518],[-0.06427083333333337,-0.2518518518518518],[-0.07864583333333333,-0.24740740740740744],[-0.09291666666666672,-0.24611111111111106],[-0.0765625,-0.24203703703703702],[-0.07999999999999995,-0.21148148148148146],[-0.07885416666666671,-0.17259259259259258],[-0.06979166666666667,-0.1933333333333333],[-0.07239583333333334,-0.18592592592592588],[-0.06218750000000005,-0.1557407407407408],[-0.051979166666666646,-0.1255555555555556],[-0.051979166666666646,-0.1255555555555556],[-0.03843749999999998,-0.13037037037037033],[-0.03843749999999998,-0.13037037037037033],[-0.030416666666666713,-0.10999999999999996],[-0.030416666666666713,-0.10999999999999996],[-0.006458333333333381,-0.08925925925925923],[-0.006458333333333381,-0.08925925925925923],[-0.0009374999999999763,-0.08907407407407411],[-0.0009374999999999763,-0.08907407407407411],[-0.008020833333333382,-0.07592592592592592],[-0.016666666666666666,-0.06888888888888887],[-0.016666666666666666,-0.06888888888888887],[-0.021875,-0.0257407407407407],[-0.03760416666666669,-0.04666666666666675],[-0.05302083333333331,-0.055740740740740785],[-0.03604166666666669,-0.05888888888888891],[-0.03604166666666669,-0.05888888888888891],[-0.04072916666666669,-0.059999999999999956],[-0.034375,-0.07629629629629628],[-0.03083333333333336,-0.07092592592592595],[-0.04114583333333333,-0.03851851851851843],[-0.019895833333333356,0.018703703703703747],[0.012187500000000047,0.009629629629629714],[0.02677083333333338,0.020185185185185143],[0.05666666666666664,0.05333333333333325],[0.07895833333333328,0.0868518518518518],[0.06895833333333339,0.10870370370370379],[0.08083333333333324,0.16944444444444445],[0.06135416666666664,0.19518518518518516],[0.05489583333333338,0.2051851851851851],[0.05489583333333338,0.2051851851851851],[0.049479166666666664,0.20425925925925917],[0.06052083333333336,0.1948148148148149],[0.043229166666666666,0.1844444444444445],[0.024479166666666666,0.18277777777777787],[0.029999999999999954,0.17092592592592584],[0.029999999999999954,0.17092592592592584],[0.036354166666666646,0.15555555555555556],[0.03927083333333338,0.1507407407407407],[0.034791666666666644,0.09185185185185189],[0.053125,0.06148148148148157],[0.06072916666666662,0.053703703703703705],[0.06072916666666662,0.053703703703703705],[0.0806250000000001,0.03129629629629625],[0.0806250000000001,0.03129629629629625],[0.1384375000000001,0.06592592592592597],[0.2111458333333334,0.13222222222222219],[0.29375,0.15981481481481474],[0.29375,0.15981481481481474],[0.3411458333333333,0.20629629629629626],[0.3411458333333333,0.20629629629629626],[0.3702083333333334,0.21907407407407398],[0.378125,0.20703703703703696],[0.3586458333333333,0.13777777777777775],[0.3318749999999999,0.07962962962962963],[0.3318749999999999,0.07962962962962963],[0.3141666666666666,0.09666666666666675],[0.2947916666666667,0.09240740740740737],[0.2947916666666667,0.09240740740740737],[0.22427083333333328,0.01055555555555564],[0.17395833333333333,-0.037037037037037035],[0.09177083333333323,-0.08814814814814818],[0.09177083333333323,-0.08814814814814818],[0.036562500000000026,-0.12537037037037035],[0.027083333333333334,-0.14462962962962966],[0.027083333333333334,-0.14462962962962966],[0.019895833333333356,-0.11500000000000005],[0.06156250000000003,-0.06425925925925924],[0.10416666666666667,-0.01314814814814819],[0.12833333333333338,-0.01185185185185181],[0.15416666666666667,0.010740740740740657],[0.15968749999999995,0.0242592592592593],[0.16749999999999995,0.04537037037037037],[0.19520833333333343,0.07518518518518523],[0.21687500000000004,0.09962962962962954],[0.1951041666666666,0.10833333333333334],[0.1857291666666666,0.09240740740740737],[0.18125,0.1337037037037038],[0.17583333333333329,0.17462962962962955],[0.1482291666666666,0.15166666666666662],[0.1267708333333334,0.14166666666666666],[0.1443749999999999,0.1307407407407408],[0.1390625,0.11129629629629634],[0.12531249999999997,0.10444444444444441],[0.11156249999999991,0.09759259259259268],[0.0974999999999999,0.10277777777777777],[0.10906250000000005,0.0955555555555556],[0.11031250000000009,0.11537037037037029],[0.10760416666666663,0.1307407407407408],[0.11583333333333339,0.14055555555555552],[0.11583333333333339,0.14055555555555552],[0.1118750000000001,0.14000000000000004],[0.0821875000000001,0.15333333333333324],[0.07583333333333328,0.16574074074074074],[0.059895833333333336,0.1646296296296296],[0.0671875,0.13833333333333342],[0.08406250000000005,0.11222222222222226],[0.09416666666666676,0.09388888888888898],[0.08510416666666672,0.055000000000000084],[0.08395833333333323,0.04333333333333329],[0.09104166666666676,0.05592592592592601],[0.13395833333333323,0.010370370370370412],[0.1390625,-0.0198148148148149],[0.12833333333333338,-0.04407407407407399],[0.12833333333333338,-0.04407407407407399],[0.1258333333333333,-0.0712962962962963],[0.13083333333333325,-0.07685185185185185],[0.11937499999999991,-0.0653703703703704],[0.11937499999999991,-0.0653703703703704],[0.09885416666666676,-0.05351851851851848],[0.071875,-0.06092592592592588],[0.03989583333333328,-0.07962962962962963],[0.03989583333333328,-0.07962962962962963],[0.0203125,-0.09037037037037039],[-0.03604166666666669,-0.046296296296296294],[-0.04125000000000002,-0.056666666666666705],[-0.09354166666666662,-0.025],[-0.0765625,-0.005370370370370328],[-0.11979166666666667,0.01907407407407399],[-0.11979166666666667,0.01907407407407399],[-0.13552083333333337,0.01777777777777782],[-0.13552083333333337,0.01777777777777782],[-0.15635416666666668,0.036666666666666584],[-0.15635416666666668,0.036666666666666584],[-0.15052083333333333,0.05388888888888893],[-0.1358333333333333,0.036481481481481566],[-0.1358333333333333,0.036481481481481566],[-0.12177083333333331,0.016111111111111194],[-0.11645833333333329,0.028888888888888933],[-0.14635416666666667,0.07759259259259255],[-0.14635416666666667,0.07759259259259255],[-0.13666666666666671,0.07925925925925917],[-0.13666666666666671,0.07925925925925917],[-0.16479166666666673,0.03166666666666671],[-0.16031249999999997,0.009259259259259259],[-0.14437500000000003,0.0235185185185186],[-0.12145833333333336,-0.012222222222222264],[-0.11843750000000004,-0.03611111111111111],[-0.12322916666666663,-0.03685185185185181],[-0.13322916666666665,-0.01777777777777782],[-0.12875000000000003,-0.03314814814814811],[-0.09260416666666664,-0.024814814814814772],[-0.041770833333333354,-0.005000000000000084],[-0.0009374999999999763,0.05814814814814811],[0.06770833333333333,0.08796296296296297],[0.13833333333333328,0.1],[0.13833333333333328,0.1],[0.19187500000000005,0.13962962962962958],[0.23208333333333328,0.18851851851851845],[0.23385416666666667,0.2412962962962962],[0.23302083333333337,0.28055555555555556],[0.25968749999999996,0.28129629629629627],[0.2627083333333334,0.25388888888888894],[0.23083333333333325,0.21777777777777782],[0.21208333333333323,0.16277777777777774],[0.1484375,0.11999999999999991],[0.07354166666666657,0.07759259259259255],[0.02322916666666662,0.05018518518518523],[-0.004479166666666619,0.03370370370370379],[0.0003124999999999526,-0.05333333333333336],[0.0003124999999999526,-0.05333333333333336],[-0.0016666666666666904,-0.11685185185185189],[-0.0016666666666666904,-0.11685185185185189],[-0.02010416666666662,-0.1037037037037037],[-0.042916666666666714,-0.0933333333333333],[-0.042916666666666714,-0.0933333333333333],[-0.026979166666666644,-0.07888888888888893],[-0.026979166666666644,-0.07888888888888893],[-0.033645833333333285,-0.026111111111111154],[-0.033645833333333285,-0.026111111111111154],[-0.015312500000000047,0.0031481481481482323],[-0.0014583333333333095,0.05259259259259255],[0.006562499999999953,0.053703703703703705],[0.0007291666666667141,0.06518518518518526],[0.000833333333333286,0.14333333333333328],[0.01072916666666662,0.17444444444444454],[0.012916666666666642,0.1955555555555556],[0.019479166666666714,0.1853703703703704],[0.00791666666666669,0.16833333333333328],[0.00614583333333331,0.10055555555555547],[0.00635416666666669,0.07833333333333325],[-0.009062500000000048,0.04203703703703712],[-0.01270833333333338,0.03925925925925934],[-0.01270833333333338,0.03925925925925934],[-0.007604166666666619,0.072037037037037],[-0.0020833333333333333,0.0588888888888888],[0.028437499999999952,0.038703703703703664],[0.01875,0.039629629629629584],[0.022812499999999975,0.06925925925925921],[0.02520833333333338,0.057037037037036956],[0.027604166666666666,0.09277777777777782],[0.016979166666666618,0.10111111111111115],[0.03135416666666669,0.08425925925925926],[0.02000000000000005,0.07222222222222222],[0.00947916666666669,-0.014259259259259343],[0.003333333333333381,-0.0338888888888888],[0.003333333333333381,-0.0338888888888888],[-0.02302083333333336,-0.029259259259259176],[-0.02302083333333336,-0.029259259259259176],[-0.010625000000000048,-0.07333333333333338],[-0.010625000000000048,-0.07333333333333338],[0.009687499999999953,-0.08925925925925923],[0.014791666666666713,-0.09537037037037037],[-0.0036458333333333334,-0.09703703703703699],[-0.022083333333333382,-0.09870370370370372],[-0.022083333333333382,-0.09870370370370372],[-0.015104166666666667,-0.09388888888888887],[-0.02302083333333336,-0.0816666666666667],[-0.014479166666666644,-0.06481481481481481],[-0.014687500000000023,-0.04796296296296292],[-0.014895833333333285,-0.031111111111111027],[-0.017499999999999953,-0.03259259259259263],[-0.041770833333333354,-0.056851851851851834],[-0.027291666666666714,-0.04518518518518514],[0.01072916666666662,-0.03796296296296296],[0.04874999999999995,-0.030740740740740784],[0.04104166666666664,0.012592592592592508],[0.058645833333333286,0.045740740740740825],[0.07125000000000009,0.06703703703703712],[0.08468749999999996,0.0911111111111112],[0.08083333333333324,0.12185185185185177],[0.16145833333333334,0.09055555555555551],[0.21281249999999996,0.14574074074074084],[0.28489583333333335,0.2168518518518519],[0.35697916666666674,0.287962962962963],[0.3927083333333333,0.30944444444444447],[0.3927083333333333,0.30944444444444447],[0.44385416666666655,0.3074074074074074],[0.4639583333333334,0.3831481481481481],[0.4670833333333334,0.4666666666666667],[0.4670833333333334,0.4666666666666667],[0.47333333333333344,0.5264814814814814],[0.4736458333333334,0.5224074074074074],[0.4096874999999999,0.6170370370370372],[0.375,0.6251851851851852],[0.28270833333333345,0.5672222222222222],[0.190625,0.5024074074074073],[0.12979166666666658,0.5292592592592592],[0.08958333333333333,0.5562962962962963],[0.08041666666666672,0.5055555555555555],[0.075,0.43499999999999994],[0.075,0.43499999999999994],[0.06270833333333338,0.34592592592592586],[0.06270833333333338,0.34592592592592586],[0.08979166666666671,0.2985185185185186],[0.11760416666666676,0.23870370370370367],[0.13989583333333327,0.19499999999999992],[0.13989583333333327,0.19499999999999992],[0.14791666666666667,0.21425925925925934],[0.14791666666666667,0.21425925925925934],[0.17510416666666656,0.20092592592592592],[0.2009375000000001,0.19370370370370374],[0.2009375000000001,0.19370370370370374],[0.2022916666666667,0.1388888888888889],[0.18104166666666663,0.10388888888888893],[0.15968749999999995,0.09388888888888898],[0.16635416666666672,0.09351851851851851],[0.17041666666666658,0.0772222222222223],[0.1553124999999999,0.05648148148148148],[0.1134375000000001,0.07629629629629638],[0.12072916666666676,0.054259259259259174],[0.078125,0.11037037037037041],[0.041979166666666616,0.11833333333333329],[0.0171875,0.15462962962962962],[0.005520833333333286,0.16407407407407412],[0.02791666666666662,0.16018518518518518],[0.019375000000000024,0.1361111111111111],[-0.002708333333333357,0.14351851851851852],[-0.04385416666666669,0.1544444444444444],[-0.04562499999999995,0.11777777777777781],[-0.050520833333333334,0.10462962962962963],[-0.04697916666666669,0.038703703703703664],[-0.043437500000000046,-0.027222222222222307],[0.013437499999999976,-0.044999999999999915],[0.04770833333333328,-0.09907407407407408],[0.08270833333333343,-0.08055555555555556],[0.09135416666666671,-0.05240740740740743],[0.15072916666666672,-0.04425925925925922],[0.19666666666666663,-0.0235185185185186],[0.19666666666666663,-0.0235185185185186],[0.21864583333333343,-0.034999999999999955],[0.23364583333333327,-0.05796296296296299],[0.27333333333333343,-0.03092592592592601],[0.27333333333333343,-0.03092592592592601],[0.3003124999999999,-0.02759259259259255],[0.2724999999999999,-0.014074074074074116],[0.27677083333333335,0.04277777777777782],[0.24812500000000004,0.03462962962962971],[0.24812500000000004,0.03462962962962971],[0.2601041666666667,0.009999999999999959],[0.2601041666666667,0.009999999999999959],[0.22666666666666657,0.017407407407407365],[0.20125000000000004,0.03296296296296288],[0.2384375000000001,0.1014814814814814],[0.25322916666666656,0.17962962962962964],[0.25322916666666656,0.17962962962962964],[0.3277083333333332,0.2638888888888889],[0.3629166666666668,0.3290740740740742],[0.4321875000000001,0.3442592592592592],[0.3853125000000001,0.3672222222222221],[0.39812500000000006,0.3257407407407407],[0.36729166666666657,0.39240740740740737],[0.34614583333333326,0.4140740740740741],[0.33562500000000006,0.3911111111111112],[0.33562500000000006,0.3911111111111112],[0.27937500000000004,0.33833333333333343],[0.25718750000000007,0.2857407407407407],[0.18552083333333325,0.2212962962962963],[0.16895833333333338,0.1479629629629629],[0.10385416666666672,0.12259259259259268],[0.1646874999999999,0.07740740740740733],[0.16843750000000005,0.09222222222222214],[0.20458333333333342,0.10425925925925918],[0.21708333333333343,0.0911111111111112],[0.23385416666666667,0.08740740740740749],[0.25187499999999996,0.06851851851851852],[0.25187499999999996,0.06851851851851852],[0.24895833333333334,0.07907407407407416],[0.2509375000000001,0.018703703703703747],[0.2573958333333332,0.03592592592592588],[0.22520833333333337,0.04740740740740745],[0.22583333333333327,0.043703703703703745],[0.21614583333333334,0.012222222222222264],[0.20677083333333332,-0.041111111111111195],[0.1990624999999999,-0.03166666666666671],[0.20187499999999994,-0.006481481481481481],[0.19604166666666673,0.042407407407407366],[0.22354166666666658,-0.01796296296296305],[0.2009375000000001,0.03185185185185194],[0.23135416666666658,0.04611111111111107],[0.25791666666666657,0.028888888888888933],[0.19791666666666666,0.04944444444444453],[0.1710416666666667,0.0868518518518518],[0.13770833333333338,0.08740740740740749],[0.11135416666666677,0.08333333333333333],[0.08406250000000005,0.07444444444444454],[0.08895833333333343,0.012407407407407492],[0.059583333333333384,0.03351851851851856],[0.04500000000000005,-0.008888888888888804],[-0.03218749999999997,-0.041111111111111195],[-0.07875000000000003,-0.06481481481481481],[-0.042916666666666714,-0.0653703703703704],[-0.04052083333333331,-0.06370370370370367],[-0.03114583333333331,-0.08462962962962961],[-0.04385416666666669,-0.11425925925925924],[-0.03156249999999995,-0.1574074074074074],[-0.05583333333333336,-0.17111111111111107],[-0.06937500000000002,-0.09574074074074072],[-0.06437499999999995,-0.11074074074074076],[-0.06437499999999995,-0.11074074074074076],[-0.06843750000000005,-0.0883333333333333],[-0.02802083333333331,-0.10740740740740741],[-0.026041666666666668,-0.16018518518518518],[-0.03177083333333333,-0.2037037037037037],[-0.03156249999999995,-0.23537037037037042],[-0.03156249999999995,-0.23537037037037042],[-0.022604166666666713,-0.23648148148148146],[-0.03104166666666662,-0.22870370370370371],[-0.027708333333333356,-0.20574074074074078],[-0.035104166666666714,-0.2718518518518519],[-0.035104166666666714,-0.2718518518518519],[-0.046875,-0.20759259259259263],[-0.046875,-0.20759259259259263],[-0.043333333333333356,-0.20833333333333334],[-0.043333333333333356,-0.20833333333333334],[-0.05614583333333331,-0.1566666666666667],[-0.06499999999999997,-0.14481481481481479],[-0.06499999999999997,-0.14481481481481479],[-0.08520833333333329,-0.12851851851851848],[-0.08520833333333329,-0.12851851851851848],[-0.10427083333333335,-0.046481481481481526],[-0.10427083333333335,-0.046481481481481526],[-0.11604166666666664,-0.007407407407407408],[-0.11458333333333333,0.03259259259259263],[-0.11312500000000002,0.07259259259259268],[-0.12156250000000005,0.11462962962962958],[-0.12447916666666667,0.11500000000000005],[-0.12354166666666669,0.1388888888888889],[-0.1304166666666667,0.14333333333333328],[-0.14947916666666666,0.17796296296296302],[-0.14093749999999997,0.2116666666666666],[-0.13322916666666665,0.1764814814814814],[-0.11947916666666672,0.1624074074074075],[-0.1063541666666667,0.12722222222222232],[-0.0938541666666667,0.09203703703703713],[-0.06583333333333338,0.07148148148148152],[-0.044479166666666715,0.06111111111111111],[-0.041770833333333354,0.01185185185185181],[-0.0390625,-0.03740740740740749],[-0.0140625,-0.08314814814814811],[0.010520833333333358,-0.12814814814814812],[0.010520833333333358,-0.12814814814814812],[0.030416666666666713,-0.17037037037037037],[0.04895833333333333,-0.17759259259259255],[0.04729166666666664,-0.15999999999999995],[0.03770833333333338,-0.1705555555555556],[0.022500000000000023,-0.1977777777777778],[0.04489583333333336,-0.3022222222222222],[0.04489583333333336,-0.3022222222222222],[0.06375000000000004,-0.2940740740740741],[0.06375000000000004,-0.2940740740740741],[0.07864583333333333,-0.23148148148148148],[0.10270833333333323,-0.22888888888888892],[0.1087500000000001,-0.21962962962962967],[0.1404166666666666,-0.2125925925925926],[0.1474999999999999,-0.24500000000000002],[0.18041666666666673,-0.2824074074074074],[0.18041666666666673,-0.2824074074074074],[0.20677083333333332,-0.26796296296296296],[0.20677083333333332,-0.26796296296296296],[0.2257291666666667,-0.2455555555555556],[0.21166666666666673,-0.1603703703703704],[0.23083333333333325,-0.1559259259259259],[0.22885416666666672,-0.20259259259259255],[0.20364583333333333,-0.18314814814814812],[0.20708333333333329,-0.18203703703703705],[0.18916666666666657,-0.17796296296296302],[0.18979166666666672,-0.17814814814814814],[0.16458333333333333,-0.17333333333333337],[0.16916666666666677,-0.14518518518518514],[0.19239583333333338,-0.14611111111111108],[0.2055208333333333,-0.18611111111111112],[0.20322916666666657,-0.18574074074074076],[0.19541666666666657,-0.2059259259259259],[0.19541666666666657,-0.2059259259259259],[0.2140625,-0.1794444444444444],[0.23250000000000004,-0.1646296296296296],[0.2367708333333333,-0.1366666666666667],[0.2484375,-0.1],[0.2617708333333333,-0.12444444444444443],[0.2529166666666666,-0.1559259259259259],[0.23958333333333334,-0.16148148148148145],[0.2321875000000001,-0.12962962962962962],[0.2178124999999999,-0.12629629629629627],[0.22666666666666657,-0.13962962962962958],[0.2111458333333334,-0.17999999999999997],[0.2111458333333334,-0.17999999999999997],[0.18802083333333333,-0.17814814814814814],[0.1943749999999999,-0.23018518518518521],[0.17666666666666658,-0.24537037037037038],[0.153125,-0.17],[0.1553124999999999,-0.17388888888888884],[0.15072916666666672,-0.18259259259259264],[0.1556250000000001,-0.19537037037037036],[0.15208333333333332,-0.20111111111111116],[0.17156250000000003,-0.16166666666666668],[0.1943749999999999,-0.13148148148148148],[0.2131249999999999,-0.07981481481481485],[0.21666666666666667,0.012222222222222264],[0.2195833333333333,0.021481481481481525],[0.22666666666666657,0.0012962962962963806],[0.225,0.029814814814814856],[0.22781250000000006,-0.00851851851851856],[0.20166666666666658,0.03185185185185194],[0.19093749999999995,0.0705555555555556],[0.1625,0.09722222222222222],[0.17072916666666677,0.11407407407407412],[0.18010416666666676,0.09018518518518527],[0.18708333333333324,0.0588888888888888],[0.20281250000000003,0.03425925925925926],[0.2185416666666666,0.009629629629629714],[0.2127083333333334,-0.03814814814814819],[0.19572916666666676,-0.008703703703703788],[0.19520833333333343,-0.05944444444444449],[0.19093749999999995,-0.11685185185185189],[0.20104166666666667,-0.1557407407407408],[0.18072916666666666,-0.2037037037037037],[0.16177083333333328,-0.23277777777777775],[0.16177083333333328,-0.23277777777777775],[0.13166666666666677,-0.2331481481481481],[0.13166666666666677,-0.2331481481481481],[0.12687499999999996,-0.21425925925925923],[0.10614583333333343,-0.18481481481481485],[0.13729166666666662,-0.17981481481481484],[0.16885416666666658,-0.14425925925925923],[0.20041666666666677,-0.10333333333333336],[0.2319791666666667,-0.062407407407407384],[0.26416666666666655,-0.046481481481481526],[0.2846874999999999,-0.022037037037036994],[0.30416666666666664,-0.013333333333333417],[0.3182291666666667,-0.03740740740740749],[0.3182291666666667,-0.03740740740740749],[0.3181250000000001,-0.04981481481481477],[0.33645833333333336,-0.034999999999999955],[0.33645833333333336,-0.034999999999999955],[0.31489583333333326,0.01796296296296305],[0.3042708333333332,0.02370370370370362]]","[[-0.025625000000000023,-0.21240740740740738,0.0003000001907338401],[-0.025625000000000023,-0.21240740740740738,0.049500000000001876],[-0.0017708333333333807,-0.20555555555555555,0.060300000190736114],[0.022604166666666713,-0.2155555555555555,0.07540000009537096],[0.028750000000000022,-0.15259259259259256,0.09190000009537158],[0.05135416666666662,-0.13629629629629633,0.10859999990463365],[0.06510416666666667,-0.13222222222222219,0.12690000009536817],[0.060104166666666715,-0.14148148148148143,0.14190000009536874],[0.0787499999999999,-0.18277777777777776,0.1590999999046332],[0.09156250000000009,-0.2161111111111111,0.182300000190736],[0.09156250000000009,-0.2161111111111111,0.191900000095373],[0.10395833333333329,-0.18888888888888888,0.20859999990463507],[0.1131249999999999,-0.12666666666666662,0.225200000286101],[0.10656249999999995,-0.1,0.2443000001907336],[0.09614583333333329,-0.06851851851851852,0.259200000286107],[0.09614583333333329,-0.06851851851851852,0.27520000028610525],[0.11364583333333324,-0.06148148148148146,0.2919000000953673],[0.12156250000000005,-0.08870370370370366,0.3087000002861018],[0.10333333333333337,-0.07444444444444442,0.3252000002861024],[0.12958333333333344,-0.09500000000000001,0.3419000000953716],[0.12958333333333344,-0.09500000000000001,0.3584999999999994],[0.14166666666666666,-0.06111111111111111,0.37530000019073384],[0.14343750000000005,-0.0735185185185185,0.39720000028610514],[0.14343750000000005,-0.0735185185185185,0.4085999999046379],[0.12916666666666668,-0.056666666666666705,0.42520000028610383],[0.12916666666666668,-0.056666666666666705,0.44209999990463444],[0.11437499999999995,-0.09277777777777782,0.45859999990463507],[0.12645833333333342,-0.11796296296296294,0.47980000019073543],[0.12645833333333342,-0.11796296296296294,0.49190000009537016],[0.13177083333333334,-0.15259259259259256,0.5085000000000051],[0.13177083333333334,-0.15259259259259256,0.5252000002861053],[0.12916666666666668,-0.21148148148148146,0.5419000000953673],[0.1243750000000001,-0.16129629629629633,0.5585999999046365],[0.14260416666666675,-0.20259259259259255,0.5752000002861024],[0.12281250000000009,-0.24500000000000002,0.5919000000953716],[0.13812499999999991,-0.3168518518518519,0.6085999999046336],[0.14885416666666676,-0.3351851851851852,0.6250999999046343],[0.1625,-0.38333333333333336,0.6423000001907369],[0.1571875000000001,-0.3327777777777778,0.6600000000000037],[0.12229166666666676,-0.27240740740740743,0.6752000002861038],[0.09656250000000005,-0.22166666666666665,0.691900000095373],[0.09656250000000005,-0.22166666666666665,0.7085000000000008],[0.0696875000000001,-0.15999999999999995,0.7253000001907353],[0.06083333333333331,-0.1764814814814815,0.742200000286104],[0.05249999999999998,-0.1307407407407408,0.7585999999046322],[0.03843749999999998,-0.0544444444444444,0.7778000001907373],[0.003958333333333286,0.009259259259259259,0.7918000001907401],[0.008333333333333333,0.02907407407407416,0.8085999999046365],[-0.034687499999999954,0.10666666666666672,0.8252000002861024],[-0.05499999999999995,0.10351851851851848,0.8419999999999987],[-0.0829166666666667,0.11407407407407412,0.8625000000000043],[-0.109375,0.1388888888888889,0.8775000000000048],[-0.12354166666666669,0.13722222222222227,0.8919000000953687],[-0.14395833333333338,0.1388888888888889,0.9085000000000036],[-0.14395833333333338,0.1388888888888889,0.9283000001907382],[-0.15343749999999995,0.11018518518518519,0.9420999999046344],[-0.15416666666666667,0.1014814814814814,0.9587000002861075],[-0.15489583333333337,0.1051851851851851,0.9777000002861058],[-0.15072916666666672,0.13111111111111104,0.9920999999046316],[-0.09916666666666671,0.0992592592592593,1.008800000190739],[-0.05375000000000003,0.09740740740740746,1.0278000001907373],[-0.01593749999999995,0.09277777777777782,1.0420999999046359],[0.035000000000000024,0.08425925925925926,1.0589000000953703],[0.07364583333333338,0.10222222222222231,1.0753000001907367],[0.1165625000000001,0.09796296296296292,1.0945000000000036],[0.1146874999999999,0.1485185185185186,1.108700000286106],[0.1146874999999999,0.1485185185185186,1.1255000000000024],[0.11802083333333328,0.16611111111111118,1.1459000000953665],[0.11802083333333328,0.16611111111111118,1.1588000001907375],[0.1259375000000001,0.1485185185185186,1.1755999999046338],[0.10333333333333337,0.1574074074074074,1.1939000000953683],[0.07583333333333328,0.17388888888888884,1.2088000001907346],[0.04916666666666671,0.16537037037037028,1.2254000000953695],[0.03770833333333338,0.14592592592592585,1.2420999999046316],[0.008749999999999977,0.10222222222222231,1.2615000000000052],[-0.01427083333333338,0.08462962962962971,1.2775000000000034],[-0.02520833333333338,0.07962962962962963,1.2920999999046359],[-0.014583333333333334,0.05740740740740741,1.3115000000000023],[0.0034374999999999527,0.05185185185185185,1.3274000000953663],[0.021041666666666715,0.09148148148148144,1.3444000000953693],[0.028750000000000022,0.12037037037037036,1.3629999999999995],[0.02385416666666664,0.12037037037037036,1.3795999999046344],[0.03802083333333333,0.15,1.3950000000000031],[0.052187500000000026,0.17962962962962964,1.408999999999999],[0.15281250000000005,0.16777777777777783,1.428200000286104],[0.11697916666666662,0.16018518518518518,1.4459000000953708],[0.08583333333333343,0.14222222222222214,1.461500000000001],[0.08583333333333343,0.14222222222222214,1.4780999999046358],[0.030416666666666713,0.13259259259259262,1.4919000000953702],[0.0032291666666666905,0.09592592592592585,1.5128000001907367],[-0.02645833333333331,0.08666666666666659,1.5279999999999987],[-0.0515625,0.0955555555555556,1.5435000000000016],[-0.04510416666666662,0.16314814814814818,1.558800000190736],[-0.05416666666666667,0.14740740740740746,1.5800999999046326],[-0.04874999999999995,0.10092592592592593,1.596099999904638],[-0.12541666666666665,0.12407407407407407,1.61240000009537],[-0.08937499999999995,0.11722222222222214,1.6295999999046344],[-0.07593749999999998,0.12833333333333324,1.6445000000000007],[-0.07593749999999998,0.12833333333333324,1.6587000002861032],[-0.005937500000000048,0.12518518518518523,1.6754000000953724],[0.034375,0.13333333333333333,1.6953000001907341],[0.035208333333333286,0.1051851851851851,1.7107000002861028],[0.08395833333333323,0.09666666666666675,1.7258000001907376],[0.103125,0.03777777777777774,1.7460999999046365],[0.11177083333333329,0.003333333333333249,1.7630999999046324],[0.11572916666666658,0.012592592592592508,1.778800000190735],[0.08427083333333343,-0.003703703703703704,1.7978000001907404],[0.08427083333333343,-0.003703703703703704,1.8087000002861018],[0.08375000000000009,-0.014814814814814815,1.8255000000000052],[0.09385416666666657,-0.01055555555555564,1.8427000002861078],[0.040625,-0.03222222222222218,1.8622000002861014],[0.0003124999999999526,-0.035740740740740656,1.8770999999046367],[0.012187500000000047,-0.04740740740740745,1.892000000000003],[-0.016875000000000046,-0.09814814814814815,1.9102000002861033],[-0.030416666666666713,-0.1359259259259259,1.927500000000002],[-0.05281250000000005,-0.1381481481481482,1.9444000000953707],[-0.058645833333333286,-0.16351851851851854,1.9618000001907347],[-0.043958333333333384,-0.1742592592592593,1.982599999904636],[-0.043958333333333384,-0.1742592592592593,1.9918000001907359],[-0.05406249999999998,-0.1742592592592593,2.012900000095371],[-0.05479166666666669,-0.2190740740740741,2.028099999904633],[-0.024479166666666666,-0.23203703703703707,2.0442000002861036],[-0.015312500000000047,-0.23018518518518521,2.0633000001907362],[-0.02364583333333338,-0.22518518518518524,2.0797000002861026],[-0.04479166666666667,-0.24296296296296294,2.094700000286103],[-0.06593749999999995,-0.2607407407407408,2.1170000000000044],[-0.06593749999999995,-0.2607407407407408,2.1470000000000056],[-0.06427083333333337,-0.2518518518518518,2.168200000286106],[-0.06427083333333337,-0.2518518518518518,2.1817000002861064],[-0.07864583333333333,-0.24740740740740744,2.1918000001907387],[-0.09291666666666672,-0.24611111111111106,2.209000000000003],[-0.0765625,-0.24203703703703702,2.227499999999999],[-0.07999999999999995,-0.21148148148148146,2.2420000000000044],[-0.07885416666666671,-0.17259259259259258,2.258900000095366],[-0.06979166666666667,-0.1933333333333333,2.2779999999999987],[-0.07239583333333334,-0.18592592592592588,2.2935000000000016],[-0.06218750000000005,-0.1557407407407408,2.308700000286102],[-0.051979166666666646,-0.1255555555555556,2.3279000000953687],[-0.051979166666666646,-0.1255555555555556,2.342099999904633],[-0.03843749999999998,-0.13037037037037033,2.3588000001907403],[-0.03843749999999998,-0.13037037037037033,2.375400000095368],[-0.030416666666666713,-0.10999999999999996,2.3950999999046374],[-0.030416666666666713,-0.10999999999999996,2.408700000286103],[-0.006458333333333381,-0.08925925925925923,2.4254999999999995],[-0.006458333333333381,-0.08925925925925923,2.441900000095373],[-0.0009374999999999763,-0.08907407407407411,2.4629000000953667],[-0.0009374999999999763,-0.08907407407407411,2.475200000286101],[-0.008020833333333382,-0.07592592592592592,2.49190000009537],[-0.016666666666666666,-0.06888888888888887,2.512500000000003],[-0.016666666666666666,-0.06888888888888887,2.5252000002861053],[-0.021875,-0.0257407407407407,2.5419000000953673],[-0.03760416666666669,-0.04666666666666675,2.558500000000002],[-0.05302083333333331,-0.055740740740740785,2.5752000002861024],[-0.03604166666666669,-0.05888888888888891,2.5918000001907373],[-0.03604166666666669,-0.05888888888888891,2.61090000009537],[-0.04072916666666669,-0.059999999999999956,2.625400000095368],[-0.034375,-0.07629629629629628,2.6428000001907392],[-0.03083333333333336,-0.07092592592592595,2.661599999904638],[-0.04114583333333333,-0.03851851851851843,2.679000000000002],[-0.019895833333333356,0.018703703703703747,2.6925000000000026],[0.012187500000000047,0.009629629629629714,2.7087000002861075],[0.02677083333333338,0.020185185185185143,2.7299000000953697],[0.05666666666666664,0.05333333333333325,2.744400000095368],[0.07895833333333328,0.0868518518518518,2.758900000095366],[0.06895833333333339,0.10870370370370379,2.7787000002861078],[0.08083333333333324,0.16944444444444445,2.7948000001907403],[0.06135416666666664,0.19518518518518516,2.810599999904632],[0.05489583333333338,0.2051851851851851,2.825400000095371],[0.05489583333333338,0.2051851851851851,2.844999999999999],[0.049479166666666664,0.20425925925925917,2.8588000001907403],[0.06052083333333336,0.1948148148148149,2.8760000000000048],[0.043229166666666666,0.1844444444444445,2.8974000000953666],[0.024479166666666666,0.18277777777777787,2.91230000019074],[0.029999999999999954,0.17092592592592584,2.9269000000953724],[0.029999999999999954,0.17092592592592584,2.942],[0.036354166666666646,0.15555555555555556,2.9627000002861053],[0.03927083333333338,0.1507407407407407,2.978099999904636],[0.034791666666666644,0.09185185185185189,2.992900000095368],[0.053125,0.06148148148148157,3.0113000001907366],[0.06072916666666662,0.053703703703703705,3.028800000190735],[0.06072916666666662,0.053703703703703705,3.0420000000000016],[0.0806250000000001,0.03129629629629625,3.058700000286102],[0.0806250000000001,0.03129629629629625,3.0752000002861024],[0.1384375000000001,0.06592592592592597,3.0919000000953716],[0.2111458333333334,0.13222222222222219,3.1118000001907404],[0.29375,0.15981481481481474,3.132700000286107],[0.29375,0.15981481481481474,3.143400000095369],[0.3411458333333333,0.20629629629629626,3.158999999999999],[0.3411458333333333,0.20629629629629626,3.1754999999999995],[0.3702083333333334,0.21907407407407398,3.194500000000005],[0.378125,0.20703703703703696,3.2114000000953666],[0.3586458333333333,0.13777777777777775,3.226700000286101],[0.3318749999999999,0.07962962962962963,3.247700000286102],[0.3318749999999999,0.07962962962962963,3.258900000095366],[0.3141666666666666,0.09666666666666675,3.2754000000953667],[0.2947916666666667,0.09240740740740737,3.2965000000000018],[0.2947916666666667,0.09240740740740737,3.308700000286102],[0.22427083333333328,0.01055555555555564,3.325700000286105],[0.17395833333333333,-0.037037037037037035,3.342500000000001],[0.09177083333333323,-0.08814814814814818,3.3634000000953677],[0.09177083333333323,-0.08814814814814818,3.375400000095368],[0.036562500000000026,-0.12537037037037035,3.392000000000003],[0.027083333333333334,-0.14462962962962966,3.414900000095372],[0.027083333333333334,-0.14462962962962966,3.4254000000953724],[0.019895833333333356,-0.11500000000000005,3.4420999999046344],[0.06156250000000003,-0.06425925925925924,3.461200000286105],[0.10416666666666667,-0.01314814814814819,3.48080000019074],[0.12833333333333338,-0.01185185185185181,3.4955],[0.15416666666666667,0.010740740740740657,3.512200000286107],[0.15968749999999995,0.0242592592592593,3.5279000000953715],[0.16749999999999995,0.04537037037037037,3.547000000000004],[0.19520833333333343,0.07518518518518523,3.563200000286102],[0.21687500000000004,0.09962962962962954,3.5795999999046373],[0.1951041666666666,0.10833333333333334,3.596599999904633],[0.1857291666666666,0.09240740740740737,3.61390000009537],[0.18125,0.1337037037037038,3.6285999999046368],[0.17583333333333329,0.17462962962962955,3.6444000000953665],[0.1482291666666666,0.15166666666666662,3.664200000286101],[0.1267708333333334,0.14166666666666666,3.679300000190736],[0.1443749999999999,0.1307407407407408,3.6939000000953683],[0.1390625,0.11129629629629634,3.7087000002861075],[0.12531249999999997,0.10444444444444441,3.7250999999046357],[0.11156249999999991,0.09759259259259268,3.745900000095368],[0.0974999999999999,0.10277777777777777,3.761900000095366],[0.10906250000000005,0.0955555555555556,3.7785999999046354],[0.11031250000000009,0.11537037037037029,3.795900000095372],[0.10760416666666663,0.1307407407407408,3.811300000190734],[0.11583333333333339,0.14055555555555552,3.8259000000953662],[0.11583333333333339,0.14055555555555552,3.8419999999999987],[0.1118750000000001,0.14000000000000004,3.8585999999046336],[0.0821875000000001,0.15333333333333324,3.877200000286102],[0.07583333333333328,0.16574074074074074,3.8918000001907345],[0.059895833333333336,0.1646296296296296,3.9084000000953694],[0.0671875,0.13833333333333342,3.927099999904634],[0.08406250000000005,0.11222222222222226,3.941900000095373],[0.09416666666666676,0.09388888888888898,3.960700000286103],[0.08510416666666672,0.055000000000000084,3.9773000001907377],[0.08395833333333323,0.04333333333333329,3.9939000000953726],[0.09104166666666676,0.05592592592592601,4.008500000000005],[0.13395833333333323,0.010370370370370412,4.027300000190735],[0.1390625,-0.0198148148148149,4.044300000190738],[0.12833333333333338,-0.04407407407407399,4.062599999904634],[0.12833333333333338,-0.04407407407407399,4.075200000286102],[0.1258333333333333,-0.0712962962962963,4.091900000095372],[0.13083333333333325,-0.07685185185185185,4.111099999904631],[0.11937499999999991,-0.0653703703703704,4.130900000095373],[0.11937499999999991,-0.0653703703703704,4.1418000001907345],[0.09885416666666676,-0.05351851851851848,4.158599999904638],[0.071875,-0.06092592592592588,4.178900000095368],[0.03989583333333328,-0.07962962962962963,4.194500000000005],[0.03989583333333328,-0.07962962962962963,4.208500000000001],[0.0203125,-0.09037037037037039,4.225200000286101],[-0.03604166666666669,-0.046296296296296294,4.242000000000004],[-0.04125000000000002,-0.056666666666666705,4.259099999904635],[-0.09354166666666662,-0.025,4.275200000286105],[-0.0765625,-0.005370370370370328,4.297499999999999],[-0.11979166666666667,0.01907407407407399,4.3215],[-0.11979166666666667,0.01907407407407399,4.328900000095366],[-0.13552083333333337,0.01777777777777782,4.341900000095372],[-0.13552083333333337,0.01777777777777782,4.358599999904634],[-0.15635416666666668,0.036666666666666584,4.3795],[-0.15635416666666668,0.036666666666666584,4.391900000095369],[-0.15052083333333333,0.05388888888888893,4.408500000000004],[-0.1358333333333333,0.036481481481481566,4.430700000286102],[-0.1358333333333333,0.036481481481481566,4.442],[-0.12177083333333331,0.016111111111111194,4.458599999904635],[-0.11645833333333329,0.028888888888888933,4.479700000286101],[-0.14635416666666667,0.07759259259259255,4.496700000286104],[-0.14635416666666667,0.07759259259259255,4.508500000000005],[-0.13666666666666671,0.07925925925925917,4.525200000286105],[-0.13666666666666671,0.07925925925925917,4.54180000019074],[-0.16479166666666673,0.03166666666666671,4.5585999999046365],[-0.16031249999999997,0.009259259259259259,4.575700000286105],[-0.14437500000000003,0.0235185185185186,4.591800000190737],[-0.12145833333333336,-0.012222222222222264,4.608499999999999],[-0.11843750000000004,-0.03611111111111111,4.6259000000953705],[-0.12322916666666663,-0.03685185185185181,4.641900000095369],[-0.13322916666666665,-0.01777777777777782,4.662500000000001],[-0.12875000000000003,-0.03314814814814811,4.679099999904636],[-0.09260416666666664,-0.024814814814814772,4.6943000001907365],[-0.041770833333333354,-0.005000000000000084,4.710900000095371],[-0.0009374999999999763,0.05814814814814811,4.7254000000953695],[0.06770833333333333,0.08796296296296297,4.741800000190736],[0.13833333333333328,0.1,4.768500000000003],[0.13833333333333328,0.1,4.775700000286108],[0.19187500000000005,0.13962962962962958,4.79180000019074],[0.23208333333333328,0.18851851851851845,4.80890000009537],[0.23385416666666667,0.2412962962962962,4.825200000286102],[0.23302083333333337,0.28055555555555556,4.841800000190737],[0.25968749999999996,0.28129629629629627,4.860099999904634],[0.2627083333333334,0.25388888888888894,4.875099999904634],[0.23083333333333325,0.21777777777777782,4.8918000001907345],[0.21208333333333323,0.16277777777777774,4.909800000190735],[0.1484375,0.11999999999999991,4.927],[0.07354166666666657,0.07759259259259255,4.9420999999046344],[0.02322916666666662,0.05018518518518523,4.9602000002861075],[-0.004479166666666619,0.03370370370370379,4.975599999904638],[0.0003124999999999526,-0.05333333333333336,4.992200000286104],[0.0003124999999999526,-0.05333333333333336,5.008500000000005],[-0.0016666666666666904,-0.11685185185185189,5.029599999904633],[-0.0016666666666666904,-0.11685185185185189,5.04240000009537],[-0.02010416666666662,-0.1037037037037037,5.058800000190736],[-0.042916666666666714,-0.0933333333333333,5.086900000095369],[-0.042916666666666714,-0.0933333333333333,5.097000000000001],[-0.026979166666666644,-0.07888888888888893,5.108700000286106],[-0.026979166666666644,-0.07888888888888893,5.125400000095368],[-0.033645833333333285,-0.026111111111111154,5.147000000000006],[-0.033645833333333285,-0.026111111111111154,5.1588000001907375],[-0.015312500000000047,0.0031481481481482323,5.175400000095372],[-0.0014583333333333095,0.05259259259259255,5.1969000000953685],[0.006562499999999953,0.053703703703703705,5.213000000000001],[0.0007291666666667141,0.06518518518518526,5.228300000190735],[0.000833333333333286,0.14333333333333328,5.2442000002861064],[0.01072916666666662,0.17444444444444454,5.2620000000000005],[0.012916666666666642,0.1955555555555556,5.277800000190737],[0.019479166666666714,0.1853703703703704,5.291900000095367],[0.00791666666666669,0.16833333333333328,5.308700000286102],[0.00614583333333331,0.10055555555555547,5.327599999904635],[0.00635416666666669,0.07833333333333325,5.342700000286108],[-0.009062500000000048,0.04203703703703712,5.36030000019074],[-0.01270833333333338,0.03925925925925934,5.3810999999046345],[-0.01270833333333338,0.03925925925925934,5.391900000095369],[-0.007604166666666619,0.072037037037037,5.408599999904638],[-0.0020833333333333333,0.0588888888888888,5.42790000009537],[0.028437499999999952,0.038703703703703664,5.445099999904635],[0.01875,0.039629629629629584,5.460400000095369],[0.022812499999999975,0.06925925925925921,5.475500000000004],[0.02520833333333338,0.057037037037036956,5.491800000190736],[0.027604166666666666,0.09277777777777782,5.5105],[0.016979166666666618,0.10111111111111115,5.525099999904633],[0.03135416666666669,0.08425925925925926,5.544099999904631],[0.02000000000000005,0.07222222222222222,5.561800000190736],[0.00947916666666669,-0.014259259259259343,5.577400000095366],[0.003333333333333381,-0.0338888888888888,5.593400000095372],[0.003333333333333381,-0.0338888888888888,5.616],[-0.02302083333333336,-0.029259259259259176,5.631400000095368],[-0.02302083333333336,-0.029259259259259176,5.6418000001907345],[-0.010625000000000048,-0.07333333333333338,5.658500000000004],[-0.010625000000000048,-0.07333333333333338,5.675099999904631],[0.009687499999999953,-0.08925925925925923,5.691800000190739],[0.014791666666666713,-0.09537037037037037,5.708500000000001],[-0.0036458333333333334,-0.09703703703703699,5.725099999904636],[-0.022083333333333382,-0.09870370370370372,5.742300000190738],[-0.022083333333333382,-0.09870370370370372,5.758599999904632],[-0.015104166666666667,-0.09388888888888887,5.775099999904633],[-0.02302083333333336,-0.0816666666666667,5.79180000019074],[-0.014479166666666644,-0.06481481481481481,5.808500000000002],[-0.014687500000000023,-0.04796296296296292,5.825099999904637],[-0.014895833333333285,-0.031111111111111027,5.841700000286103],[-0.017499999999999953,-0.03259259259259263,5.8589000000953675],[-0.041770833333333354,-0.056851851851851834,5.875200000286107],[-0.027291666666666714,-0.04518518518518514,5.8918000001907345],[0.01072916666666662,-0.03796296296296296,5.908400000095369],[0.04874999999999995,-0.030740740740740784,5.925099999904631],[0.04104166666666664,0.012592592592592508,5.941800000190739],[0.058645833333333286,0.045740740740740825,5.958500000000001],[0.07125000000000009,0.06703703703703712,5.97690000009537],[0.08468749999999996,0.0911111111111112,5.991800000190736],[0.08083333333333324,0.12185185185185177,6.008400000095371],[0.16145833333333334,0.09055555555555551,6.02680000019074],[0.21281249999999996,0.14574074074074084,6.042000000000002],[0.28489583333333335,0.2168518518518519,6.058500000000002],[0.35697916666666674,0.287962962962963,6.075700000286105],[0.3927083333333333,0.30944444444444447,6.091800000190737],[0.3927083333333333,0.30944444444444447,6.108499999999999],[0.44385416666666655,0.3074074074074074,6.125200000286107],[0.4639583333333334,0.3831481481481481,6.145700000286105],[0.4670833333333334,0.4666666666666667,6.163200000286103],[0.4670833333333334,0.4666666666666667,6.175099999904631],[0.47333333333333344,0.5264814814814814,6.191800000190739],[0.4736458333333334,0.5224074074074074,6.208500000000001],[0.4096874999999999,0.6170370370370372,6.225099999904636],[0.375,0.6251851851851852,6.241800000190736],[0.28270833333333345,0.5672222222222222,6.258500000000005],[0.190625,0.5024074074074073,6.275099999904633],[0.12979166666666658,0.5292592592592592,6.291900000095367],[0.08958333333333333,0.5562962962962963,6.308500000000002],[0.08041666666666672,0.5055555555555555,6.325300000190737],[0.075,0.43499999999999994,6.341800000190737],[0.075,0.43499999999999994,6.36390000009537],[0.06270833333333338,0.34592592592592586,6.375500000000002],[0.06270833333333338,0.34592592592592586,6.391900000095369],[0.08979166666666671,0.2985185185185186,6.408700000286103],[0.11760416666666676,0.23870370370370367,6.431099999904632],[0.13989583333333327,0.19499999999999992,6.447700000286105],[0.13989583333333327,0.19499999999999992,6.458800000190735],[0.14791666666666667,0.21425925925925934,6.475300000190735],[0.14791666666666667,0.21425925925925934,6.495099999904632],[0.17510416666666656,0.20092592592592592,6.508800000190739],[0.2009375000000001,0.19370370370370374,6.528099999904633],[0.2009375000000001,0.19370370370370374,6.5453000001907355],[0.2022916666666667,0.1388888888888889,6.558700000286102],[0.18104166666666663,0.10388888888888893,6.578700000286105],[0.15968749999999995,0.09388888888888898,6.5952000002861055],[0.16635416666666672,0.09351851851851851,6.609099999904636],[0.17041666666666658,0.0772222222222223,6.625300000190734],[0.1553124999999999,0.05648148148148148,6.641900000095369],[0.1134375000000001,0.07629629629629638,6.661099999904636],[0.12072916666666676,0.054259259259259174,6.675200000286104],[0.078125,0.11037037037037041,6.692],[0.041979166666666616,0.11833333333333329,6.711599999904635],[0.0171875,0.15462962962962962,6.725200000286101],[0.005520833333333286,0.16407407407407412,6.741800000190736],[0.02791666666666662,0.16018518518518518,6.758499999999998],[0.019375000000000024,0.1361111111111111,6.77509999990464],[-0.002708333333333357,0.14351851851851852,6.791800000190733],[-0.04385416666666669,0.1544444444444444,6.811400000095375],[-0.04562499999999995,0.11777777777777781,6.825300000190737],[-0.050520833333333334,0.10462962962962963,6.84359999990464],[-0.04697916666666669,0.038703703703703664,6.85880000019074],[-0.043437500000000046,-0.027222222222222307,6.87709999990463],[0.013437499999999976,-0.044999999999999915,6.891900000095376],[0.04770833333333328,-0.09907407407407408,6.9088000001907375],[0.08270833333333343,-0.08055555555555556,6.928300000190731],[0.09135416666666671,-0.05240740740740743,6.9435],[0.15072916666666672,-0.04425925925925922,6.958800000190735],[0.19666666666666663,-0.0235185185185186,6.984200000286108],[0.19666666666666663,-0.0235185185185186,6.99190000009537],[0.21864583333333343,-0.034999999999999955,7.008599999904632],[0.23364583333333327,-0.05796296296296299,7.025200000286105],[0.27333333333333343,-0.03092592592592601,7.041800000190733],[0.27333333333333343,-0.03092592592592601,7.061499999999995],[0.3003124999999999,-0.02759259259259255,7.075200000286102],[0.2724999999999999,-0.014074074074074116,7.09180000019073],[0.27677083333333335,0.04277777777777782,7.108599999904641],[0.24812500000000004,0.03462962962962971,7.1295999999046415],[0.24812500000000004,0.03462962962962971,7.141900000095376],[0.2601041666666667,0.009999999999999959,7.158500000000004],[0.2601041666666667,0.009999999999999959,7.175099999904631],[0.22666666666666657,0.017407407407407365,7.1917000002861045],[0.20125000000000004,0.03296296296296288,7.208500000000001],[0.2384375000000001,0.1014814814814814,7.2284000000953625],[0.25322916666666656,0.17962962962962964,7.243700000286111],[0.25322916666666656,0.17962962962962964,7.258499999999998],[0.3277083333333332,0.2638888888888889,7.27509999990464],[0.3629166666666668,0.3290740740740742,7.292000000000002],[0.4321875000000001,0.3442592592592592,7.311000000000007],[0.3853125000000001,0.3672222222222221,7.326200000286107],[0.39812500000000006,0.3257407407407407,7.3419000000953645],[0.36729166666666657,0.39240740740740737,7.362000000000009],[0.34614583333333326,0.4140740740740741,7.378599999904637],[0.33562500000000006,0.3911111111111112,7.394599999904628],[0.33562500000000006,0.3911111111111112,7.408599999904638],[0.27937500000000004,0.33833333333333343,7.4288000001907335],[0.25718750000000007,0.2857407407407407,7.445099999904642],[0.18552083333333325,0.2212962962962963,7.46259999990464],[0.16895833333333338,0.1479629629629629,7.479700000286101],[0.10385416666666672,0.12259259259259268,7.495599999904641],[0.1646874999999999,0.07740740740740733,7.510200000286105],[0.16843750000000005,0.09222222222222214,7.525200000286105],[0.20458333333333342,0.10425925925925918,7.544300000190731],[0.21708333333333343,0.0911111111111112,7.558700000286109],[0.23385416666666667,0.08740740740740749,7.577500000000001],[0.25187499999999996,0.06851851851851852,7.597599999904631],[0.25187499999999996,0.06851851851851852,7.608599999904641],[0.24895833333333334,0.07907407407407416,7.6252000002861],[0.2509375000000001,0.018703703703703747,7.643500000000003],[0.2573958333333332,0.03592592592592588,7.6625000000000085],[0.22520833333333337,0.04740740740740745,7.677099999904641],[0.22583333333333327,0.043703703703703745,7.693900000095368],[0.21614583333333334,0.012222222222222264,7.711800000190735],[0.20677083333333332,-0.041111111111111195,7.725900000095365],[0.1990624999999999,-0.03166666666666671,7.742700000286106],[0.20187499999999994,-0.006481481481481481,7.7592000002861],[0.19604166666666673,0.042407407407407366,7.777700000286103],[0.22354166666666658,-0.01796296296296305,7.791900000095367],[0.2009375000000001,0.03185185185185194,7.808599999904629],[0.23135416666666658,0.04611111111111107,7.828500000000005],[0.25791666666666657,0.028888888888888933,7.843500000000006],[0.19791666666666666,0.04944444444444453,7.858599999904641],[0.1710416666666667,0.0868518518518518,7.875599999904637],[0.13770833333333338,0.08740740740740749,7.891700000286107],[0.11135416666666677,0.08333333333333333,7.908599999904638],[0.08406250000000005,0.07444444444444454,7.924999999999997],[0.08895833333333343,0.012407407407407492,7.944099999904637],[0.059583333333333384,0.03351851851851856,7.9587000002861],[0.04500000000000005,-0.008888888888888804,7.975099999904629],[-0.03218749999999997,-0.041111111111111195,7.992300000190738],[-0.07875000000000003,-0.06481481481481481,8.008900000095366],[-0.042916666666666714,-0.0653703703703704,8.025500000000008],[-0.04052083333333331,-0.06370370370370367,8.045900000095372],[-0.03114583333333331,-0.08462962962962961,8.061000000000007],[-0.04385416666666669,-0.11425925925925924,8.0775],[-0.03156249999999995,-0.1574074074074074,8.095500000000001],[-0.05583333333333336,-0.17111111111111107,8.110800000190736],[-0.06937500000000002,-0.09574074074074072,8.128500000000003],[-0.06437499999999995,-0.11074074074074076,8.14809999990463],[-0.06437499999999995,-0.11074074074074076,8.158500000000004],[-0.06843750000000005,-0.0883333333333333,8.175400000095365],[-0.02802083333333331,-0.10740740740740741,8.192499999999995],[-0.026041666666666668,-0.16018518518518518,8.212200000286103],[-0.03177083333333333,-0.2037037037037037,8.228099999904629],[-0.03156249999999995,-0.23537037037037042,8.246599999904632],[-0.03156249999999995,-0.23537037037037042,8.262599999904637],[-0.022604166666666713,-0.23648148148148146,8.275400000095374],[-0.03104166666666662,-0.22870370370370371,8.293900000095363],[-0.027708333333333356,-0.20574074074074078,8.309200000286111],[-0.035104166666666714,-0.2718518518518519,8.328300000190737],[-0.035104166666666714,-0.2718518518518519,8.34180000019073],[-0.046875,-0.20759259259259263,8.358500000000006],[-0.046875,-0.20759259259259263,8.375099999904634],[-0.043333333333333356,-0.20833333333333334,8.391800000190742],[-0.043333333333333356,-0.20833333333333334,8.408500000000004],[-0.05614583333333331,-0.1566666666666667,8.425099999904631],[-0.06499999999999997,-0.14481481481481479,8.447700000286105],[-0.06499999999999997,-0.14481481481481479,8.458400000095367],[-0.08520833333333329,-0.12851851851851848,8.475200000286108],[-0.08520833333333329,-0.12851851851851848,8.491700000286102],[-0.10427083333333335,-0.046481481481481526,8.508400000095364],[-0.10427083333333335,-0.046481481481481526,8.525000000000006],[-0.11604166666666664,-0.007407407407407408,8.541800000190733],[-0.11458333333333333,0.03259259259259263,8.558400000095375],[-0.11312500000000002,0.07259259259259268,8.575099999904637],[-0.12156250000000005,0.11462962962962958,8.591999999999999],[-0.12447916666666667,0.11500000000000005,8.608400000095372],[-0.12354166666666669,0.1388888888888889,8.625099999904634],[-0.1304166666666667,0.14333333333333328,8.641800000190742],[-0.14947916666666666,0.17796296296296302,8.659900000095377],[-0.14093749999999997,0.2116666666666666,8.6755],[-0.13322916666666665,0.1764814814814814,8.69459999990464],[-0.11947916666666672,0.1624074074074075,8.712000000000003],[-0.1063541666666667,0.12722222222222232,8.727400000095372],[-0.0938541666666667,0.09203703703703713,8.742400000095373],[-0.06583333333333338,0.07148148148148152,8.758700000286098],[-0.044479166666666715,0.06111111111111111,8.779900000095367],[-0.041770833333333354,0.01185185185185181,8.795500000000004],[-0.0390625,-0.03740740740740749,8.810000000000002],[-0.0140625,-0.08314814814814811,8.825300000190737],[0.010520833333333358,-0.12814814814814812,8.85380000019073],[0.010520833333333358,-0.12814814814814812,8.862700000286111],[0.030416666666666713,-0.17037037037037037,8.875300000190734],[0.04895833333333333,-0.17759259259259255,8.891900000095376],[0.04729166666666664,-0.15999999999999995,8.912400000095374],[0.03770833333333338,-0.1705555555555556,8.927500000000009],[0.022500000000000023,-0.1977777777777778,8.943400000095366],[0.04489583333333336,-0.3022222222222222,8.968000000000004],[0.04489583333333336,-0.3022222222222222,8.987099999904629],[0.06375000000000004,-0.2940740740740741,9.0032000002861],[0.06375000000000004,-0.2940740740740741,9.010999999999996],[0.07864583333333333,-0.23148148148148148,9.027700000286103],[0.10270833333333323,-0.22888888888888892,9.043800000190743],[0.1087500000000001,-0.21962962962962967,9.058400000095375],[0.1404166666666666,-0.2125925925925926,9.075099999904637],[0.1474999999999999,-0.24500000000000002,9.09170000028611],[0.18041666666666673,-0.2824074074074074,9.108400000095372],[0.18041666666666673,-0.2824074074074074,9.1252000002861],[0.20677083333333332,-0.26796296296296296,9.145499999999998],[0.20677083333333332,-0.26796296296296296,9.158599999904638],[0.2257291666666667,-0.2455555555555556,9.1755],[0.21166666666666673,-0.1603703703703704,9.191900000095373],[0.23083333333333325,-0.1559259259259259,9.2117000002861],[0.22885416666666672,-0.20259259259259255,9.225200000286108],[0.20364583333333333,-0.18314814814814812,9.2442000002861],[0.20708333333333329,-0.18203703703703705,9.258499999999998],[0.18916666666666657,-0.17796296296296302,9.27509999990464],[0.18979166666666672,-0.17814814814814814,9.291800000190733],[0.16458333333333333,-0.17333333333333337,9.311200000286107],[0.16916666666666677,-0.14518518518518514,9.325200000286102],[0.19239583333333338,-0.14611111111111108,9.342300000190733],[0.2055208333333333,-0.18611111111111112,9.359099999904629],[0.20322916666666657,-0.18574074074074076,9.375099999904634],[0.19541666666666657,-0.2059259259259259,9.391800000190742],[0.19541666666666657,-0.2059259259259259,9.411000000000001],[0.2140625,-0.1794444444444444,9.425300000190731],[0.23250000000000004,-0.1646296296296296,9.441900000095373],[0.2367708333333333,-0.1366666666666667,9.458400000095367],[0.2484375,-0.1,9.475099999904629],[0.2617708333333333,-0.12444444444444443,9.491800000190736],[0.2529166666666666,-0.1559259259259259,9.508400000095364],[0.23958333333333334,-0.16148148148148145,9.525000000000006],[0.2321875000000001,-0.12962962962962962,9.541700000286099],[0.2178124999999999,-0.12629629629629627,9.558400000095375],[0.22666666666666657,-0.13962962962962958,9.575000000000003],[0.2111458333333334,-0.17999999999999997,9.59180000019073],[0.2111458333333334,-0.17999999999999997,9.608500000000006],[0.18802083333333333,-0.17814814814814814,9.625099999904634],[0.1943749999999999,-0.23018518518518521,9.644400000095374],[0.17666666666666658,-0.24537037037037038,9.658500000000004],[0.153125,-0.17,9.675099999904631],[0.1553124999999999,-0.17388888888888884,9.691700000286104],[0.15072916666666672,-0.18259259259259264,9.708400000095367],[0.1556250000000001,-0.19537037037037036,9.725099999904629],[0.15208333333333332,-0.20111111111111116,9.741700000286102],[0.17156250000000003,-0.16166666666666668,9.758499999999998],[0.1943749999999999,-0.13148148148148148,9.776800000190732],[0.2131249999999999,-0.07981481481481485,9.791700000286099],[0.21666666666666667,0.012222222222222264,9.808400000095375],[0.2195833333333333,0.021481481481481525,9.825200000286102],[0.22666666666666657,0.0012962962962963806,9.844900000095365],[0.225,0.029814814814814856,9.85859999990464],[0.22781250000000006,-0.00851851851851856,9.875099999904634],[0.20166666666666658,0.03185185185185194,9.891700000286107],[0.19093749999999995,0.0705555555555556,9.90840000009537],[0.1625,0.09722222222222222,9.925099999904631],[0.17072916666666677,0.11407407407407412,9.941800000190739],[0.18010416666666676,0.09018518518518527,9.9585],[0.18708333333333324,0.0588888888888888,9.977200000286103],[0.20281250000000003,0.03425925925925926,9.993599999904632],[0.2185416666666666,0.009629629629629714,10.0092000002861],[0.2127083333333334,-0.03814814814814819,10.025200000286105],[0.19572916666666676,-0.008703703703703788,10.041700000286099],[0.19520833333333343,-0.05944444444444449,10.058400000095375],[0.19093749999999995,-0.11685185185185189,10.076300000190741],[0.20104166666666667,-0.1557407407407408,10.09180000019073],[0.18072916666666666,-0.2037037037037037,10.108400000095372],[0.16177083333333328,-0.23277777777777775,10.125099999904634],[0.16177083333333328,-0.23277777777777775,10.141900000095376],[0.13166666666666677,-0.2331481481481481,10.158599999904638],[0.13166666666666677,-0.2331481481481481,10.175099999904631],[0.12687499999999996,-0.21425925925925923,10.191800000190739],[0.10614583333333343,-0.18481481481481485,10.209700000286105],[0.13729166666666662,-0.17981481481481484,10.225099999904629],[0.16885416666666658,-0.14425925925925923,10.24309999990463],[0.20041666666666677,-0.10333333333333336,10.258800000190732],[0.2319791666666667,-0.062407407407407384,10.27509999990464],[0.26416666666666655,-0.046481481481481526,10.291700000286099],[0.2846874999999999,-0.022037037037036994,10.308400000095375],[0.30416666666666664,-0.013333333333333417,10.325099999904637],[0.3182291666666667,-0.03740740740740749,10.34180000019073],[0.3182291666666667,-0.03740740740740749,10.358400000095372],[0.3181250000000001,-0.04981481481481477,10.3752000002861],[0.33645833333333336,-0.034999999999999955,10.397200000286105],[0.33645833333333336,-0.034999999999999955,10.40840000009537],[0.31489583333333326,0.01796296296296305,10.425099999904631],[0.3042708333333332,0.02370370370370362,10.448300000190741]]","[0.0003000001907338401,0.049500000000001876,0.060300000190736114,0.07540000009537096,0.09190000009537158,0.10859999990463365,0.12690000009536817,0.14190000009536874,0.1590999999046332,0.182300000190736,0.191900000095373,0.20859999990463507,0.225200000286101,0.2443000001907336,0.259200000286107,0.27520000028610525,0.2919000000953673,0.3087000002861018,0.3252000002861024,0.3419000000953716,0.3584999999999994,0.37530000019073384,0.39720000028610514,0.4085999999046379,0.42520000028610383,0.44209999990463444,0.45859999990463507,0.47980000019073543,0.49190000009537016,0.5085000000000051,0.5252000002861053,0.5419000000953673,0.5585999999046365,0.5752000002861024,0.5919000000953716,0.6085999999046336,0.6250999999046343,0.6423000001907369,0.6600000000000037,0.6752000002861038,0.691900000095373,0.7085000000000008,0.7253000001907353,0.742200000286104,0.7585999999046322,0.7778000001907373,0.7918000001907401,0.8085999999046365,0.8252000002861024,0.8419999999999987,0.8625000000000043,0.8775000000000048,0.8919000000953687,0.9085000000000036,0.9283000001907382,0.9420999999046344,0.9587000002861075,0.9777000002861058,0.9920999999046316,1.008800000190739,1.0278000001907373,1.0420999999046359,1.0589000000953703,1.0753000001907367,1.0945000000000036,1.108700000286106,1.1255000000000024,1.1459000000953665,1.1588000001907375,1.1755999999046338,1.1939000000953683,1.2088000001907346,1.2254000000953695,1.2420999999046316,1.2615000000000052,1.2775000000000034,1.2920999999046359,1.3115000000000023,1.3274000000953663,1.3444000000953693,1.3629999999999995,1.3795999999046344,1.3950000000000031,1.408999999999999,1.428200000286104,1.4459000000953708,1.461500000000001,1.4780999999046358,1.4919000000953702,1.5128000001907367,1.5279999999999987,1.5435000000000016,1.558800000190736,1.5800999999046326,1.596099999904638,1.61240000009537,1.6295999999046344,1.6445000000000007,1.6587000002861032,1.6754000000953724,1.6953000001907341,1.7107000002861028,1.7258000001907376,1.7460999999046365,1.7630999999046324,1.778800000190735,1.7978000001907404,1.8087000002861018,1.8255000000000052,1.8427000002861078,1.8622000002861014,1.8770999999046367,1.892000000000003,1.9102000002861033,1.927500000000002,1.9444000000953707,1.9618000001907347,1.982599999904636,1.9918000001907359,2.012900000095371,2.028099999904633,2.0442000002861036,2.0633000001907362,2.0797000002861026,2.094700000286103,2.1170000000000044,2.1470000000000056,2.168200000286106,2.1817000002861064,2.1918000001907387,2.209000000000003,2.227499999999999,2.2420000000000044,2.258900000095366,2.2779999999999987,2.2935000000000016,2.308700000286102,2.3279000000953687,2.342099999904633,2.3588000001907403,2.375400000095368,2.3950999999046374,2.408700000286103,2.4254999999999995,2.441900000095373,2.4629000000953667,2.475200000286101,2.49190000009537,2.512500000000003,2.5252000002861053,2.5419000000953673,2.558500000000002,2.5752000002861024,2.5918000001907373,2.61090000009537,2.625400000095368,2.6428000001907392,2.661599999904638,2.679000000000002,2.6925000000000026,2.7087000002861075,2.7299000000953697,2.744400000095368,2.758900000095366,2.7787000002861078,2.7948000001907403,2.810599999904632,2.825400000095371,2.844999999999999,2.8588000001907403,2.8760000000000048,2.8974000000953666,2.91230000019074,2.9269000000953724,2.942,2.9627000002861053,2.978099999904636,2.992900000095368,3.0113000001907366,3.028800000190735,3.0420000000000016,3.058700000286102,3.0752000002861024,3.0919000000953716,3.1118000001907404,3.132700000286107,3.143400000095369,3.158999999999999,3.1754999999999995,3.194500000000005,3.2114000000953666,3.226700000286101,3.247700000286102,3.258900000095366,3.2754000000953667,3.2965000000000018,3.308700000286102,3.325700000286105,3.342500000000001,3.3634000000953677,3.375400000095368,3.392000000000003,3.414900000095372,3.4254000000953724,3.4420999999046344,3.461200000286105,3.48080000019074,3.4955,3.512200000286107,3.5279000000953715,3.547000000000004,3.563200000286102,3.5795999999046373,3.596599999904633,3.61390000009537,3.6285999999046368,3.6444000000953665,3.664200000286101,3.679300000190736,3.6939000000953683,3.7087000002861075,3.7250999999046357,3.745900000095368,3.761900000095366,3.7785999999046354,3.795900000095372,3.811300000190734,3.8259000000953662,3.8419999999999987,3.8585999999046336,3.877200000286102,3.8918000001907345,3.9084000000953694,3.927099999904634,3.941900000095373,3.960700000286103,3.9773000001907377,3.9939000000953726,4.008500000000005,4.027300000190735,4.044300000190738,4.062599999904634,4.075200000286102,4.091900000095372,4.111099999904631,4.130900000095373,4.1418000001907345,4.158599999904638,4.178900000095368,4.194500000000005,4.208500000000001,4.225200000286101,4.242000000000004,4.259099999904635,4.275200000286105,4.297499999999999,4.3215,4.328900000095366,4.341900000095372,4.358599999904634,4.3795,4.391900000095369,4.408500000000004,4.430700000286102,4.442,4.458599999904635,4.479700000286101,4.496700000286104,4.508500000000005,4.525200000286105,4.54180000019074,4.5585999999046365,4.575700000286105,4.591800000190737,4.608499999999999,4.6259000000953705,4.641900000095369,4.662500000000001,4.679099999904636,4.6943000001907365,4.710900000095371,4.7254000000953695,4.741800000190736,4.768500000000003,4.775700000286108,4.79180000019074,4.80890000009537,4.825200000286102,4.841800000190737,4.860099999904634,4.875099999904634,4.8918000001907345,4.909800000190735,4.927,4.9420999999046344,4.9602000002861075,4.975599999904638,4.992200000286104,5.008500000000005,5.029599999904633,5.04240000009537,5.058800000190736,5.086900000095369,5.097000000000001,5.108700000286106,5.125400000095368,5.147000000000006