inst1_resp.keys,inst1_resp.rt,calibrationMouse.x,calibrationMouse.y,calibrationMouse.leftButton,calibrationMouse.midButton,calibrationMouse.rightButton,calibrationClick.x,calibrationClick.y,calibrationClick.leftButton,calibrationClick.midButton,calibrationClick.rightButton,trialsc.thisRepN,trialsc.thisTrialN,trialsc.thisN,trialsc.thisIndex,trialsc.ran,calibration_x,calibration_y,participant,session,date,expName,psychopyVersion,OS,frameRate,calibrationClick.clicked_name,ScreenRes_pixels,mouse_2.x,mouse_2.y,mouse_2.leftButton,mouse_2.midButton,mouse_2.rightButton,mouse_2.time,mouse_2.clicked_name,Camera_pixels,mouse.x,mouse.y,mouse.leftButton,mouse.midButton,mouse.rightButton,mouse.time,mouse.clicked_name,Choice,Trial,TrialDuration,MOUSE_GAZE,ET_GAZE,ET_GAZE_x_T,time,unixTime,ET_GAZE_NF,Loc_Bus_label,Loc_Metro_label,Loc_RH_label,Loc_Cost_label,Loc_Travel_label,Loc_Comfort_label,Loc_Bus_cost,Loc_Metro_cost,Loc_RH_cost,Loc_Bus_travel,Loc_Metro_travel,Loc_RH_travel,Loc_Bus_comfort,Loc_Metro_comfort,Loc_RH_comfort,trials.thisRepN,trials.thisTrialN,trials.thisN,trials.thisIndex,trials.ran,Block,Device,RH_cost,RH_travel_time,RH_Comfort,metro_cost,metro_travel_time,metro_Comfort,Bus_cost,Bus_travel_time,Bus_Comfort
space,1.5475,-0.119791667,-0.318518519,1,0,0,0.313541667,0.707407407,1,0,0,0,0,0,18,1,0.33,0.67,39,001,2024-11-18_10h27.28.702,Attention_exp_legacy,2023.1.0,Win32,59.88023952,,,,,,,,,,,,,,,,,,,,,,,,,,,,,,,,,,,,,,,,,,,,,,,,,,,,,,,,,
,,,,,,,0.33125,-0.003703704,1,0,0,0,1,1,16,1,0.33,0,39,001,2024-11-18_10h27.28.702,Attention_exp_legacy,2023.1.0,Win32,59.88023952,calibration_square,,,,,,,,,,,,,,,,,,,,,,,,,,,,,,,,,,,,,,,,,,,,,,,,,,,,,,,,
,,,,,,,-0.673958333,0.009259259,1,0,0,0,2,2,2,1,-0.67,0,39,001,2024-11-18_10h27.28.702,Attention_exp_legacy,2023.1.0,Win32,59.88023952,calibration_square,,,,,,,,,,,,,,,,,,,,,,,,,,,,,,,,,,,,,,,,,,,,,,,,,,,,,,,,
,,,,,,,-0.341666667,-0.014814815,1,0,0,0,3,3,6,1,-0.33,0,39,001,2024-11-18_10h27.28.702,Attention_exp_legacy,2023.1.0,Win32,59.88023952,,,,,,,,,,,,,,,,,,,,,,,,,,,,,,,,,,,,,,,,,,,,,,,,,,,,,,,,,
,,,,,,,-0.008333333,0.32962963,1,0,0,0,4,4,12,1,0,0.33,39,001,2024-11-18_10h27.28.702,Attention_exp_legacy,2023.1.0,Win32,59.88023952,calibration_square,,,,,,,,,,,,,,,,,,,,,,,,,,,,,,,,,,,,,,,,,,,,,,,,,,,,,,,,
,,,,,,,0.003125,-0.687037037,1,0,0,0,5,5,9,1,0,-0.67,39,001,2024-11-18_10h27.28.702,Attention_exp_legacy,2023.1.0,Win32,59.88023952,,,,,,,,,,,,,,,,,,,,,,,,,,,,,,,,,,,,,,,,,,,,,,,,,,,,,,,,,
,,,,,,,-0.321875,0.662962963,1,0,0,0,6,6,8,1,-0.33,0.67,39,001,2024-11-18_10h27.28.702,Attention_exp_legacy,2023.1.0,Win32,59.88023952,calibration_square,,,,,,,,,,,,,,,,,,,,,,,,,,,,,,,,,,,,,,,,,,,,,,,,,,,,,,,,
,,,,,,,-0.33125,-0.324074074,1,0,0,0,7,7,5,1,-0.33,-0.33,39,001,2024-11-18_10h27.28.702,Attention_exp_legacy,2023.1.0,Win32,59.88023952,calibration_square,,,,,,,,,,,,,,,,,,,,,,,,,,,,,,,,,,,,,,,,,,,,,,,,,,,,,,,,
,,,,,,,0.309375,-0.337037037,1,0,0,0,8,8,15,1,0.33,-0.33,39,001,2024-11-18_10h27.28.702,Attention_exp_legacy,2023.1.0,Win32,59.88023952,,,,,,,,,,,,,,,,,,,,,,,,,,,,,,,,,,,,,,,,,,,,,,,,,,,,,,,,,
,,,,,,,-0.6625,-0.642592593,1,0,0,0,9,9,0,1,-0.67,-0.67,39,001,2024-11-18_10h27.28.702,Attention_exp_legacy,2023.1.0,Win32,59.88023952,,,,,,,,,,,,,,,,,,,,,,,,,,,,,,,,,,,,,,,,,,,,,,,,,,,,,,,,,
,,,,,,,-0.665625,-0.316666667,1,0,0,0,10,10,1,1,-0.67,-0.33,39,001,2024-11-18_10h27.28.702,Attention_exp_legacy,2023.1.0,Win32,59.88023952,,,,,,,,,,,,,,,,,,,,,,,,,,,,,,,,,,,,,,,,,,,,,,,,,,,,,,,,,
,,,,,,,-0.342708333,0.324074074,1,0,0,0,11,11,7,1,-0.33,0.33,39,001,2024-11-18_10h27.28.702,Attention_exp_legacy,2023.1.0,Win32,59.88023952,,,,,,,,,,,,,,,,,,,,,,,,,,,,,,,,,,,,,,,,,,,,,,,,,,,,,,,,,
,,,,,,,0.676041667,-0.672222222,1,0,0,0,12,12,20,1,0.67,-0.67,39,001,2024-11-18_10h27.28.702,Attention_exp_legacy,2023.1.0,Win32,59.88023952,calibration_square,,,,,,,,,,,,,,,,,,,,,,,,,,,,,,,,,,,,,,,,,,,,,,,,,,,,,,,,
,,,,,,,-0.321875,-0.674074074,1,0,0,0,13,13,4,1,-0.33,-0.67,39,001,2024-11-18_10h27.28.702,Attention_exp_legacy,2023.1.0,Win32,59.88023952,calibration_square,,,,,,,,,,,,,,,,,,,,,,,,,,,,,,,,,,,,,,,,,,,,,,,,,,,,,,,,
,,,,,,,0.013541667,0.698148148,1,0,0,0,14,14,13,1,0,0.67,39,001,2024-11-18_10h27.28.702,Attention_exp_legacy,2023.1.0,Win32,59.88023952,,,,,,,,,,,,,,,,,,,,,,,,,,,,,,,,,,,,,,,,,,,,,,,,,,,,,,,,,
,,,,,,,-0.673958333,0.309259259,1,0,0,0,15,15,3,1,-0.67,0.33,39,001,2024-11-18_10h27.28.702,Attention_exp_legacy,2023.1.0,Win32,59.88023952,,,,,,,,,,,,,,,,,,,,,,,,,,,,,,,,,,,,,,,,,,,,,,,,,,,,,,,,,
,,,,,,,0.008333333,-0.001851852,1,0,0,0,16,16,11,1,0,0,39,001,2024-11-18_10h27.28.702,Attention_exp_legacy,2023.1.0,Win32,59.88023952,calibration_square,,,,,,,,,,,,,,,,,,,,,,,,,,,,,,,,,,,,,,,,,,,,,,,,,,,,,,,,
,,,,,,,0.320833333,-0.681481481,1,0,0,0,17,17,14,1,0.33,-0.67,39,001,2024-11-18_10h27.28.702,Attention_exp_legacy,2023.1.0,Win32,59.88023952,,,,,,,,,,,,,,,,,,,,,,,,,,,,,,,,,,,,,,,,,,,,,,,,,,,,,,,,,
,,,,,,,-0.007291667,-0.335185185,1,0,0,0,18,18,10,1,0,-0.33,39,001,2024-11-18_10h27.28.702,Attention_exp_legacy,2023.1.0,Win32,59.88023952,calibration_square,,,,,,,,,,,,,,,,,,,,,,,,,,,,,,,,,,,,,,,,,,,,,,,,,,,,,,,,
,,,,,,,0.652083333,0.662962963,1,0,0,0,19,19,19,1,0.67,0.67,39,001,2024-11-18_10h27.28.702,Attention_exp_legacy,2023.1.0,Win32,59.88023952,,,,,,,,,,,,,,,,,,,,,,,,,,,,,,,,,,,,,,,,,,,,,,,,,,,,,,,,,
,,,,,,,0.327083333,0.346296296,1,0,0,0,20,20,17,1,0.33,0.33,39,001,2024-11-18_10h27.28.702,Attention_exp_legacy,2023.1.0,Win32,59.88023952,,,,,,,,,,,,,,,,,,,,,,,,,,,,,,,,,,,,,,,,,,,,,,,,,,,,,,,,,
,,,,,,,,,,,,,,,,,,,39,001,2024-11-18_10h27.28.702,Attention_exp_legacy,2023.1.0,Win32,59.88023952,,"[1920,1080]",[-0.01875],[-0.48148148148148145],[1],[0],[0],[0.9805999999046335],"[""StartButton""]","[640,480]",[0.40520833333333334],[0.4462962962962963],[1],[0],[0],[4.01559999990463],"[""RH_label""]",RH_label,1,5.0271,"[[-0.015625,-0.4777777777777778],[-0.015625,-0.4777777777777778],[-0.015625,-0.4777777777777778],[-0.015625,-0.4777777777777778],[-0.015625,-0.4777777777777778],[-0.015625,-0.4777777777777778],[-0.015625,-0.4777777777777778],[-0.015625,-0.4777777777777778],[-0.015625,-0.4777777777777778],[-0.015625,-0.4777777777777778],[-0.015625,-0.4777777777777778],[-0.015625,-0.4777777777777778],[-0.015625,-0.4777777777777778],[-0.015625,-0.4777777777777778],[-0.015625,-0.4777777777777778],[-0.015625,-0.4777777777777778],[-0.015625,-0.4777777777777778],[-0.015625,-0.4777777777777778],[-0.015625,-0.4777777777777778],[-0.015625,-0.4777777777777778],[-0.015625,-0.4777777777777778],[-0.015625,-0.4777777777777778],[-0.015625,-0.4777777777777778],[-0.015625,-0.4777777777777778],[-0.015625,-0.4777777777777778],[-0.015625,-0.4777777777777778],[-0.015625,-0.4777777777777778],[-0.015625,-0.4777777777777778],[-0.015625,-0.4777777777777778],[-0.015625,-0.4777777777777778],[-0.015625,-0.4777777777777778],[-0.015625,-0.4777777777777778],[-0.015625,-0.4777777777777778],[-0.015625,-0.4777777777777778],[-0.015625,-0.4777777777777778],[-0.015625,-0.4777777777777778],[-0.015625,-0.4777777777777778],[-0.015625,-0.4777777777777778],[-0.015625,-0.4777777777777778],[-0.015625,-0.4777777777777778],[-0.015625,-0.4777777777777778],[-0.015625,-0.4777777777777778],[-0.009375,-0.46296296296296297],[-0.0010416666666666667,-0.42962962962962964],[0.0020833333333333333,-0.4166666666666667],[0.00625,-0.3814814814814815],[0.010416666666666666,-0.3277777777777778],[0.014583333333333334,-0.23703703703703705],[0.014583333333333334,-0.17962962962962964],[0.013541666666666667,-0.1259259259259259],[0.010416666666666666,-0.08518518518518518],[0.0020833333333333333,-0.044444444444444446],[-0.004166666666666667,-0.003703703703703704],[-0.011458333333333333,0.037037037037037035],[-0.016666666666666666,0.06666666666666667],[-0.022916666666666665,0.09814814814814815],[-0.028125,0.12222222222222222],[-0.035416666666666666,0.14629629629629629],[-0.041666666666666664,0.16111111111111112],[-0.04583333333333333,0.17777777777777778],[-0.05,0.18703703703703703],[-0.053125,0.1925925925925926],[-0.05416666666666667,0.19444444444444445],[-0.05625,0.19814814814814816],[-0.05625,0.19814814814814816],[-0.057291666666666664,0.20185185185185187],[-0.057291666666666664,0.20185185185185187],[-0.058333333333333334,0.2037037037037037],[-0.058333333333333334,0.2037037037037037],[-0.058333333333333334,0.2037037037037037],[-0.058333333333333334,0.2037037037037037],[-0.058333333333333334,0.2037037037037037],[-0.058333333333333334,0.2037037037037037],[-0.058333333333333334,0.2037037037037037],[-0.058333333333333334,0.2037037037037037],[-0.058333333333333334,0.2037037037037037],[-0.058333333333333334,0.2037037037037037],[-0.058333333333333334,0.2037037037037037],[-0.058333333333333334,0.2037037037037037],[-0.058333333333333334,0.2037037037037037],[-0.058333333333333334,0.2037037037037037],[-0.058333333333333334,0.2037037037037037],[-0.058333333333333334,0.2037037037037037],[-0.059375,0.20555555555555555],[-0.04791666666666667,0.21666666666666667],[-0.029166666666666667,0.22777777777777777],[-0.010416666666666666,0.23703703703703705],[0.003125,0.2388888888888889],[0.015625,0.24444444444444444],[0.022916666666666665,0.24444444444444444],[0.030208333333333334,0.2462962962962963],[0.040625,0.25],[0.04583333333333333,0.2518518518518518],[0.05520833333333333,0.2537037037037037],[0.06666666666666667,0.25555555555555554],[0.078125,0.2611111111111111],[0.09479166666666666,0.2611111111111111],[0.10520833333333333,0.26666666666666666],[0.1125,0.26851851851851855],[0.121875,0.27037037037037037],[0.13020833333333334,0.27037037037037037],[0.13958333333333334,0.27037037037037037],[0.15,0.27037037037037037],[0.1625,0.27037037037037037],[0.18229166666666666,0.27037037037037037],[0.19583333333333333,0.27037037037037037],[0.203125,0.27037037037037037],[0.23125,0.27037037037037037],[0.253125,0.27037037037037037],[0.2791666666666667,0.27037037037037037],[0.2989583333333333,0.26851851851851855],[0.3229166666666667,0.26481481481481484],[0.34791666666666665,0.25555555555555554],[0.36770833333333336,0.2518518518518518],[0.3875,0.2462962962962963],[0.415625,0.2388888888888889],[0.4322916666666667,0.2351851851851852],[0.4479166666666667,0.23333333333333334],[0.46041666666666664,0.22777777777777777],[0.4708333333333333,0.22592592592592592],[0.4791666666666667,0.22407407407407406],[0.4875,0.21851851851851853],[0.49375,0.21851851851851853],[0.4979166666666667,0.21666666666666667],[0.503125,0.21296296296296297],[0.5104166666666666,0.21296296296296297],[0.5135416666666667,0.2111111111111111],[0.5177083333333333,0.20925925925925926],[0.5197916666666667,0.20925925925925926],[0.5208333333333334,0.2074074074074074],[0.5208333333333334,0.2074074074074074],[0.521875,0.2074074074074074],[0.5229166666666667,0.2074074074074074],[0.5239583333333333,0.2074074074074074],[0.5239583333333333,0.2074074074074074],[0.5239583333333333,0.2074074074074074],[0.5239583333333333,0.2074074074074074],[0.5239583333333333,0.2074074074074074],[0.5239583333333333,0.2074074074074074],[0.5239583333333333,0.2074074074074074],[0.5239583333333333,0.2074074074074074],[0.5239583333333333,0.2074074074074074],[0.5239583333333333,0.2074074074074074],[0.5239583333333333,0.2074074074074074],[0.5239583333333333,0.2074074074074074],[0.5239583333333333,0.2074074074074074],[0.5239583333333333,0.2074074074074074],[0.5239583333333333,0.2074074074074074],[0.5239583333333333,0.2074074074074074],[0.5239583333333333,0.2074074074074074],[0.5239583333333333,0.2074074074074074],[0.5239583333333333,0.2074074074074074],[0.5239583333333333,0.2074074074074074],[0.5239583333333333,0.20555555555555555],[0.5239583333333333,0.20555555555555555],[0.5239583333333333,0.20555555555555555],[0.5239583333333333,0.20555555555555555],[0.5239583333333333,0.20555555555555555],[0.5239583333333333,0.20185185185185187],[0.5239583333333333,0.19444444444444445],[0.5239583333333333,0.1814814814814815],[0.5239583333333333,0.16111111111111112],[0.5239583333333333,0.13148148148148148],[0.521875,0.0962962962962963],[0.5177083333333333,0.040740740740740744],[0.515625,0.003703703703703704],[0.5114583333333333,-0.03333333333333333],[0.5072916666666667,-0.07407407407407407],[0.50625,-0.0962962962962963],[0.503125,-0.1259259259259259],[0.5020833333333333,-0.13148148148148148],[0.5,-0.14444444444444443],[0.4947916666666667,-0.16296296296296298],[0.4875,-0.18518518518518517],[0.48020833333333335,-0.20925925925925926],[0.4666666666666667,-0.24259259259259258],[0.46458333333333335,-0.24814814814814815],[0.45625,-0.26851851851851855],[0.45208333333333334,-0.2777777777777778],[0.4479166666666667,-0.28703703703703703],[0.4479166666666667,-0.28888888888888886],[0.446875,-0.29259259259259257],[0.446875,-0.29259259259259257],[0.446875,-0.29259259259259257],[0.446875,-0.29259259259259257],[0.446875,-0.29259259259259257],[0.446875,-0.29259259259259257],[0.446875,-0.29444444444444445],[0.44479166666666664,-0.29444444444444445],[0.44375,-0.2962962962962963],[0.4427083333333333,-0.2962962962962963],[0.44166666666666665,-0.2962962962962963],[0.440625,-0.29814814814814816],[0.440625,-0.29814814814814816],[0.4395833333333333,-0.3],[0.4395833333333333,-0.3],[0.43854166666666666,-0.30185185185185187],[0.43854166666666666,-0.30185185185185187],[0.43854166666666666,-0.30185185185185187],[0.43854166666666666,-0.30185185185185187],[0.43854166666666666,-0.30185185185185187],[0.43854166666666666,-0.30185185185185187],[0.43854166666666666,-0.30185185185185187],[0.43854166666666666,-0.30185185185185187],[0.43854166666666666,-0.30185185185185187],[0.43854166666666666,-0.30185185185185187],[0.43854166666666666,-0.30185185185185187],[0.43854166666666666,-0.30185185185185187],[0.43854166666666666,-0.30185185185185187],[0.43854166666666666,-0.29814814814814816],[0.4354166666666667,-0.26481481481481484],[0.43333333333333335,-0.22407407407407406],[0.42916666666666664,-0.17962962962962964],[0.428125,-0.15],[0.4270833333333333,-0.07777777777777778],[0.425,0.10925925925925926],[0.42604166666666665,0.20185185185185187],[0.42083333333333334,0.2833333333333333],[0.415625,0.3537037037037037],[0.4114583333333333,0.40185185185185185],[0.40729166666666666,0.42777777777777776],[0.40625,0.4425925925925926],[0.40520833333333334,0.4462962962962963],[0.40520833333333334,0.4462962962962963],[0.40520833333333334,0.4462962962962963],[0.40520833333333334,0.4462962962962963],[0.40520833333333334,0.4462962962962963],[0.40520833333333334,0.4462962962962963],[0.40520833333333334,0.4462962962962963],[0.40520833333333334,0.4462962962962963],[0.40520833333333334,0.4462962962962963],[0.40520833333333334,0.4462962962962963],[0.40520833333333334,0.4462962962962963],[0.40520833333333334,0.4462962962962963],[0.40520833333333334,0.4462962962962963],[0.40520833333333334,0.4462962962962963],[0.40520833333333334,0.4462962962962963],[0.40520833333333334,0.4462962962962963],[0.40520833333333334,0.4462962962962963],[0.40520833333333334,0.4462962962962963],[0.40520833333333334,0.4462962962962963],[0.40520833333333334,0.4462962962962963],[0.40520833333333334,0.4462962962962963],[0.40520833333333334,0.4462962962962963],[0.40520833333333334,0.4462962962962963],[0.40520833333333334,0.4462962962962963],[0.40520833333333334,0.4462962962962963],[0.40520833333333334,0.4462962962962963],[0.40520833333333334,0.4462962962962963],[0.40520833333333334,0.4462962962962963],[0.40520833333333334,0.4462962962962963],[0.40520833333333334,0.4462962962962963],[0.40520833333333334,0.4462962962962963],[0.40520833333333334,0.4462962962962963],[0.40520833333333334,0.4462962962962963],[0.40520833333333334,0.4462962962962963],[0.40520833333333334,0.4462962962962963],[0.40520833333333334,0.4462962962962963],[0.40520833333333334,0.4462962962962963],[0.40520833333333334,0.4462962962962963],[0.40520833333333334,0.4462962962962963],[0.40520833333333334,0.4462962962962963],[0.40520833333333334,0.4462962962962963],[0.40520833333333334,0.4462962962962963],[0.40520833333333334,0.4462962962962963],[0.40520833333333334,0.4462962962962963],[0.40520833333333334,0.4462962962962963],[0.40520833333333334,0.4462962962962963],[0.40520833333333334,0.4462962962962963],[0.40520833333333334,0.4462962962962963],[0.40520833333333334,0.4462962962962963],[0.40520833333333334,0.4462962962962963],[0.40520833333333334,0.4462962962962963],[0.40520833333333334,0.4462962962962963],[0.40520833333333334,0.4462962962962963],[0.40520833333333334,0.4462962962962963],[0.40520833333333334,0.4462962962962963],[0.40520833333333334,0.4462962962962963],[0.40520833333333334,0.4462962962962963],[0.40520833333333334,0.4462962962962963],[0.40520833333333334,0.4462962962962963],[0.40520833333333334,0.4462962962962963],[0.40520833333333334,0.4462962962962963],[0.40520833333333334,0.4462962962962963],[0.40520833333333334,0.4388888888888889],[0.40520833333333334,0.43333333333333335],[0.40520833333333334,0.42777777777777776],[0.40520833333333334,0.42407407407407405],[0.40520833333333334,0.4222222222222222],[0.40520833333333334,0.4185185185185185],[0.40520833333333334,0.4166666666666667],[0.40520833333333334,0.412962962962963],[0.40520833333333334,0.4111111111111111],[0.40520833333333334,0.4074074074074074],[0.40520833333333334,0.40555555555555556],[0.40520833333333334,0.4],[0.40520833333333334,0.3962962962962963],[0.40520833333333334,0.3962962962962963],[0.40520833333333334,0.39444444444444443],[0.40520833333333334,0.3907407407407407],[0.40520833333333334,0.3888888888888889]]","[[0.07177083333333342,-0.46648148148148144],[0.07177083333333342,-0.46648148148148144],[0.12510416666666657,-0.47833333333333333],[0.12510416666666657,-0.47833333333333333],[0.17416666666666672,-0.45],[0.17416666666666672,-0.45],[0.17052083333333337,-0.4375925925925926],[0.17052083333333337,-0.4375925925925926],[0.16104166666666658,-0.43629629629629635],[0.15239583333333329,-0.42462962962962963],[0.15239583333333329,-0.42462962962962963],[0.1396874999999999,-0.42166666666666663],[0.1396874999999999,-0.42166666666666663],[0.12697916666666675,-0.41870370370370374],[0.12697916666666675,-0.41870370370370374],[0.08447916666666658,-0.36370370370370364],[0.08447916666666658,-0.36370370370370364],[0.10677083333333333,-0.27518518518518525],[0.10677083333333333,-0.27518518518518525],[0.07458333333333324,-0.17555555555555558],[0.07458333333333324,-0.17555555555555558],[0.05135416666666662,-0.09203703703703701],[0.029270833333333357,-0.0455555555555556],[0.028750000000000022,0.03740740740740749],[0.014895833333333285,0.147037037037037],[-0.01604166666666664,0.23185185185185195],[-0.03822916666666672,0.3055555555555556],[-0.06333333333333328,0.3653703703703703],[-0.06124999999999995,0.3731481481481482],[-0.14010416666666667,0.29222222222222216],[-0.14010416666666667,0.29222222222222216],[-0.18302083333333338,0.1962962962962963],[-0.18302083333333338,0.1962962962962963],[-0.20739583333333336,0.1675925925925926],[-0.20739583333333336,0.1675925925925926],[-0.2313541666666667,0.14222222222222214],[-0.2601041666666667,0.053703703703703705],[-0.2601041666666667,0.053703703703703705],[-0.2786458333333333,-0.03148148148148148],[-0.290625,-0.08796296296296297],[-0.28500000000000003,-0.12999999999999998],[-0.2764583333333333,-0.1581481481481481],[-0.2638541666666666,-0.21814814814814817],[-0.22427083333333328,-0.1259259259259259],[-0.1857291666666666,-0.0477777777777777],[-0.15562499999999999,-0.009259259259259259],[-0.15562499999999999,-0.009259259259259259],[-0.13062499999999996,0.02814814814814823],[-0.1172916666666667,0.08518518518518518],[-0.06145833333333333,0.17555555555555546],[0.016770833333333356,0.26740740740740737],[0.11854166666666661,0.4329629629629629],[0.13624999999999995,0.4662962962962962],[0.1492708333333333,0.5157407407407407],[0.15145833333333342,0.4681481481481481],[0.14677083333333343,0.4801851851851851],[0.14677083333333343,0.4801851851851851],[0.14916666666666673,0.402962962962963],[0.17604166666666668,0.2916666666666667],[0.14552083333333338,0.24666666666666676],[0.10572916666666667,0.13518518518518519],[0.030729166666666665,0.03537037037037041],[-0.07218749999999995,-0.1527777777777778],[-0.06270833333333338,-0.20092592592592592],[-0.08833333333333329,-0.24537037037037038],[-0.09822916666666662,-0.29888888888888887],[-0.09416666666666665,-0.40481481481481485],[-0.10479166666666669,-0.41944444444444445],[-0.10479166666666669,-0.41944444444444445],[-0.13416666666666663,-0.3479629629629629],[-0.09947916666666666,-0.3303703703703703],[-0.12510416666666668,-0.2855555555555555],[-0.12947916666666662,-0.25277777777777777],[-0.14052083333333332,-0.23074074074074077],[-0.1798958333333334,-0.21648148148148144],[-0.18187500000000004,-0.19314814814814818],[-0.19958333333333336,-0.16074074074074077],[-0.21489583333333329,-0.10907407407407403],[-0.23020833333333332,-0.05740740740740741],[-0.2508333333333333,-0.07407407407407407],[-0.27145833333333336,-0.09074074074074075],[-0.2665625,-0.07962962962962963],[-0.28447916666666667,-0.09259259259259259],[-0.27468750000000003,-0.10240740740740743],[-0.24229166666666668,-0.057777777777777754],[-0.24156249999999999,-0.03037037037037033],[-0.21031249999999999,-0.02759259259259255],[-0.17062499999999994,-0.03814814814814819],[-0.11531250000000005,-0.03462962962962971],[-0.05572916666666667,-0.01703703703703712],[0.014687500000000023,-0.04055555555555551],[0.042499999999999954,-0.06870370370370374],[0.042499999999999954,-0.06870370370370374],[0.15593750000000003,-0.051111111111111156],[0.15593750000000003,-0.051111111111111156],[0.2,-0.007037037037036953],[0.20583333333333323,-0.044999999999999915],[0.20583333333333323,-0.044999999999999915],[0.2390625,-0.08574074074074076],[0.24947916666666667,-0.08259259259259263],[0.2671875,-0.08611111111111111],[0.2516666666666666,-0.06759259259259259],[0.2211458333333333,-0.059999999999999956],[0.21166666666666673,-0.02555555555555547],[0.21052083333333324,-0.0257407407407407],[0.21906249999999997,0.028703703703703703],[0.31218750000000006,0.07185185185185176],[0.4265625,0.22240740740740744],[0.4195833333333333,0.230925925925926],[0.4048958333333334,0.22018518518518515],[0.38083333333333325,0.26518518518518525],[0.38083333333333325,0.26518518518518525],[0.4048958333333334,0.2903703703703703],[0.4222916666666668,0.294074074074074],[0.40572916666666664,0.3427777777777778],[0.4479166666666667,0.3551851851851851],[0.39041666666666663,0.27240740740740743],[0.29874999999999996,0.18259259259259264],[0.215625,0.02092592592592584],[0.23468749999999997,-0.004074074074074159],[0.2669791666666666,-0.04222222222222214],[0.32614583333333325,-0.147037037037037],[0.32614583333333325,-0.147037037037037],[0.3038541666666667,-0.22629629629629627],[0.3117708333333333,-0.3255555555555556],[0.3117708333333333,-0.3255555555555556],[0.33541666666666664,-0.4414814814814814],[0.3585416666666667,-0.4685185185185185],[0.4088541666666667,-0.4766666666666666],[0.4088541666666667,-0.4766666666666666],[0.43416666666666665,-0.5074074074074074],[0.4106250000000001,-0.5311111111111111],[0.43624999999999997,-0.5214814814814815],[0.4370833333333332,-0.4957407407407407],[0.4247916666666666,-0.459074074074074],[0.47625000000000006,-0.48407407407407405],[0.5014583333333335,-0.402962962962963],[0.5322916666666667,-0.3344444444444445],[0.4953125,-0.3292592592592593],[0.4953125,-0.3292592592592593],[0.4591666666666666,-0.3237037037037037],[0.4491666666666667,-0.30037037037037034],[0.48333333333333334,-0.2905555555555555],[0.48072916666666665,-0.272037037037037],[0.5028125,-0.27981481481481485],[0.45114583333333325,-0.28962962962962957],[0.4196875000000001,-0.2640740740740741],[0.4196875000000001,-0.2640740740740741],[0.4205208333333334,-0.26648148148148143],[0.39427083333333335,-0.29370370370370374],[0.39427083333333335,-0.29370370370370374],[0.40822916666666675,-0.2851851851851852],[0.40822916666666675,-0.2851851851851852],[0.4222916666666668,-0.2711111111111111],[0.4222916666666668,-0.2711111111111111],[0.4203125,-0.27629629629629626],[0.4203125,-0.27629629629629626],[0.3914583333333333,-0.2707407407407407],[0.3914583333333333,-0.2707407407407407],[0.38604166666666656,-0.28722222222222227],[0.38604166666666656,-0.28722222222222227],[0.3710416666666667,-0.29018518518518516],[0.3710416666666667,-0.29018518518518516],[0.3976041666666667,-0.277962962962963],[0.40114583333333326,-0.2735185185185185],[0.40343749999999995,-0.26962962962962966],[0.41354166666666664,-0.24240740740740738],[0.38864583333333325,-0.23129629629629625],[0.3628124999999999,-0.22611111111111115],[0.4076041666666666,-0.2],[0.4076041666666666,-0.2],[0.45583333333333326,-0.17629629629629628],[0.48718750000000005,-0.1455555555555556],[0.48947916666666674,-0.10685185185185184],[0.48937499999999995,-0.04611111111111107],[0.48489583333333336,0.006296296296296254],[0.48489583333333336,0.006296296296296254],[0.47374999999999995,0.011481481481481566],[0.45364583333333336,0.02296296296296292],[0.49729166666666674,0.039629629629629584],[0.5204166666666665,0.07759259259259255],[0.4514583333333334,0.10333333333333325],[0.42916666666666664,0.11074074074074065],[0.39031250000000006,0.1259259259259259],[0.36989583333333326,0.13185185185185194],[0.3740624999999999,0.11407407407407412],[0.38562500000000005,0.12240740740740745],[0.3460416666666667,0.14092592592592595],[0.3551041666666668,0.17018518518518513],[0.3304166666666667,0.19944444444444454],[0.32625000000000004,0.2074074074074074],[0.3584374999999999,0.23925925925925934],[0.3368750000000001,0.2711111111111111],[0.3489583333333333,0.3077777777777779],[0.3681250000000001,0.35555555555555557],[0.38343749999999993,0.36944444444444446],[0.38343749999999993,0.36944444444444446],[0.3857291666666666,0.35777777777777786],[0.43114583333333345,0.3816666666666667],[0.4422916666666666,0.38629629629629636],[0.45343749999999994,0.39092592592592595],[0.45822916666666674,0.39759259259259266],[0.46906249999999994,0.3888888888888889],[0.4648958333333333,0.36814814814814806],[0.4358333333333334,0.32259259259259265],[0.44072916666666656,0.2794444444444444],[0.4013541666666666,0.30351851851851847],[0.3619791666666667,0.32759259259259255],[0.36437499999999995,0.3140740740740741],[0.3632291666666667,0.29518518518518516],[0.3556250000000001,0.2633333333333334],[0.35437500000000005,0.2294444444444444],[0.31749999999999995,0.21333333333333343],[0.31749999999999995,0.21333333333333343],[0.33447916666666655,0.20685185185185193],[0.33447916666666655,0.20685185185185193],[0.35437500000000005,0.23740740740740748],[0.35437500000000005,0.23740740740740748],[0.3433333333333332,0.2175925925925926],[0.3433333333333332,0.2175925925925926],[0.36041666666666666,0.19000000000000003],[0.3919791666666666,0.20796296296296288],[0.3712500000000001,0.15703703703703695],[0.35604166666666665,0.10999999999999996],[0.35604166666666665,0.10999999999999996],[0.3472916666666668,0.07592592592592592],[0.3403125000000001,0.02555555555555547],[0.3403125000000001,0.02555555555555547],[0.36052083333333323,-0.0022222222222223064],[0.38916666666666655,-0.059814814814814835],[0.40989583333333335,-0.14611111111111108],[0.428125,-0.21185185185185182],[0.4727083333333333,-0.2722222222222222],[0.5060416666666666,-0.3792592592592593],[0.533125,-0.42777777777777776],[0.5623958333333334,-0.4468518518518519],[0.5870833333333333,-0.4668518518518519],[0.6099999999999999,-0.4705555555555556],[0.6349999999999999,-0.522037037037037],[0.6365624999999999,-0.5477777777777778],[0.6376041666666665,-0.5735185185185185],[0.6504166666666668,-0.5505555555555556],[0.6568749999999999,-0.5585185185185185],[0.6478125000000001,-0.5622222222222223],[0.6653125000000001,-0.5616666666666666],[0.6653125000000001,-0.5616666666666666],[0.6679166666666667,-0.5705555555555556],[0.6727083333333332,-0.5762962962962963],[0.6770833333333334,-0.5851851851851851],[0.6771874999999999,-0.5859259259259259],[0.6744791666666666,-0.5716666666666667],[0.6486458333333334,-0.5483333333333333],[0.6509375000000001,-0.5698148148148148],[0.5969791666666666,-0.5727777777777778],[0.5620833333333333,-0.5681481481481482],[0.5208333333333334,-0.5424074074074073],[0.5004166666666667,-0.5201851851851852],[0.4648958333333333,-0.5124074074074074],[0.4404166666666666,-0.5066666666666667],[0.4510416666666667,-0.4696296296296297],[0.46458333333333335,-0.4690740740740741],[0.4957291666666668,-0.4601851851851852],[0.49249999999999994,-0.44518518518518513],[0.5494791666666666,-0.45203703703703707],[0.5890625,-0.46425925925925926],[0.6349999999999999,-0.4612962962962963],[0.6570833333333332,-0.4566666666666667],[0.6886458333333333,-0.43703703703703706],[0.7095833333333333,-0.41222222222222227],[0.7167708333333332,-0.4148148148148148],[0.7167708333333332,-0.4148148148148148],[0.6940624999999999,-0.40851851851851856],[0.6940624999999999,-0.40851851851851856],[0.6751041666666666,-0.38555555555555554],[0.6751041666666666,-0.38555555555555554],[0.6284375,-0.3772222222222222],[0.6284375,-0.3772222222222222],[0.5853125000000001,-0.3537037037037037],[0.5853125000000001,-0.3537037037037037],[0.55,-0.3381481481481482],[0.5073958333333333,-0.3479629629629629],[0.5073958333333333,-0.3479629629629629],[0.48624999999999996,-0.35648148148148145],[0.44114583333333335,-0.3744444444444444],[0.44114583333333335,-0.3744444444444444],[0.41260416666666655,-0.4051851851851852],[0.36520833333333325,-0.43425925925925923],[0.3646874999999999,-0.4148148148148148],[0.3559375000000001,-0.4374074074074074],[0.34520833333333345,-0.3642592592592592],[0.32697916666666677,-0.302962962962963],[0.3145833333333333,-0.1992592592592593],[0.29968750000000005,-0.09425925925925922],[0.2872916666666666,-0.0020370370370370794],[0.3068749999999999,0.09685185185185177],[0.31260416666666657,0.14870370370370362],[0.3233333333333334,0.1925925925925926],[0.32479166666666665,0.2170370370370371],[0.3420833333333334,0.2324074074074074],[0.3577083333333334,0.19944444444444454],[0.3797916666666666,0.15777777777777785]]","[[0.07177083333333342,-0.46648148148148144,0.000299999713902821],[0.07177083333333342,-0.46648148148148144,0.054699999809265876],[0.12510416666666657,-0.47833333333333333,0.07250000000000512],[0.12510416666666657,-0.47833333333333333,0.08969999980926957],[0.17416666666666672,-0.45,0.10509999990463825],[0.17416666666666672,-0.45,0.1126999998092657],[0.17052083333333337,-0.4375925925925926,0.12490000009537283],[0.17052083333333337,-0.4375925925925926,0.14179999971390345],[0.16104166666666658,-0.43629629629629635,0.15829999971389697],[0.15239583333333329,-0.42462962962962963,0.1814000000953726],[0.15239583333333329,-0.42462962962962963,0.19169999980926633],[0.1396874999999999,-0.42166666666666663,0.2085000000000008],[0.1396874999999999,-0.42166666666666663,0.22490000009536715],[0.12697916666666675,-0.41870370370370374,0.24179999971389776],[0.12697916666666675,-0.41870370370370374,0.2581999998092641],[0.08447916666666658,-0.36370370370370364,0.2750000000000057],[0.08447916666666658,-0.36370370370370364,0.2915999999046335],[0.10677083333333333,-0.27518518518518525,0.30840000009536794],[0.10677083333333333,-0.27518518518518525,0.32490000009536857],[0.07458333333333324,-0.17555555555555558,0.3416999998092649],[0.07458333333333324,-0.17555555555555558,0.3584000000953722],[0.05135416666666662,-0.09203703703703701,0.375],[0.029270833333333357,-0.0455555555555556,0.3916999998092692],[0.028750000000000022,0.03740740740740749,0.40840000009536936],[0.014895833333333285,0.147037037037037,0.42500000000000426],[-0.01604166666666664,0.23185185185185195,0.44259999990463683],[-0.03822916666666672,0.3055555555555556,0.46040000009536897],[-0.06333333333333328,0.3653703703703703,0.4750000000000014],[-0.06124999999999995,0.3731481481481482,0.4915999999046363],[-0.14010416666666667,0.29222222222222216,0.5082999997138984],[-0.14010416666666667,0.29222222222222216,0.5249000000953714],[-0.18302083333333338,0.1962962962962963,0.541799999713902],[-0.18302083333333338,0.1962962962962963,0.5582999997139027],[-0.20739583333333336,0.1675925925925926,0.5751999998092643],[-0.20739583333333336,0.1675925925925926,0.5916999998092649],[-0.2313541666666667,0.14222222222222214,0.6084000000953722],[-0.2601041666666667,0.053703703703703705,0.6285000000000025],[-0.2601041666666667,0.053703703703703705,0.6417999997139034],[-0.2786458333333333,-0.03148148148148148,0.658299999713897],[-0.290625,-0.08796296296296297,0.6750000000000043],[-0.28500000000000003,-0.12999999999999998,0.6915999999046321],[-0.2764583333333333,-0.1581481481481481,0.7085000000000008],[-0.2638541666666666,-0.21814814814814817,0.7286999998092654],[-0.22427083333333328,-0.1259259259259259,0.7449000000953703],[-0.1857291666666666,-0.0477777777777777,0.7601999998092666],[-0.15562499999999999,-0.009259259259259259,0.7775999999046377],[-0.15562499999999999,-0.009259259259259259,0.7919000000953673],[-0.13062499999999996,0.02814814814814823,0.8085999999046365],[-0.1172916666666667,0.08518518518518518,0.8276999998092691],[-0.06145833333333333,0.17555555555555546,0.8430000000000035],[0.016770833333333356,0.26740740740740737,0.8632999997139024],[0.11854166666666661,0.4329629629629629,0.8792999997139006],[0.13624999999999995,0.4662962962962962,0.8946999998092693],[0.1492708333333333,0.5157407407407407,0.9085999999046379],[0.15145833333333342,0.4681481481481481,0.9251999998092657],[0.14677083333333343,0.4801851851851851,0.9460000000000051],[0.14677083333333343,0.4801851851851851,0.9585000000000008],[0.14916666666666673,0.402962962962963,0.97519999980927],[0.17604166666666668,0.2916666666666667,0.9916999998092706],[0.14552083333333338,0.24666666666666676,1.0112999997138985],[0.10572916666666667,0.13518518518518519,1.028099999904633],[0.030729166666666665,0.03537037037037041,1.0420999999046359],[-0.07218749999999995,-0.1527777777777778,1.0615999999046366],[-0.06270833333333338,-0.20092592592592592,1.0752999997138986],[-0.08833333333333329,-0.24537037037037038,1.091699999809265],[-0.09822916666666662,-0.29888888888888887,1.1090000000000018],[-0.09416666666666665,-0.40481481481481485,1.125],[-0.10479166666666669,-0.41944444444444445,1.1462999997139036],[-0.10479166666666669,-0.41944444444444445,1.1584000000953694],[-0.13416666666666663,-0.3479629629629629,1.1750000000000043],[-0.09947916666666666,-0.3303703703703703,1.191599999904632],[-0.12510416666666668,-0.2855555555555555,1.2082999997139012],[-0.12947916666666662,-0.25277777777777777,1.2249000000953671],[-0.14052083333333332,-0.23074074074074077,1.2416999998092706],[-0.1798958333333334,-0.21648148148148144,1.2581999998092641],[-0.18187500000000004,-0.19314814814814818,1.2750999999046329],[-0.19958333333333336,-0.16074074074074077,1.291799999713902],[-0.21489583333333329,-0.10907407407407403,1.308400000095368],[-0.23020833333333332,-0.05740740740740741,1.3249000000953686],[-0.2508333333333333,-0.07407407407407407,1.3437999997139016],[-0.27145833333333336,-0.09074074074074075,1.3582999997138998],[-0.2665625,-0.07962962962962963,1.375],[-0.28447916666666667,-0.09259259259259259,1.3915000000000006],[-0.27468750000000003,-0.10240740740740743,1.4135999999046334],[-0.24229166666666668,-0.057777777777777754,1.4284000000953725],[-0.24156249999999999,-0.03037037037037033,1.4441999998092712],[-0.21031249999999999,-0.02759259259259255,1.4591999998092646],[-0.17062499999999994,-0.03814814814814819,1.4774999999999991],[-0.11531250000000005,-0.03462962962962971,1.4919000000953702],[-0.05572916666666667,-0.01703703703703712,1.5089000000953732],[0.014687500000000023,-0.04055555555555551,1.5280000000000058],[0.042499999999999954,-0.06870370370370374,1.5474000000953723],[0.042499999999999954,-0.06870370370370374,1.5585999999046365],[0.15593750000000003,-0.051111111111111156,1.5796999998092645],[0.15593750000000003,-0.051111111111111156,1.5922999997139016],[0.2,-0.007037037037036953,1.608699999809268],[0.20583333333333323,-0.044999999999999915,1.6321999998092664],[0.20583333333333323,-0.044999999999999915,1.6419000000953687],[0.2390625,-0.08574074074074076,1.6585000000000036],[0.24947916666666667,-0.08259259259259263,1.6750999999046385],[0.2671875,-0.08611111111111111,1.6954000000953684],[0.2516666666666666,-0.06759259259259259,1.7102999997139037],[0.2211458333333333,-0.059999999999999956,1.72519999980927],[0.21166666666666673,-0.02555555555555547,1.745900000095368],[0.21052083333333324,-0.0257407407407407,1.7626999998092643],[0.21906249999999997,0.028703703703703703,1.777000000000001],[0.31218750000000006,0.07185185185185176,1.7919000000953673],[0.4265625,0.22240740740740744,1.8120999999046319],[0.4195833333333333,0.230925925925926,1.8279000000953687],[0.4048958333333334,0.22018518518518515,1.8436999998092674],[0.38083333333333325,0.26518518518518525,1.8655999999046315],[0.38083333333333325,0.26518518518518525,1.8752999997139028],[0.4048958333333334,0.2903703703703703,1.892000000000003],[0.4222916666666668,0.294074074074074,1.9092999997139017],[0.40572916666666664,0.3427777777777778,1.928599999904634],[0.4479166666666667,0.3551851851851851,1.9449000000953731],[0.39041666666666663,0.27240740740740743,1.9616999998092695],[0.29874999999999996,0.18259259259259264,1.9789999999999992],[0.215625,0.02092592592592584,1.9945999999046364],[0.23468749999999997,-0.004074074074074159,2.010000000000005],[0.2669791666666666,-0.04222222222222214,2.025099999904633],[0.32614583333333325,-0.147037037037037,2.0466999998092703],[0.32614583333333325,-0.147037037037037,2.058400000095368],[0.3038541666666667,-0.22629629629629627,2.0752999997138986],[0.3117708333333333,-0.3255555555555556,2.0975000000000037],[0.3117708333333333,-0.3255555555555556,2.1085999999046336],[0.33541666666666664,-0.4414814814814814,2.1250999999046343],[0.3585416666666667,-0.4685185185185185,2.1447999997139036],[0.4088541666666667,-0.4766666666666666,2.16419999980927],[0.4088541666666667,-0.4766666666666666,2.1750999999046385],[0.43416666666666665,-0.5074074074074074,2.191599999904632],[0.4106250000000001,-0.5311111111111111,2.210400000095369],[0.43624999999999997,-0.5214814814814815,2.228099999904636],[0.4370833333333332,-0.4957407407407407,2.243000000000002],[0.4247916666666666,-0.459074074074074,2.2622999997139033],[0.47625000000000006,-0.48407407407407405,2.2781999998092672],[0.5014583333333335,-0.402962962962963,2.29540000009537],[0.5322916666666667,-0.3344444444444445,2.311],[0.4953125,-0.3292592592592593,2.3251999998092643],[0.4953125,-0.3292592592592593,2.341699999809265],[0.4591666666666666,-0.3237037037037037,2.358400000095372],[0.4491666666666667,-0.30037037037037034,2.375],[0.48333333333333334,-0.2905555555555555,2.391599999904635],[0.48072916666666665,-0.272037037037037,2.408699999809265],[0.5028125,-0.27981481481481485,2.4257999997139024],[0.45114583333333325,-0.28962962962962957,2.4439000000953683],[0.4196875000000001,-0.2640740740740741,2.4620999999046376],[0.4196875000000001,-0.2640740740740741,2.4750000000000014],[0.4205208333333334,-0.26648148148148143,2.4915999999046363],[0.39427083333333335,-0.29370370370370374,2.508900000095373],[0.39427083333333335,-0.29370370370370374,2.5249000000953714],[0.40822916666666675,-0.2851851851851852,2.5416999998092678],[0.40822916666666675,-0.2851851851851852,2.5581999998092684],[0.4222916666666668,-0.2711111111111111,2.5811999998092645],[0.4222916666666668,-0.2711111111111111,2.591699999809265],[0.4203125,-0.27629629629629626,2.6082999997139],[0.4203125,-0.27629629629629626,2.625],[0.3914583333333333,-0.2707407407407407,2.641699999809269],[0.3914583333333333,-0.2707407407407407,2.666799999713902],[0.38604166666666656,-0.28722222222222227,2.6750999999046385],[0.38604166666666656,-0.28722222222222227,2.691900000095373],[0.3710416666666667,-0.29018518518518516,2.7172999997139016],[0.3710416666666667,-0.29018518518518516,2.72519999980927],[0.3976041666666667,-0.277962962962963,2.74190000009537],[0.40114583333333326,-0.2735185185185185,2.763299999713901],[0.40343749999999995,-0.26962962962962966,2.7785999999046354],[0.41354166666666664,-0.24240740740740738,2.7949000000953674],[0.38864583333333325,-0.23129629629629625,2.810199999809271],[0.3628124999999999,-0.22611111111111115,2.829199999809269],[0.4076041666666666,-0.2,2.8549000000953697],[0.4076041666666666,-0.2,2.8622999997138976],[0.45583333333333326,-0.17629629629629628,2.8751999998092685],[0.48718750000000005,-0.1455555555555556,2.8946999998092693],[0.48947916666666674,-0.10685185185185184,2.910799999713902],[0.48937499999999995,-0.04611111111111107,2.928199999809266],[0.48489583333333336,0.006296296296296254,2.948900000095371],[0.48489583333333336,0.006296296296296254,2.958599999904635],[0.47374999999999995,0.011481481481481566,2.97519999980927],[0.45364583333333336,0.02296296296296292,2.9924999999999997],[0.49729166666666674,0.039629629629629584,3.011500000000005],[0.5204166666666665,0.07759259259259255,3.027400000095369],[0.4514583333333334,0.10333333333333325,3.0451999998092703],[0.42916666666666664,0.11074074074074065,3.062400000095373],[0.39031250000000006,0.1259259259259259,3.0774000000953734],[0.36989583333333326,0.13185185185185194,3.094699999809265],[0.3740624999999999,0.11407407407407412,3.1100999999046337],[0.38562500000000005,0.12240740740740745,3.124900000095373],[0.3460416666666667,0.14092592592592595,3.1457999997139012],[0.3551041666666668,0.17018518518518513,3.161699999809265],[0.3304166666666667,0.19944444444444454,3.177500000000002],[0.32625000000000004,0.2074074074074074,3.195699999809264],[0.3584374999999999,0.23925925925925934,3.2114000000953666],[0.3368750000000001,0.2711111111111111,3.225500000000004],[0.3489583333333333,0.3077777777777779,3.2416999998092706],[0.3681250000000001,0.35555555555555557,3.262599999904637],[0.38343749999999993,0.36944444444444446,3.2786999998092696],[0.38343749999999993,0.36944444444444446,3.291799999713902],[0.3857291666666666,0.35777777777777786,3.308400000095368],[0.43114583333333345,0.3816666666666667,3.328699999809267],[0.4422916666666666,0.38629629629629636,3.3451999998092674],[0.45343749999999994,0.39092592592592595,3.3614999999999995],[0.45822916666666674,0.39759259259259266,3.376799999713903],[0.46906249999999994,0.3888888888888889,3.3921999998092645],[0.4648958333333333,0.36814814814814806,3.408299999713897],[0.4358333333333334,0.32259259259259265,3.4251999998092657],[0.44072916666666656,0.2794444444444444,3.443000000000005],[0.4013541666666666,0.30351851851851847,3.461599999904635],[0.3619791666666667,0.32759259259259255,3.475599999904638],[0.36437499999999995,0.3140740740740741,3.4924000000953725],[0.3632291666666667,0.29518518518518516,3.511500000000005],[0.3556250000000001,0.2633333333333334,3.528400000095367],[0.35437500000000005,0.2294444444444444,3.544699999809268],[0.31749999999999995,0.21333333333333343,3.564],[0.31749999999999995,0.21333333333333343,3.575400000095371],[0.33447916666666655,0.20685185185185193,3.592000000000006],[0.33447916666666655,0.20685185185185193,3.608699999809268],[0.35437500000000005,0.23740740740740748,3.630099999904637],[0.35437500000000005,0.23740740740740748,3.6422999997138987],[0.3433333333333332,0.2175925925925926,3.660799999713902],[0.3433333333333332,0.2175925925925926,3.6750999999046385],[0.36041666666666666,0.19000000000000003,3.6950000000000003],[0.3919791666666666,0.20796296296296288,3.7102999997139037],[0.3712500000000001,0.15703703703703695,3.7287999997138996],[0.35604166666666665,0.10999999999999996,3.7454000000953727],[0.35604166666666665,0.10999999999999996,3.7582999997138984],[0.3472916666666668,0.07592592592592592,3.775099999904633],[0.3403125000000001,0.02555555555555547,3.799500000000002],[0.3403125000000001,0.02555555555555547,3.808400000095368],[0.36052083333333323,-0.0022222222222223064,3.825000000000003],[0.38916666666666655,-0.059814814814814835,3.841699999809265],[0.40989583333333335,-0.14611111111111108,3.86090000009537],[0.428125,-0.21185185185185182,3.875],[0.4727083333333333,-0.2722222222222222,3.8915000000000006],[0.5060416666666666,-0.3792592592592593,3.9084000000953694],[0.533125,-0.42777777777777776,3.92490000009537],[0.5623958333333334,-0.4468518518518519,3.941599999904632],[0.5870833333333333,-0.4668518518518519,3.958500000000001],[0.6099999999999999,-0.4705555555555556,3.9750999999046357],[0.6349999999999999,-0.522037037037037,3.9915999999046363],[0.6365624999999999,-0.5477777777777778,4.008599999904632],[0.6376041666666665,-0.5735185185185185,4.025799999713897],[0.6504166666666668,-0.5505555555555556,4.041900000095367],[0.6568749999999999,-0.5585185185185185,4.0611999998092685],[0.6478125000000001,-0.5622222222222223,4.075099999904637],[0.6653125000000001,-0.5616666666666666,4.0915000000000035],[0.6653125000000001,-0.5616666666666666,4.108400000095372],[0.6679166666666667,-0.5705555555555556,4.124900000095373],[0.6727083333333332,-0.5762962962962963,4.141699999809269],[0.6770833333333334,-0.5851851851851851,4.161299999713897],[0.6771874999999999,-0.5859259259259259,4.1752999997139],[0.6744791666666666,-0.5716666666666667,4.191500000000005],[0.6486458333333334,-0.5483333333333333,4.208299999713901],[0.6509375000000001,-0.5698148148148148,4.228599999904638],[0.5969791666666666,-0.5727777777777778,4.245199999809266],[0.5620833333333333,-0.5681481481481482,4.261500000000005],[0.5208333333333334,-0.5424074074074073,4.275099999904633],[0.5004166666666667,-0.5201851851851852,4.291499999999999],[0.4648958333333333,-0.5124074074074074,4.308400000095368],[0.4404166666666666,-0.5066666666666667,4.324900000095369],[0.4510416666666667,-0.4696296296296297,4.341599999904638],[0.46458333333333335,-0.4690740740740741,4.360099999904634],[0.4957291666666668,-0.4601851851851852,4.374900000095373],[0.49249999999999994,-0.44518518518518513,4.391500000000001],[0.5494791666666666,-0.45203703703703707,4.408299999713897],[0.5890625,-0.46425925925925926,4.42490000009537],[0.6349999999999999,-0.4612962962962963,4.441699999809266],[0.6570833333333332,-0.4566666666666667,4.460099999904635],[0.6886458333333333,-0.43703703703703706,4.47690000009537],[0.7095833333333333,-0.41222222222222227,4.491500000000002],[0.7167708333333332,-0.4148148148148148,4.508299999713898],[0.7167708333333332,-0.4148148148148148,4.525000000000006],[0.6940624999999999,-0.40851851851851856,4.541699999809268],[0.6940624999999999,-0.40851851851851856,4.558199999809268],[0.6751041666666666,-0.38555555555555554,4.575099999904637],[0.6751041666666666,-0.38555555555555554,4.593599999904633],[0.6284375,-0.3772222222222222,4.608400000095372],[0.6284375,-0.3772222222222222,4.624900000095373],[0.5853125000000001,-0.3537037037037037,4.641699999809269],[0.5853125000000001,-0.3537037037037037,4.65819999980927],[0.55,-0.3381481481481482,4.67490000009537],[0.5073958333333333,-0.3479629629629629,4.698],[0.5073958333333333,-0.3479629629629629,4.708599999904635],[0.48624999999999996,-0.35648148148148145,4.725999999999999],[0.44114583333333335,-0.3744444444444444,4.741500000000002],[0.44114583333333335,-0.3744444444444444,4.760599999904635],[0.41260416666666655,-0.4051851851851852,4.775099999904633],[0.36520833333333325,-0.43425925925925923,4.791699999809268],[0.3646874999999999,-0.4148148148148148,4.8111999998092685],[0.3559375000000001,-0.4374074074074074,4.825099999904637],[0.34520833333333345,-0.3642592592592592,4.842000000000006],[0.32697916666666677,-0.302962962962963,4.862500000000004],[0.3145833333333333,-0.1992592592592593,4.878099999904634],[0.29968750000000005,-0.09425925925925922,4.894799999713904],[0.2872916666666666,-0.0020370370370370794,4.910499999999999],[0.3068749999999999,0.09685185185185177,4.9287999997139025],[0.31260416666666657,0.14870370370370362,4.945699999809264],[0.3233333333333334,0.1925925925925926,4.961099999904633],[0.32479166666666665,0.2170370370370371,4.975000000000001],[0.3420833333333334,0.2324074074074074,4.994400000095368],[0.3577083333333334,0.19944444444444454,5.010099999904632],[0.3797916666666666,0.15777777777777785,5.027099999904635]]","[0.000299999713902821,0.054699999809265876,0.07250000000000512,0.08969999980926957,0.10509999990463825,0.1126999998092657,0.12490000009537283,0.14179999971390345,0.15829999971389697,0.1814000000953726,0.19169999980926633,0.2085000000000008,0.22490000009536715,0.24179999971389776,0.2581999998092641,0.2750000000000057,0.2915999999046335,0.30840000009536794,0.32490000009536857,0.3416999998092649,0.3584000000953722,0.375,0.3916999998092692,0.40840000009536936,0.42500000000000426,0.44259999990463683,0.46040000009536897,0.4750000000000014,0.4915999999046363,0.5082999997138984,0.5249000000953714,0.541799999713902,0.5582999997139027,0.5751999998092643,0.5916999998092649,0.6084000000953722,0.6285000000000025,0.6417999997139034,0.658299999713897,0.6750000000000043,0.6915999999046321,0.7085000000000008,0.7286999998092654,0.7449000000953703,0.7601999998092666,0.7775999999046377,0.7919000000953673,0.8085999999046365,0.8276999998092691,0.8430000000000035,0.8632999997139024,0.8792999997139006,0.8946999998092693,0.9085999999046379,0.9251999998092657,0.9460000000000051,0.9585000000000008,0.97519999980927,0.9916999998092706,1.0112999997138985,1.028099999904633,1.0420999999046359,1.0615999999046366,1.0752999997138986,1.091699999809265,1.1090000000000018,1.125,1.1462999997139036,1.1584000000953694,1.1750000000000043,1.191599999904632,1.2082999997139012,1.2249000000953671,1.2416999998092706,1.2581999998092641,1.2750999999046329,1.291799999713902,1.308400000095368,1.3249000000953686,1.3437999997139016,1.3582999997138998,1.375,1.3915000000000006,1.4135999999046334,1.4284000000953725,1.4441999998092712,1.4591999998092646,1.4774999999999991,1.4919000000953702,1.5089000000953732,1.5280000000000058,1.5474000000953723,1.5585999999046365,1.5796999998092645,1.5922999997139016,1.608699999809268,1.6321999998092664,1.6419000000953687,1.6585000000000036,1.6750999999046385,1.6954000000953684,1.7102999997139037,1.72519999980927,1.745900000095368,1.7626999998092643,1.777000000000001,1.7919000000953673,1.8120999999046319,1.8279000000953687,1.8436999998092674,1.8655999999046315,1.8752999997139028,1.892000000000003,1.9092999997139017,1.928599999904634,1.9449000000953731,1.9616999998092695,1.9789999999999992,1.9945999999046364,2.010000000000005,2.025099999904633,2.0466999998092703,2.058400000095368,2.0752999997138986,2.0975000000000037,2.1085999999046336,2.1250999999046343,2.1447999997139036,2.16419999980927,2.1750999999046385,2.191599999904632,2.210400000095369,2.228099999904636,2.243000000000002,2.2622999997139033,2.2781999998092672,2.29540000009537,2.311,2.3251999998092643,2.341699999809265,2.358400000095372,2.375,2.391599999904635,2.408699999809265,2.4257999997139024,2.4439000000953683,2.4620999999046376,2.4750000000000014,2.4915999999046363,2.508900000095373,2.5249000000953714,2.5416999998092678,2.5581999998092684,2.5811999998092645,2.591699999809265,2.6082999997139,2.625,2.641699999809269,2.666799999713902,2.6750999999046385,2.691900000095373,2.7172999997139016,2.72519999980927,2.74190000009537,2.763299999713901,2.7785999999046354,2.7949000000953674,2.810199999809271,2.829199999809269,2.8549000000953697,2.8622999997138976,2.8751999998092685,2.8946999998092693,2.910799999713902,2.928199999809266,2.948900000095371,2.958599999904635,2.97519999980927,2.9924999999999997,3.011500000000005,3.027400000095369,3.0451999998092703,3.062400000095373,3.0774000000953734,3.094699999809265,3.1100999999046337,3.124900000095373,3.1457999997139012,3.161699999809265,3.177500000000002,3.195699999809264,3.2114000000953666,3.225500000000004,3.2416999998092706,3.262599999904637,3.2786999998092696,3.291799999713902,3.308400000095368,3.328699999809267,3.3451999998092674,3.3614999999999995,3.376799999713903,3.3921999998092645,3.408299999713897,3.4251999998092657,3.443000000000005,3.461599999904635,3.475599999904638,3.4924000000953725,3.511500000000005,3.528400000095367,3.544699999809268,3.564,3.575400000095371,3.592000000000006,3.608699999809268,3.630099999904637,3.6422999997138987,3.660799999713902,3.6750999999046385,3.6950000000000003,3.7102999997139037,3.7287999997138996,3.7454000000953727,3.7582999997138984,3.775099999904633,3.799500000000002,3.808400000095368,3.825000000000003,3.841699999809265,3.86090000009537,3.875,3.8915000000000006,3.9084000000953694,3.92490000009537,3.941599999904632,3.958500000000001,3.9750999999046357,3.9915999999046363,4.008599999904632,4.025799999713897,4.041900000095367,4.0611999998092685,4.075099999904637,4.0915000000000035,4.108400000095372,4.124900000095373,4.141699999809269,4.161299999713897,4.1752999997139,4.191500000000005,4.208299999713901,4.228599999904638,4.245199999809266,4.261500000000005,4.275099999904633,4.291499999999999,4.308400000095368,4.324900000095369,4.341599999904638,4.360099999904634,4.374900000095373,4.391500000000001,4.408299999713897,4.42490000009537,4.441699999809266,4.460099999904635,4.47690000009537,4.491500000000002,4.508299999713898,4.525000000000006,4.541699999809268,4.558199999809268,4.575099999904637,4.593599999904633,4.608400000095372,4.624900000095373,4.641699999809269,4.65819999980927,4.67490000009537,4.698,4.708599999904635,4.725999999999999,4.741500000000002,4.760599999904635,4.775099999904633,4.791699999809268,4.8111999998092685,4.825099999904637,4.842000000000006,4.862500000000004,4.878099999904634,4.894799999713904,4.910499999999999,4.9287999997139025,4.945699999809264,4.961099999904633,4.975000000000001,4.994400000095368,5.010099999904632,5.027099999904635]","[1731896895905,1731896895950,1731896895967,1731896895984,1731896896000,1731896896008,1731896896020,1731896896037,1731896896053,1731896896076,1731896896086,1731896896103,1731896896120,1731896896137,1731896896153,1731896896170,1731896896186,1731896896203,1731896896220,1731896896236,1731896896253,1731896896270,1731896896286,1731896896303,1731896896320,1731896896337,1731896896355,1731896896370,1731896896386,1731896896403,1731896896420,1731896896437,1731896896453,1731896896470,1731896896486,1731896896503,1731896896523,1731896896537,1731896896553,1731896896570,1731896896586,1731896896603,1731896896624,1731896896640,1731896896655,1731896896672,1731896896687,1731896896703,1731896896723,1731896896738,1731896896758,1731896896774,1731896896790,1731896896803,1731896896820,1731896896841,1731896896853,1731896896870,1731896896887,1731896896906,1731896896923,1731896896937,1731896896956,1731896896970,1731896896987,1731896897004,1731896897020,1731896897041,1731896897053,1731896897070,1731896897086,1731896897103,1731896897120,1731896897137,1731896897153,1731896897170,1731896897187,1731896897203,1731896897220,1731896897239,1731896897253,1731896897270,1731896897286,1731896897308,1731896897323,1731896897339,1731896897354,1731896897372,1731896897387,1731896897404,1731896897423,1731896897442,1731896897453,1731896897475,1731896897487,1731896897504,1731896897527,1731896897537,1731896897553,1731896897570,1731896897590,1731896897605,1731896897620,1731896897641,1731896897658,1731896897672,1731896897687,1731896897707,1731896897723,1731896897739,1731896897760,1731896897770,1731896897787,1731896897804,1731896897823,1731896897840,1731896897857,1731896897874,1731896897889,1731896897905,1731896897920,1731896897942,1731896897953,1731896897970,1731896897992,1731896898003,1731896898020,1731896898040,1731896898059,1731896898070,1731896898086,1731896898105,1731896898123,1731896898138,1731896898157,1731896898173,1731896898190,1731896898206,1731896898220,1731896898237,1731896898253,1731896898270,1731896898286,1731896898303,1731896898321,1731896898339,1731896898357,1731896898370,1731896898386,1731896898404,1731896898420,1731896898437,1731896898453,1731896898476,1731896898486,1731896898503,1731896898520,1731896898537,1731896898562,1731896898570,1731896898587,1731896898612,1731896898620,1731896898637,1731896898658,1731896898673,1731896898690,1731896898705,1731896898724,1731896898750,1731896898757,1731896898770,1731896898790,1731896898806,1731896898823,1731896898844,1731896898853,1731896898870,1731896898887,1731896898906,1731896898922,1731896898940,1731896898957,1731896898972,1731896898989,1731896899005,1731896899020,1731896899041,1731896899057,1731896899072,1731896899091,1731896899106,1731896899120,1731896899137,1731896899157,1731896899174,1731896899187,1731896899203,1731896899224,1731896899240,1731896899256,1731896899272,1731896899287,1731896899303,1731896899320,1731896899338,1731896899356,1731896899370,1731896899387,1731896899406,1731896899423,1731896899440,1731896899459,1731896899470,1731896899487,1731896899504,1731896899525,1731896899537,1731896899556,1731896899570,1731896899590,1731896899605,1731896899624,1731896899640,1731896899653,1731896899670,1731896899694,1731896899703,1731896899720,1731896899737,1731896899756,1731896899770,1731896899786,1731896899803,1731896899820,1731896899836,1731896899853,1731896899870,1731896899886,1731896899903,1731896899921,1731896899937,1731896899956,1731896899970,1731896899986,1731896900003,1731896900020,1731896900037,1731896900056,1731896900070,1731896900086,1731896900103,1731896900123,1731896900140,1731896900156,1731896900170,1731896900186,1731896900203,1731896900220,1731896900236,1731896900255,1731896900270,1731896900286,1731896900303,1731896900320,1731896900337,1731896900355,1731896900372,1731896900386,1731896900403,1731896900420,1731896900437,1731896900453,1731896900470,1731896900488,1731896900503,1731896900520,1731896900537,1731896900553,1731896900570,1731896900593,1731896900603,1731896900621,1731896900636,1731896900655,1731896900670,1731896900686,1731896900706,1731896900720,1731896900737,1731896900757,1731896900773,1731896900790,1731896900805,1731896900824,1731896900841,1731896900856,1731896900870,1731896900889,1731896900905,1731896900922]","[[1028.9,288.1],[1028.9,288.1],[1080.1,281.7],[1080.1,281.7],[1127.2,297],[1127.2,297],[1123.7,303.7],[1123.7,303.7],[1114.6,304.4],[1106.3,310.7],[1106.3,310.7],[1094.1,312.3],[1094.1,312.3],[1081.9,313.9],[1081.9,313.9],[1041.1,343.6],[1041.1,343.6],[1062.5,391.4],[1062.5,391.4],[1031.6,445.2],[1031.6,445.2],[1009.3,490.3],[988.1,515.4],[987.6,560.2],[974.3,619.4],[944.6,665.2],[923.3,705],[899.2,737.3],[901.2,741.5],[825.5,697.8],[825.5,697.8],[784.3,646],[784.3,646],[760.9,630.5],[760.9,630.5],[737.9,616.8],[710.3,569],[710.3,569],[692.5,523],[681,492.5],[686.4,469.8],[694.6,454.6],[706.7,422.2],[744.7,472],[781.7,514.2],[810.6,535],[810.6,535],[834.6,555.2],[847.4,586],[901,634.8],[976.1,684.4],[1073.8,773.8],[1090.8,791.8],[1103.3,818.5],[1105.4,792.8],[1100.9,799.3],[1100.9,799.3],[1103.2,757.6],[1129,697.5],[1099.7,673.2],[1061.5,613],[989.5,559.1],[890.7,457.5],[899.8,431.5],[875.2,407.5],[865.7,378.6],[869.6,321.4],[859.4,313.5],[859.4,313.5],[831.2,352.1],[864.5,361.6],[839.9,385.8],[835.7,403.5],[825.1,415.4],[787.3,423.1],[785.4,435.7],[768.4,453.2],[753.7,481.1],[739,509],[719.2,500],[699.4,491],[704.1,497],[686.9,490],[696.3,484.7],[727.4,508.8],[728.1,523.6],[758.1,525.1],[796.2,519.4],[849.3,521.3],[906.5,530.8],[974.1,518.1],[1000.8,502.9],[1000.8,502.9],[1109.7,512.4],[1109.7,512.4],[1152,536.2],[1157.6,515.7],[1157.6,515.7],[1189.5,493.7],[1199.5,495.4],[1216.5,493.5],[1201.6,503.5],[1172.3,507.6],[1163.2,526.2],[1162.1,526.1],[1170.3,555.5],[1259.7,578.8],[1369.5,660.1],[1362.8,664.7],[1348.7,658.9],[1325.6,683.2],[1325.6,683.2],[1348.7,696.8],[1365.4,698.8],[1349.5,725.1],[1390,731.8],[1334.8,687.1],[1246.8,638.6],[1167,551.3],[1185.3,537.8],[1216.3,517.2],[1273.1,460.6],[1273.1,460.6],[1251.7,417.8],[1259.3,364.2],[1259.3,364.2],[1282,301.6],[1304.2,287],[1352.5,282.6],[1352.5,282.6],[1376.8,266],[1354.2,253.2],[1378.8,258.4],[1379.6,272.3],[1367.8,292.1],[1417.2,278.6],[1441.4,322.4],[1471,359.4],[1435.5,362.2],[1435.5,362.2],[1400.8,365.2],[1391.2,377.8],[1424,383.1],[1421.5,393.1],[1442.7,388.9],[1393.1,383.6],[1362.9,397.4],[1362.9,397.4],[1363.7,396.1],[1338.5,381.4],[1338.5,381.4],[1351.9,386],[1351.9,386],[1365.4,393.6],[1365.4,393.6],[1363.5,390.8],[1363.5,390.8],[1335.8,393.8],[1335.8,393.8],[1330.6,384.9],[1330.6,384.9],[1316.2,383.3],[1316.2,383.3],[1341.7,389.9],[1345.1,392.3],[1347.3,394.4],[1357,409.1],[1333.1,415.1],[1308.3,417.9],[1351.3,432],[1351.3,432],[1397.6,444.8],[1427.7,461.4],[1429.9,482.3],[1429.8,515.1],[1425.5,543.4],[1425.5,543.4],[1414.8,546.2],[1395.5,552.4],[1437.4,561.4],[1459.6,581.9],[1393.4,595.8],[1372,599.8],[1334.7,608],[1315.1,611.2],[1319.1,601.6],[1330.2,606.1],[1292.2,616.1],[1300.9,631.9],[1277.2,647.7],[1273.2,652],[1304.1,669.2],[1283.4,686.4],[1295,706.2],[1313.4,732],[1328.1,739.5],[1328.1,739.5],[1330.3,733.2],[1373.9,746.1],[1384.6,748.6],[1395.3,751.1],[1399.9,754.7],[1410.3,750],[1406.3,738.8],[1378.4,714.2],[1383.1,690.9],[1345.3,703.9],[1307.5,716.9],[1309.8,709.6],[1308.7,699.4],[1301.4,682.2],[1300.2,663.9],[1264.8,655.2],[1264.8,655.2],[1281.1,651.7],[1281.1,651.7],[1300.2,668.2],[1300.2,668.2],[1289.6,657.5],[1289.6,657.5],[1306,642.6],[1336.3,652.3],[1316.4,624.8],[1301.8,599.4],[1301.8,599.4],[1293.4,581],[1286.7,553.8],[1286.7,553.8],[1306.1,538.8],[1333.6,507.7],[1353.5,461.1],[1371,425.6],[1413.8,393],[1445.8,335.2],[1471.8,309],[1499.9,298.7],[1523.6,287.9],[1545.6,285.9],[1569.6,258.1],[1571.1,244.2],[1572.1,230.3],[1584.4,242.7],[1590.6,238.4],[1581.9,236.4],[1598.7,236.7],[1598.7,236.7],[1601.2,231.9],[1605.8,228.8],[1610,224],[1610.1,223.6],[1607.5,231.3],[1582.7,243.9],[1584.9,232.3],[1533.1,230.7],[1499.6,233.2],[1460,247.1],[1440.4,259.1],[1406.3,263.3],[1382.8,266.4],[1393,286.4],[1406,286.7],[1435.9,291.5],[1432.8,299.6],[1487.5,295.9],[1525.5,289.3],[1569.6,290.9],[1590.8,293.4],[1621.1,304],[1641.2,317.4],[1648.1,316],[1648.1,316],[1626.3,319.4],[1626.3,319.4],[1608.1,331.8],[1608.1,331.8],[1563.3,336.3],[1563.3,336.3],[1521.9,349],[1521.9,349],[1488,357.4],[1447.1,352.1],[1447.1,352.1],[1426.8,347.5],[1383.5,337.8],[1383.5,337.8],[1356.1,321.2],[1310.6,305.5],[1310.1,316],[1301.7,303.8],[1291.4,343.3],[1273.9,376.4],[1262,432.4],[1247.7,489.1],[1235.8,538.9],[1254.6,592.3],[1260.1,620.3],[1270.4,644],[1271.8,657.2],[1288.4,665.5],[1303.4,647.7],[1324.6,625.2]]","[-0.132282,0.39684600000000003]","[0.132282,0.39684600000000003]","[0.39684600000000003,0.39684600000000003]","[-0.39684600000000003,-0.132282]","[-0.39684600000000003,0.132282]","[-0.39684600000000003,-0.39684600000000003]","[-0.132282,-0.132282]","[0.132282,-0.132282]","[0.39684600000000003,-0.132282]","[-0.132282,0.132282]","[0.132282,0.132282]","[0.39684600000000003,0.132282]","[-0.132282,-0.39684600000000003]","[0.132282,-0.39684600000000003]","[0.39684600000000003,-0.39684600000000003]",0,0,0,0,1,2,Tablet,15,20,8,3,70,4,3,60,4
