inst1_resp.keys,inst1_resp.rt,calibrationMouse.x,calibrationMouse.y,calibrationMouse.leftButton,calibrationMouse.midButton,calibrationMouse.rightButton,calibrationClick.x,calibrationClick.y,calibrationClick.leftButton,calibrationClick.midButton,calibrationClick.rightButton,calibrationClick.clicked_name,trialsc.thisRepN,trialsc.thisTrialN,trialsc.thisN,trialsc.thisIndex,trialsc.ran,calibration_x,calibration_y,participant,session,date,expName,psychopyVersion,OS,frameRate,ScreenRes_pixels,Camera_pixels,mouse_2.x,mouse_2.y,mouse_2.leftButton,mouse_2.midButton,mouse_2.rightButton,mouse_2.time,mouse_2.clicked_name,mouse.x,mouse.y,mouse.leftButton,mouse.midButton,mouse.rightButton,mouse.time,mouse.clicked_name,Choice,Trial,TrialDuration,MOUSE_GAZE,ET_GAZE,ET_GAZE_x_T,time,unixTime,ET_GAZE_NF,Loc_Bus_label,Loc_Metro_label,Loc_RH_label,Loc_Cost_label,Loc_Travel_label,Loc_Comfort_label,Loc_Bus_cost,Loc_Metro_cost,Loc_RH_cost,Loc_Bus_travel,Loc_Metro_travel,Loc_RH_travel,Loc_Bus_comfort,Loc_Metro_comfort,Loc_RH_comfort,trials.thisRepN,trials.thisTrialN,trials.thisN,trials.thisIndex,trials.ran,Block,Device,RH_cost,RH_travel_time,RH_Comfort,metro_cost,metro_travel_time,metro_Comfort,Bus_cost,Bus_travel_time,Bus_Comfort
space,1.4491,0.203125,-0.12037037,1,0,0,0.664583333,0.668518519,1,0,0,calibration_square,0,0,0,19,1,0.67,0.67,39,001,2024-11-20_13h06.24.992,Attention_exp_legacy,2023.1.0,Win32,60.24096386,,,,,,,,,,,,,,,,,,,,,,,,,,,,,,,,,,,,,,,,,,,,,,,,,,,,,,,,
,,,,,,,-0.002083333,-0.316666667,1,0,0,,0,1,1,10,1,0,-0.33,39,001,2024-11-20_13h06.24.992,Attention_exp_legacy,2023.1.0,Win32,60.24096386,,,,,,,,,,,,,,,,,,,,,,,,,,,,,,,,,,,,,,,,,,,,,,,,,,,,,,,,
,,,,,,,0.339583333,0.32037037,1,0,0,calibration_square,0,2,2,17,1,0.33,0.33,39,001,2024-11-20_13h06.24.992,Attention_exp_legacy,2023.1.0,Win32,60.24096386,,,,,,,,,,,,,,,,,,,,,,,,,,,,,,,,,,,,,,,,,,,,,,,,,,,,,,,,
,,,,,,,0.326041667,-0.677777778,1,0,0,calibration_square,0,3,3,14,1,0.33,-0.67,39,001,2024-11-20_13h06.24.992,Attention_exp_legacy,2023.1.0,Win32,60.24096386,,,,,,,,,,,,,,,,,,,,,,,,,,,,,,,,,,,,,,,,,,,,,,,,,,,,,,,,
,,,,,,,0.001041667,0.009259259,1,0,0,calibration_square,0,4,4,11,1,0,0,39,001,2024-11-20_13h06.24.992,Attention_exp_legacy,2023.1.0,Win32,60.24096386,,,,,,,,,,,,,,,,,,,,,,,,,,,,,,,,,,,,,,,,,,,,,,,,,,,,,,,,
,,,,,,,0.667708333,-0.674074074,1,0,0,calibration_square,0,5,5,20,1,0.67,-0.67,39,001,2024-11-20_13h06.24.992,Attention_exp_legacy,2023.1.0,Win32,60.24096386,,,,,,,,,,,,,,,,,,,,,,,,,,,,,,,,,,,,,,,,,,,,,,,,,,,,,,,,
,,,,,,,0.322916667,-0.331481481,1,0,0,calibration_square,0,6,6,15,1,0.33,-0.33,39,001,2024-11-20_13h06.24.992,Attention_exp_legacy,2023.1.0,Win32,60.24096386,,,,,,,,,,,,,,,,,,,,,,,,,,,,,,,,,,,,,,,,,,,,,,,,,,,,,,,,
,,,,,,,0.332291667,-0.005555556,1,0,0,calibration_square,0,7,7,16,1,0.33,0,39,001,2024-11-20_13h06.24.992,Attention_exp_legacy,2023.1.0,Win32,60.24096386,,,,,,,,,,,,,,,,,,,,,,,,,,,,,,,,,,,,,,,,,,,,,,,,,,,,,,,,
,,,,,,,-0.00625,0.32962963,1,0,0,calibration_square,0,8,8,12,1,0,0.33,39,001,2024-11-20_13h06.24.992,Attention_exp_legacy,2023.1.0,Win32,60.24096386,,,,,,,,,,,,,,,,,,,,,,,,,,,,,,,,,,,,,,,,,,,,,,,,,,,,,,,,
,,,,,,,-0.330208333,-0.683333333,1,0,0,,0,9,9,4,1,-0.33,-0.67,39,001,2024-11-20_13h06.24.992,Attention_exp_legacy,2023.1.0,Win32,60.24096386,,,,,,,,,,,,,,,,,,,,,,,,,,,,,,,,,,,,,,,,,,,,,,,,,,,,,,,,
,,,,,,,-0.3375,0.014814815,1,0,0,,0,10,10,6,1,-0.33,0,39,001,2024-11-20_13h06.24.992,Attention_exp_legacy,2023.1.0,Win32,60.24096386,,,,,,,,,,,,,,,,,,,,,,,,,,,,,,,,,,,,,,,,,,,,,,,,,,,,,,,,
,,,,,,,0,0.661111111,1,0,0,calibration_square,0,11,11,13,1,0,0.67,39,001,2024-11-20_13h06.24.992,Attention_exp_legacy,2023.1.0,Win32,60.24096386,,,,,,,,,,,,,,,,,,,,,,,,,,,,,,,,,,,,,,,,,,,,,,,,,,,,,,,,
,,,,,,,-0.007291667,-0.642592593,1,0,0,,0,12,12,9,1,0,-0.67,39,001,2024-11-20_13h06.24.992,Attention_exp_legacy,2023.1.0,Win32,60.24096386,,,,,,,,,,,,,,,,,,,,,,,,,,,,,,,,,,,,,,,,,,,,,,,,,,,,,,,,
,,,,,,,-0.336458333,-0.324074074,1,0,0,calibration_square,0,13,13,5,1,-0.33,-0.33,39,001,2024-11-20_13h06.24.992,Attention_exp_legacy,2023.1.0,Win32,60.24096386,,,,,,,,,,,,,,,,,,,,,,,,,,,,,,,,,,,,,,,,,,,,,,,,,,,,,,,,
,,,,,,,-0.328125,0.324074074,1,0,0,calibration_square,0,14,14,7,1,-0.33,0.33,39,001,2024-11-20_13h06.24.992,Attention_exp_legacy,2023.1.0,Win32,60.24096386,,,,,,,,,,,,,,,,,,,,,,,,,,,,,,,,,,,,,,,,,,,,,,,,,,,,,,,,
,,,,,,,-0.332291667,0.666666667,1,0,0,calibration_square,0,15,15,8,1,-0.33,0.67,39,001,2024-11-20_13h06.24.992,Attention_exp_legacy,2023.1.0,Win32,60.24096386,,,,,,,,,,,,,,,,,,,,,,,,,,,,,,,,,,,,,,,,,,,,,,,,,,,,,,,,
,,,,,,,-0.691666667,-0.67037037,1,0,0,,0,16,16,0,1,-0.67,-0.67,39,001,2024-11-20_13h06.24.992,Attention_exp_legacy,2023.1.0,Win32,60.24096386,,,,,,,,,,,,,,,,,,,,,,,,,,,,,,,,,,,,,,,,,,,,,,,,,,,,,,,,
,,,,,,,0.330208333,0.677777778,1,0,0,calibration_square,0,17,17,18,1,0.33,0.67,39,001,2024-11-20_13h06.24.992,Attention_exp_legacy,2023.1.0,Win32,60.24096386,,,,,,,,,,,,,,,,,,,,,,,,,,,,,,,,,,,,,,,,,,,,,,,,,,,,,,,,
,,,,,,,-0.667708333,0,1,0,0,calibration_square,0,18,18,2,1,-0.67,0,39,001,2024-11-20_13h06.24.992,Attention_exp_legacy,2023.1.0,Win32,60.24096386,,,,,,,,,,,,,,,,,,,,,,,,,,,,,,,,,,,,,,,,,,,,,,,,,,,,,,,,
,,,,,,,-0.675,0.342592593,1,0,0,,0,19,19,3,1,-0.67,0.33,39,001,2024-11-20_13h06.24.992,Attention_exp_legacy,2023.1.0,Win32,60.24096386,,,,,,,,,,,,,,,,,,,,,,,,,,,,,,,,,,,,,,,,,,,,,,,,,,,,,,,,
,,,,,,,-0.661458333,-0.325925926,1,0,0,calibration_square,0,20,20,1,1,-0.67,-0.33,39,001,2024-11-20_13h06.24.992,Attention_exp_legacy,2023.1.0,Win32,60.24096386,,,,,,,,,,,,,,,,,,,,,,,,,,,,,,,,,,,,,,,,,,,,,,,,,,,,,,,,
,,,,,,,,,,,,,,,,,,,,39,001,2024-11-20_13h06.24.992,Attention_exp_legacy,2023.1.0,Win32,60.24096386,"[1920,1080]","[640,480]",[-0.04479166666666667],[-0.5018518518518519],[1],[0],[0],[1.0254000000953667],"[""StartButton""]",[0.16458333333333333],[0.45],[1],[0],[0],[4.721899999618536],"[""Metro_label""]",Metro_label,1,5.7444,"[[0.11145833333333334,-0.2074074074074074],[0.11145833333333334,-0.2074074074074074],[0.11145833333333334,-0.2074074074074074],[0.11145833333333334,-0.2074074074074074],[0.11145833333333334,-0.2074074074074074],[0.11145833333333334,-0.2074074074074074],[0.11145833333333334,-0.2074074074074074],[0.11145833333333334,-0.2074074074074074],[0.11145833333333334,-0.2074074074074074],[0.11145833333333334,-0.2074074074074074],[0.11145833333333334,-0.2074074074074074],[0.11145833333333334,-0.2074074074074074],[0.11145833333333334,-0.2074074074074074],[0.11145833333333334,-0.2074074074074074],[0.11145833333333334,-0.2074074074074074],[0.11145833333333334,-0.2074074074074074],[0.11145833333333334,-0.2074074074074074],[0.11145833333333334,-0.2074074074074074],[0.11145833333333334,-0.18888888888888888],[0.11666666666666667,-0.14629629629629629],[0.12291666666666666,-0.12037037037037036],[0.13958333333333334,-0.08518518518518518],[0.16770833333333332,-0.03148148148148148],[0.19375,0.001851851851851852],[0.21666666666666667,0.02962962962962963],[0.271875,0.07777777777777778],[0.309375,0.1111111111111111],[0.33125,0.13148148148148148],[0.33645833333333336,0.13703703703703704],[0.3385416666666667,0.1388888888888889],[0.3385416666666667,0.1388888888888889],[0.3385416666666667,0.1388888888888889],[0.3385416666666667,0.1388888888888889],[0.3385416666666667,0.1388888888888889],[0.33958333333333335,0.1388888888888889],[0.3416666666666667,0.1388888888888889],[0.34270833333333334,0.1388888888888889],[0.34791666666666665,0.1388888888888889],[0.35520833333333335,0.14444444444444443],[0.37395833333333334,0.1648148148148148],[0.3885416666666667,0.19444444444444445],[0.403125,0.24444444444444444],[0.41041666666666665,0.29259259259259257],[0.4114583333333333,0.32222222222222224],[0.4114583333333333,0.3333333333333333],[0.4083333333333333,0.34444444444444444],[0.4010416666666667,0.35185185185185186],[0.3927083333333333,0.3611111111111111],[0.3885416666666667,0.36666666666666664],[0.38645833333333335,0.36666666666666664],[0.38645833333333335,0.36666666666666664],[0.38645833333333335,0.36666666666666664],[0.3854166666666667,0.36666666666666664],[0.3854166666666667,0.37222222222222223],[0.3885416666666667,0.37777777777777777],[0.3958333333333333,0.3888888888888889],[0.4041666666666667,0.40185185185185185],[0.41041666666666665,0.40925925925925927],[0.4114583333333333,0.412962962962963],[0.4114583333333333,0.412962962962963],[0.4114583333333333,0.412962962962963],[0.4114583333333333,0.412962962962963],[0.4114583333333333,0.412962962962963],[0.4114583333333333,0.412962962962963],[0.4083333333333333,0.412962962962963],[0.40625,0.4111111111111111],[0.396875,0.40370370370370373],[0.36875,0.39444444444444443],[0.3489583333333333,0.3925925925925926],[0.33645833333333336,0.3925925925925926],[0.3302083333333333,0.3925925925925926],[0.32395833333333335,0.3888888888888889],[0.32083333333333336,0.387037037037037],[0.31875,0.387037037037037],[0.31354166666666666,0.387037037037037],[0.3072916666666667,0.3814814814814815],[0.30416666666666664,0.37962962962962965],[0.29583333333333334,0.37407407407407406],[0.2833333333333333,0.36666666666666664],[0.27291666666666664,0.362962962962963],[0.26145833333333335,0.3611111111111111],[0.24791666666666667,0.3611111111111111],[0.23229166666666667,0.3611111111111111],[0.215625,0.3611111111111111],[0.2,0.3611111111111111],[0.1875,0.3611111111111111],[0.17708333333333334,0.3648148148148148],[0.171875,0.3648148148148148],[0.16666666666666666,0.3685185185185185],[0.1625,0.37222222222222223],[0.1625,0.37222222222222223],[0.1625,0.37222222222222223],[0.1625,0.37222222222222223],[0.1625,0.37222222222222223],[0.1625,0.37222222222222223],[0.1625,0.37222222222222223],[0.16145833333333334,0.36666666666666664],[0.15625,0.3074074074074074],[0.15416666666666667,0.15925925925925927],[0.15416666666666667,-0.03518518518518519],[0.15416666666666667,-0.21666666666666667],[0.15416666666666667,-0.32592592592592595],[0.15416666666666667,-0.3574074074074074],[0.15416666666666667,-0.3592592592592593],[0.15416666666666667,-0.3611111111111111],[0.15520833333333334,-0.37037037037037035],[0.15625,-0.37777777777777777],[0.15625,-0.38333333333333336],[0.15625,-0.387037037037037],[0.15729166666666666,-0.3888888888888889],[0.15729166666666666,-0.3888888888888889],[0.15729166666666666,-0.3888888888888889],[0.15729166666666666,-0.3888888888888889],[0.15729166666666666,-0.3888888888888889],[0.15729166666666666,-0.3888888888888889],[0.15729166666666666,-0.3888888888888889],[0.15729166666666666,-0.3888888888888889],[0.15729166666666666,-0.3888888888888889],[0.15729166666666666,-0.3888888888888889],[0.15729166666666666,-0.3888888888888889],[0.15729166666666666,-0.3907407407407407],[0.15520833333333334,-0.40925925925925927],[0.15208333333333332,-0.4425925925925926],[0.14895833333333333,-0.48518518518518516],[0.14791666666666667,-0.5],[0.14791666666666667,-0.5074074074074074],[0.14791666666666667,-0.512962962962963],[0.14791666666666667,-0.512962962962963],[0.14791666666666667,-0.512962962962963],[0.14791666666666667,-0.5148148148148148],[0.14791666666666667,-0.5148148148148148],[0.14791666666666667,-0.5148148148148148],[0.14895833333333333,-0.5148148148148148],[0.15,-0.5148148148148148],[0.15,-0.5148148148148148],[0.15104166666666666,-0.5148148148148148],[0.15104166666666666,-0.5148148148148148],[0.15104166666666666,-0.5148148148148148],[0.15104166666666666,-0.5148148148148148],[0.15208333333333332,-0.5148148148148148],[0.153125,-0.5111111111111111],[0.153125,-0.5111111111111111],[0.15416666666666667,-0.5092592592592593],[0.15416666666666667,-0.5092592592592593],[0.15416666666666667,-0.5092592592592593],[0.15520833333333334,-0.5074074074074074],[0.15520833333333334,-0.5074074074074074],[0.15520833333333334,-0.5074074074074074],[0.15520833333333334,-0.5055555555555555],[0.15520833333333334,-0.5055555555555555],[0.15625,-0.5055555555555555],[0.15729166666666666,-0.5],[0.15833333333333333,-0.4981481481481482],[0.159375,-0.48703703703703705],[0.16145833333333334,-0.4722222222222222],[0.16354166666666667,-0.45740740740740743],[0.16354166666666667,-0.45],[0.16354166666666667,-0.45],[0.165625,-0.44814814814814813],[0.165625,-0.44814814814814813],[0.165625,-0.44814814814814813],[0.165625,-0.44814814814814813],[0.165625,-0.44814814814814813],[0.165625,-0.44814814814814813],[0.165625,-0.44814814814814813],[0.165625,-0.44814814814814813],[0.165625,-0.44814814814814813],[0.16666666666666666,-0.44814814814814813],[0.16666666666666666,-0.44814814814814813],[0.16666666666666666,-0.44814814814814813],[0.16666666666666666,-0.44814814814814813],[0.16666666666666666,-0.44814814814814813],[0.16666666666666666,-0.44814814814814813],[0.16666666666666666,-0.44814814814814813],[0.15,-0.4388888888888889],[0.10625,-0.42962962962962964],[0.01875,-0.40925925925925927],[-0.08854166666666667,-0.3888888888888889],[-0.1875,-0.3888888888888889],[-0.26666666666666666,-0.3888888888888889],[-0.32916666666666666,-0.40370370370370373],[-0.3572916666666667,-0.412962962962963],[-0.375,-0.4203703703703704],[-0.375,-0.4203703703703704],[-0.37604166666666666,-0.4203703703703704],[-0.37604166666666666,-0.4203703703703704],[-0.37604166666666666,-0.4203703703703704],[-0.37604166666666666,-0.4203703703703704],[-0.37604166666666666,-0.4203703703703704],[-0.37604166666666666,-0.4203703703703704],[-0.37604166666666666,-0.4203703703703704],[-0.37604166666666666,-0.4203703703703704],[-0.37604166666666666,-0.4203703703703704],[-0.37604166666666666,-0.4203703703703704],[-0.37604166666666666,-0.4203703703703704],[-0.37604166666666666,-0.4203703703703704],[-0.37083333333333335,-0.4203703703703704],[-0.3458333333333333,-0.4166666666666667],[-0.265625,-0.39814814814814814],[-0.06041666666666667,-0.3888888888888889],[0.09791666666666667,-0.3814814814814815],[0.246875,-0.3814814814814815],[0.3729166666666667,-0.39814814814814814],[0.46145833333333336,-0.42962962962962964],[0.49166666666666664,-0.44814814814814813],[0.496875,-0.45185185185185184],[0.496875,-0.45185185185185184],[0.496875,-0.4537037037037037],[0.496875,-0.4537037037037037],[0.4947916666666667,-0.45555555555555555],[0.4947916666666667,-0.45555555555555555],[0.4947916666666667,-0.45555555555555555],[0.49375,-0.45740740740740743],[0.49270833333333336,-0.45740740740740743],[0.4875,-0.45740740740740743],[0.478125,-0.45740740740740743],[0.45729166666666665,-0.45740740740740743],[0.4322916666666667,-0.45185185185185184],[0.4041666666666667,-0.4351851851851852],[0.390625,-0.4185185185185185],[0.38125,-0.40555555555555556],[0.37916666666666665,-0.3888888888888889],[0.37916666666666665,-0.3814814814814815],[0.38125,-0.34444444444444444],[0.384375,-0.30925925925925923],[0.3854166666666667,-0.2833333333333333],[0.38645833333333335,-0.26666666666666666],[0.38645833333333335,-0.2611111111111111],[0.3875,-0.2537037037037037],[0.3875,-0.2518518518518518],[0.38958333333333334,-0.2462962962962963],[0.38958333333333334,-0.2462962962962963],[0.38958333333333334,-0.2462962962962963],[0.38958333333333334,-0.2462962962962963],[0.38958333333333334,-0.2462962962962963],[0.38958333333333334,-0.2462962962962963],[0.38958333333333334,-0.2462962962962963],[0.3770833333333333,-0.2388888888888889],[0.3489583333333333,-0.21296296296296297],[0.30104166666666665,-0.15555555555555556],[0.24166666666666667,-0.09259259259259259],[0.190625,-0.025925925925925925],[0.159375,0.05925925925925926],[0.15520833333333334,0.1388888888888889],[0.15416666666666667,0.22592592592592592],[0.15416666666666667,0.3074074074074074],[0.15416666666666667,0.3537037037037037],[0.15520833333333334,0.3888888888888889],[0.15520833333333334,0.4185185185185185],[0.15104166666666666,0.45185185185185184],[0.14583333333333334,0.4685185185185185],[0.14479166666666668,0.4759259259259259],[0.14479166666666668,0.48518518518518516],[0.14479166666666668,0.5092592592592593],[0.14479166666666668,0.5166666666666667],[0.14479166666666668,0.5166666666666667],[0.14479166666666668,0.5166666666666667],[0.14479166666666668,0.5166666666666667],[0.14479166666666668,0.5166666666666667],[0.14479166666666668,0.5148148148148148],[0.14479166666666668,0.512962962962963],[0.14583333333333334,0.5111111111111111],[0.14895833333333333,0.5],[0.153125,0.49074074074074076],[0.15833333333333333,0.4777777777777778],[0.16145833333333334,0.4703703703703704],[0.16354166666666667,0.4648148148148148],[0.16354166666666667,0.46296296296296297],[0.16354166666666667,0.46111111111111114],[0.16354166666666667,0.46111111111111114],[0.16354166666666667,0.45740740740740743],[0.16458333333333333,0.45185185185185184],[0.16458333333333333,0.45],[0.16458333333333333,0.45],[0.16458333333333333,0.45],[0.16458333333333333,0.45],[0.16458333333333333,0.45],[0.16458333333333333,0.45],[0.16458333333333333,0.45],[0.16458333333333333,0.45],[0.16458333333333333,0.45],[0.16458333333333333,0.45],[0.16458333333333333,0.45],[0.16458333333333333,0.45],[0.16458333333333333,0.45],[0.16458333333333333,0.45],[0.16458333333333333,0.45],[0.16458333333333333,0.45],[0.16458333333333333,0.45],[0.16458333333333333,0.45],[0.16458333333333333,0.45],[0.16458333333333333,0.45],[0.16458333333333333,0.45],[0.16458333333333333,0.45],[0.16458333333333333,0.45],[0.16458333333333333,0.45],[0.16458333333333333,0.45],[0.16458333333333333,0.45],[0.16458333333333333,0.45],[0.16458333333333333,0.45],[0.16458333333333333,0.45],[0.16458333333333333,0.45],[0.16458333333333333,0.45],[0.16458333333333333,0.45],[0.16458333333333333,0.45],[0.16770833333333332,0.44814814814814813],[0.190625,0.4425925925925926],[0.2125,0.43703703703703706],[0.234375,0.43148148148148147],[0.253125,0.42777777777777776],[0.26875,0.42407407407407405],[0.26979166666666665,0.42407407407407405],[0.2708333333333333,0.42407407407407405],[0.2708333333333333,0.42407407407407405],[0.271875,0.42407407407407405],[0.27395833333333336,0.42407407407407405],[0.278125,0.42407407407407405],[0.28020833333333334,0.42407407407407405],[0.28229166666666666,0.42407407407407405],[0.28229166666666666,0.42407407407407405],[0.28229166666666666,0.42407407407407405],[0.28229166666666666,0.42407407407407405],[0.28229166666666666,0.42407407407407405],[0.28229166666666666,0.42407407407407405],[0.28229166666666666,0.42407407407407405],[0.28229166666666666,0.42407407407407405],[0.28229166666666666,0.42407407407407405],[0.28229166666666666,0.42407407407407405],[0.28229166666666666,0.42407407407407405],[0.28229166666666666,0.42407407407407405],[0.28229166666666666,0.42407407407407405],[0.28229166666666666,0.42407407407407405],[0.28229166666666666,0.42407407407407405],[0.28229166666666666,0.42407407407407405],[0.28229166666666666,0.42407407407407405],[0.28229166666666666,0.42407407407407405],[0.28229166666666666,0.42407407407407405],[0.28229166666666666,0.42407407407407405],[0.28229166666666666,0.42407407407407405],[0.28229166666666666,0.42407407407407405],[0.28229166666666666,0.42407407407407405],[0.28229166666666666,0.42407407407407405],[0.28229166666666666,0.42407407407407405],[0.28229166666666666,0.42407407407407405]]","[[0.21197916666666666,-0.014259259259259343],[0.21197916666666666,-0.014259259259259343],[0.20739583333333325,-0.011666666666666582],[0.19145833333333329,0.010370370370370412],[0.17552083333333332,0.032407407407407406],[0.15489583333333337,0.08648148148148156],[0.13895833333333343,0.09870370370370361],[0.12364583333333339,0.08888888888888889],[0.11937499999999991,0.08648148148148156],[0.09989583333333343,0.10166666666666663],[0.06458333333333334,0.11648148148148144],[0.03218749999999997,0.11722222222222214],[-0.00010416666666669035,0.10962962962962972],[0.003541666666666643,0.08222222222222218],[0.003541666666666643,0.08222222222222218],[-0.002708333333333357,0.020740740740740823],[-0.005312500000000024,-0.012777777777777735],[-0.005312500000000024,-0.012777777777777735],[-0.00791666666666669,-0.046296296296296294],[0.002812500000000047,-0.06407407407407412],[0.004062499999999977,-0.0727777777777778],[0.004062499999999977,-0.0727777777777778],[0.03239583333333336,-0.08444444444444449],[0.03239583333333336,-0.08444444444444449],[0.06656249999999998,-0.06518518518518517],[0.10197916666666676,-0.040370370370370286],[0.14614583333333328,-0.0011111111111111532],[0.17020833333333343,0.002777777777777778],[0.20697916666666671,0.02907407407407416],[0.23864583333333325,0.040370370370370286],[0.2639583333333334,0.06537037037037029],[0.2816666666666668,0.05611111111111103],[0.3054166666666667,0.048333333333333374],[0.30354166666666677,0.03537037037037041],[0.31104166666666655,0.03166666666666671],[0.3163541666666667,-0.004444444444444402],[0.3306250000000001,-0.0418518518518519],[0.3515625,-0.04981481481481477],[0.38177083333333334,-0.08648148148148146],[0.3710416666666667,-0.06962962962962967],[0.37999999999999995,-0.09740740740740746],[0.3997916666666666,-0.10722222222222218],[0.4045833333333334,-0.14574074074074073],[0.4365624999999999,-0.18351851851851855],[0.4365624999999999,-0.18351851851851855],[0.4591666666666666,-0.24018518518518517],[0.4591666666666666,-0.24018518518518517],[0.4670833333333334,-0.22833333333333336],[0.4561458333333334,-0.22759259259259254],[0.44989583333333344,-0.26537037037037037],[0.4321875000000001,-0.26851851851851855],[0.4321875000000001,-0.26851851851851855],[0.4501041666666666,-0.33370370370370367],[0.46156249999999993,-0.3633333333333333],[0.4653125000000001,-0.3894444444444445],[0.48250000000000004,-0.37888888888888894],[0.48250000000000004,-0.37888888888888894],[0.4639583333333334,-0.4020370370370371],[0.4622916666666666,-0.3888888888888889],[0.46843750000000006,-0.42185185185185187],[0.4826041666666666,-0.38796296296296295],[0.48385416666666664,-0.3212962962962963],[0.49031250000000004,-0.23074074074074077],[0.49895833333333334,-0.1361111111111111],[0.5002083333333334,-0.022592592592592678],[0.5002083333333334,-0.022592592592592678],[0.4835416666666667,0.01314814814814819],[0.4570833333333333,0.032037037037036954],[0.4570833333333333,0.032037037037036954],[0.4487499999999999,0.0764814814814814],[0.42000000000000004,0.11333333333333341],[0.40041666666666675,0.13777777777777775],[0.40041666666666675,0.13777777777777775],[0.3865624999999999,0.0794444444444444],[0.38229166666666664,0.02759259259259255],[0.38229166666666664,0.02759259259259255],[0.36302083333333335,-0.01777777777777782],[0.3416666666666667,-0.10277777777777777],[0.32083333333333336,-0.21129629629629634],[0.32083333333333336,-0.21129629629629634],[0.31197916666666664,-0.22925925925925927],[0.31281249999999994,-0.2368518518518518],[0.3173958333333334,-0.23185185185185184],[0.3109375,-0.2705555555555556],[0.30572916666666666,-0.29129629629629633],[0.2989583333333333,-0.29388888888888887],[0.2778125000000001,-0.2985185185185185],[0.26281249999999995,-0.3274074074074074],[0.2538541666666667,-0.3257407407407407],[0.24833333333333343,-0.3085185185185186],[0.24833333333333343,-0.3085185185185186],[0.23385416666666667,-0.2814814814814815],[0.2211458333333333,-0.26185185185185184],[0.1951041666666666,-0.24740740740740744],[0.18125,-0.18907407407407412],[0.16749999999999995,-0.14388888888888887],[0.16885416666666658,-0.09259259259259259],[0.1540625000000001,-0.08351851851851856],[0.14229166666666657,-0.07481481481481478],[0.12781250000000005,-0.039074074074074115],[0.1109375,-0.002777777777777778],[0.10239583333333328,-0.031111111111111027],[0.09677083333333343,-0.07796296296296301],[0.1087500000000001,-0.10537037037037032],[0.11843750000000004,-0.08944444444444447],[0.12000000000000005,-0.09222222222222225],[0.12645833333333342,-0.1161111111111111],[0.15260416666666668,-0.06222222222222226],[0.17927083333333324,-0.0035185185185184764],[0.2009375000000001,0.025],[0.21843750000000003,0.027777777777777776],[0.23010416666666675,0.09018518518518527],[0.2384375000000001,0.13259259259259262],[0.2296875,0.17092592592592584],[0.246875,0.152962962962963],[0.26843750000000005,0.1596296296296297],[0.2759375000000001,0.18722222222222226],[0.28114583333333343,0.15222222222222231],[0.27447916666666666,0.1331481481481481],[0.2763541666666666,0.13296296296296287],[0.28135416666666657,0.14240740740740737],[0.2849999999999999,0.11259259259259251],[0.28895833333333343,0.12722222222222232],[0.30322916666666655,0.13555555555555565],[0.2855208333333332,0.16611111111111118],[0.26687500000000003,0.19685185185185178],[0.2400000000000001,0.23185185185185195],[0.22229166666666675,0.282037037037037],[0.21593749999999995,0.3114814814814816],[0.20427083333333323,0.33240740740740743],[0.19197916666666662,0.35722222222222216],[0.19197916666666662,0.35722222222222216],[0.19072916666666656,0.3907407407407407],[0.18875000000000006,0.4177777777777778],[0.18875000000000006,0.4177777777777778],[0.18229166666666666,0.4222222222222222],[0.18229166666666666,0.4222222222222222],[0.1944791666666667,0.3798148148148149],[0.18760416666666657,0.3538888888888889],[0.18072916666666666,0.327962962962963],[0.18072916666666666,0.327962962962963],[0.178125,0.35425925925925916],[0.16437499999999997,0.38351851851851854],[0.14552083333333338,0.38851851851851843],[0.12729166666666672,0.3896296296296296],[0.12729166666666672,0.3896296296296296],[0.12729166666666672,0.3846296296296297],[0.13052083333333328,0.41277777777777774],[0.11364583333333324,0.4264814814814814],[0.09812500000000005,0.46166666666666656],[0.10260416666666666,0.4801851851851851],[0.11208333333333324,0.4844444444444445],[0.11208333333333324,0.4844444444444445],[0.11260416666666657,0.4735185185185186],[0.12333333333333343,0.4888888888888889],[0.12333333333333343,0.4888888888888889],[0.13875000000000004,0.49000000000000005],[0.13875000000000004,0.49000000000000005],[0.1632291666666667,0.47907407407407415],[0.1554166666666667,0.5044444444444444],[0.13135416666666658,0.4868518518518518],[0.12104166666666671,0.49722222222222223],[0.09645833333333324,0.48574074074074064],[0.0728125000000001,0.494074074074074],[0.0728125000000001,0.494074074074074],[0.044166666666666646,0.5166666666666667],[0.020833333333333332,0.5272222222222223],[0.020833333333333332,0.5272222222222223],[-0.00302083333333331,0.5027777777777778],[-0.06364583333333336,0.5035185185185185],[-0.06364583333333336,0.5035185185185185],[-0.13812500000000003,0.5111111111111111],[-0.1889583333333333,0.49314814814814806],[-0.22270833333333329,0.47166666666666673],[-0.25979166666666664,0.44648148148148153],[-0.25979166666666664,0.44648148148148153],[-0.24187500000000003,0.45851851851851855],[-0.22489583333333332,0.4507407407407407],[-0.21124999999999997,0.44611111111111107],[-0.21124999999999997,0.44611111111111107],[-0.22218749999999995,0.3829629629629629],[-0.23041666666666671,0.31925925925925924],[-0.21062500000000003,0.32759259259259255],[-0.21062500000000003,0.32759259259259255],[-0.18541666666666667,0.31925925925925924],[-0.15197916666666664,0.2762962962962964],[-0.10802083333333339,0.24814814814814815],[-0.10802083333333339,0.24814814814814815],[-0.08093750000000005,0.244074074074074],[-0.08093750000000005,0.244074074074074],[-0.08947916666666664,0.23722222222222225],[-0.08947916666666664,0.23722222222222225],[-0.09802083333333336,0.23037037037037034],[-0.09802083333333336,0.23037037037037034],[-0.12104166666666671,0.1814814814814815],[-0.12104166666666671,0.1814814814814815],[-0.12625000000000006,0.18129629629629626],[-0.12625000000000006,0.18129629629629626],[-0.14708333333333337,0.23444444444444448],[-0.14708333333333337,0.23444444444444448],[-0.13208333333333327,0.2490740740740741],[-0.09833333333333331,0.25277777777777777],[-0.10739583333333336,0.29222222222222216],[-0.13614583333333338,0.3388888888888889],[-0.06416666666666669,0.33833333333333343],[-0.001145833333333357,0.3227777777777777],[0.04385416666666669,0.31074074074074065],[0.04385416666666669,0.31074074074074065],[0.13958333333333334,0.3574074074074074],[0.21739583333333337,0.3772222222222223],[0.28927083333333337,0.32944444444444443],[0.3289583333333333,0.26296296296296295],[0.3529166666666666,0.22962962962962963],[0.3519791666666668,0.2124074074074075],[0.3568749999999999,0.19296296296296306],[0.28125,0.20037037037037045],[0.24322916666666666,0.19388888888888897],[0.24322916666666666,0.19388888888888897],[0.221875,0.20796296296296288],[0.17312500000000006,0.18888888888888888],[0.1428124999999999,0.18888888888888888],[0.14052083333333343,0.22555555555555548],[0.14375,0.26074074074074066],[0.1330208333333334,0.3025925925925925],[0.17218749999999997,0.32259259259259265],[0.2267708333333334,0.32685185185185184],[0.33541666666666664,0.3116666666666666],[0.3890625,0.30944444444444447],[0.41822916666666665,0.30185185185185187],[0.4314583333333334,0.3037037037037037],[0.4413541666666667,0.28129629629629627],[0.48406250000000006,0.21592592592592597],[0.46760416666666677,0.22370370370370363],[0.46145833333333336,0.22444444444444453],[0.4721874999999999,0.20388888888888893],[0.4666666666666667,0.2],[0.42552083333333335,0.19425925925925921],[0.4301041666666668,0.16296296296296298],[0.47979166666666656,0.07611111111111116],[0.48166666666666674,0.055000000000000084],[0.5037499999999999,0.04000000000000004],[0.45499999999999996,0.07222222222222222],[0.4799999999999999,0.04462962962962967],[0.4865624999999999,-0.007777777777777862],[0.47625000000000006,-0.03888888888888889],[0.4505208333333333,-0.11314814814814819],[0.40635416666666657,-0.1661111111111111],[0.3366666666666667,-0.18907407407407412],[0.24770833333333328,-0.17518518518518522],[0.2224999999999999,-0.22148148148148153],[0.1803124999999999,-0.2638888888888889],[0.17999999999999997,-0.30648148148148147],[0.14708333333333337,-0.35351851851851845],[0.1359375,-0.40611111111111114],[0.14447916666666671,-0.43944444444444447],[0.14447916666666671,-0.43944444444444447],[0.1578125,-0.4087037037037037],[0.17114583333333327,-0.377962962962963],[0.190625,-0.3925925925925926],[0.20572916666666666,-0.37333333333333335],[0.20572916666666666,-0.37333333333333335],[0.21541666666666662,-0.3698148148148148],[0.2265625,-0.3638888888888889],[0.2412499999999999,-0.3588888888888889],[0.2534374999999999,-0.3918518518518519],[0.2616666666666667,-0.39814814814814814],[0.2546875,-0.37166666666666665],[0.23291666666666658,-0.33259259259259266],[0.23291666666666658,-0.33259259259259266],[0.22822916666666657,-0.33296296296296296],[0.23364583333333327,-0.2690740740740741],[0.22520833333333337,-0.24981481481481477],[0.21416666666666656,-0.22333333333333338],[0.21416666666666656,-0.22333333333333338],[0.20416666666666666,-0.21814814814814817],[0.18270833333333342,-0.23870370370370367],[0.17916666666666667,-0.21666666666666667],[0.17625000000000005,-0.19092592592592597],[0.19604166666666673,-0.17703703703703708],[0.24208333333333343,-0.19759259259259257],[0.24208333333333343,-0.19759259259259257],[0.2585416666666667,-0.19500000000000003],[0.24364583333333342,-0.1911111111111111],[0.23166666666666677,-0.13907407407407413],[0.22218749999999995,-0.0801851851851852],[0.21343750000000009,0.03129629629629625],[0.21343750000000009,0.03129629629629625],[0.2118750000000001,0.07277777777777769],[0.20270833333333324,0.14444444444444443],[0.20572916666666666,0.19648148148148153],[0.1851041666666667,0.2192592592592592],[0.14093749999999997,0.18722222222222226],[0.1258333333333333,0.20666666666666672],[0.146875,0.16777777777777783],[0.17572916666666671,0.09648148148148153],[0.18312499999999995,0.02629629629629638],[0.190625,-0.07240740740740745],[0.18406250000000005,-0.08555555555555554],[0.18916666666666657,-0.11481481481481481],[0.1820833333333333,-0.12444444444444443],[0.18739583333333343,-0.18907407407407412],[0.21916666666666676,-0.17407407407407408],[0.23333333333333334,-0.18259259259259264],[0.22364583333333338,-0.15648148148148147],[0.21291666666666675,-0.1255555555555556],[0.22822916666666657,-0.127962962962963],[0.22791666666666663,-0.16111111111111112],[0.23083333333333325,-0.20333333333333337],[0.22125000000000009,-0.23962962962962958],[0.225,-0.28962962962962957],[0.21281249999999996,-0.29555555555555557],[0.21281249999999996,-0.29555555555555557],[0.19791666666666666,-0.31351851851851853],[0.17999999999999997,-0.3285185185185185],[0.17999999999999997,-0.3285185185185185],[0.1716666666666666,-0.3866666666666667],[0.1716666666666666,-0.3866666666666667],[0.13791666666666677,-0.38796296296296295],[0.13447916666666657,-0.38055555555555554],[0.13447916666666657,-0.38055555555555554],[0.12229166666666676,-0.3509259259259259],[0.12708333333333333,-0.34759259259259256],[0.12708333333333333,-0.34759259259259256],[0.1365624999999999,-0.3809259259259259],[0.13895833333333343,-0.37703703703703706],[0.14260416666666675,-0.37759259259259254],[0.1484375,-0.37703703703703706],[0.15833333333333333,-0.3911111111111111],[0.15614583333333343,-0.37222222222222223],[0.19333333333333325,-0.4166666666666667],[0.1772916666666667,-0.3987037037037037],[0.18239583333333323,-0.36314814814814816],[0.1681250000000001,-0.305],[0.1681250000000001,-0.305],[0.1040625000000001,-0.21129629629629634],[0.07604166666666666,-0.13648148148148145],[0.04677083333333331,-0.05722222222222218],[0.0359375,0.016111111111111194],[0.02510416666666669,0.08944444444444435],[0.04104166666666664,0.2735185185185186],[0.04572916666666664,0.459074074074074],[0.09541666666666657,0.5937037037037037],[0.09541666666666657,0.5937037037037037],[0.14656250000000004,0.7183333333333333]]","[[0.21197916666666666,-0.014259259259259343,0.0001999998092614419],[0.21197916666666666,-0.014259259259259343,0.05059999990463382],[0.20739583333333325,-0.011666666666666582,0.061199999809261385],[0.19145833333333329,0.010370370370370412,0.07790000009536868],[0.17552083333333332,0.032407407407407406,0.09449999999999648],[0.15489583333333337,0.08648148148148156,0.1144999999999996],[0.13895833333333343,0.09870370370370361,0.12829999971389583],[0.12364583333333339,0.08888888888888889,0.14440000009536647],[0.11937499999999991,0.08648148148148156,0.16109999990462853],[0.09989583333333343,0.10166666666666663,0.1777999997138977],[0.06458333333333334,0.11648148148148144,0.19440000009536362],[0.03218749999999997,0.11722222222222214,0.21129999971389424],[-0.00010416666666669035,0.10962962962962972,0.22779999971389486],[0.003541666666666643,0.08222222222222218,0.24509999990463172],[0.003541666666666643,0.08222222222222218,0.2611999998092642],[-0.002708333333333357,0.020740740740740823,0.2779000000953644],[-0.005312500000000024,-0.012777777777777735,0.2975999999046337],[-0.005312500000000024,-0.012777777777777735,0.3110999999046342],[-0.00791666666666669,-0.046296296296296294,0.3315999999046326],[0.002812500000000047,-0.06407407407407412,0.3474000000953694],[0.004062499999999977,-0.0727777777777778,0.36429999971390004],[0.004062499999999977,-0.0727777777777778,0.3814999999999955],[0.03239583333333336,-0.08444444444444449,0.394599999904635],[0.03239583333333336,-0.08444444444444449,0.4114000000953695],[0.06656249999999998,-0.06518518518518517,0.4321999998092636],[0.10197916666666676,-0.040370370370370286,0.4484999999999957],[0.14614583333333328,-0.0011111111111111532,0.4661999998092625],[0.17020833333333343,0.002777777777777778,0.4827999997138974],[0.20697916666666671,0.02907407407407416,0.49809999990463183],[0.23864583333333325,0.040370370370370286,0.5122999997138962],[0.2639583333333334,0.06537037037037029,0.5276999998092649],[0.2816666666666668,0.05611111111111103,0.544400000095365],[0.3054166666666667,0.048333333333333374,0.5610999999046342],[0.30354166666666677,0.03537037037037041,0.5777999997138963],[0.31104166666666655,0.03166666666666671,0.5974000000953694],[0.3163541666666667,-0.004444444444444402,0.6144000000953653],[0.3306250000000001,-0.0418518518518519,0.6280999999046344],[0.3515625,-0.04981481481481477,0.6445000000000007],[0.38177083333333334,-0.08648148148148146,0.665699999809263],[0.3710416666666667,-0.06962962962962967,0.6824000000953632],[0.37999999999999995,-0.09740740740740746,0.6980000000000004],[0.3997916666666666,-0.10722222222222218,0.7164000000953692],[0.4045833333333334,-0.14574074074074073,0.7312999997138974],[0.4365624999999999,-0.18351851851851855,0.7512999997138934],[0.4365624999999999,-0.18351851851851855,0.7612999997138985],[0.4591666666666666,-0.24018518518518517,0.7824000000953646],[0.4591666666666666,-0.24018518518518517,0.7945999999046336],[0.4670833333333334,-0.22833333333333336,0.8112999997138957],[0.4561458333333334,-0.22759259259259254,0.8325999999046303],[0.44989583333333344,-0.26537037037037037,0.8500000000000014],[0.4321875000000001,-0.26851851851851855,0.8721999998092613],[0.4321875000000001,-0.26851851851851855,0.8791999998092663],[0.4501041666666666,-0.33370370370370367,0.898299999713899],[0.46156249999999993,-0.3633333333333333,0.9155000000000015],[0.4653125000000001,-0.3894444444444445,0.9320000000000022],[0.48250000000000004,-0.37888888888888894,0.9521999998092667],[0.48250000000000004,-0.37888888888888894,0.9612999997138942],[0.4639583333333334,-0.4020370370370371,0.9780000000000015],[0.4622916666666666,-0.3888888888888889,0.9946999998092636],[0.46843750000000006,-0.42185185185185187,1.0111999998092642],[0.4826041666666666,-0.38796296296296295,1.0277999997138991],[0.48385416666666664,-0.3212962962962963,1.0444999999999993],[0.49031250000000004,-0.23074074074074077,1.0616999998092638],[0.49895833333333334,-0.1361111111111111,1.082099999904635],[0.5002083333333334,-0.022592592592592678,1.1004000000953695],[0.5002083333333334,-0.022592592592592678,1.1112999997139],[0.4835416666666667,0.01314814814814819,1.1282999997138958],[0.4570833333333333,0.032037037037036954,1.1537999997138968],[0.4570833333333333,0.032037037037036954,1.1629000000953695],[0.4487499999999999,0.0764814814814814,1.1781999998092658],[0.42000000000000004,0.11333333333333341,1.1959000000953637],[0.40041666666666675,0.13777777777777775,1.218599999904633],[0.40041666666666675,0.13777777777777775,1.2280000000000015],[0.3865624999999999,0.0794444444444444,1.2446999998092636],[0.38229166666666664,0.02759259259259255,1.272199999809267],[0.38229166666666664,0.02759259259259255,1.2864000000953695],[0.36302083333333335,-0.01777777777777782,1.2959999999999994],[0.3416666666666667,-0.10277777777777777,1.3116999998092638],[0.32083333333333336,-0.21129629629629634,1.333199999809267],[0.32083333333333336,-0.21129629629629634,1.3444999999999965],[0.31197916666666664,-0.22925925925925927,1.3612999997139],[0.31281249999999994,-0.2368518518518518,1.3780000000000001],[0.3173958333333334,-0.23185185185185184,1.3984999999999985],[0.3109375,-0.2705555555555556,1.4144000000953696],[0.30572916666666666,-0.29129629629629633,1.4282999997139],[0.2989583333333333,-0.29388888888888887,1.4445999999046322],[0.2778125000000001,-0.2985185185185185,1.4644000000953667],[0.26281249999999995,-0.3274074074074074,1.478199999809263],[0.2538541666666667,-0.3257407407407407,1.4945999999046293],[0.24833333333333343,-0.3085185185185186,1.517400000095364],[0.24833333333333343,-0.3085185185185186,1.533299999713897],[0.23385416666666667,-0.2814814814814815,1.5446999998092608],[0.2211458333333333,-0.26185185185185184,1.5610999999046342],[0.1951041666666666,-0.24740740740740744,1.5812999997138988],[0.18125,-0.18907407407407412,1.5944999999999965],[0.16749999999999995,-0.14388888888888887,1.6110999999046314],[0.16885416666666658,-0.09259259259259259,1.6307999997138936],[0.1540625000000001,-0.08351851851851856,1.645699999809267],[0.14229166666666657,-0.07481481481481478,1.6636999998092676],[0.12781250000000005,-0.039074074074074115,1.6780999999046315],[0.1109375,-0.002777777777777778,1.6969000000953685],[0.10239583333333328,-0.031111111111111027,1.711199999809267],[0.09677083333333343,-0.07796296296296301,1.7309000000953674],[0.1087500000000001,-0.10537037037037032,1.7475999999046294],[0.11843750000000004,-0.08944444444444447,1.7637999997138962],[0.12000000000000005,-0.09222222222222225,1.7787999997138968],[0.12645833333333342,-0.1161111111111111,1.7981999998092633],[0.15260416666666668,-0.06222222222222226,1.8124000000953657],[0.17927083333333324,-0.0035185185185184764,1.8280999999046301],[0.2009375000000001,0.025,1.8445999999046307],[0.21843750000000003,0.027777777777777776,1.8651999998092634],[0.23010416666666675,0.09018518518518527,1.8825000000000003],[0.2384375000000001,0.13259259259259262,1.8979999999999961],[0.2296875,0.17092592592592584,1.9110999999046285],[0.246875,0.152962962962963,1.9291999998092635],[0.26843750000000005,0.1596296296296297,1.944499999999998],[0.2759375000000001,0.18722222222222226,1.961199999809267],[0.28114583333333343,0.15222222222222231,1.9777999997138949],[0.27447916666666666,0.1331481481481481,1.9954999999999998],[0.2763541666666666,0.13296296296296287,2.0120000000000005],[0.28135416666666657,0.14240740740740737,2.0315999999046284],[0.2849999999999999,0.11259259259259251,2.04840000009537],[0.28895833333333343,0.12722222222222232,2.0640999999046343],[0.30322916666666655,0.13555555555555565,2.0825999999046303],[0.2855208333333332,0.16611111111111118,2.0979000000953647],[0.26687500000000003,0.19685185185185178,2.114599999904634],[0.2400000000000001,0.23185185185185195,2.130900000095366],[0.22229166666666675,0.282037037037037,2.144599999904635],[0.21593749999999995,0.3114814814814816,2.1610999999046285],[0.20427083333333323,0.33240740740740743,2.180900000095363],[0.19197916666666662,0.35722222222222216,2.194499999999998],[0.19197916666666662,0.35722222222222216,2.211199999809267],[0.19072916666666656,0.3907407407407407,2.231199999809263],[0.18875000000000006,0.4177777777777778,2.2490000000000023],[0.18875000000000006,0.4177777777777778,2.26109999990463],[0.18229166666666666,0.4222222222222222,2.2827999997138946],[0.18229166666666666,0.4222222222222222,2.2959999999999994],[0.1944791666666667,0.3798148148148149,2.311099999904634],[0.18760416666666657,0.3538888888888889,2.327699999809262],[0.18072916666666666,0.327962962962963,2.3537999997138996],[0.18072916666666666,0.327962962962963,2.361400000095365],[0.178125,0.35425925925925916,2.377900000095366],[0.16437499999999997,0.38351851851851854,2.3976999998092623],[0.14552083333333338,0.38851851851851843,2.412799999713897],[0.12729166666666672,0.3896296296296296,2.429699999809266],[0.12729166666666672,0.3896296296296296,2.4484999999999957],[0.12729166666666672,0.3846296296296297,2.461099999904633],[0.13052083333333328,0.41277777777777774,2.4780999999046287],[0.11364583333333324,0.4264814814814814,2.4971999998092613],[0.09812500000000005,0.46166666666666656,2.511499999999998],[0.10260416666666666,0.4801851851851851,2.5279999999999987],[0.11208333333333324,0.4844444444444445,2.5501999998092657],[0.11208333333333324,0.4844444444444445,2.5611999998092614],[0.11260416666666657,0.4735185185185186,2.577999999999996],[0.12333333333333343,0.4888888888888889,2.600900000095365],[0.12333333333333343,0.4888888888888889,2.6111999998092656],[0.13875000000000004,0.49000000000000005,2.628],[0.13875000000000004,0.49000000000000005,2.644900000095369],[0.1632291666666667,0.47907407407407415,2.6650999999046334],[0.1554166666666667,0.5044444444444444,2.682299999713898],[0.13135416666666658,0.4868518518518518,2.6990999999046323],[0.12104166666666671,0.49722222222222223,2.716299999713897],[0.09645833333333324,0.48574074074074064,2.7324000000953674],[0.0728125000000001,0.494074074074074,2.7530999999046344],[0.0728125000000001,0.494074074074074,2.76109999990463],[0.044166666666666646,0.5166666666666667,2.777799999713899],[0.020833333333333332,0.5272222222222223,2.797799999713895],[0.020833333333333332,0.5272222222222223,2.8151999998092663],[-0.00302083333333331,0.5027777777777778,2.8279000000953687],[-0.06364583333333336,0.5035185185185185,2.846199999809265],[-0.06364583333333336,0.5035185185185185,2.8611999998092656],[-0.13812500000000003,0.5111111111111111,2.8777999997138934],[-0.1889583333333333,0.49314814814814806,2.8944000000953665],[-0.22270833333333329,0.47166666666666673,2.9119000000953648],[-0.25979166666666664,0.44648148148148153,2.9354000000953633],[-0.25979166666666664,0.44648148148148153,2.944599999904632],[-0.24187500000000003,0.45851851851851855,2.9612999997138942],[-0.22489583333333332,0.4507407407407407,2.981199999809263],[-0.21124999999999997,0.44611111111111107,3.001900000095368],[-0.21124999999999997,0.44611111111111107,3.0112999997138985],[-0.22218749999999995,0.3829629629629629,3.028099999904633],[-0.23041666666666671,0.31925925925925924,3.0449000000953674],[-0.21062500000000003,0.32759259259259255,3.0671999998092616],[-0.21062500000000003,0.32759259259259255,3.077699999809262],[-0.18541666666666667,0.31925925925925924,3.094699999809265],[-0.15197916666666664,0.2762962962962964,3.1115999999046338],[-0.10802083333333339,0.24814814814814815,3.13309999990463],[-0.10802083333333339,0.24814814814814815,3.1444000000953665],[-0.08093750000000005,0.244074074074074,3.161199999809263],[-0.08093750000000005,0.244074074074074,3.1776999998092634],[-0.08947916666666664,0.23722222222222225,3.194499999999998],[-0.08947916666666664,0.23722222222222225,3.211099999904633],[-0.09802083333333336,0.23037037037037034,3.227799999713895],[-0.09802083333333336,0.23037037037037034,3.244500000000002],[-0.12104166666666671,0.1814814814814815,3.2611999998092642],[-0.12104166666666671,0.1814814814814815,3.2779000000953644],[-0.12625000000000006,0.18129629629629626,3.3009000000953677],[-0.12625000000000006,0.18129629629629626,3.3112999997138957],[-0.14708333333333337,0.23444444444444448,3.327999999999996],[-0.14708333333333337,0.23444444444444448,3.3445999999046307],[-0.13208333333333327,0.2490740740740741,3.364599999904634],[-0.09833333333333331,0.25277777777777777,3.382400000095366],[-0.10739583333333336,0.29222222222222216,3.397999999999996],[-0.13614583333333338,0.3388888888888889,3.416099999904631],[-0.06416666666666669,0.33833333333333343,3.431199999809266],[-0.001145833333333357,0.3227777777777777,3.449400000095366],[0.04385416666666669,0.31074074074074065,3.4646999998092625],[0.04385416666666669,0.31074074074074065,3.4812999997138974],[0.13958333333333334,0.3574074074074074,3.494400000095368],[0.21739583333333337,0.3772222222222223,3.5111999998092642],[0.28927083333333337,0.32944444444444443,3.527799999713899],[0.3289583333333333,0.26296296296296295,3.5444999999999993],[0.3529166666666666,0.22962962962962963,3.5652999997138934],[0.3519791666666668,0.2124074074074075,3.580699999809262],[0.3568749999999999,0.19296296296296306,3.5951999998092674],[0.28125,0.20037037037037045,3.6112999997139],[0.24322916666666666,0.19388888888888897,3.6340999999046346],[0.24322916666666666,0.19388888888888897,3.644599999904635],[0.221875,0.20796296296296288,3.661299999713897],[0.17312500000000006,0.18888888888888888,3.677900000095363],[0.1428124999999999,0.18888888888888888,3.6980000000000004],[0.14052083333333343,0.22555555555555548,3.712599999904633],[0.14375,0.26074074074074066,3.727799999713895],[0.1330208333333334,0.3025925925925925,3.7445999999046293],[0.17218749999999997,0.32259259259259265,3.76559999990463],[0.2267708333333334,0.32685185185185184,3.7811999998092674],[0.33541666666666664,0.3116666666666666,3.7957999997139],[0.3890625,0.30944444444444447,3.8124000000953657],[0.41822916666666665,0.30185185185185187,3.830900000095369],[0.4314583333333334,0.3037037037037037,3.8456999998092627],[0.4413541666666667,0.28129629629629627,3.8644999999999996],[0.48406250000000006,0.21592592592592597,3.880900000095366],[0.46760416666666677,0.22370370370370363,3.895299999713899],[0.46145833333333336,0.22444444444444453,3.9110999999046285],[0.4721874999999999,0.20388888888888893,3.9276999998092634],[0.4666666666666667,0.2,3.9444000000953636],[0.42552083333333335,0.19425925925925921,3.961999999999996],[0.4301041666666668,0.16296296296296298,3.9827999997138974],[0.47979166666666656,0.07611111111111116,3.9985],[0.48166666666666674,0.055000000000000084,4.015199999809262],[0.5037499999999999,0.04000000000000004,4.029299999713899],[0.45499999999999996,0.07222222222222222,4.048199999809263],[0.4799999999999999,0.04462962962962967,4.065900000095368],[0.4865624999999999,-0.007777777777777862,4.081499999999998],[0.47625000000000006,-0.03888888888888889,4.099499999999999],[0.4505208333333333,-0.11314814814814819,4.114900000095368],[0.40635416666666657,-0.1661111111111111,4.128799999713898],[0.3366666666666667,-0.18907407407407412,4.145400000095364],[0.24770833333333328,-0.17518518518518522,4.164999999999999],[0.2224999999999999,-0.22148148148148153,4.181599999904634],[0.1803124999999999,-0.2638888888888889,4.197299999713898],[0.17999999999999997,-0.30648148148148147,4.215400000095364],[0.14708333333333337,-0.35351851851851845,4.232099999904634],[0.1359375,-0.40611111111111114,4.248599999904634],[0.14447916666666671,-0.43944444444444447,4.270400000095364],[0.14447916666666671,-0.43944444444444447,4.277799999713899],[0.1578125,-0.4087037037037037,4.294499999999999],[0.17114583333333327,-0.377962962962963,4.311099999904634],[0.190625,-0.3925925925925926,4.331400000095364],[0.20572916666666666,-0.37333333333333335,4.365699999809266],[0.20572916666666666,-0.37333333333333335,4.373199999809266],[0.21541666666666662,-0.3698148148148148,4.3807999997138936],[0.2265625,-0.3638888888888889,4.395499999999998],[0.2412499999999999,-0.3588888888888889,4.411499999999997],[0.2534374999999999,-0.3918518518518519,4.4312999997139],[0.2616666666666667,-0.39814814814814814,4.448299999713896],[0.2546875,-0.37166666666666665,4.465099999904631],[0.23291666666666658,-0.33259259259259266,4.483599999904634],[0.23291666666666658,-0.33259259259259266,4.494599999904629],[0.22822916666666657,-0.33296296296296296,4.51109999990463],[0.23364583333333327,-0.2690740740740741,4.527999999999999],[0.22520833333333337,-0.24981481481481477,4.549099999904634],[0.21416666666666656,-0.22333333333333338,4.5645000000000024],[0.21416666666666656,-0.22333333333333338,4.577699999809262],[0.20416666666666666,-0.21814814814814817,4.594400000095369],[0.18270833333333342,-0.23870370370370367,4.611099999904631],[0.17916666666666667,-0.21666666666666667,4.628099999904634],[0.17625000000000005,-0.19092592592592597,4.6444000000953665],[0.19604166666666673,-0.17703703703703708,4.661599999904631],[0.24208333333333343,-0.19759259259259257,4.680900000095363],[0.24208333333333343,-0.19759259259259257,4.698],[0.2585416666666667,-0.19500000000000003,4.715099999904631],[0.24364583333333342,-0.1911111111111111,4.7316999998092655],[0.23166666666666677,-0.13907407407407413,4.747599999904629],[0.22218749999999995,-0.0801851851851852,4.763900000095369],[0.21343750000000009,0.03129629629629625,4.780599999904631],[0.21343750000000009,0.03129629629629625,4.794400000095365],[0.2118750000000001,0.07277777777777769,4.811099999904634],[0.20270833333333324,0.14444444444444443,4.8311999998092645],[0.20572916666666666,0.19648148148148153,4.848699999809263],[0.1851041666666667,0.2192592592592592,4.862599999904631],[0.14093749999999997,0.18722222222222226,4.877799999713893],[0.1258333333333333,0.20666666666666672,4.8944000000953665],[0.146875,0.16777777777777783,4.9110999999046285],[0.17572916666666671,0.09648148148148153,4.927699999809263],[0.18312499999999995,0.02629629629629638,4.944499999999998],[0.190625,-0.07240740740740745,4.961099999904633],[0.18406250000000005,-0.08555555555555554,4.977799999713895],[0.18916666666666657,-0.11481481481481481,4.994500000000002],[0.1820833333333333,-0.12444444444444443,5.01109999990463],[0.18739583333333343,-0.18907407407407412,5.027699999809265],[0.21916666666666676,-0.17407407407407408,5.048900000095365],[0.23333333333333334,-0.18259259259259264,5.064799999713898],[0.22364583333333338,-0.15648148148148147,5.078799999713894],[0.21291666666666675,-0.1255555555555556,5.094400000095369],[0.22822916666666657,-0.127962962962963,5.114599999904634],[0.22791666666666663,-0.16111111111111112,5.1292999997138935],[0.23083333333333325,-0.20333333333333337,5.144599999904635],[0.22125000000000009,-0.23962962962962958,5.16590000009537],[0.225,-0.28962962962962957,5.181699999809261],[0.21281249999999996,-0.29555555555555557,5.205299999713894],[0.21281249999999996,-0.29555555555555557,5.212799999713894],[0.19791666666666666,-0.31351851851851853,5.231499999999997],[0.17999999999999997,-0.3285185185185185,5.250699999809264],[0.17999999999999997,-0.3285185185185185,5.261799999713894],[0.1716666666666666,-0.3866666666666667,5.2819999999999965],[0.1716666666666666,-0.3866666666666667,5.294699999809261],[0.13791666666666677,-0.38796296296296295,5.311500000000002],[0.13447916666666657,-0.38055555555555554,5.332699999809265],[0.13447916666666657,-0.38055555555555554,5.344400000095369],[0.12229166666666676,-0.3509259259259259,5.361099999904631],[0.12708333333333333,-0.34759259259259256,5.3781999998092616],[0.12708333333333333,-0.34759259259259256,5.3944000000953665],[0.1365624999999999,-0.3809259259259259,5.411000000000001],[0.13895833333333343,-0.37703703703703706,5.4280999999046315],[0.14260416666666675,-0.37759259259259254,5.444499999999998],[0.1484375,-0.37703703703703706,5.462499999999999],[0.15833333333333333,-0.3911111111111111,5.477900000095367],[0.15614583333333343,-0.37222222222222223,5.494699999809264],[0.19333333333333325,-0.4166666666666667,5.511199999809264],[0.1772916666666667,-0.3987037037037037,5.527799999713899],[0.18239583333333323,-0.36314814814814816,5.544400000095365],[0.1681250000000001,-0.305,5.5667999997138935],[0.1681250000000001,-0.305,5.577799999713896],[0.1040625000000001,-0.21129629629629634,5.594400000095369],[0.07604166666666666,-0.13648148148148145,5.611400000095365],[0.04677083333333331,-0.05722222222222218,5.628],[0.0359375,0.016111111111111194,5.645499999999998],[0.02510416666666669,0.08944444444444435,5.6655000000000015],[0.04104166666666664,0.2735185185185186,5.681199999809266],[0.04572916666666664,0.459074074074074,5.695099999904635],[0.09541666666666657,0.5937037037037037,5.7109999999999985],[0.09541666666666657,0.5937037037037037,5.727699999809261],[0.14656250000000004,0.7183333333333333,5.744400000095368]]","[0.0001999998092614419,0.05059999990463382,0.061199999809261385,0.07790000009536868,0.09449999999999648,0.1144999999999996,0.12829999971389583,0.14440000009536647,0.16109999990462853,0.1777999997138977,0.19440000009536362,0.21129999971389424,0.22779999971389486,0.24509999990463172,0.2611999998092642,0.2779000000953644,0.2975999999046337,0.3110999999046342,0.3315999999046326,0.3474000000953694,0.36429999971390004,0.3814999999999955,0.394599999904635,0.4114000000953695,0.4321999998092636,0.4484999999999957,0.4661999998092625,0.4827999997138974,0.49809999990463183,0.5122999997138962,0.5276999998092649,0.544400000095365,0.5610999999046342,0.5777999997138963,0.5974000000953694,0.6144000000953653,0.6280999999046344,0.6445000000000007,0.665699999809263,0.6824000000953632,0.6980000000000004,0.7164000000953692,0.7312999997138974,0.7512999997138934,0.7612999997138985,0.7824000000953646,0.7945999999046336,0.8112999997138957,0.8325999999046303,0.8500000000000014,0.8721999998092613,0.8791999998092663,0.898299999713899,0.9155000000000015,0.9320000000000022,0.9521999998092667,0.9612999997138942,0.9780000000000015,0.9946999998092636,1.0111999998092642,1.0277999997138991,1.0444999999999993,1.0616999998092638,1.082099999904635,1.1004000000953695,1.1112999997139,1.1282999997138958,1.1537999997138968,1.1629000000953695,1.1781999998092658,1.1959000000953637,1.218599999904633,1.2280000000000015,1.2446999998092636,1.272199999809267,1.2864000000953695,1.2959999999999994,1.3116999998092638,1.333199999809267,1.3444999999999965,1.3612999997139,1.3780000000000001,1.3984999999999985,1.4144000000953696,1.4282999997139,1.4445999999046322,1.4644000000953667,1.478199999809263,1.4945999999046293,1.517400000095364,1.533299999713897,1.5446999998092608,1.5610999999046342,1.5812999997138988,1.5944999999999965,1.6110999999046314,1.6307999997138936,1.645699999809267,1.6636999998092676,1.6780999999046315,1.6969000000953685,1.711199999809267,1.7309000000953674,1.7475999999046294,1.7637999997138962,1.7787999997138968,1.7981999998092633,1.8124000000953657,1.8280999999046301,1.8445999999046307,1.8651999998092634,1.8825000000000003,1.8979999999999961,1.9110999999046285,1.9291999998092635,1.944499999999998,1.961199999809267,1.9777999997138949,1.9954999999999998,2.0120000000000005,2.0315999999046284,2.04840000009537,2.0640999999046343,2.0825999999046303,2.0979000000953647,2.114599999904634,2.130900000095366,2.144599999904635,2.1610999999046285,2.180900000095363,2.194499999999998,2.211199999809267,2.231199999809263,2.2490000000000023,2.26109999990463,2.2827999997138946,2.2959999999999994,2.311099999904634,2.327699999809262,2.3537999997138996,2.361400000095365,2.377900000095366,2.3976999998092623,2.412799999713897,2.429699999809266,2.4484999999999957,2.461099999904633,2.4780999999046287,2.4971999998092613,2.511499999999998,2.5279999999999987,2.5501999998092657,2.5611999998092614,2.577999999999996,2.600900000095365,2.6111999998092656,2.628,2.644900000095369,2.6650999999046334,2.682299999713898,2.6990999999046323,2.716299999713897,2.7324000000953674,2.7530999999046344,2.76109999990463,2.777799999713899,2.797799999713895,2.8151999998092663,2.8279000000953687,2.846199999809265,2.8611999998092656,2.8777999997138934,2.8944000000953665,2.9119000000953648,2.9354000000953633,2.944599999904632,2.9612999997138942,2.981199999809263,3.001900000095368,3.0112999997138985,3.028099999904633,3.0449000000953674,3.0671999998092616,3.077699999809262,3.094699999809265,3.1115999999046338,3.13309999990463,3.1444000000953665,3.161199999809263,3.1776999998092634,3.194499999999998,3.211099999904633,3.227799999713895,3.244500000000002,3.2611999998092642,3.2779000000953644,3.3009000000953677,3.3112999997138957,3.327999999999996,3.3445999999046307,3.364599999904634,3.382400000095366,3.397999999999996,3.416099999904631,3.431199999809266,3.449400000095366,3.4646999998092625,3.4812999997138974,3.494400000095368,3.5111999998092642,3.527799999713899,3.5444999999999993,3.5652999997138934,3.580699999809262,3.5951999998092674,3.6112999997139,3.6340999999046346,3.644599999904635,3.661299999713897,3.677900000095363,3.6980000000000004,3.712599999904633,3.727799999713895,3.7445999999046293,3.76559999990463,3.7811999998092674,3.7957999997139,3.8124000000953657,3.830900000095369,3.8456999998092627,3.8644999999999996,3.880900000095366,3.895299999713899,3.9110999999046285,3.9276999998092634,3.9444000000953636,3.961999999999996,3.9827999997138974,3.9985,4.015199999809262,4.029299999713899,4.048199999809263,4.065900000095368,4.081499999999998,4.099499999999999,4.114900000095368,4.128799999713898,4.145400000095364,4.164999999999999,4.181599999904634,4.197299999713898,4.215400000095364,4.232099999904634,4.248599999904634,4.270400000095364,4.277799999713899,4.294499999999999,4.311099999904634,4.331400000095364,4.365699999809266,4.373199999809266,4.3807999997138936,4.395499999999998,4.411499999999997,4.4312999997139,4.448299999713896,4.465099999904631,4.483599999904634,4.494599999904629,4.51109999990463,4.527999999999999,4.549099999904634,4.5645000000000024,4.577699999809262,4.594400000095369,4.611099999904631,4.628099999904634,4.6444000000953665,4.661599999904631,4.680900000095363,4.698,4.715099999904631,4.7316999998092655,4.747599999904629,4.763900000095369,4.780599999904631,4.794400000095365,4.811099999904634,4.8311999998092645,4.848699999809263,4.862599999904631,4.877799999713893,4.8944000000953665,4.9110999999046285,4.927699999809263,4.944499999999998,4.961099999904633,4.977799999713895,4.994500000000002,5.01109999990463,5.027699999809265,5.048900000095365,5.064799999713898,5.078799999713894,5.094400000095369,5.114599999904634,5.1292999997138935,5.144599999904635,5.16590000009537,5.181699999809261,5.205299999713894,5.212799999713894,5.231499999999997,5.250699999809264,5.261799999713894,5.2819999999999965,5.294699999809261,5.311500000000002,5.332699999809265,5.344400000095369,5.361099999904631,5.3781999998092616,5.3944000000953665,5.411000000000001,5.4280999999046315,5.444499999999998,5.462499999999999,5.477900000095367,5.494699999809264,5.511199999809264,5.527799999713899,5.544400000095365,5.5667999997138935,5.577799999713896,5.594400000095369,5.611400000095365,5.628,5.645499999999998,5.6655000000000015,5.681199999809266,5.695099999904635,5.7109999999999985,5.727699999809261,5.744400000095368]","[1732079223189,1732079223230,1732079223241,1732079223257,1732079223274,1732079223294,1732079223308,1732079223324,1732079223341,1732079223357,1732079223374,1732079223391,1732079223407,1732079223425,1732079223441,1732079223457,1732079223477,1732079223491,1732079223511,1732079223527,1732079223544,1732079223561,1732079223574,1732079223591,1732079223612,1732079223628,1732079223646,1732079223662,1732079223678,1732079223692,1732079223707,1732079223724,1732079223741,1732079223757,1732079223777,1732079223794,1732079223808,1732079223824,1732079223845,1732079223862,1732079223877,1732079223896,1732079223911,1732079223931,1732079223941,1732079223962,1732079223974,1732079223991,1732079224012,1732079224029,1732079224052,1732079224059,1732079224078,1732079224095,1732079224112,1732079224132,1732079224141,1732079224158,1732079224174,1732079224191,1732079224207,1732079224224,1732079224241,1732079224262,1732079224280,1732079224291,1732079224308,1732079224333,1732079224342,1732079224358,1732079224375,1732079224398,1732079224408,1732079224424,1732079224452,1732079224466,1732079224476,1732079224491,1732079224513,1732079224524,1732079224541,1732079224558,1732079224578,1732079224594,1732079224608,1732079224624,1732079224644,1732079224658,1732079224674,1732079224697,1732079224713,1732079224724,1732079224741,1732079224761,1732079224774,1732079224791,1732079224810,1732079224825,1732079224843,1732079224858,1732079224876,1732079224891,1732079224910,1732079224927,1732079224943,1732079224958,1732079224978,1732079224992,1732079225008,1732079225024,1732079225045,1732079225062,1732079225078,1732079225091,1732079225109,1732079225124,1732079225141,1732079225157,1732079225175,1732079225192,1732079225211,1732079225228,1732079225244,1732079225262,1732079225277,1732079225294,1732079225310,1732079225324,1732079225341,1732079225360,1732079225374,1732079225391,1732079225411,1732079225429,1732079225441,1732079225462,1732079225476,1732079225491,1732079225507,1732079225533,1732079225541,1732079225557,1732079225577,1732079225592,1732079225609,1732079225628,1732079225641,1732079225658,1732079225677,1732079225691,1732079225708,1732079225730,1732079225741,1732079225758,1732079225780,1732079225791,1732079225807,1732079225824,1732079225845,1732079225862,1732079225879,1732079225896,1732079225912,1732079225933,1732079225941,1732079225957,1732079225977,1732079225995,1732079226007,1732079226026,1732079226041,1732079226057,1732079226074,1732079226091,1732079226115,1732079226124,1732079226141,1732079226161,1732079226181,1732079226191,1732079226208,1732079226224,1732079226247,1732079226257,1732079226274,1732079226291,1732079226313,1732079226324,1732079226341,1732079226357,1732079226374,1732079226391,1732079226407,1732079226424,1732079226441,1732079226457,1732079226480,1732079226491,1732079226508,1732079226524,1732079226544,1732079226562,1732079226578,1732079226596,1732079226611,1732079226629,1732079226644,1732079226661,1732079226674,1732079226691,1732079226707,1732079226724,1732079226745,1732079226760,1732079226775,1732079226791,1732079226814,1732079226824,1732079226841,1732079226857,1732079226878,1732079226892,1732079226907,1732079226924,1732079226945,1732079226961,1732079226975,1732079226992,1732079227010,1732079227025,1732079227044,1732079227060,1732079227075,1732079227091,1732079227107,1732079227124,1732079227142,1732079227162,1732079227178,1732079227195,1732079227209,1732079227228,1732079227245,1732079227261,1732079227279,1732079227294,1732079227308,1732079227325,1732079227345,1732079227361,1732079227377,1732079227395,1732079227412,1732079227428,1732079227450,1732079227457,1732079227474,1732079227491,1732079227511,1732079227545,1732079227553,1732079227560,1732079227575,1732079227591,1732079227611,1732079227628,1732079227645,1732079227663,1732079227674,1732079227691,1732079227707,1732079227729,1732079227744,1732079227757,1732079227774,1732079227791,1732079227808,1732079227824,1732079227841,1732079227860,1732079227878,1732079227895,1732079227911,1732079227927,1732079227943,1732079227960,1732079227974,1732079227991,1732079228011,1732079228028,1732079228042,1732079228057,1732079228074,1732079228091,1732079228107,1732079228124,1732079228141,1732079228157,1732079228174,1732079228191,1732079228207,1732079228228,1732079228244,1732079228258,1732079228274,1732079228294,1732079228309,1732079228324,1732079228345,1732079228361,1732079228385,1732079228392,1732079228411,1732079228430,1732079228441,1732079228462,1732079228474,1732079228491,1732079228512,1732079228524,1732079228541,1732079228558,1732079228574,1732079228591,1732079228608,1732079228624,1732079228642,1732079228657,1732079228674,1732079228691,1732079228707,1732079228724,1732079228746,1732079228757,1732079228774,1732079228791,1732079228808,1732079228825,1732079228845,1732079228861,1732079228875,1732079228891,1732079228907,1732079228924]","[[1163.5,532.3],[1163.5,532.3],[1159.1,533.7],[1143.8,545.6],[1128.5,557.5],[1108.7,586.7],[1093.4,593.3],[1078.7,588],[1074.6,586.7],[1055.9,594.9],[1022,602.9],[990.9,603.3],[959.9,599.2],[963.4,584.4],[963.4,584.4],[957.4,551.2],[954.9,533.1],[954.9,533.1],[952.4,515],[962.7,505.4],[963.9,500.7],[963.9,500.7],[991.1,494.4],[991.1,494.4],[1023.9,504.8],[1057.9,518.2],[1100.3,539.4],[1123.4,541.5],[1158.7,555.7],[1189.1,561.8],[1213.4,575.3],[1230.4,570.3],[1253.2,566.1],[1251.4,559.1],[1258.6,557.1],[1263.7,537.6],[1277.4,517.4],[1297.5,513.1],[1326.5,493.3],[1316.2,502.4],[1324.8,487.4],[1343.8,482.1],[1348.4,461.3],[1379.1,440.9],[1379.1,440.9],[1400.8,410.3],[1400.8,410.3],[1408.4,416.7],[1397.9,417.1],[1391.9,396.7],[1374.9,395],[1374.9,395],[1392.1,359.8],[1403.1,343.8],[1406.7,329.7],[1423.2,335.4],[1423.2,335.4],[1405.4,322.9],[1403.8,330],[1409.7,312.2],[1423.3,330.5],[1424.5,366.5],[1430.7,415.4],[1439,466.5],[1440.2,527.8],[1440.2,527.8],[1424.2,547.1],[1398.8,557.3],[1398.8,557.3],[1390.8,581.3],[1363.2,601.2],[1344.4,614.4],[1344.4,614.4],[1331.1,582.9],[1327,554.9],[1327,554.9],[1308.5,530.4],[1288,484.5],[1268,425.9],[1268,425.9],[1259.5,416.2],[1260.3,412.1],[1264.7,414.8],[1258.5,393.9],[1253.5,382.7],[1247,381.3],[1226.7,378.8],[1212.3,363.2],[1203.7,364.1],[1198.4,373.4],[1198.4,373.4],[1184.5,388],[1172.3,398.6],[1147.3,406.4],[1134,437.9],[1120.8,462.3],[1122.1,490],[1107.9,494.9],[1096.6,499.6],[1082.7,518.9],[1066.5,538.5],[1058.3,523.2],[1052.9,497.9],[1064.4,483.1],[1073.7,491.7],[1075.2,490.2],[1081.4,477.3],[1106.5,506.4],[1132.1,538.1],[1152.9,553.5],[1169.7,555],[1180.9,588.7],[1188.9,611.6],[1180.5,632.3],[1197,622.6],[1217.7,626.2],[1224.9,641.1],[1229.9,622.2],[1223.5,611.9],[1225.3,611.8],[1230.1,616.9],[1233.6,600.8],[1237.4,608.7],[1251.1,613.2],[1234.1,629.7],[1216.2,646.3],[1190.4,665.2],[1173.4,692.3],[1167.3,708.2],[1156.1,719.5],[1144.3,732.9],[1144.3,732.9],[1143.1,751],[1141.2,765.6],[1141.2,765.6],[1135,768],[1135,768],[1146.7,745.1],[1140.1,731.1],[1133.5,717.1],[1133.5,717.1],[1131,731.3],[1117.8,747.1],[1099.7,749.8],[1082.2,750.4],[1082.2,750.4],[1082.2,747.7],[1085.3,762.9],[1069.1,770.3],[1054.2,789.3],[1058.5,799.3],[1067.6,801.6],[1067.6,801.6],[1068.1,795.7],[1078.4,804],[1078.4,804],[1093.2,804.6],[1093.2,804.6],[1116.7,798.7],[1109.2,812.4],[1086.1,802.9],[1076.2,808.5],[1052.6,802.3],[1029.9,806.8],[1029.9,806.8],[1002.4,819],[980,824.7],[980,824.7],[957.1,811.5],[898.9,811.9],[898.9,811.9],[827.4,816],[778.6,806.3],[746.2,794.7],[710.6,781.1],[710.6,781.1],[727.8,787.6],[744.1,783.4],[757.2,780.9],[757.2,780.9],[746.7,746.8],[738.8,712.4],[757.8,716.9],[757.8,716.9],[782,712.4],[814.1,689.2],[856.3,674],[856.3,674],[882.3,671.8],[882.3,671.8],[874.1,668.1],[874.1,668.1],[865.9,664.4],[865.9,664.4],[843.8,638],[843.8,638],[838.8,637.9],[838.8,637.9],[818.8,666.6],[818.8,666.6],[833.2,674.5],[865.6,676.5],[856.9,697.8],[829.3,723],[898.4,722.7],[958.9,714.3],[1002.1,707.8],[1002.1,707.8],[1094,733],[1168.7,743.7],[1237.7,717.9],[1275.8,682],[1298.8,664],[1297.9,654.7],[1302.6,644.2],[1230,648.2],[1193.5,644.7],[1193.5,644.7],[1173,652.3],[1126.2,642],[1097.1,642],[1094.9,661.8],[1098,680.8],[1087.7,703.4],[1125.3,714.2],[1177.7,716.5],[1282,708.3],[1333.5,707.1],[1361.5,703],[1374.2,704],[1383.7,691.9],[1424.7,656.6],[1408.9,660.8],[1403,661.2],[1413.3,650.1],[1408,648],[1368.5,644.9],[1372.9,628],[1420.6,581.1],[1422.4,569.7],[1443.6,561.6],[1396.8,579],[1420.8,564.1],[1427.1,535.8],[1417.2,519],[1392.5,478.9],[1350.1,450.3],[1283.2,437.9],[1197.8,445.4],[1173.6,420.4],[1133.1,397.5],[1132.8,374.5],[1101.2,349.1],[1090.5,320.7],[1098.7,302.7],[1098.7,302.7],[1111.5,319.3],[1124.3,335.9],[1143,328],[1157.5,338.4],[1157.5,338.4],[1166.8,340.3],[1177.5,343.5],[1191.6,346.2],[1203.3,328.4],[1211.2,325],[1204.5,339.3],[1183.6,360.4],[1183.6,360.4],[1179.1,360.2],[1184.3,394.7],[1176.2,405.1],[1165.6,419.4],[1165.6,419.4],[1156,422.2],[1135.4,411.1],[1132,423],[1129.2,436.9],[1148.2,444.4],[1192.4,433.3],[1192.4,433.3],[1208.2,434.7],[1193.9,436.8],[1182.4,464.9],[1173.3,496.7],[1164.9,556.9],[1164.9,556.9],[1163.4,579.3],[1154.6,618],[1157.5,646.1],[1137.7,658.4],[1095.3,641.1],[1080.8,651.6],[1101,630.6],[1128.7,592.1],[1135.8,554.2],[1143,500.9],[1136.7,493.8],[1141.6,478],[1134.8,472.8],[1139.9,437.9],[1170.4,446],[1184,441.4],[1174.7,455.5],[1164.4,472.2],[1179.1,470.9],[1178.8,453],[1181.6,430.2],[1172.4,410.6],[1176,383.6],[1164.3,380.4],[1164.3,380.4],[1150,370.7],[1132.8,362.6],[1132.8,362.6],[1124.8,331.2],[1124.8,331.2],[1092.4,330.5],[1089.1,334.5],[1089.1,334.5],[1077.4,350.5],[1082,352.3],[1082,352.3],[1091.1,334.3],[1093.4,336.4],[1096.9,336.1],[1102.5,336.4],[1112,328.8],[1109.9,339],[1145.6,315],[1130.2,324.7],[1135.1,343.9],[1121.4,375.3],[1121.4,375.3],[1059.9,425.9],[1033,466.3],[1004.9,509.1],[994.5,548.7],[984.1,588.3],[999.4,687.7],[1003.9,787.9],[1051.6,860.6],[1051.6,860.6],[1100.7,927.9]]","[-0.142,0.42599999999999993]","[0.142,0.42599999999999993]","[0.42599999999999993,0.42599999999999993]","[-0.42599999999999993,-0.142]","[-0.42599999999999993,0.142]","[-0.42599999999999993,-0.42599999999999993]","[-0.142,-0.142]","[0.142,-0.142]","[0.42599999999999993,-0.142]","[-0.142,0.142]","[0.142,0.142]","[0.42599999999999993,0.142]","[-0.142,-0.42599999999999993]","[0.142,-0.42599999999999993]","[0.42599999999999993,-0.42599999999999993]",0,0,0,0,1,4,Laptop,25,20,8,1,60,4,1,60,3
