inst1_resp.keys,inst1_resp.rt,calibrationMouse.x,calibrationMouse.y,calibrationMouse.leftButton,calibrationMouse.midButton,calibrationMouse.rightButton,calibrationClick.x,calibrationClick.y,calibrationClick.leftButton,calibrationClick.midButton,calibrationClick.rightButton,calibrationClick.clicked_name,trialsc.thisRepN,trialsc.thisTrialN,trialsc.thisN,trialsc.thisIndex,trialsc.ran,calibration_x,calibration_y,participant,session,date,expName,psychopyVersion,OS,frameRate,ScreenRes_pixels,Camera_pixels,mouse_2.x,mouse_2.y,mouse_2.leftButton,mouse_2.midButton,mouse_2.rightButton,mouse_2.time,mouse_2.clicked_name,mouse.x,mouse.y,mouse.leftButton,mouse.midButton,mouse.rightButton,mouse.time,mouse.clicked_name,Choice,Trial,TrialDuration,MOUSE_GAZE,ET_GAZE,ET_GAZE_x_T,time,unixTime,ET_GAZE_NF,Loc_Bus_label,Loc_Metro_label,Loc_RH_label,Loc_Cost_label,Loc_Travel_label,Loc_Comfort_label,Loc_Bus_cost,Loc_Metro_cost,Loc_RH_cost,Loc_Bus_travel,Loc_Metro_travel,Loc_RH_travel,Loc_Bus_comfort,Loc_Metro_comfort,Loc_RH_comfort,trials.thisRepN,trials.thisTrialN,trials.thisN,trials.thisIndex,trials.ran,Block,Device,RH_cost,RH_travel_time,RH_Comfort,metro_cost,metro_travel_time,metro_Comfort,Bus_cost,Bus_travel_time,Bus_Comfort
space,7.2215,0.059375,-0.164814815,1,0,0,-0.327083333,0.005555556,1,0,0,calibration_square,0,0,0,6,1,-0.33,0,25,001,2024-11-20_13h01.36.739,Attention_exp_legacy,2023.1.0,Win32,56.49717514,,,,,,,,,,,,,,,,,,,,,,,,,,,,,,,,,,,,,,,,,,,,,,,,,,,,,,,,
,,,,,,,-0.323958333,0.666666667,1,0,0,calibration_square,0,1,1,8,1,-0.33,0.67,25,001,2024-11-20_13h01.36.739,Attention_exp_legacy,2023.1.0,Win32,56.49717514,,,,,,,,,,,,,,,,,,,,,,,,,,,,,,,,,,,,,,,,,,,,,,,,,,,,,,,,
,,,,,,,-0.002083333,-0.003703704,1,0,0,calibration_square,0,2,2,11,1,0,0,25,001,2024-11-20_13h01.36.739,Attention_exp_legacy,2023.1.0,Win32,56.49717514,,,,,,,,,,,,,,,,,,,,,,,,,,,,,,,,,,,,,,,,,,,,,,,,,,,,,,,,
,,,,,,,-0.332291667,-0.67962963,1,0,0,calibration_square,0,3,3,4,1,-0.33,-0.67,25,001,2024-11-20_13h01.36.739,Attention_exp_legacy,2023.1.0,Win32,56.49717514,,,,,,,,,,,,,,,,,,,,,,,,,,,,,,,,,,,,,,,,,,,,,,,,,,,,,,,,
,,,,,,,-0.007291667,0.662962963,1,0,0,calibration_square,0,4,4,13,1,0,0.67,25,001,2024-11-20_13h01.36.739,Attention_exp_legacy,2023.1.0,Win32,56.49717514,,,,,,,,,,,,,,,,,,,,,,,,,,,,,,,,,,,,,,,,,,,,,,,,,,,,,,,,
,,,,,,,-0.673958333,-0.668518519,1,0,0,calibration_square,0,5,5,0,1,-0.67,-0.67,25,001,2024-11-20_13h01.36.739,Attention_exp_legacy,2023.1.0,Win32,56.49717514,,,,,,,,,,,,,,,,,,,,,,,,,,,,,,,,,,,,,,,,,,,,,,,,,,,,,,,,
,,,,,,,0.34375,0.011111111,1,0,0,,0,6,6,16,1,0.33,0,25,001,2024-11-20_13h01.36.739,Attention_exp_legacy,2023.1.0,Win32,56.49717514,,,,,,,,,,,,,,,,,,,,,,,,,,,,,,,,,,,,,,,,,,,,,,,,,,,,,,,,
,,,,,,,0.328125,0.331481481,1,0,0,calibration_square,0,7,7,17,1,0.33,0.33,25,001,2024-11-20_13h01.36.739,Attention_exp_legacy,2023.1.0,Win32,56.49717514,,,,,,,,,,,,,,,,,,,,,,,,,,,,,,,,,,,,,,,,,,,,,,,,,,,,,,,,
,,,,,,,0.670833333,-0.67962963,1,0,0,calibration_square,0,8,8,20,1,0.67,-0.67,25,001,2024-11-20_13h01.36.739,Attention_exp_legacy,2023.1.0,Win32,56.49717514,,,,,,,,,,,,,,,,,,,,,,,,,,,,,,,,,,,,,,,,,,,,,,,,,,,,,,,,
,,,,,,,-0.647916667,0.32037037,1,0,0,,0,9,9,3,1,-0.67,0.33,25,001,2024-11-20_13h01.36.739,Attention_exp_legacy,2023.1.0,Win32,56.49717514,,,,,,,,,,,,,,,,,,,,,,,,,,,,,,,,,,,,,,,,,,,,,,,,,,,,,,,,
,,,,,,,0.344791667,-0.661111111,1,0,0,,0,10,10,14,1,0.33,-0.67,25,001,2024-11-20_13h01.36.739,Attention_exp_legacy,2023.1.0,Win32,56.49717514,,,,,,,,,,,,,,,,,,,,,,,,,,,,,,,,,,,,,,,,,,,,,,,,,,,,,,,,
,,,,,,,-0.684375,-0.348148148,1,0,0,,0,11,11,1,1,-0.67,-0.33,25,001,2024-11-20_13h01.36.739,Attention_exp_legacy,2023.1.0,Win32,56.49717514,,,,,,,,,,,,,,,,,,,,,,,,,,,,,,,,,,,,,,,,,,,,,,,,,,,,,,,,
,,,,,,,0.005208333,-0.683333333,1,0,0,,0,12,12,9,1,0,-0.67,25,001,2024-11-20_13h01.36.739,Attention_exp_legacy,2023.1.0,Win32,56.49717514,,,,,,,,,,,,,,,,,,,,,,,,,,,,,,,,,,,,,,,,,,,,,,,,,,,,,,,,
,,,,,,,-0.339583333,-0.346296296,1,0,0,,0,13,13,5,1,-0.33,-0.33,25,001,2024-11-20_13h01.36.739,Attention_exp_legacy,2023.1.0,Win32,56.49717514,,,,,,,,,,,,,,,,,,,,,,,,,,,,,,,,,,,,,,,,,,,,,,,,,,,,,,,,
,,,,,,,-0.333333333,0.324074074,1,0,0,calibration_square,0,14,14,7,1,-0.33,0.33,25,001,2024-11-20_13h01.36.739,Attention_exp_legacy,2023.1.0,Win32,56.49717514,,,,,,,,,,,,,,,,,,,,,,,,,,,,,,,,,,,,,,,,,,,,,,,,,,,,,,,,
,,,,,,,0.333333333,-0.325925926,1,0,0,calibration_square,0,15,15,15,1,0.33,-0.33,25,001,2024-11-20_13h01.36.739,Attention_exp_legacy,2023.1.0,Win32,56.49717514,,,,,,,,,,,,,,,,,,,,,,,,,,,,,,,,,,,,,,,,,,,,,,,,,,,,,,,,
,,,,,,,-0.0125,-0.340740741,1,0,0,,0,16,16,10,1,0,-0.33,25,001,2024-11-20_13h01.36.739,Attention_exp_legacy,2023.1.0,Win32,56.49717514,,,,,,,,,,,,,,,,,,,,,,,,,,,,,,,,,,,,,,,,,,,,,,,,,,,,,,,,
,,,,,,,0.329166667,0.694444444,1,0,0,,0,17,17,18,1,0.33,0.67,25,001,2024-11-20_13h01.36.739,Attention_exp_legacy,2023.1.0,Win32,56.49717514,,,,,,,,,,,,,,,,,,,,,,,,,,,,,,,,,,,,,,,,,,,,,,,,,,,,,,,,
,,,,,,,-0.010416667,0.32962963,1,0,0,,0,18,18,12,1,0,0.33,25,001,2024-11-20_13h01.36.739,Attention_exp_legacy,2023.1.0,Win32,56.49717514,,,,,,,,,,,,,,,,,,,,,,,,,,,,,,,,,,,,,,,,,,,,,,,,,,,,,,,,
,,,,,,,0.689583333,0.698148148,1,0,0,,0,19,19,19,1,0.67,0.67,25,001,2024-11-20_13h01.36.739,Attention_exp_legacy,2023.1.0,Win32,56.49717514,,,,,,,,,,,,,,,,,,,,,,,,,,,,,,,,,,,,,,,,,,,,,,,,,,,,,,,,
,,,,,,,-0.672916667,0.014814815,1,0,0,,0,20,20,2,1,-0.67,0,25,001,2024-11-20_13h01.36.739,Attention_exp_legacy,2023.1.0,Win32,56.49717514,,,,,,,,,,,,,,,,,,,,,,,,,,,,,,,,,,,,,,,,,,,,,,,,,,,,,,,,
,,,,,,,,,,,,,,,,,,,,25,001,2024-11-20_13h01.36.739,Attention_exp_legacy,2023.1.0,Win32,56.49717514,"[1920,1080]","[640,480]",[-0.0125],[-0.48333333333333334],[1],[0],[0],[1.0302999997138969],"[""StartButton""]",[-0.21041666666666667],[0.5055555555555555],[1],[0],[0],[3.0017000002860996],"[""Bus_label""]",Bus_label,1,4.0131,"[[0.12916666666666668,0.018518518518518517],[0.13125,0.016666666666666666],[0.13229166666666667,0.014814814814814815],[0.13333333333333333,0.014814814814814815],[0.13333333333333333,0.014814814814814815],[0.13333333333333333,0.014814814814814815],[0.13333333333333333,0.014814814814814815],[0.134375,0.014814814814814815],[0.134375,0.014814814814814815],[0.13541666666666666,0.012962962962962963],[0.13645833333333332,0.012962962962962963],[0.1375,0.011111111111111112],[0.1375,0.011111111111111112],[0.1375,0.011111111111111112],[0.13854166666666667,0.009259259259259259],[0.13854166666666667,0.009259259259259259],[0.140625,0.009259259259259259],[0.14479166666666668,0.012962962962962963],[0.15416666666666667,0.020370370370370372],[0.16875,0.025925925925925925],[0.1875,0.03518518518518519],[0.20625,0.044444444444444446],[0.21770833333333334,0.05],[0.21979166666666666,0.05],[0.21979166666666666,0.05],[0.22083333333333333,0.05],[0.221875,0.05],[0.22291666666666668,0.05],[0.22291666666666668,0.05],[0.22604166666666667,0.05],[0.23229166666666667,0.05],[0.23645833333333333,0.05],[0.240625,0.04814814814814815],[0.24479166666666666,0.044444444444444446],[0.24479166666666666,0.044444444444444446],[0.24479166666666666,0.04259259259259259],[0.24479166666666666,0.04259259259259259],[0.24583333333333332,0.040740740740740744],[0.24583333333333332,0.037037037037037035],[0.24583333333333332,0.03518518518518519],[0.24583333333333332,0.03148148148148148],[0.24583333333333332,0.03148148148148148],[0.24583333333333332,0.03148148148148148],[0.24583333333333332,0.03148148148148148],[0.24583333333333332,0.06666666666666667],[0.24583333333333332,0.1425925925925926],[0.24166666666666667,0.23703703703703705],[0.228125,0.34629629629629627],[0.20833333333333334,0.4444444444444444],[0.17916666666666667,0.5370370370370371],[0.13645833333333332,0.6111111111111112],[0.10520833333333333,0.65],[0.08958333333333333,0.6592592592592592],[0.08645833333333333,0.6611111111111111],[0.08645833333333333,0.6611111111111111],[0.08541666666666667,0.6592592592592592],[0.08229166666666667,0.6425925925925926],[0.08125,0.6166666666666667],[0.08020833333333334,0.6],[0.07916666666666666,0.5944444444444444],[0.07708333333333334,0.5907407407407408],[0.075,0.5851851851851851],[0.06458333333333334,0.5814814814814815],[0.04479166666666667,0.5814814814814815],[0.017708333333333333,0.5814814814814815],[-0.021875,0.5814814814814815],[-0.07291666666666667,0.5814814814814815],[-0.13854166666666667,0.5833333333333334],[-0.19583333333333333,0.5851851851851851],[-0.240625,0.5851851851851851],[-0.2552083333333333,0.5833333333333334],[-0.25729166666666664,0.5833333333333334],[-0.25729166666666664,0.5833333333333334],[-0.25729166666666664,0.5833333333333334],[-0.25729166666666664,0.5833333333333334],[-0.25729166666666664,0.5833333333333334],[-0.25729166666666664,0.5833333333333334],[-0.25729166666666664,0.5833333333333334],[-0.25729166666666664,0.5833333333333334],[-0.25729166666666664,0.5833333333333334],[-0.25729166666666664,0.5833333333333334],[-0.25729166666666664,0.5833333333333334],[-0.25729166666666664,0.5833333333333334],[-0.25729166666666664,0.5833333333333334],[-0.25729166666666664,0.5833333333333334],[-0.25729166666666664,0.5833333333333334],[-0.25729166666666664,0.5833333333333334],[-0.25729166666666664,0.5833333333333334],[-0.25729166666666664,0.5833333333333334],[-0.25833333333333336,0.5814814814814815],[-0.25833333333333336,0.5814814814814815],[-0.25416666666666665,0.5814814814814815],[-0.2520833333333333,0.5814814814814815],[-0.234375,0.5796296296296296],[-0.18541666666666667,0.5685185185185185],[-0.134375,0.5574074074074075],[-0.08541666666666667,0.5555555555555556],[-0.051041666666666666,0.5555555555555556],[-0.023958333333333335,0.5555555555555556],[-0.003125,0.5555555555555556],[0.008333333333333333,0.5555555555555556],[0.019791666666666666,0.5555555555555556],[0.022916666666666665,0.5555555555555556],[0.030208333333333334,0.5555555555555556],[0.03958333333333333,0.5555555555555556],[0.06041666666666667,0.5555555555555556],[0.075,0.5555555555555556],[0.08854166666666667,0.5555555555555556],[0.096875,0.5555555555555556],[0.103125,0.5555555555555556],[0.10625,0.5555555555555556],[0.10729166666666666,0.5555555555555556],[0.10729166666666666,0.5574074074074075],[0.10833333333333334,0.5574074074074075],[0.1125,0.5592592592592592],[0.121875,0.5611111111111111],[0.12916666666666668,0.5611111111111111],[0.14166666666666666,0.5666666666666667],[0.15729166666666666,0.5685185185185185],[0.175,0.5740740740740741],[0.18020833333333333,0.575925925925926],[0.18229166666666666,0.575925925925926],[0.18229166666666666,0.575925925925926],[0.18229166666666666,0.575925925925926],[0.18229166666666666,0.575925925925926],[0.18229166666666666,0.575925925925926],[0.18229166666666666,0.575925925925926],[0.18229166666666666,0.575925925925926],[0.18229166666666666,0.575925925925926],[0.18229166666666666,0.575925925925926],[0.18229166666666666,0.575925925925926],[0.18229166666666666,0.575925925925926],[0.18229166666666666,0.575925925925926],[0.18229166666666666,0.575925925925926],[0.17916666666666667,0.5703703703703704],[0.15625,0.5111111111111111],[0.1125,0.4203703703703704],[0.06145833333333333,0.337037037037037],[0.011458333333333333,0.2833333333333333],[-0.025,0.25925925925925924],[-0.05416666666666667,0.25925925925925924],[-0.0875,0.2740740740740741],[-0.128125,0.3111111111111111],[-0.16666666666666666,0.3611111111111111],[-0.18229166666666666,0.3814814814814815],[-0.19895833333333332,0.39444444444444443],[-0.209375,0.4],[-0.21770833333333334,0.40555555555555556],[-0.22083333333333333,0.4074074074074074],[-0.22291666666666668,0.4074074074074074],[-0.22604166666666667,0.4166666666666667],[-0.22916666666666666,0.42592592592592593],[-0.23333333333333334,0.43703703703703706],[-0.234375,0.44074074074074077],[-0.234375,0.4425925925925926],[-0.234375,0.44814814814814813],[-0.234375,0.45740740740740743],[-0.23333333333333334,0.4648148148148148],[-0.23125,0.4722222222222222],[-0.22708333333333333,0.4777777777777778],[-0.225,0.47962962962962963],[-0.221875,0.48148148148148145],[-0.221875,0.48148148148148145],[-0.221875,0.48333333333333334],[-0.22083333333333333,0.48333333333333334],[-0.21875,0.48518518518518516],[-0.21770833333333334,0.48703703703703705],[-0.215625,0.49074074074074076],[-0.21354166666666666,0.49444444444444446],[-0.2125,0.4981481481481482],[-0.2125,0.5],[-0.21145833333333333,0.5],[-0.21145833333333333,0.5],[-0.21145833333333333,0.5037037037037037],[-0.21041666666666667,0.5037037037037037],[-0.21041666666666667,0.5055555555555555],[-0.21041666666666667,0.5055555555555555],[-0.21041666666666667,0.5055555555555555],[-0.21041666666666667,0.5055555555555555],[-0.21041666666666667,0.5055555555555555],[-0.21041666666666667,0.5055555555555555],[-0.21041666666666667,0.5055555555555555],[-0.21041666666666667,0.5055555555555555],[-0.21041666666666667,0.5055555555555555],[-0.21041666666666667,0.5055555555555555],[-0.21041666666666667,0.5055555555555555],[-0.21041666666666667,0.5055555555555555],[-0.21041666666666667,0.5055555555555555],[-0.21041666666666667,0.5055555555555555],[-0.21041666666666667,0.5055555555555555],[-0.21041666666666667,0.5055555555555555],[-0.21041666666666667,0.5055555555555555],[-0.21041666666666667,0.5055555555555555],[-0.21041666666666667,0.5055555555555555],[-0.21041666666666667,0.5055555555555555],[-0.21041666666666667,0.5055555555555555],[-0.21041666666666667,0.5055555555555555],[-0.21041666666666667,0.5055555555555555],[-0.21041666666666667,0.5055555555555555],[-0.21041666666666667,0.5055555555555555],[-0.21041666666666667,0.5055555555555555],[-0.21041666666666667,0.5055555555555555],[-0.21041666666666667,0.5055555555555555],[-0.21041666666666667,0.5055555555555555],[-0.21041666666666667,0.5055555555555555],[-0.21041666666666667,0.5055555555555555],[-0.21041666666666667,0.5055555555555555],[-0.21041666666666667,0.5055555555555555],[-0.21041666666666667,0.5055555555555555],[-0.21041666666666667,0.5055555555555555],[-0.21041666666666667,0.5055555555555555],[-0.21041666666666667,0.5055555555555555],[-0.21041666666666667,0.5055555555555555],[-0.21041666666666667,0.5055555555555555],[-0.21041666666666667,0.5055555555555555],[-0.21041666666666667,0.5055555555555555],[-0.21041666666666667,0.5055555555555555],[-0.21041666666666667,0.5055555555555555],[-0.21041666666666667,0.5055555555555555],[-0.21041666666666667,0.5055555555555555],[-0.21041666666666667,0.5055555555555555],[-0.21041666666666667,0.5055555555555555],[-0.21041666666666667,0.5055555555555555],[-0.21041666666666667,0.5055555555555555],[-0.21041666666666667,0.5055555555555555],[-0.21041666666666667,0.5055555555555555],[-0.21041666666666667,0.5055555555555555],[-0.21041666666666667,0.5055555555555555],[-0.21041666666666667,0.5055555555555555],[-0.21041666666666667,0.5055555555555555],[-0.21041666666666667,0.5055555555555555],[-0.21041666666666667,0.5055555555555555],[-0.21041666666666667,0.5055555555555555],[-0.21041666666666667,0.5055555555555555],[-0.21041666666666667,0.5055555555555555],[-0.21041666666666667,0.5055555555555555],[-0.21041666666666667,0.5055555555555555],[-0.21041666666666667,0.5055555555555555],[-0.21041666666666667,0.5055555555555555],[-0.21041666666666667,0.5055555555555555]]","[[0.06947916666666672,-0.07259259259259257],[0.06947916666666672,-0.07259259259259257],[0.08083333333333324,-0.04518518518518514],[0.10833333333333334,-0.05277777777777778],[0.13583333333333342,-0.060370370370370414],[0.12770833333333323,-0.04222222222222214],[0.12052083333333338,-0.03148148148148148],[0.12062499999999995,-0.04000000000000004],[0.11729166666666657,-0.05333333333333336],[0.11729166666666657,-0.05333333333333336],[0.15114583333333323,-0.09537037037037037],[0.13510416666666672,-0.08981481481481482],[0.13208333333333327,-0.10944444444444448],[0.13208333333333327,-0.10944444444444448],[0.12281250000000009,-0.127962962962963],[0.12281250000000009,-0.127962962962963],[0.13354166666666673,-0.13574074074074077],[0.15177083333333338,-0.1331481481481481],[0.16302083333333334,-0.12999999999999998],[0.18489583333333334,-0.13537037037037042],[0.17625000000000005,-0.11314814814814819],[0.18156249999999996,-0.12037037037037036],[0.1772916666666667,-0.1],[0.20958333333333337,-0.11703703703703702],[0.22885416666666672,-0.10888888888888891],[0.23562500000000006,-0.09518518518518514],[0.23718750000000005,-0.08462962962962961],[0.23239583333333325,-0.08537037037037042],[0.24114583333333334,-0.09000000000000004],[0.24114583333333334,-0.09000000000000004],[0.23822916666666671,-0.06462962962962959],[0.2553124999999999,-0.0690740740740741],[0.26749999999999996,-0.06092592592592588],[0.28156249999999994,-0.05907407407407403],[0.2805208333333333,-0.042407407407407366],[0.27010416666666665,-0.06759259259259259],[0.2894791666666668,-0.04944444444444453],[0.2894791666666668,-0.04944444444444453],[0.28270833333333345,-0.009629629629629714],[0.30593750000000003,0.011296296296296339],[0.3072916666666667,0.013888888888888888],[0.30885416666666665,0.022592592592592678],[0.30666666666666675,0.03037037037037033],[0.3026041666666667,0.06129629629629634],[0.2852083333333333,0.08462962962962971],[0.28239583333333323,0.09833333333333337],[0.28895833333333343,0.15388888888888894],[0.28875000000000006,0.152962962962963],[0.31572916666666656,0.12166666666666676],[0.2900000000000001,0.09388888888888898],[0.2861458333333334,0.08444444444444449],[0.28187499999999993,0.005000000000000084],[0.2647916666666667,-0.046481481481481526],[0.2717708333333334,-0.11240740740740739],[0.28843750000000007,-0.16870370370370374],[0.27999999999999997,-0.20870370370370367],[0.290625,-0.24277777777777781],[0.2855208333333332,-0.29870370370370375],[0.2804166666666667,-0.35462962962962963],[0.3133333333333333,-0.362962962962963],[0.3242708333333333,-0.40055555555555555],[0.3294791666666666,-0.41740740740740734],[0.34249999999999997,-0.44518518518518513],[0.34249999999999997,-0.44518518518518513],[0.2964583333333332,-0.4475925925925926],[0.25625,-0.4777777777777778],[0.25281250000000005,-0.5272222222222221],[0.17625000000000005,-0.6025925925925926],[0.11583333333333339,-0.6135185185185186],[0.06031249999999998,-0.6164814814814814],[-0.01739583333333338,-0.6537037037037037],[-0.01739583333333338,-0.6537037037037037],[-0.04354166666666662,-0.6594444444444445],[-0.04354166666666662,-0.6594444444444445],[-0.06531250000000005,-0.6366666666666667],[-0.06531250000000005,-0.6366666666666667],[-0.11645833333333329,-0.6553703703703704],[-0.11645833333333329,-0.6553703703703704],[-0.06333333333333328,-0.6874074074074074],[-0.06333333333333328,-0.6874074074074074],[-0.06822916666666666,-0.6772222222222222],[-0.06822916666666666,-0.6772222222222222],[-0.0860416666666667,-0.6531481481481481],[-0.03781249999999995,-0.6196296296296296],[-0.02687499999999995,-0.6072222222222222],[0.018333333333333358,-0.6133333333333333],[0.030104166666666644,-0.6059259259259259],[0.04364583333333331,-0.596111111111111],[0.042604166666666644,-0.5712962962962963],[0.09479166666666666,-0.5112962962962964],[0.0109375,-0.49240740740740735],[0.011249999999999953,-0.46055555555555555],[-0.0005208333333333333,-0.3937037037037037],[0.010000000000000024,-0.33240740740740743],[0.018437500000000048,-0.3492592592592593],[-0.01270833333333338,-0.3022222222222222],[-0.0046875,-0.2657407407407407],[-0.03843749999999998,-0.255],[-0.05499999999999995,-0.2661111111111111],[-0.04552083333333338,-0.252962962962963],[0.03260416666666662,-0.21944444444444444],[0.0234375,-0.2553703703703703],[0.0234375,-0.2553703703703703],[0.013020833333333334,-0.32759259259259255],[0.027708333333333356,-0.37833333333333335],[0.044479166666666715,-0.3672222222222222],[0.06166666666666672,-0.4094444444444445],[0.08020833333333334,-0.4514814814814815],[0.08020833333333334,-0.4514814814814815],[0.09583333333333334,-0.49240740740740735],[0.13083333333333325,-0.49370370370370376],[0.12406249999999991,-0.5283333333333333],[0.1134375000000001,-0.5192592592592592],[0.1616666666666667,-0.49314814814814817],[0.21770833333333334,-0.4690740740740741],[0.21770833333333334,-0.4690740740740741],[0.1609375,-0.45],[0.17416666666666672,-0.4685185185185185],[0.18645833333333334,-0.4668518518518519],[0.1476041666666667,-0.46111111111111114],[0.1476041666666667,-0.46111111111111114],[0.1290625000000001,-0.442037037037037],[0.11427083333333338,-0.4594444444444445],[0.09093749999999995,-0.4794444444444444],[0.07145833333333323,-0.5431481481481482],[0.05020833333333338,-0.5794444444444444],[0.021145833333333287,-0.6137037037037036],[0.03864583333333336,-0.6559259259259259],[0.0125,-0.6581481481481481],[-0.02510416666666669,-0.6588888888888889],[-0.012916666666666642,-0.6638888888888889],[-0.0067708333333333336,-0.7042592592592593],[-0.02374999999999995,-0.7477777777777778],[-0.02374999999999995,-0.7477777777777778],[-0.02312500000000005,-0.7594444444444445],[-0.02312500000000005,-0.7594444444444445],[0.0003124999999999526,-0.7562962962962962],[-0.0265625,-0.7574074074074074],[-0.017916666666666713,-0.7312962962962962],[-0.024374999999999977,-0.6872222222222223],[-0.01083333333333331,-0.6485185185185185],[0.014999999999999977,-0.6288888888888889],[0.044166666666666646,-0.6192592592592592],[0.06083333333333331,-0.5983333333333334],[0.05562499999999997,-0.5366666666666667],[0.0740624999999999,-0.5029629629629631],[0.0696875000000001,-0.48407407407407405],[0.0696875000000001,-0.48407407407407405],[0.09010416666666667,-0.47537037037037033],[0.05,-0.4751851851851852],[0.049374999999999974,-0.5103703703703704],[0.013437499999999976,-0.5051851851851852],[-0.08718750000000004,-0.5083333333333333],[-0.13656250000000003,-0.4940740740740741],[-0.13656250000000003,-0.4940740740740741],[-0.20437500000000006,-0.4494444444444444],[-0.20437500000000006,-0.4494444444444444],[-0.24624999999999997,-0.43944444444444447],[-0.2989583333333333,-0.41648148148148145],[-0.37468750000000006,-0.38629629629629636],[-0.3820833333333333,-0.3338888888888889],[-0.42468750000000005,-0.3125925925925926],[-0.4875,-0.2564814814814815],[-0.47979166666666667,-0.24148148148148144],[-0.45739583333333333,-0.23259259259259263],[-0.42552083333333335,-0.27037037037037037],[-0.36875,-0.2807407407407408],[-0.3296875,-0.3024074074074074],[-0.3296875,-0.3024074074074074],[-0.3094791666666667,-0.3237037037037037],[-0.27541666666666664,-0.3559259259259259],[-0.2953125,-0.4183333333333333],[-0.25906250000000003,-0.4177777777777778],[-0.2125,-0.43425925925925923],[-0.23624999999999996,-0.4742592592592593],[-0.22822916666666668,-0.5127777777777778],[-0.2842708333333333,-0.5120370370370371],[-0.334375,-0.5157407407407407],[-0.3657291666666667,-0.5127777777777778],[-0.40593750000000006,-0.5237037037037037],[-0.42729166666666674,-0.5120370370370371],[-0.4282291666666667,-0.4962962962962963],[-0.42510416666666667,-0.5311111111111111],[-0.43781249999999994,-0.5331481481481481],[-0.42947916666666663,-0.4788888888888889],[-0.3676041666666666,-0.4377777777777777],[-0.33187500000000003,-0.4192592592592592],[-0.30406249999999996,-0.42370370370370375],[-0.2813541666666667,-0.42962962962962964],[-0.2804166666666667,-0.40703703703703703],[-0.2891666666666667,-0.4033333333333334],[-0.2891666666666667,-0.4033333333333334],[-0.31708333333333333,-0.35462962962962963],[-0.23500000000000001,-0.2844444444444445],[-0.23500000000000001,-0.2844444444444445],[-0.12885416666666671,-0.21944444444444444],[-0.12885416666666671,-0.21944444444444444],[-0.003333333333333381,-0.14962962962962964],[-0.003333333333333381,-0.14962962962962964],[0.08770833333333337,-0.07296296296296292],[0.08770833333333337,-0.07296296296296292],[0.1727083333333333,0.01314814814814819],[0.1727083333333333,0.01314814814814819],[0.23781249999999995,0.10092592592592593],[0.3189583333333334,0.18055555555555555],[0.4041666666666667,0.2479629629629629],[0.4865624999999999,0.3001851851851852],[0.5701041666666666,0.28944444444444434],[0.5368750000000001,0.2692592592592592],[0.5222916666666667,0.21481481481481482],[0.48239583333333325,0.12888888888888894],[0.46104166666666657,0.0764814814814814],[0.4602083333333333,0.0455555555555556],[0.4602083333333333,0.0455555555555556],[0.4947916666666667,-0.012407407407407492],[0.4708333333333333,-0.06296296296296296],[0.4622916666666666,-0.11518518518518517],[0.47927083333333326,-0.2418518518518519],[0.4991666666666667,-0.33259259259259266],[0.5222916666666667,-0.4027777777777778],[0.4696875000000001,-0.49425925925925923],[0.43020833333333336,-0.545],[0.37531249999999994,-0.6151851851851852],[0.3133333333333333,-0.6998148148148148],[0.2652083333333332,-0.7483333333333334],[0.24739583333333334,-0.8068518518518518],[0.22958333333333342,-0.8653703703703703],[0.2283333333333334,-0.7559259259259259],[0.23114583333333344,-0.6485185185185185],[0.2287499999999999,-0.5275925925925925],[0.26760416666666675,-0.3714814814814815],[0.29239583333333335,-0.2627777777777777],[0.3133333333333333,-0.1514814814814815],[0.34968750000000004,-0.04722222222222222],[0.37312500000000004,0.069074074074074],[0.41604166666666675,0.16666666666666666],[0.4445833333333333,0.28944444444444434],[0.4496875000000001,0.31370370370370365],[0.42979166666666657,0.35240740740740734],[0.4390625,0.3596296296296297]]","[[0.06947916666666672,-0.07259259259259257,0.00040000009536100833],[0.06947916666666672,-0.07259259259259257,0.05860000038146751],[0.08083333333333324,-0.04518518518518514,0.06290000009536101],[0.10833333333333334,-0.05277777777777778,0.07760000038146586],[0.13583333333333342,-0.060370370370370414,0.09420000028610076],[0.12770833333333323,-0.04222222222222214,0.112800000190731],[0.12052083333333338,-0.03148148148148148,0.12749999999999773],[0.12062499999999995,-0.04000000000000004,0.1473000001907323],[0.11729166666666657,-0.05333333333333336,0.16199999999999903],[0.11729166666666657,-0.05333333333333336,0.17760000038146728],[0.15114583333333323,-0.09537037037037037,0.19430000019072935],[0.13510416666666672,-0.08981481481481482,0.21370000028610292],[0.13208333333333327,-0.10944444444444448,0.22849999999999682],[0.13208333333333327,-0.10944444444444448,0.2443000001907336],[0.12281250000000009,-0.127962962962963,0.2637000002861001],[0.12281250000000009,-0.127962962962963,0.2774999999999963],[0.13354166666666673,-0.13574074074074077,0.2944999999999993],[0.15177083333333338,-0.1331481481481481,0.3155000000000001],[0.16302083333333334,-0.12999999999999998,0.32980000019072975],[0.18489583333333334,-0.13537037037037042,0.34430000019073503],[0.17625000000000005,-0.11314814814814819,0.3609999999999971],[0.18156249999999996,-0.12037037037037036,0.37950000000000017],[0.1772916666666667,-0.1,0.39530000019072986],[0.20958333333333337,-0.11703703703703702,0.41110000038146666],[0.22885416666666672,-0.10888888888888891,0.4274000000953677],[0.23562500000000006,-0.09518518518518514,0.44660000038146563],[0.23718750000000005,-0.08462962962962961,0.46349999999999625],[0.23239583333333325,-0.08537037037037042,0.47760000038146444],[0.24114583333333334,-0.09000000000000004,0.49410000038146507],[0.24114583333333334,-0.09000000000000004,0.5142000002861025],[0.23822916666666671,-0.06462962962962959,0.5277000002860959],[0.2553124999999999,-0.0690740740740741,0.544400000095365],[0.26749999999999996,-0.06092592592592588,0.5634999999999977],[0.28156249999999994,-0.05907407407407403,0.5786000003814635],[0.2805208333333333,-0.042407407407407366,0.5941000003814665],[0.27010416666666665,-0.06759259259259259,0.6159999999999997],[0.2894791666666668,-0.04944444444444453,0.6306000003814702],[0.2894791666666668,-0.04944444444444453,0.6443000001907322],[0.28270833333333345,-0.009629629629629714,0.6611000003814667],[0.30593750000000003,0.011296296296296339,0.6794999999999973],[0.3072916666666667,0.013888888888888888,0.6943000001907293],[0.30885416666666665,0.022592592592592678,0.7109000000953642],[0.30666666666666675,0.03037037037037033,0.7276000003814644],[0.3026041666666667,0.06129629629629634,0.7441000003814651],[0.2852083333333333,0.08462962962962971,0.7658000001907297],[0.28239583333333323,0.09833333333333337,0.7813000001907326],[0.28895833333333343,0.15388888888888894,0.7954000000953627],[0.28875000000000006,0.152962962962963,0.8109999999999999],[0.31572916666666656,0.12166666666666676,0.8316000003814636],[0.2900000000000001,0.09388888888888898,0.8474999999999966],[0.2861458333333334,0.08444444444444449,0.8618000001907333],[0.28187499999999993,0.005000000000000084,0.8776000003814701],[0.2647916666666667,-0.046481481481481526,0.8992000002861005],[0.2717708333333334,-0.11240740740740739,0.9152000002860987],[0.28843750000000007,-0.16870370370370374,0.930499999999995],[0.27999999999999997,-0.20870370370370367,0.9444000000953636],[0.290625,-0.24277777777777781,0.9633000001907348],[0.2855208333333332,-0.29870370370370375,0.9781000003814668],[0.2804166666666667,-0.35462962962962963,0.9946000003814675],[0.3133333333333333,-0.362962962962963,1.0150000000000006],[0.3242708333333333,-0.40055555555555555,1.030300000190735],[0.3294791666666666,-0.41740740740740734,1.0443000001907308],[0.34249999999999997,-0.44518518518518513,1.061],[0.34249999999999997,-0.44518518518518513,1.0803000001907321],[0.2964583333333332,-0.4475925925925926,1.094300000190735],[0.25625,-0.4777777777777778,1.1114999999999995],[0.25281250000000005,-0.5272222222222221,1.1306000003814702],[0.17625000000000005,-0.6025925925925926,1.1444000000953665],[0.11583333333333339,-0.6135185185185186,1.1609999999999943],[0.06031249999999998,-0.6164814814814814,1.181999999999995],[-0.01739583333333338,-0.6537037037037037,1.1977000002860976],[-0.01739583333333338,-0.6537037037037037,1.2109999999999985],[-0.04354166666666662,-0.6594444444444445,1.2274999999999991],[-0.04354166666666662,-0.6594444444444445,1.2457000002860994],[-0.06531250000000005,-0.6366666666666667,1.2609000000953614],[-0.06531250000000005,-0.6366666666666667,1.2774999999999963],[-0.11645833333333329,-0.6553703703703704,1.2943000001907308],[-0.11645833333333329,-0.6553703703703704,1.3108000001907314],[-0.06333333333333328,-0.6874074074074074,1.3275000000000006],[-0.06333333333333328,-0.6874074074074074,1.3441000003814665],[-0.06822916666666666,-0.6772222222222222,1.3608000001907286],[-0.06822916666666666,-0.6772222222222222,1.3774999999999977],[-0.0860416666666667,-0.6531481481481481,1.3941000003814636],[-0.03781249999999995,-0.6196296296296296,1.413499999999999],[-0.02687499999999995,-0.6072222222222222,1.430499999999995],[0.018333333333333358,-0.6133333333333333,1.4480000000000004],[0.030104166666666644,-0.6059259259259259,1.4644000000953667],[0.04364583333333331,-0.596111111111111,1.4807000002860988],[0.042604166666666644,-0.5712962962962963,1.4964999999999975],[0.09479166666666666,-0.5112962962962964,1.5157000002861025],[0.0109375,-0.49240740740740735,1.531100000381464],[0.011249999999999953,-0.46055555555555555,1.5473000001907309],[-0.0005208333333333333,-0.3937037037037037,1.5614999999999952],[0.010000000000000024,-0.33240740740740743,1.5799999999999983],[0.018437500000000048,-0.3492592592592593,1.5968000001907328],[-0.01270833333333338,-0.3022222222222222,1.6144000000953653],[-0.0046875,-0.2657407407407407,1.6325000000000003],[-0.03843749999999998,-0.255,1.6482000002861028],[-0.05499999999999995,-0.2661111111111111,1.6639999999999944],[-0.04552083333333338,-0.252962962962963,1.6802000002860993],[0.03260416666666662,-0.21944444444444444,1.698600000381468],[0.0234375,-0.2553703703703703,1.7158000001907325],[0.0234375,-0.2553703703703703,1.7276000003814644],[0.013020833333333334,-0.32759259259259255,1.7443000001907336],[0.027708333333333356,-0.37833333333333335,1.7644999999999982],[0.044479166666666715,-0.3672222222222222,1.7797000002860983],[0.06166666666666672,-0.4094444444444445,1.7974000000953652],[0.08020833333333334,-0.4514814814814815,1.8182000002860974],[0.08020833333333334,-0.4514814814814815,1.8275000000000006],[0.09583333333333334,-0.49240740740740735,1.844300000190735],[0.13083333333333325,-0.49370370370370376,1.860999999999997],[0.12406249999999991,-0.5283333333333333,1.8804000000953636],[0.1134375000000001,-0.5192592592592592,1.8944999999999936],[0.1616666666666667,-0.49314814814814817,1.9114999999999966],[0.21770833333333334,-0.4690740740740741,1.931999999999995],[0.21770833333333334,-0.4690740740740741,1.9479000000953661],[0.1609375,-0.45,1.9614000000953666],[0.17416666666666672,-0.4685185185185185,1.9776000003814644],[0.18645833333333334,-0.4668518518518519,1.9961000003814675],[0.1476041666666667,-0.46111111111111114,2.0117000002860976],[0.1476041666666667,-0.46111111111111114,2.0276000003814687],[0.1290625000000001,-0.442037037037037,2.0461000003814647],[0.11427083333333338,-0.4594444444444445,2.060700000286097],[0.09093749999999995,-0.4794444444444444,2.0774000000953663],[0.07145833333333323,-0.5431481481481482,2.093999999999994],[0.05020833333333338,-0.5794444444444444,2.1108000001907286],[0.021145833333333287,-0.6137037037037036,2.1274000000953635],[0.03864583333333336,-0.6559259259259259,2.1441000003814636],[0.0125,-0.6581481481481481,2.160800000190733],[-0.02510416666666669,-0.6588888888888889,2.177499999999995],[-0.012916666666666642,-0.6638888888888889,2.194100000381468],[-0.0067708333333333336,-0.7042592592592593,2.210700000286103],[-0.02374999999999995,-0.7477777777777778,2.228200000286101],[-0.02374999999999995,-0.7477777777777778,2.2442000002860993],[-0.02312500000000005,-0.7594444444444445,2.263300000190732],[-0.02312500000000005,-0.7594444444444445,2.277700000286096],[0.0003124999999999526,-0.7562962962962962,2.2943000001907308],[-0.0265625,-0.7574074074074074,2.3144999999999953],[-0.017916666666666713,-0.7312962962962962,2.327600000381466],[-0.024374999999999977,-0.6872222222222223,2.344300000190735],[-0.01083333333333331,-0.6485185185185185,2.362800000190731],[0.014999999999999977,-0.6288888888888889,2.3778000001907316],[0.044166666666666646,-0.6192592592592592,2.3944000000953665],[0.06083333333333331,-0.5983333333333334,2.4144999999999968],[0.05562499999999997,-0.5366666666666667,2.4302000002860993],[0.0740624999999999,-0.5029629629629631,2.4443000001907293],[0.0696875000000001,-0.48407407407407405,2.46680000019073],[0.0696875000000001,-0.48407407407407405,2.4776000003814644],[0.09010416666666667,-0.47537037037037033,2.4943000001907336],[0.05,-0.4751851851851852,2.511100000381468],[0.049374999999999974,-0.5103703703703704,2.5301000003814664],[0.013437499999999976,-0.5051851851851852,2.5443000001907308],[-0.08718750000000004,-0.5083333333333333,2.56360000038147],[-0.13656250000000003,-0.4940740740740741,2.582499999999996],[-0.13656250000000003,-0.4940740740740741,2.594400000095362],[-0.20437500000000006,-0.4494444444444444,2.6119000000953676],[-0.20437500000000006,-0.4494444444444444,2.6278000001907316],[-0.24624999999999997,-0.43944444444444447,2.6466000003814685],[-0.2989583333333333,-0.41648148148148145,2.663800000190733],[-0.37468750000000006,-0.38629629629629636,2.678600000381465],[-0.3820833333333333,-0.3338888888888889,2.6961000003814704],[-0.42468750000000005,-0.3125925925925926,2.7121000003814686],[-0.4875,-0.2564814814814815,2.727400000095365],[-0.47979166666666667,-0.24148148148148144,2.747100000381465],[-0.45739583333333333,-0.23259259259259263,2.761800000190732],[-0.42552083333333335,-0.27037037037037037,2.7817000002861008],[-0.36875,-0.2807407407407408,2.7982000002861014],[-0.3296875,-0.3024074074074074,2.8152000002860973],[-0.3296875,-0.3024074074074074,2.827600000381466],[-0.3094791666666667,-0.3237037037037037,2.844400000095362],[-0.27541666666666664,-0.3559259259259259,2.864200000286097],[-0.2953125,-0.4183333333333333,2.879800000190734],[-0.25906250000000003,-0.4177777777777778,2.8939999999999984],[-0.2125,-0.43425925925925923,2.914900000095365],[-0.23624999999999996,-0.4742592592592593,2.9299000000953654],[-0.22822916666666668,-0.5127777777777778,2.9461000003814704],[-0.2842708333333333,-0.5120370370370371,2.960700000286103],[-0.334375,-0.5157407407407407,2.977400000095365],[-0.3657291666666667,-0.5127777777777778,2.994100000381465],[-0.40593750000000006,-0.5237037037037037,3.011400000095364],[-0.42729166666666674,-0.5120370370370371,3.030300000190735],[-0.4282291666666667,-0.4962962962962963,3.044800000190733],[-0.42510416666666667,-0.5311111111111111,3.0608000001907314],[-0.43781249999999994,-0.5331481481481481,3.0774000000953663],[-0.42947916666666663,-0.4788888888888889,3.0941000003814665],[-0.3676041666666666,-0.4377777777777777,3.1108000001907286],[-0.33187500000000003,-0.4192592592592592,3.1281000003814654],[-0.30406249999999996,-0.42370370370370375,3.146900000095364],[-0.2813541666666667,-0.42962962962962964,3.161300000190735],[-0.2804166666666667,-0.40703703703703703,3.177499999999995],[-0.2891666666666667,-0.4033333333333334,3.194100000381468],[-0.2891666666666667,-0.4033333333333334,3.21080000019073],[-0.31708333333333333,-0.35462962962962963,3.227499999999999],[-0.23500000000000001,-0.2844444444444445,3.2491000003814676],[-0.23500000000000001,-0.2844444444444445,3.2617000002860976],[-0.12885416666666671,-0.21944444444444444,3.2774999999999963],[-0.12885416666666671,-0.21944444444444444,3.294400000095365],[-0.003333333333333381,-0.14962962962962964,3.3109000000953657],[-0.003333333333333381,-0.14962962962962964,3.3274000000953663],[0.08770833333333337,-0.07296296296296292,3.3441000003814665],[0.08770833333333337,-0.07296296296296292,3.3607000002861014],[0.1727083333333333,0.01314814814814819,3.3774000000953635],[0.1727083333333333,0.01314814814814819,3.3941000003814636],[0.23781249999999995,0.10092592592592593,3.410800000190733],[0.3189583333333334,0.18055555555555555,3.4277000002861016],[0.4041666666666667,0.2479629629629629,3.4439999999999955],[0.4865624999999999,0.3001851851851852,3.460700000286103],[0.5701041666666666,0.28944444444444434,3.4784000000953625],[0.5368750000000001,0.2692592592592592,3.494100000381465],[0.5222916666666667,0.21481481481481482,3.5108000001907342],[0.48239583333333325,0.12888888888888894,3.5282000002860983],[0.46104166666666657,0.0764814814814814,3.5441000003814693],[0.4602083333333333,0.0455555555555556,3.565400000095366],[0.4602083333333333,0.0455555555555556,3.5774000000953663],[0.4947916666666667,-0.012407407407407492,3.5941000003814665],[0.4708333333333333,-0.06296296296296296,3.611600000381465],[0.4622916666666666,-0.11518518518518517,3.6274000000953635],[0.47927083333333326,-0.2418518518518519,3.6441000003814636],[0.4991666666666667,-0.33259259259259266,3.6607000002860985],[0.5222916666666667,-0.4027777777777778,3.6774000000953677],[0.4696875000000001,-0.49425925925925923,3.694100000381468],[0.43020833333333336,-0.545,3.710700000286103],[0.37531249999999994,-0.6151851851851852,3.727400000095365],[0.3133333333333333,-0.6998148148148148,3.744100000381465],[0.2652083333333332,-0.7483333333333334,3.7607000002861],[0.24739583333333334,-0.8068518518518518,3.777400000095362],[0.22958333333333342,-0.8653703703703703,3.7941000003814693],[0.2283333333333334,-0.7559259259259259,3.8116000003814676],[0.23114583333333344,-0.6485185185185185,3.8281000003814682],[0.2287499999999999,-0.5275925925925925,3.8442000002861008],[0.26760416666666675,-0.3714814814814815,3.8607000002861014],[0.29239583333333335,-0.2627777777777777,3.878],[0.3133333333333333,-0.1514814814814815,3.8951000003814684],[0.34968750000000004,-0.04722222222222222,3.911999999999999],[0.37312500000000004,0.069074074074074,3.928600000381465],[0.41604166666666675,0.16666666666666666,3.944100000381468],[0.4445833333333333,0.28944444444444434,3.96080000019073],[0.4496875000000001,0.31370370370370365,3.977400000095365],[0.42979166666666657,0.35240740740740734,3.996200000286102],[0.4390625,0.3596296296296297,4.013100000381463]]","[0.00040000009536100833,0.05860000038146751,0.06290000009536101,0.07760000038146586,0.09420000028610076,0.112800000190731,0.12749999999999773,0.1473000001907323,0.16199999999999903,0.17760000038146728,0.19430000019072935,0.21370000028610292,0.22849999999999682,0.2443000001907336,0.2637000002861001,0.2774999999999963,0.2944999999999993,0.3155000000000001,0.32980000019072975,0.34430000019073503,0.3609999999999971,0.37950000000000017,0.39530000019072986,0.41110000038146666,0.4274000000953677,0.44660000038146563,0.46349999999999625,0.47760000038146444,0.49410000038146507,0.5142000002861025,0.5277000002860959,0.544400000095365,0.5634999999999977,0.5786000003814635,0.5941000003814665,0.6159999999999997,0.6306000003814702,0.6443000001907322,0.6611000003814667,0.6794999999999973,0.6943000001907293,0.7109000000953642,0.7276000003814644,0.7441000003814651,0.7658000001907297,0.7813000001907326,0.7954000000953627,0.8109999999999999,0.8316000003814636,0.8474999999999966,0.8618000001907333,0.8776000003814701,0.8992000002861005,0.9152000002860987,0.930499999999995,0.9444000000953636,0.9633000001907348,0.9781000003814668,0.9946000003814675,1.0150000000000006,1.030300000190735,1.0443000001907308,1.061,1.0803000001907321,1.094300000190735,1.1114999999999995,1.1306000003814702,1.1444000000953665,1.1609999999999943,1.181999999999995,1.1977000002860976,1.2109999999999985,1.2274999999999991,1.2457000002860994,1.2609000000953614,1.2774999999999963,1.2943000001907308,1.3108000001907314,1.3275000000000006,1.3441000003814665,1.3608000001907286,1.3774999999999977,1.3941000003814636,1.413499999999999,1.430499999999995,1.4480000000000004,1.4644000000953667,1.4807000002860988,1.4964999999999975,1.5157000002861025,1.531100000381464,1.5473000001907309,1.5614999999999952,1.5799999999999983,1.5968000001907328,1.6144000000953653,1.6325000000000003,1.6482000002861028,1.6639999999999944,1.6802000002860993,1.698600000381468,1.7158000001907325,1.7276000003814644,1.7443000001907336,1.7644999999999982,1.7797000002860983,1.7974000000953652,1.8182000002860974,1.8275000000000006,1.844300000190735,1.860999999999997,1.8804000000953636,1.8944999999999936,1.9114999999999966,1.931999999999995,1.9479000000953661,1.9614000000953666,1.9776000003814644,1.9961000003814675,2.0117000002860976,2.0276000003814687,2.0461000003814647,2.060700000286097,2.0774000000953663,2.093999999999994,2.1108000001907286,2.1274000000953635,2.1441000003814636,2.160800000190733,2.177499999999995,2.194100000381468,2.210700000286103,2.228200000286101,2.2442000002860993,2.263300000190732,2.277700000286096,2.2943000001907308,2.3144999999999953,2.327600000381466,2.344300000190735,2.362800000190731,2.3778000001907316,2.3944000000953665,2.4144999999999968,2.4302000002860993,2.4443000001907293,2.46680000019073,2.4776000003814644,2.4943000001907336,2.511100000381468,2.5301000003814664,2.5443000001907308,2.56360000038147,2.582499999999996,2.594400000095362,2.6119000000953676,2.6278000001907316,2.6466000003814685,2.663800000190733,2.678600000381465,2.6961000003814704,2.7121000003814686,2.727400000095365,2.747100000381465,2.761800000190732,2.7817000002861008,2.7982000002861014,2.8152000002860973,2.827600000381466,2.844400000095362,2.864200000286097,2.879800000190734,2.8939999999999984,2.914900000095365,2.9299000000953654,2.9461000003814704,2.960700000286103,2.977400000095365,2.994100000381465,3.011400000095364,3.030300000190735,3.044800000190733,3.0608000001907314,3.0774000000953663,3.0941000003814665,3.1108000001907286,3.1281000003814654,3.146900000095364,3.161300000190735,3.177499999999995,3.194100000381468,3.21080000019073,3.227499999999999,3.2491000003814676,3.2617000002860976,3.2774999999999963,3.294400000095365,3.3109000000953657,3.3274000000953663,3.3441000003814665,3.3607000002861014,3.3774000000953635,3.3941000003814636,3.410800000190733,3.4277000002861016,3.4439999999999955,3.460700000286103,3.4784000000953625,3.494100000381465,3.5108000001907342,3.5282000002860983,3.5441000003814693,3.565400000095366,3.5774000000953663,3.5941000003814665,3.611600000381465,3.6274000000953635,3.6441000003814636,3.6607000002860985,3.6774000000953677,3.694100000381468,3.710700000286103,3.727400000095365,3.744100000381465,3.7607000002861,3.777400000095362,3.7941000003814693,3.8116000003814676,3.8281000003814682,3.8442000002861008,3.8607000002861014,3.878,3.8951000003814684,3.911999999999999,3.928600000381465,3.944100000381468,3.96080000019073,3.977400000095365,3.996200000286102,4.013100000381463]","[1732078940421,1732078940470,1732078940474,1732078940489,1732078940505,1732078940524,1732078940539,1732078940558,1732078940573,1732078940589,1732078940605,1732078940625,1732078940639,1732078940655,1732078940675,1732078940689,1732078940706,1732078940727,1732078940741,1732078940755,1732078940772,1732078940791,1732078940806,1732078940822,1732078940839,1732078940858,1732078940875,1732078940889,1732078940905,1732078940925,1732078940939,1732078940955,1732078940975,1732078940990,1732078941005,1732078941027,1732078941042,1732078941055,1732078941072,1732078941091,1732078941105,1732078941123,1732078941140,1732078941156,1732078941178,1732078941194,1732078941208,1732078941223,1732078941244,1732078941260,1732078941274,1732078941290,1732078941312,1732078941328,1732078941343,1732078941357,1732078941376,1732078941390,1732078941407,1732078941427,1732078941443,1732078941457,1732078941473,1732078941493,1732078941507,1732078941524,1732078941543,1732078941557,1732078941573,1732078941594,1732078941610,1732078941623,1732078941640,1732078941658,1732078941673,1732078941690,1732078941707,1732078941723,1732078941740,1732078941756,1732078941773,1732078941790,1732078941806,1732078941826,1732078941843,1732078941860,1732078941877,1732078941893,1732078941909,1732078941928,1732078941943,1732078941960,1732078941974,1732078941992,1732078942009,1732078942027,1732078942045,1732078942060,1732078942076,1732078942092,1732078942111,1732078942128,1732078942140,1732078942157,1732078942177,1732078942192,1732078942210,1732078942230,1732078942240,1732078942257,1732078942273,1732078942293,1732078942307,1732078942324,1732078942344,1732078942360,1732078942374,1732078942390,1732078942408,1732078942424,1732078942440,1732078942458,1732078942473,1732078942490,1732078942506,1732078942523,1732078942540,1732078942556,1732078942573,1732078942590,1732078942606,1732078942623,1732078942640,1732078942656,1732078942676,1732078942690,1732078942707,1732078942727,1732078942740,1732078942757,1732078942775,1732078942790,1732078942807,1732078942827,1732078942842,1732078942857,1732078942879,1732078942890,1732078942907,1732078942923,1732078942942,1732078942957,1732078942976,1732078942995,1732078943007,1732078943024,1732078943040,1732078943059,1732078943076,1732078943091,1732078943108,1732078943124,1732078943140,1732078943159,1732078943174,1732078943194,1732078943211,1732078943227,1732078943240,1732078943257,1732078943276,1732078943292,1732078943306,1732078943327,1732078943342,1732078943358,1732078943373,1732078943390,1732078943406,1732078943424,1732078943443,1732078943457,1732078943473,1732078943490,1732078943506,1732078943523,1732078943540,1732078943559,1732078943574,1732078943590,1732078943606,1732078943623,1732078943640,1732078943661,1732078943674,1732078943690,1732078943707,1732078943723,1732078943740,1732078943756,1732078943773,1732078943790,1732078943806,1732078943823,1732078943840,1732078943856,1732078943873,1732078943891,1732078943906,1732078943923,1732078943940,1732078943956,1732078943978,1732078943990,1732078944006,1732078944024,1732078944040,1732078944056,1732078944073,1732078944090,1732078944106,1732078944123,1732078944140,1732078944156,1732078944173,1732078944190,1732078944206,1732078944224,1732078944240,1732078944256,1732078944273,1732078944290,1732078944307,1732078944324,1732078944341,1732078944356,1732078944373,1732078944390,1732078944408,1732078944425]","[[1026.7,500.8],[1026.7,500.8],[1037.6,515.6],[1064,511.5],[1090.4,507.4],[1082.6,517.2],[1075.7,523],[1075.8,518.4],[1072.6,511.2],[1072.6,511.2],[1105.1,488.5],[1089.7,491.5],[1086.8,480.9],[1086.8,480.9],[1077.9,470.9],[1077.9,470.9],[1088.2,466.7],[1105.7,468.1],[1116.5,469.8],[1137.5,466.9],[1129.2,478.9],[1134.3,475],[1130.2,486],[1161.2,476.8],[1179.7,481.2],[1186.2,488.6],[1187.7,494.3],[1183.1,493.9],[1191.5,491.4],[1191.5,491.4],[1188.7,505.1],[1205.1,502.7],[1216.8,507.1],[1230.3,508.1],[1229.3,517.1],[1219.3,503.5],[1237.9,513.3],[1237.9,513.3],[1231.4,534.8],[1253.7,546.1],[1255,547.5],[1256.5,552.2],[1254.4,556.4],[1250.5,573.1],[1233.8,585.7],[1231.1,593.1],[1237.4,623.1],[1237.2,622.6],[1263.1,605.7],[1238.4,590.7],[1234.7,585.6],[1230.6,542.7],[1214.2,514.9],[1220.9,479.3],[1236.9,448.9],[1228.8,427.3],[1239,408.9],[1234.1,378.7],[1229.2,348.5],[1260.8,344],[1271.3,323.7],[1276.3,314.6],[1288.8,299.6],[1288.8,299.6],[1244.6,298.3],[1206,282],[1202.7,255.3],[1129.2,214.6],[1071.2,208.7],[1017.9,207.1],[943.3,187],[943.3,187],[918.2,183.9],[918.2,183.9],[897.3,196.2],[897.3,196.2],[848.2,186.1],[848.2,186.1],[899.2,168.8],[899.2,168.8],[894.5,174.3],[894.5,174.3],[877.4,187.3],[923.7,205.4],[934.2,212.1],[977.6,208.8],[988.9,212.8],[1001.9,218.1],[1000.9,231.5],[1051,263.9],[970.5,274.1],[970.8,291.3],[959.5,327.4],[969.6,360.5],[977.7,351.4],[947.8,376.8],[955.5,396.5],[923.1,402.3],[907.2,396.3],[916.3,403.4],[991.3,421.5],[982.5,402.1],[982.5,402.1],[972.5,363.1],[986.6,335.7],[1002.7,341.7],[1019.2,318.9],[1037,296.2],[1037,296.2],[1052,274.1],[1085.6,273.4],[1079.1,254.7],[1068.9,259.6],[1115.2,273.7],[1169,286.7],[1169,286.7],[1114.5,297],[1127.2,287],[1139,287.9],[1101.7,291],[1101.7,291],[1083.9,301.3],[1069.7,291.9],[1047.3,281.1],[1028.6,246.7],[1008.2,227.1],[980.3,208.6],[997.1,185.8],[972,184.6],[935.9,184.2],[947.6,181.5],[953.5,159.7],[937.2,136.2],[937.2,136.2],[937.8,129.9],[937.8,129.9],[960.3,131.6],[934.5,131],[942.8,145.1],[936.6,168.9],[949.6,189.8],[974.4,200.4],[1002.4,205.6],[1018.4,216.9],[1013.4,250.2],[1031.1,268.4],[1026.9,278.6],[1026.9,278.6],[1046.5,283.3],[1008,283.4],[1007.4,264.4],[972.9,267.2],[876.3,265.5],[828.9,273.2],[828.9,273.2],[763.8,297.3],[763.8,297.3],[723.6,302.7],[673,315.1],[600.3,331.4],[593.2,359.7],[552.3,371.2],[492,401.5],[499.4,409.6],[520.9,414.4],[551.5,394],[606,388.4],[643.5,376.7],[643.5,376.7],[662.9,365.2],[695.6,347.8],[676.5,314.1],[711.3,314.4],[756,305.5],[733.2,283.9],[740.9,263.1],[687.1,263.5],[639,261.5],[608.9,263.1],[570.3,257.2],[549.8,263.5],[548.9,272],[551.9,253.2],[539.7,252.1],[547.7,281.4],[607.1,303.6],[641.4,313.6],[668.1,311.2],[689.9,308],[690.8,320.2],[682.4,322.2],[682.4,322.2],[655.6,348.5],[734.4,386.4],[734.4,386.4],[836.3,421.5],[836.3,421.5],[956.8,459.2],[956.8,459.2],[1044.2,500.6],[1044.2,500.6],[1125.8,547.1],[1125.8,547.1],[1188.3,594.5],[1266.2,637.5],[1348,673.9],[1427.1,702.1],[1507.3,696.3],[1475.4,685.4],[1461.4,656],[1423.1,609.6],[1402.6,581.3],[1401.8,564.6],[1401.8,564.6],[1435,533.3],[1412,506],[1403.8,477.8],[1420.1,409.4],[1439.2,360.4],[1461.4,322.5],[1410.9,273.1],[1373,245.7],[1320.3,207.8],[1260.8,162.1],[1214.6,135.9],[1197.5,104.3],[1180.4,72.7],[1179.2,131.8],[1181.9,189.8],[1179.6,255.1],[1216.9,339.4],[1240.7,398.1],[1260.8,458.2],[1295.7,514.5],[1318.2,577.3],[1359.4,630],[1386.8,696.3],[1391.7,709.4],[1372.6,730.3],[1381.5,734.2]]","[-0.2,0.6000000000000001]","[0.2,0.6000000000000001]","[0.6000000000000001,0.6000000000000001]","[-0.6000000000000001,-0.2]","[-0.6000000000000001,-0.6000000000000001]","[-0.6000000000000001,0.2]","[-0.2,-0.2]","[0.2,-0.2]","[0.6000000000000001,-0.2]","[-0.2,-0.6000000000000001]","[0.2,-0.6000000000000001]","[0.6000000000000001,-0.6000000000000001]","[-0.2,0.2]","[0.2,0.2]","[0.6000000000000001,0.2]",0,0,0,0,1,2,Monitor,15,20,8,3,70,4,3,60,4
