inst1_resp.keys,inst1_resp.rt,calibrationMouse.x,calibrationMouse.y,calibrationMouse.leftButton,calibrationMouse.midButton,calibrationMouse.rightButton,calibrationClick.x,calibrationClick.y,calibrationClick.leftButton,calibrationClick.midButton,calibrationClick.rightButton,calibrationClick.clicked_name,trialsc.thisRepN,trialsc.thisTrialN,trialsc.thisN,trialsc.thisIndex,trialsc.ran,calibration_x,calibration_y,participant,session,date,expName,psychopyVersion,OS,frameRate,ScreenRes_pixels,Camera_pixels,mouse_2.x,mouse_2.y,mouse_2.leftButton,mouse_2.midButton,mouse_2.rightButton,mouse_2.time,mouse_2.clicked_name,mouse.x,mouse.y,mouse.leftButton,mouse.midButton,mouse.rightButton,mouse.time,mouse.clicked_name,Choice,Trial,TrialDuration,MOUSE_GAZE,ET_GAZE,ET_GAZE_x_T,time,unixTime,ET_GAZE_NF,Loc_Bus_label,Loc_Metro_label,Loc_RH_label,Loc_Cost_label,Loc_Travel_label,Loc_Comfort_label,Loc_Bus_cost,Loc_Metro_cost,Loc_RH_cost,Loc_Bus_travel,Loc_Metro_travel,Loc_RH_travel,Loc_Bus_comfort,Loc_Metro_comfort,Loc_RH_comfort,trials.thisRepN,trials.thisTrialN,trials.thisN,trials.thisIndex,trials.ran,Block,Device,RH_cost,RH_travel_time,RH_Comfort,metro_cost,metro_travel_time,metro_Comfort,Bus_cost,Bus_travel_time,Bus_Comfort
space,1.4295,-0.0125,-0.314814815,1,0,0,-0.332291667,0.674074074,1,0,0,calibration_square,0,0,0,8,1,-0.33,0.67,43,001,2024-11-20_14h36.25.292,Attention_exp_legacy,2023.1.0,Win32,60.24096386,,,,,,,,,,,,,,,,,,,,,,,,,,,,,,,,,,,,,,,,,,,,,,,,,,,,,,,,
,,,,,,,-0.338541667,0.327777778,1,0,0,calibration_square,0,1,1,7,1,-0.33,0.33,43,001,2024-11-20_14h36.25.292,Attention_exp_legacy,2023.1.0,Win32,60.24096386,,,,,,,,,,,,,,,,,,,,,,,,,,,,,,,,,,,,,,,,,,,,,,,,,,,,,,,,
,,,,,,,-0.684375,-0.67037037,1,0,0,,0,2,2,0,1,-0.67,-0.67,43,001,2024-11-20_14h36.25.292,Attention_exp_legacy,2023.1.0,Win32,60.24096386,,,,,,,,,,,,,,,,,,,,,,,,,,,,,,,,,,,,,,,,,,,,,,,,,,,,,,,,
,,,,,,,-0.326041667,-0.337037037,1,0,0,calibration_square,0,3,3,5,1,-0.33,-0.33,43,001,2024-11-20_14h36.25.292,Attention_exp_legacy,2023.1.0,Win32,60.24096386,,,,,,,,,,,,,,,,,,,,,,,,,,,,,,,,,,,,,,,,,,,,,,,,,,,,,,,,
,,,,,,,0.0125,0.666666667,1,0,0,,0,4,4,13,1,0,0.67,43,001,2024-11-20_14h36.25.292,Attention_exp_legacy,2023.1.0,Win32,60.24096386,,,,,,,,,,,,,,,,,,,,,,,,,,,,,,,,,,,,,,,,,,,,,,,,,,,,,,,,
,,,,,,,0.007291667,-0.657407407,1,0,0,,0,5,5,9,1,0,-0.67,43,001,2024-11-20_14h36.25.292,Attention_exp_legacy,2023.1.0,Win32,60.24096386,,,,,,,,,,,,,,,,,,,,,,,,,,,,,,,,,,,,,,,,,,,,,,,,,,,,,,,,
,,,,,,,-0.314583333,-0.005555556,1,0,0,,0,6,6,6,1,-0.33,0,43,001,2024-11-20_14h36.25.292,Attention_exp_legacy,2023.1.0,Win32,60.24096386,,,,,,,,,,,,,,,,,,,,,,,,,,,,,,,,,,,,,,,,,,,,,,,,,,,,,,,,
,,,,,,,0.335416667,0.012962963,1,0,0,,0,7,7,16,1,0.33,0,43,001,2024-11-20_14h36.25.292,Attention_exp_legacy,2023.1.0,Win32,60.24096386,,,,,,,,,,,,,,,,,,,,,,,,,,,,,,,,,,,,,,,,,,,,,,,,,,,,,,,,
,,,,,,,-0.675,0.003703704,1,0,0,calibration_square,0,8,8,2,1,-0.67,0,43,001,2024-11-20_14h36.25.292,Attention_exp_legacy,2023.1.0,Win32,60.24096386,,,,,,,,,,,,,,,,,,,,,,,,,,,,,,,,,,,,,,,,,,,,,,,,,,,,,,,,
,,,,,,,0.326041667,-0.325925926,1,0,0,calibration_square,0,9,9,15,1,0.33,-0.33,43,001,2024-11-20_14h36.25.292,Attention_exp_legacy,2023.1.0,Win32,60.24096386,,,,,,,,,,,,,,,,,,,,,,,,,,,,,,,,,,,,,,,,,,,,,,,,,,,,,,,,
,,,,,,,-0.69375,0.351851852,1,0,0,,0,10,10,3,1,-0.67,0.33,43,001,2024-11-20_14h36.25.292,Attention_exp_legacy,2023.1.0,Win32,60.24096386,,,,,,,,,,,,,,,,,,,,,,,,,,,,,,,,,,,,,,,,,,,,,,,,,,,,,,,,
,,,,,,,-0.023958333,0.314814815,1,0,0,,0,11,11,12,1,0,0.33,43,001,2024-11-20_14h36.25.292,Attention_exp_legacy,2023.1.0,Win32,60.24096386,,,,,,,,,,,,,,,,,,,,,,,,,,,,,,,,,,,,,,,,,,,,,,,,,,,,,,,,
,,,,,,,-0.008333333,0.011111111,1,0,0,,0,12,12,11,1,0,0,43,001,2024-11-20_14h36.25.292,Attention_exp_legacy,2023.1.0,Win32,60.24096386,,,,,,,,,,,,,,,,,,,,,,,,,,,,,,,,,,,,,,,,,,,,,,,,,,,,,,,,
,,,,,,,-0.66875,-0.335185185,1,0,0,calibration_square,0,13,13,1,1,-0.67,-0.33,43,001,2024-11-20_14h36.25.292,Attention_exp_legacy,2023.1.0,Win32,60.24096386,,,,,,,,,,,,,,,,,,,,,,,,,,,,,,,,,,,,,,,,,,,,,,,,,,,,,,,,
,,,,,,,0.677083333,-0.698148148,1,0,0,,0,14,14,20,1,0.67,-0.67,43,001,2024-11-20_14h36.25.292,Attention_exp_legacy,2023.1.0,Win32,60.24096386,,,,,,,,,,,,,,,,,,,,,,,,,,,,,,,,,,,,,,,,,,,,,,,,,,,,,,,,
,,,,,,,0.345833333,-0.681481481,1,0,0,,0,15,15,14,1,0.33,-0.67,43,001,2024-11-20_14h36.25.292,Attention_exp_legacy,2023.1.0,Win32,60.24096386,,,,,,,,,,,,,,,,,,,,,,,,,,,,,,,,,,,,,,,,,,,,,,,,,,,,,,,,
,,,,,,,0.336458333,0.322222222,1,0,0,calibration_square,0,16,16,17,1,0.33,0.33,43,001,2024-11-20_14h36.25.292,Attention_exp_legacy,2023.1.0,Win32,60.24096386,,,,,,,,,,,,,,,,,,,,,,,,,,,,,,,,,,,,,,,,,,,,,,,,,,,,,,,,
,,,,,,,0.327083333,0.681481481,1,0,0,,0,17,17,18,1,0.33,0.67,43,001,2024-11-20_14h36.25.292,Attention_exp_legacy,2023.1.0,Win32,60.24096386,,,,,,,,,,,,,,,,,,,,,,,,,,,,,,,,,,,,,,,,,,,,,,,,,,,,,,,,
,,,,,,,-0.316666667,-0.67037037,1,0,0,,0,18,18,4,1,-0.33,-0.67,43,001,2024-11-20_14h36.25.292,Attention_exp_legacy,2023.1.0,Win32,60.24096386,,,,,,,,,,,,,,,,,,,,,,,,,,,,,,,,,,,,,,,,,,,,,,,,,,,,,,,,
,,,,,,,0.008333333,-0.32962963,1,0,0,calibration_square,0,19,19,10,1,0,-0.33,43,001,2024-11-20_14h36.25.292,Attention_exp_legacy,2023.1.0,Win32,60.24096386,,,,,,,,,,,,,,,,,,,,,,,,,,,,,,,,,,,,,,,,,,,,,,,,,,,,,,,,
,,,,,,,0.675,0.674074074,1,0,0,calibration_square,0,20,20,19,1,0.67,0.67,43,001,2024-11-20_14h36.25.292,Attention_exp_legacy,2023.1.0,Win32,60.24096386,,,,,,,,,,,,,,,,,,,,,,,,,,,,,,,,,,,,,,,,,,,,,,,,,,,,,,,,
,,,,,,,,,,,,,,,,,,,,43,001,2024-11-20_14h36.25.292,Attention_exp_legacy,2023.1.0,Win32,60.24096386,"[1920,1080]","[640,480]",[0.010416666666666666],[-0.5222222222222223],[1],[0],[0],[1.1000999999046357],"[""StartButton""]",[0.42604166666666665],[0.49444444444444446],[1],[0],[0],[14.066499999999998],"[""RH_label""]",RH_label,1,15.0789,"[[0.07916666666666666,-0.044444444444444446],[0.07916666666666666,-0.044444444444444446],[0.07916666666666666,-0.044444444444444446],[0.07916666666666666,-0.044444444444444446],[0.07916666666666666,-0.044444444444444446],[0.07916666666666666,-0.044444444444444446],[0.07916666666666666,-0.044444444444444446],[0.07916666666666666,-0.044444444444444446],[0.07916666666666666,-0.044444444444444446],[0.07916666666666666,-0.044444444444444446],[0.07916666666666666,-0.044444444444444446],[0.07916666666666666,-0.044444444444444446],[0.07916666666666666,-0.044444444444444446],[0.08229166666666667,-0.07222222222222222],[0.08854166666666667,-0.08333333333333333],[0.09270833333333334,-0.08333333333333333],[0.09270833333333334,-0.08333333333333333],[0.09270833333333334,-0.08333333333333333],[0.09270833333333334,-0.08333333333333333],[0.09270833333333334,-0.08333333333333333],[0.09270833333333334,-0.08333333333333333],[0.09270833333333334,-0.08333333333333333],[0.09270833333333334,-0.08333333333333333],[0.09270833333333334,-0.08333333333333333],[0.09270833333333334,-0.08333333333333333],[0.09270833333333334,-0.08333333333333333],[0.09270833333333334,-0.08333333333333333],[0.09270833333333334,-0.08333333333333333],[0.09270833333333334,-0.08333333333333333],[0.09270833333333334,-0.08333333333333333],[0.09270833333333334,-0.08333333333333333],[0.09895833333333333,-0.08333333333333333],[0.12604166666666666,-0.08333333333333333],[0.1625,-0.05185185185185185],[0.21458333333333332,0.040740740740740744],[0.22708333333333333,0.07592592592592592],[0.24895833333333334,0.14074074074074075],[0.26145833333333335,0.18703703703703703],[0.271875,0.22777777777777777],[0.28229166666666666,0.2796296296296296],[0.290625,0.3314814814814815],[0.2947916666666667,0.34444444444444444],[0.2947916666666667,0.34444444444444444],[0.2947916666666667,0.34444444444444444],[0.2947916666666667,0.34444444444444444],[0.2947916666666667,0.34444444444444444],[0.2947916666666667,0.34444444444444444],[0.2947916666666667,0.34444444444444444],[0.2947916666666667,0.34444444444444444],[0.2947916666666667,0.34444444444444444],[0.2947916666666667,0.34444444444444444],[0.2947916666666667,0.34444444444444444],[0.2947916666666667,0.34444444444444444],[0.2947916666666667,0.34444444444444444],[0.2947916666666667,0.34444444444444444],[0.2947916666666667,0.34444444444444444],[0.2947916666666667,0.34444444444444444],[0.2947916666666667,0.34444444444444444],[0.2947916666666667,0.34444444444444444],[0.2947916666666667,0.34444444444444444],[0.2947916666666667,0.34444444444444444],[0.2947916666666667,0.34444444444444444],[0.2947916666666667,0.34444444444444444],[0.2947916666666667,0.34444444444444444],[0.2947916666666667,0.34444444444444444],[0.2947916666666667,0.34444444444444444],[0.2947916666666667,0.34444444444444444],[0.2947916666666667,0.34444444444444444],[0.2947916666666667,0.34444444444444444],[0.2947916666666667,0.34444444444444444],[0.2947916666666667,0.34444444444444444],[0.2947916666666667,0.34444444444444444],[0.2947916666666667,0.34444444444444444],[0.2947916666666667,0.34444444444444444],[0.2947916666666667,0.34444444444444444],[0.2947916666666667,0.34444444444444444],[0.2947916666666667,0.34444444444444444],[0.2947916666666667,0.34444444444444444],[0.2947916666666667,0.34444444444444444],[0.2947916666666667,0.34444444444444444],[0.2947916666666667,0.34444444444444444],[0.2947916666666667,0.34444444444444444],[0.2947916666666667,0.34444444444444444],[0.2947916666666667,0.34444444444444444],[0.2947916666666667,0.34444444444444444],[0.2947916666666667,0.34444444444444444],[0.2947916666666667,0.34444444444444444],[0.2947916666666667,0.34444444444444444],[0.2947916666666667,0.34444444444444444],[0.2947916666666667,0.34444444444444444],[0.2947916666666667,0.34444444444444444],[0.2947916666666667,0.34444444444444444],[0.2947916666666667,0.34444444444444444],[0.2947916666666667,0.34444444444444444],[0.2947916666666667,0.34444444444444444],[0.2947916666666667,0.34444444444444444],[0.2947916666666667,0.34444444444444444],[0.2947916666666667,0.34444444444444444],[0.2947916666666667,0.34444444444444444],[0.2947916666666667,0.34444444444444444],[0.2947916666666667,0.34444444444444444],[0.2947916666666667,0.34444444444444444],[0.2947916666666667,0.34444444444444444],[0.2947916666666667,0.34444444444444444],[0.2947916666666667,0.34444444444444444],[0.2947916666666667,0.34444444444444444],[0.2947916666666667,0.34444444444444444],[0.2947916666666667,0.34444444444444444],[0.2947916666666667,0.34444444444444444],[0.2947916666666667,0.34444444444444444],[0.2947916666666667,0.34444444444444444],[0.2947916666666667,0.34444444444444444],[0.2947916666666667,0.34444444444444444],[0.2947916666666667,0.34444444444444444],[0.2947916666666667,0.34444444444444444],[0.2947916666666667,0.34444444444444444],[0.2947916666666667,0.34444444444444444],[0.2947916666666667,0.34444444444444444],[0.2947916666666667,0.34444444444444444],[0.2947916666666667,0.34444444444444444],[0.2947916666666667,0.34444444444444444],[0.2947916666666667,0.34444444444444444],[0.2947916666666667,0.34444444444444444],[0.2947916666666667,0.34444444444444444],[0.2947916666666667,0.34444444444444444],[0.2947916666666667,0.34814814814814815],[0.29791666666666666,0.35555555555555557],[0.3020833333333333,0.3592592592592593],[0.3104166666666667,0.36666666666666664],[0.32083333333333336,0.37962962962962965],[0.3375,0.39444444444444443],[0.35520833333333335,0.40925925925925927],[0.371875,0.42777777777777776],[0.38229166666666664,0.4388888888888889],[0.39375,0.45],[0.4010416666666667,0.45925925925925926],[0.41041666666666665,0.4722222222222222],[0.4114583333333333,0.4740740740740741],[0.415625,0.47962962962962963],[0.41770833333333335,0.48148148148148145],[0.41770833333333335,0.48148148148148145],[0.41770833333333335,0.48148148148148145],[0.41770833333333335,0.48148148148148145],[0.41770833333333335,0.48148148148148145],[0.41770833333333335,0.48148148148148145],[0.41770833333333335,0.48148148148148145],[0.41770833333333335,0.48148148148148145],[0.41770833333333335,0.48148148148148145],[0.41770833333333335,0.48148148148148145],[0.41770833333333335,0.48148148148148145],[0.41770833333333335,0.48148148148148145],[0.41770833333333335,0.48148148148148145],[0.41770833333333335,0.48148148148148145],[0.41770833333333335,0.48148148148148145],[0.41770833333333335,0.48148148148148145],[0.41770833333333335,0.48148148148148145],[0.41770833333333335,0.48148148148148145],[0.41770833333333335,0.48148148148148145],[0.41770833333333335,0.48148148148148145],[0.41770833333333335,0.48148148148148145],[0.41770833333333335,0.48148148148148145],[0.41770833333333335,0.48148148148148145],[0.41770833333333335,0.48148148148148145],[0.41770833333333335,0.48148148148148145],[0.41770833333333335,0.48148148148148145],[0.41770833333333335,0.48148148148148145],[0.41770833333333335,0.48148148148148145],[0.41770833333333335,0.48148148148148145],[0.41770833333333335,0.48148148148148145],[0.41770833333333335,0.48148148148148145],[0.41770833333333335,0.48148148148148145],[0.41770833333333335,0.48148148148148145],[0.41770833333333335,0.48148148148148145],[0.41770833333333335,0.48148148148148145],[0.41770833333333335,0.48148148148148145],[0.41770833333333335,0.48148148148148145],[0.41770833333333335,0.48148148148148145],[0.41770833333333335,0.48148148148148145],[0.41770833333333335,0.48148148148148145],[0.41770833333333335,0.48148148148148145],[0.41770833333333335,0.48148148148148145],[0.41770833333333335,0.48148148148148145],[0.41770833333333335,0.48148148148148145],[0.41770833333333335,0.48148148148148145],[0.41770833333333335,0.48148148148148145],[0.41770833333333335,0.48148148148148145],[0.41770833333333335,0.48148148148148145],[0.41770833333333335,0.48148148148148145],[0.41770833333333335,0.48148148148148145],[0.41770833333333335,0.48148148148148145],[0.41770833333333335,0.48148148148148145],[0.41770833333333335,0.48148148148148145],[0.41770833333333335,0.48148148148148145],[0.41770833333333335,0.48148148148148145],[0.41770833333333335,0.48148148148148145],[0.41770833333333335,0.48148148148148145],[0.41770833333333335,0.48148148148148145],[0.41770833333333335,0.48148148148148145],[0.41770833333333335,0.48148148148148145],[0.41770833333333335,0.48148148148148145],[0.41770833333333335,0.48148148148148145],[0.41770833333333335,0.48148148148148145],[0.41770833333333335,0.48148148148148145],[0.41770833333333335,0.48148148148148145],[0.41770833333333335,0.48148148148148145],[0.41770833333333335,0.48148148148148145],[0.41770833333333335,0.48148148148148145],[0.41770833333333335,0.48148148148148145],[0.41770833333333335,0.48148148148148145],[0.41770833333333335,0.48148148148148145],[0.41770833333333335,0.48148148148148145],[0.41770833333333335,0.48148148148148145],[0.41770833333333335,0.48148148148148145],[0.41770833333333335,0.48148148148148145],[0.41770833333333335,0.48148148148148145],[0.41770833333333335,0.48148148148148145],[0.41770833333333335,0.48148148148148145],[0.41770833333333335,0.48148148148148145],[0.41770833333333335,0.48148148148148145],[0.41770833333333335,0.48148148148148145],[0.41770833333333335,0.48148148148148145],[0.41770833333333335,0.48148148148148145],[0.41770833333333335,0.48148148148148145],[0.41770833333333335,0.48148148148148145],[0.41770833333333335,0.48148148148148145],[0.41770833333333335,0.48148148148148145],[0.41770833333333335,0.48148148148148145],[0.41770833333333335,0.48148148148148145],[0.41770833333333335,0.48148148148148145],[0.41770833333333335,0.48148148148148145],[0.41770833333333335,0.48148148148148145],[0.41770833333333335,0.48148148148148145],[0.41770833333333335,0.48148148148148145],[0.41770833333333335,0.48148148148148145],[0.41770833333333335,0.48148148148148145],[0.41770833333333335,0.48148148148148145],[0.41770833333333335,0.48148148148148145],[0.41770833333333335,0.48148148148148145],[0.41770833333333335,0.48148148148148145],[0.41770833333333335,0.48148148148148145],[0.41770833333333335,0.48148148148148145],[0.41770833333333335,0.48148148148148145],[0.41770833333333335,0.48148148148148145],[0.41770833333333335,0.48148148148148145],[0.41770833333333335,0.48148148148148145],[0.41770833333333335,0.48148148148148145],[0.41770833333333335,0.48148148148148145],[0.41770833333333335,0.48148148148148145],[0.41770833333333335,0.48148148148148145],[0.41770833333333335,0.48148148148148145],[0.41770833333333335,0.48148148148148145],[0.41770833333333335,0.48148148148148145],[0.41770833333333335,0.48148148148148145],[0.41770833333333335,0.48148148148148145],[0.41770833333333335,0.48148148148148145],[0.41770833333333335,0.48148148148148145],[0.41770833333333335,0.48148148148148145],[0.41770833333333335,0.48148148148148145],[0.41770833333333335,0.48148148148148145],[0.41770833333333335,0.48148148148148145],[0.41770833333333335,0.48148148148148145],[0.41770833333333335,0.48148148148148145],[0.41770833333333335,0.48148148148148145],[0.41770833333333335,0.48148148148148145],[0.41770833333333335,0.48148148148148145],[0.41770833333333335,0.48148148148148145],[0.41770833333333335,0.48148148148148145],[0.41770833333333335,0.48148148148148145],[0.41770833333333335,0.48148148148148145],[0.41770833333333335,0.48148148148148145],[0.41770833333333335,0.48148148148148145],[0.41770833333333335,0.48148148148148145],[0.41770833333333335,0.48148148148148145],[0.41770833333333335,0.48148148148148145],[0.41770833333333335,0.48148148148148145],[0.41770833333333335,0.48148148148148145],[0.41770833333333335,0.48148148148148145],[0.41770833333333335,0.48148148148148145],[0.41770833333333335,0.48148148148148145],[0.41770833333333335,0.48148148148148145],[0.41770833333333335,0.48148148148148145],[0.41770833333333335,0.48148148148148145],[0.41770833333333335,0.48148148148148145],[0.41770833333333335,0.48148148148148145],[0.41770833333333335,0.48148148148148145],[0.41770833333333335,0.48148148148148145],[0.41770833333333335,0.48148148148148145],[0.41770833333333335,0.48148148148148145],[0.41770833333333335,0.48148148148148145],[0.41770833333333335,0.48148148148148145],[0.41770833333333335,0.48148148148148145],[0.41770833333333335,0.48148148148148145],[0.41770833333333335,0.48148148148148145],[0.41770833333333335,0.48148148148148145],[0.41770833333333335,0.48148148148148145],[0.41770833333333335,0.48148148148148145],[0.41770833333333335,0.48148148148148145],[0.41770833333333335,0.48148148148148145],[0.41770833333333335,0.48148148148148145],[0.41770833333333335,0.48148148148148145],[0.41770833333333335,0.48148148148148145],[0.41770833333333335,0.48148148148148145],[0.41770833333333335,0.48148148148148145],[0.41770833333333335,0.48148148148148145],[0.41770833333333335,0.48148148148148145],[0.41770833333333335,0.48148148148148145],[0.41770833333333335,0.48148148148148145],[0.41770833333333335,0.48148148148148145],[0.41770833333333335,0.48148148148148145],[0.41770833333333335,0.48148148148148145],[0.41770833333333335,0.48148148148148145],[0.41770833333333335,0.48148148148148145],[0.41770833333333335,0.48148148148148145],[0.41770833333333335,0.48148148148148145],[0.41770833333333335,0.48148148148148145],[0.41770833333333335,0.48148148148148145],[0.41770833333333335,0.48148148148148145],[0.41770833333333335,0.48148148148148145],[0.41770833333333335,0.48148148148148145],[0.41770833333333335,0.48148148148148145],[0.41770833333333335,0.48148148148148145],[0.41770833333333335,0.48148148148148145],[0.41770833333333335,0.48148148148148145],[0.41770833333333335,0.48148148148148145],[0.41770833333333335,0.48148148148148145],[0.41770833333333335,0.48148148148148145],[0.41770833333333335,0.48148148148148145],[0.41770833333333335,0.48148148148148145],[0.41770833333333335,0.48148148148148145],[0.41770833333333335,0.48148148148148145],[0.41770833333333335,0.48148148148148145],[0.41770833333333335,0.48148148148148145],[0.41770833333333335,0.48148148148148145],[0.41770833333333335,0.48148148148148145],[0.41770833333333335,0.48148148148148145],[0.41770833333333335,0.48148148148148145],[0.41770833333333335,0.48148148148148145],[0.41770833333333335,0.48148148148148145],[0.41770833333333335,0.48148148148148145],[0.41770833333333335,0.48148148148148145],[0.41770833333333335,0.48148148148148145],[0.41770833333333335,0.48148148148148145],[0.41770833333333335,0.48148148148148145],[0.41770833333333335,0.48148148148148145],[0.41770833333333335,0.48148148148148145],[0.41770833333333335,0.48148148148148145],[0.41770833333333335,0.48148148148148145],[0.41770833333333335,0.48148148148148145],[0.41770833333333335,0.48148148148148145],[0.41770833333333335,0.48148148148148145],[0.41770833333333335,0.48148148148148145],[0.41770833333333335,0.48148148148148145],[0.41770833333333335,0.48148148148148145],[0.41770833333333335,0.48148148148148145],[0.41770833333333335,0.48148148148148145],[0.41770833333333335,0.48148148148148145],[0.41770833333333335,0.48148148148148145],[0.41770833333333335,0.48148148148148145],[0.41770833333333335,0.48148148148148145],[0.41770833333333335,0.48148148148148145],[0.41770833333333335,0.48148148148148145],[0.41770833333333335,0.48148148148148145],[0.41770833333333335,0.48148148148148145],[0.41770833333333335,0.48148148148148145],[0.41770833333333335,0.48148148148148145],[0.41770833333333335,0.48148148148148145],[0.41770833333333335,0.48148148148148145],[0.41770833333333335,0.48148148148148145],[0.41770833333333335,0.48148148148148145],[0.41770833333333335,0.48148148148148145],[0.41770833333333335,0.48148148148148145],[0.41770833333333335,0.48148148148148145],[0.41770833333333335,0.48148148148148145],[0.41770833333333335,0.48148148148148145],[0.41770833333333335,0.48148148148148145],[0.41770833333333335,0.48148148148148145],[0.41770833333333335,0.48148148148148145],[0.41770833333333335,0.48148148148148145],[0.41770833333333335,0.48148148148148145],[0.41770833333333335,0.48148148148148145],[0.41770833333333335,0.48148148148148145],[0.41770833333333335,0.48148148148148145],[0.41770833333333335,0.48148148148148145],[0.41770833333333335,0.48148148148148145],[0.41770833333333335,0.48148148148148145],[0.41770833333333335,0.48148148148148145],[0.41770833333333335,0.48148148148148145],[0.41770833333333335,0.48148148148148145],[0.41770833333333335,0.48148148148148145],[0.41770833333333335,0.48148148148148145],[0.41770833333333335,0.48148148148148145],[0.41770833333333335,0.48148148148148145],[0.41770833333333335,0.48148148148148145],[0.41770833333333335,0.48148148148148145],[0.41770833333333335,0.48148148148148145],[0.41770833333333335,0.48148148148148145],[0.41770833333333335,0.48148148148148145],[0.41770833333333335,0.48148148148148145],[0.41770833333333335,0.48148148148148145],[0.41770833333333335,0.48148148148148145],[0.41770833333333335,0.48148148148148145],[0.41770833333333335,0.48148148148148145],[0.41770833333333335,0.48148148148148145],[0.41770833333333335,0.48148148148148145],[0.41770833333333335,0.48148148148148145],[0.41770833333333335,0.48148148148148145],[0.41770833333333335,0.48148148148148145],[0.41770833333333335,0.48148148148148145],[0.41770833333333335,0.48148148148148145],[0.41770833333333335,0.48148148148148145],[0.41770833333333335,0.48148148148148145],[0.41770833333333335,0.48148148148148145],[0.41770833333333335,0.48148148148148145],[0.41770833333333335,0.48148148148148145],[0.41770833333333335,0.48148148148148145],[0.41770833333333335,0.48148148148148145],[0.41770833333333335,0.48148148148148145],[0.41770833333333335,0.48148148148148145],[0.41770833333333335,0.48148148148148145],[0.41770833333333335,0.48148148148148145],[0.41770833333333335,0.48148148148148145],[0.41770833333333335,0.48148148148148145],[0.41770833333333335,0.48148148148148145],[0.41770833333333335,0.48148148148148145],[0.41770833333333335,0.48148148148148145],[0.41770833333333335,0.48148148148148145],[0.41770833333333335,0.48148148148148145],[0.41770833333333335,0.48148148148148145],[0.41770833333333335,0.48148148148148145],[0.41770833333333335,0.48148148148148145],[0.41770833333333335,0.48148148148148145],[0.41770833333333335,0.48148148148148145],[0.41770833333333335,0.48148148148148145],[0.41770833333333335,0.48148148148148145],[0.41770833333333335,0.48148148148148145],[0.41770833333333335,0.48148148148148145],[0.41770833333333335,0.48148148148148145],[0.41770833333333335,0.48148148148148145],[0.41770833333333335,0.48148148148148145],[0.41770833333333335,0.48148148148148145],[0.41770833333333335,0.48148148148148145],[0.41770833333333335,0.48148148148148145],[0.41770833333333335,0.48148148148148145],[0.41770833333333335,0.48148148148148145],[0.41770833333333335,0.48148148148148145],[0.41770833333333335,0.48148148148148145],[0.41770833333333335,0.48148148148148145],[0.41770833333333335,0.48148148148148145],[0.41770833333333335,0.48148148148148145],[0.41770833333333335,0.48148148148148145],[0.41770833333333335,0.48148148148148145],[0.41770833333333335,0.48148148148148145],[0.41770833333333335,0.48148148148148145],[0.41770833333333335,0.48148148148148145],[0.41770833333333335,0.48148148148148145],[0.41770833333333335,0.48148148148148145],[0.41770833333333335,0.48148148148148145],[0.41770833333333335,0.48148148148148145],[0.41770833333333335,0.48148148148148145],[0.41770833333333335,0.48148148148148145],[0.41770833333333335,0.48148148148148145],[0.41770833333333335,0.48148148148148145],[0.41770833333333335,0.48148148148148145],[0.41770833333333335,0.48148148148148145],[0.41770833333333335,0.48148148148148145],[0.41770833333333335,0.48148148148148145],[0.41770833333333335,0.48148148148148145],[0.41770833333333335,0.48148148148148145],[0.41770833333333335,0.48148148148148145],[0.41770833333333335,0.48148148148148145],[0.41770833333333335,0.48148148148148145],[0.41770833333333335,0.48148148148148145],[0.41770833333333335,0.48148148148148145],[0.41770833333333335,0.48148148148148145],[0.41770833333333335,0.48148148148148145],[0.41770833333333335,0.48148148148148145],[0.41770833333333335,0.48148148148148145],[0.41770833333333335,0.48148148148148145],[0.41770833333333335,0.48148148148148145],[0.41770833333333335,0.48148148148148145],[0.41770833333333335,0.48148148148148145],[0.41770833333333335,0.48148148148148145],[0.41770833333333335,0.48148148148148145],[0.41770833333333335,0.48148148148148145],[0.41770833333333335,0.48148148148148145],[0.41770833333333335,0.48148148148148145],[0.41770833333333335,0.48148148148148145],[0.41770833333333335,0.48148148148148145],[0.41770833333333335,0.48148148148148145],[0.41770833333333335,0.48148148148148145],[0.41770833333333335,0.48148148148148145],[0.41770833333333335,0.48148148148148145],[0.41770833333333335,0.48148148148148145],[0.41770833333333335,0.48148148148148145],[0.41770833333333335,0.48148148148148145],[0.41770833333333335,0.48148148148148145],[0.41770833333333335,0.48148148148148145],[0.41770833333333335,0.48148148148148145],[0.41770833333333335,0.48148148148148145],[0.41770833333333335,0.48148148148148145],[0.41770833333333335,0.48148148148148145],[0.41770833333333335,0.48148148148148145],[0.41770833333333335,0.48148148148148145],[0.41770833333333335,0.48148148148148145],[0.41770833333333335,0.48148148148148145],[0.41770833333333335,0.48148148148148145],[0.41770833333333335,0.48148148148148145],[0.41770833333333335,0.48148148148148145],[0.41770833333333335,0.48148148148148145],[0.41770833333333335,0.48148148148148145],[0.41770833333333335,0.48148148148148145],[0.41770833333333335,0.48148148148148145],[0.41770833333333335,0.48148148148148145],[0.41770833333333335,0.48148148148148145],[0.41770833333333335,0.48148148148148145],[0.41770833333333335,0.48148148148148145],[0.41770833333333335,0.48148148148148145],[0.41770833333333335,0.48148148148148145],[0.41770833333333335,0.48148148148148145],[0.41770833333333335,0.48148148148148145],[0.41770833333333335,0.48148148148148145],[0.41770833333333335,0.48148148148148145],[0.41770833333333335,0.48148148148148145],[0.41770833333333335,0.48148148148148145],[0.41770833333333335,0.48148148148148145],[0.41770833333333335,0.48148148148148145],[0.41770833333333335,0.48148148148148145],[0.41770833333333335,0.48148148148148145],[0.41770833333333335,0.48148148148148145],[0.41770833333333335,0.48148148148148145],[0.41770833333333335,0.48148148148148145],[0.41770833333333335,0.48148148148148145],[0.41770833333333335,0.48148148148148145],[0.41770833333333335,0.48148148148148145],[0.41770833333333335,0.48148148148148145],[0.41770833333333335,0.48148148148148145],[0.41770833333333335,0.48148148148148145],[0.41770833333333335,0.48148148148148145],[0.41770833333333335,0.48148148148148145],[0.41770833333333335,0.48148148148148145],[0.41770833333333335,0.48148148148148145],[0.41770833333333335,0.48148148148148145],[0.41770833333333335,0.48148148148148145],[0.41770833333333335,0.48148148148148145],[0.41770833333333335,0.48148148148148145],[0.41770833333333335,0.48148148148148145],[0.41770833333333335,0.48148148148148145],[0.41770833333333335,0.48148148148148145],[0.41770833333333335,0.48148148148148145],[0.41770833333333335,0.48148148148148145],[0.41770833333333335,0.48148148148148145],[0.41770833333333335,0.48148148148148145],[0.41770833333333335,0.48148148148148145],[0.41770833333333335,0.48148148148148145],[0.41770833333333335,0.48148148148148145],[0.41770833333333335,0.48148148148148145],[0.41770833333333335,0.48148148148148145],[0.41770833333333335,0.48148148148148145],[0.41770833333333335,0.48148148148148145],[0.41770833333333335,0.48148148148148145],[0.41770833333333335,0.48148148148148145],[0.41770833333333335,0.48148148148148145],[0.41770833333333335,0.48148148148148145],[0.41770833333333335,0.48148148148148145],[0.41770833333333335,0.48148148148148145],[0.41770833333333335,0.48148148148148145],[0.41770833333333335,0.48148148148148145],[0.41770833333333335,0.48148148148148145],[0.41770833333333335,0.48148148148148145],[0.41770833333333335,0.48148148148148145],[0.41770833333333335,0.48148148148148145],[0.41770833333333335,0.48148148148148145],[0.41770833333333335,0.48148148148148145],[0.41770833333333335,0.48148148148148145],[0.41770833333333335,0.48148148148148145],[0.41770833333333335,0.48148148148148145],[0.41770833333333335,0.48148148148148145],[0.41770833333333335,0.48148148148148145],[0.41770833333333335,0.48148148148148145],[0.41770833333333335,0.48148148148148145],[0.41770833333333335,0.48148148148148145],[0.41770833333333335,0.48148148148148145],[0.41770833333333335,0.48148148148148145],[0.41770833333333335,0.48148148148148145],[0.41770833333333335,0.48148148148148145],[0.41770833333333335,0.48148148148148145],[0.41770833333333335,0.48148148148148145],[0.41770833333333335,0.48148148148148145],[0.41770833333333335,0.48148148148148145],[0.41770833333333335,0.48148148148148145],[0.41770833333333335,0.48148148148148145],[0.41770833333333335,0.48148148148148145],[0.41770833333333335,0.48148148148148145],[0.41770833333333335,0.48148148148148145],[0.41770833333333335,0.48148148148148145],[0.41770833333333335,0.48148148148148145],[0.41770833333333335,0.48148148148148145],[0.41770833333333335,0.48148148148148145],[0.41770833333333335,0.48148148148148145],[0.41770833333333335,0.48148148148148145],[0.41770833333333335,0.48148148148148145],[0.41770833333333335,0.48148148148148145],[0.41770833333333335,0.48148148148148145],[0.41770833333333335,0.48148148148148145],[0.41770833333333335,0.48148148148148145],[0.41770833333333335,0.48148148148148145],[0.41770833333333335,0.48148148148148145],[0.41770833333333335,0.48148148148148145],[0.41770833333333335,0.48148148148148145],[0.41770833333333335,0.48148148148148145],[0.41770833333333335,0.48148148148148145],[0.41770833333333335,0.48148148148148145],[0.41770833333333335,0.48148148148148145],[0.41770833333333335,0.48148148148148145],[0.41770833333333335,0.48148148148148145],[0.41770833333333335,0.48148148148148145],[0.41770833333333335,0.48148148148148145],[0.41770833333333335,0.48148148148148145],[0.41770833333333335,0.48148148148148145],[0.41770833333333335,0.48148148148148145],[0.41770833333333335,0.48148148148148145],[0.41770833333333335,0.48148148148148145],[0.41770833333333335,0.48148148148148145],[0.41770833333333335,0.48148148148148145],[0.41770833333333335,0.48148148148148145],[0.41770833333333335,0.48148148148148145],[0.41770833333333335,0.48148148148148145],[0.41770833333333335,0.48148148148148145],[0.41770833333333335,0.48148148148148145],[0.41770833333333335,0.48148148148148145],[0.41770833333333335,0.48148148148148145],[0.41770833333333335,0.48148148148148145],[0.41770833333333335,0.48148148148148145],[0.41770833333333335,0.48148148148148145],[0.41770833333333335,0.48148148148148145],[0.41770833333333335,0.48148148148148145],[0.41770833333333335,0.48148148148148145],[0.41770833333333335,0.48148148148148145],[0.41770833333333335,0.48148148148148145],[0.41770833333333335,0.48148148148148145],[0.41770833333333335,0.48148148148148145],[0.41770833333333335,0.48148148148148145],[0.41770833333333335,0.48148148148148145],[0.41770833333333335,0.48148148148148145],[0.41770833333333335,0.48148148148148145],[0.41770833333333335,0.48148148148148145],[0.41770833333333335,0.48148148148148145],[0.41770833333333335,0.48148148148148145],[0.41770833333333335,0.48148148148148145],[0.41770833333333335,0.48148148148148145],[0.41770833333333335,0.48148148148148145],[0.41770833333333335,0.48148148148148145],[0.41770833333333335,0.48148148148148145],[0.41770833333333335,0.48148148148148145],[0.41770833333333335,0.48148148148148145],[0.41770833333333335,0.48148148148148145],[0.41770833333333335,0.48148148148148145],[0.41770833333333335,0.48148148148148145],[0.41770833333333335,0.48148148148148145],[0.41770833333333335,0.48148148148148145],[0.41770833333333335,0.48148148148148145],[0.41770833333333335,0.48148148148148145],[0.41770833333333335,0.48148148148148145],[0.41770833333333335,0.48148148148148145],[0.41770833333333335,0.48148148148148145],[0.41770833333333335,0.48148148148148145],[0.41770833333333335,0.48148148148148145],[0.41770833333333335,0.48148148148148145],[0.41770833333333335,0.48148148148148145],[0.41770833333333335,0.48148148148148145],[0.41770833333333335,0.48148148148148145],[0.41770833333333335,0.48148148148148145],[0.41770833333333335,0.48148148148148145],[0.41770833333333335,0.48148148148148145],[0.41770833333333335,0.48148148148148145],[0.41770833333333335,0.48148148148148145],[0.41770833333333335,0.48148148148148145],[0.41770833333333335,0.48148148148148145],[0.41770833333333335,0.48148148148148145],[0.41770833333333335,0.48148148148148145],[0.41770833333333335,0.48148148148148145],[0.41770833333333335,0.48148148148148145],[0.41770833333333335,0.48148148148148145],[0.41770833333333335,0.48148148148148145],[0.41770833333333335,0.48148148148148145],[0.41770833333333335,0.48148148148148145],[0.41770833333333335,0.48148148148148145],[0.41770833333333335,0.48148148148148145],[0.41770833333333335,0.48148148148148145],[0.41770833333333335,0.48148148148148145],[0.41770833333333335,0.48148148148148145],[0.41770833333333335,0.48148148148148145],[0.41770833333333335,0.48148148148148145],[0.41770833333333335,0.48148148148148145],[0.41770833333333335,0.48148148148148145],[0.41770833333333335,0.48148148148148145],[0.41770833333333335,0.48148148148148145],[0.41770833333333335,0.48148148148148145],[0.41770833333333335,0.48148148148148145],[0.41770833333333335,0.48148148148148145],[0.41770833333333335,0.48148148148148145],[0.41770833333333335,0.48148148148148145],[0.41770833333333335,0.48148148148148145],[0.41770833333333335,0.48148148148148145],[0.41770833333333335,0.48148148148148145],[0.41770833333333335,0.48148148148148145],[0.41770833333333335,0.48148148148148145],[0.41770833333333335,0.48148148148148145],[0.41770833333333335,0.48148148148148145],[0.41770833333333335,0.48148148148148145],[0.41770833333333335,0.48148148148148145],[0.41770833333333335,0.48148148148148145],[0.41770833333333335,0.48148148148148145],[0.41770833333333335,0.48148148148148145],[0.41770833333333335,0.48148148148148145],[0.41770833333333335,0.48148148148148145],[0.41770833333333335,0.48148148148148145],[0.41770833333333335,0.48148148148148145],[0.41770833333333335,0.48148148148148145],[0.41770833333333335,0.48148148148148145],[0.41770833333333335,0.48148148148148145],[0.41770833333333335,0.48148148148148145],[0.41770833333333335,0.48148148148148145],[0.41770833333333335,0.48148148148148145],[0.41770833333333335,0.48148148148148145],[0.41770833333333335,0.48148148148148145],[0.41770833333333335,0.48148148148148145],[0.41770833333333335,0.48148148148148145],[0.41770833333333335,0.48148148148148145],[0.41770833333333335,0.48148148148148145],[0.41770833333333335,0.48148148148148145],[0.41770833333333335,0.48148148148148145],[0.41770833333333335,0.48148148148148145],[0.41770833333333335,0.48148148148148145],[0.41770833333333335,0.48148148148148145],[0.41770833333333335,0.48148148148148145],[0.41770833333333335,0.48148148148148145],[0.41770833333333335,0.48148148148148145],[0.41770833333333335,0.48148148148148145],[0.41770833333333335,0.48148148148148145],[0.41770833333333335,0.48148148148148145],[0.41770833333333335,0.48148148148148145],[0.41770833333333335,0.48148148148148145],[0.41770833333333335,0.48148148148148145],[0.41770833333333335,0.48148148148148145],[0.41770833333333335,0.48148148148148145],[0.41770833333333335,0.48148148148148145],[0.41770833333333335,0.48148148148148145],[0.41770833333333335,0.48148148148148145],[0.41770833333333335,0.48148148148148145],[0.41770833333333335,0.48148148148148145],[0.41770833333333335,0.48148148148148145],[0.41770833333333335,0.48148148148148145],[0.41770833333333335,0.48148148148148145],[0.41770833333333335,0.48148148148148145],[0.41770833333333335,0.48148148148148145],[0.41770833333333335,0.48148148148148145],[0.41770833333333335,0.48148148148148145],[0.41770833333333335,0.48148148148148145],[0.41770833333333335,0.48148148148148145],[0.41770833333333335,0.48148148148148145],[0.41770833333333335,0.48148148148148145],[0.41770833333333335,0.48148148148148145],[0.41770833333333335,0.48148148148148145],[0.41770833333333335,0.48148148148148145],[0.41770833333333335,0.48148148148148145],[0.41770833333333335,0.48148148148148145],[0.41770833333333335,0.48148148148148145],[0.41770833333333335,0.48148148148148145],[0.41770833333333335,0.48148148148148145],[0.41770833333333335,0.48148148148148145],[0.41770833333333335,0.48148148148148145],[0.41770833333333335,0.48148148148148145],[0.41770833333333335,0.48148148148148145],[0.41770833333333335,0.48148148148148145],[0.41770833333333335,0.48148148148148145],[0.41770833333333335,0.48148148148148145],[0.41770833333333335,0.48148148148148145],[0.41770833333333335,0.48148148148148145],[0.41770833333333335,0.48148148148148145],[0.41770833333333335,0.48148148148148145],[0.41770833333333335,0.48148148148148145],[0.41770833333333335,0.48148148148148145],[0.41770833333333335,0.48148148148148145],[0.41770833333333335,0.48148148148148145],[0.41770833333333335,0.48148148148148145],[0.41770833333333335,0.48148148148148145],[0.41770833333333335,0.48148148148148145],[0.41770833333333335,0.48148148148148145],[0.41770833333333335,0.48148148148148145],[0.41770833333333335,0.48148148148148145],[0.41770833333333335,0.48148148148148145],[0.41770833333333335,0.48148148148148145],[0.41770833333333335,0.48148148148148145],[0.41770833333333335,0.48148148148148145],[0.41770833333333335,0.48148148148148145],[0.41770833333333335,0.48148148148148145],[0.41770833333333335,0.48148148148148145],[0.41770833333333335,0.48148148148148145],[0.41770833333333335,0.48148148148148145],[0.41770833333333335,0.48148148148148145],[0.41770833333333335,0.48148148148148145],[0.41770833333333335,0.48148148148148145],[0.41770833333333335,0.48148148148148145],[0.41770833333333335,0.48148148148148145],[0.41770833333333335,0.48148148148148145],[0.41770833333333335,0.48148148148148145],[0.41770833333333335,0.48148148148148145],[0.41770833333333335,0.48148148148148145],[0.41770833333333335,0.48148148148148145],[0.41770833333333335,0.48148148148148145],[0.41770833333333335,0.48148148148148145],[0.41770833333333335,0.48148148148148145],[0.41770833333333335,0.48148148148148145],[0.41770833333333335,0.48148148148148145],[0.41770833333333335,0.48148148148148145],[0.41770833333333335,0.48148148148148145],[0.41770833333333335,0.48148148148148145],[0.41770833333333335,0.48148148148148145],[0.41770833333333335,0.48148148148148145],[0.41770833333333335,0.48148148148148145],[0.41770833333333335,0.48148148148148145],[0.41770833333333335,0.48148148148148145],[0.41770833333333335,0.48148148148148145],[0.41770833333333335,0.48148148148148145],[0.41770833333333335,0.48148148148148145],[0.41770833333333335,0.48148148148148145],[0.4166666666666667,0.4722222222222222],[0.41458333333333336,0.45740740740740743],[0.4125,0.45],[0.4114583333333333,0.44074074074074077],[0.4114583333333333,0.43703703703703706],[0.4114583333333333,0.43703703703703706],[0.4114583333333333,0.43703703703703706],[0.4114583333333333,0.43703703703703706],[0.4114583333333333,0.43703703703703706],[0.4114583333333333,0.43703703703703706],[0.4125,0.4425925925925926],[0.41770833333333335,0.45925925925925926],[0.42291666666666666,0.47962962962962963],[0.42604166666666665,0.4925925925925926],[0.42604166666666665,0.49444444444444446],[0.42604166666666665,0.49444444444444446],[0.42604166666666665,0.49444444444444446],[0.42604166666666665,0.49444444444444446],[0.42604166666666665,0.49444444444444446],[0.42604166666666665,0.49444444444444446],[0.42604166666666665,0.49444444444444446],[0.42604166666666665,0.49444444444444446],[0.42604166666666665,0.49444444444444446],[0.42604166666666665,0.49444444444444446],[0.42604166666666665,0.49444444444444446],[0.42604166666666665,0.49444444444444446],[0.42604166666666665,0.49444444444444446],[0.42604166666666665,0.49444444444444446],[0.42604166666666665,0.49444444444444446],[0.42604166666666665,0.49444444444444446],[0.42604166666666665,0.49444444444444446],[0.42604166666666665,0.48333333333333334],[0.42604166666666665,0.4722222222222222],[0.42604166666666665,0.46296296296296297],[0.42604166666666665,0.45555555555555555],[0.42604166666666665,0.4537037037037037],[0.42604166666666665,0.45],[0.42604166666666665,0.45],[0.42604166666666665,0.45],[0.42604166666666665,0.45],[0.42604166666666665,0.45],[0.42604166666666665,0.45],[0.42604166666666665,0.45],[0.42604166666666665,0.45],[0.42604166666666665,0.45],[0.42604166666666665,0.45],[0.42604166666666665,0.45],[0.42604166666666665,0.45],[0.42604166666666665,0.45],[0.42604166666666665,0.45],[0.42604166666666665,0.45],[0.42604166666666665,0.45],[0.42604166666666665,0.45],[0.42604166666666665,0.45],[0.42604166666666665,0.45],[0.42604166666666665,0.45],[0.42604166666666665,0.45],[0.42604166666666665,0.45],[0.42604166666666665,0.45],[0.42604166666666665,0.45],[0.42604166666666665,0.45],[0.42604166666666665,0.45],[0.42604166666666665,0.45],[0.42604166666666665,0.45],[0.42604166666666665,0.45],[0.42604166666666665,0.45],[0.42604166666666665,0.45],[0.42604166666666665,0.45],[0.42604166666666665,0.45],[0.42604166666666665,0.45],[0.42604166666666665,0.45],[0.42604166666666665,0.45],[0.42604166666666665,0.45],[0.42604166666666665,0.45],[0.42604166666666665,0.45],[0.42604166666666665,0.45],[0.42604166666666665,0.45]]","[[-0.2219791666666667,-0.032037037037036954],[-0.17625000000000005,-0.024814814814814772],[-0.17625000000000005,-0.024814814814814772],[-0.12229166666666665,-0.03592592592592588],[-0.12229166666666665,-0.03592592592592588],[-0.0626041666666667,-0.04388888888888897],[-0.05510416666666664,-0.021851851851851768],[-0.07302083333333335,-0.002962962962963005],[-0.05604166666666662,-0.02629629629629638],[-0.05604166666666662,-0.02629629629629638],[-0.05687500000000002,-0.027962962962963005],[-0.06916666666666664,-0.03814814814814819],[-0.06916666666666664,-0.03814814814814819],[-0.09145833333333328,-0.03166666666666671],[-0.0858333333333333,-0.005185185185185101],[-0.08489583333333334,0.03259259259259263],[-0.08562500000000005,0.08055555555555556],[-0.08989583333333329,0.06092592592592588],[-0.05,0.07370370370370362],[-0.017499999999999953,0.06759259259259259],[0.014999999999999977,0.06148148148148157],[0.029062499999999977,0.07314814814814814],[0.029062499999999977,0.07314814814814814],[0.06124999999999995,0.04592592592592584],[0.06687500000000005,0.028703703703703703],[0.06822916666666666,0.022592592592592678],[0.06854166666666663,-0.002777777777777778],[0.03739583333333331,0.006111111111111027],[0.03739583333333331,0.006111111111111027],[0.024583333333333356,-0.028518518518518478],[0.008229166666666643,-0.06796296296296295],[0.008958333333333356,-0.07962962962962963],[-0.009687499999999953,-0.05129629629629638],[-0.009895833333333333,-0.040740740740740744],[-0.00010416666666669035,-0.025185185185185227],[-0.00010416666666669035,-0.025185185185185227],[0.02822916666666669,0.002407407407407323],[0.02822916666666669,0.002407407407407323],[0.041458333333333285,0.00592592592592601],[0.041458333333333285,0.00592592592592601],[0.05593750000000005,0.09370370370370375],[0.05593750000000005,0.09370370370370375],[0.0896874999999999,0.044444444444444446],[0.0896874999999999,0.044444444444444446],[0.11687500000000005,0.08777777777777773],[0.11687500000000005,0.08777777777777773],[0.13552083333333323,0.0962962962962963],[0.15895833333333323,0.08537037037037042],[0.20177083333333337,0.034444444444444486],[0.23135416666666658,-0.01574074074074074],[0.26500000000000007,-0.012222222222222264],[0.26500000000000007,-0.012222222222222264],[0.24812500000000004,-0.03537037037037041],[0.25197916666666675,-0.062407407407407384],[0.26062500000000005,-0.1655555555555555],[0.27197916666666655,-0.1838888888888889],[0.28927083333333337,-0.21388888888888888],[0.3150000000000001,-0.2294444444444444],[0.32177083333333345,-0.2207407407407407],[0.3306250000000001,-0.21944444444444444],[0.3811458333333334,-0.2309259259259259],[0.3836458333333333,-0.2322222222222222],[0.4184375000000001,-0.2662962962962963],[0.4540625000000001,-0.2959259259259259],[0.46072916666666663,-0.24500000000000002],[0.4523958333333333,-0.2059259259259259],[0.425,-0.15314814814814812],[0.39656250000000004,-0.10203703703703708],[0.3728125000000001,-0.057777777777777754],[0.34874999999999995,0.029814814814814856],[0.34874999999999995,0.029814814814814856],[0.29625000000000007,0.1294444444444444],[0.29625000000000007,0.1294444444444444],[0.26583333333333337,0.19092592592592597],[0.21260416666666657,0.27388888888888885],[0.14500000000000005,0.3077777777777779],[0.14500000000000005,0.3077777777777779],[0.09322916666666667,0.27981481481481485],[0.03270833333333331,0.2722222222222222],[-0.004375000000000047,0.24462962962962967],[-0.04375,0.20092592592592592],[-0.08312499999999995,0.15722222222222218],[-0.12781250000000005,0.11944444444444445],[-0.16739583333333338,0.052037037037037076],[-0.2045833333333333,0.005370370370370328],[-0.2048958333333334,-0.0301851851851851],[-0.2263541666666666,-0.014074074074074116],[-0.24958333333333335,-0.03814814814814819],[-0.2543750000000001,-0.07037037037037037],[-0.2579166666666667,-0.10037037037037035],[-0.2454166666666667,-0.060370370370370414],[-0.21312500000000004,-0.03518518518518519],[-0.17218749999999997,-0.055185185185185205],[-0.11854166666666661,-0.038703703703703664],[-0.06270833333333338,-0.028888888888888933],[-0.06270833333333338,-0.028888888888888933],[-0.029270833333333357,0.02814814814814823],[0.01895833333333338,0.05185185185185185],[0.07604166666666666,0.08888888888888889],[0.16208333333333325,0.13111111111111104],[0.24052083333333343,0.16611111111111118],[0.26322916666666674,0.12907407407407415],[0.24489583333333323,0.18555555555555564],[0.20114583333333325,0.2103703703703704],[0.13708333333333325,0.2668518518518519],[0.07552083333333333,0.28481481481481474],[0.028645833333333332,0.2853703703703704],[-0.014479166666666644,0.31129629629629635],[-0.08020833333333334,0.28851851851851845],[-0.17687499999999995,0.2814814814814815],[-0.2621875000000001,0.3237037037037036],[-0.32083333333333336,0.322037037037037],[-0.32843749999999994,0.23629629629629634],[-0.3202083333333333,0.17925925925925917],[-0.3094791666666667,0.0837037037037038],[-0.30531250000000004,0.07537037037037045],[-0.3116666666666667,0.0492592592592593],[-0.2985416666666667,0.03370370370370379],[-0.26281249999999995,0.0668518518518519],[-0.18958333333333333,0.1337037037037038],[-0.12770833333333337,0.15129629629629637],[-0.03697916666666667,0.23370370370370377],[0.023958333333333335,0.32148148148148153],[0.07510416666666657,0.40629629629629627],[0.13541666666666666,0.48870370370370364],[0.1828125,0.5337037037037038],[0.2397916666666667,0.4770370370370371],[0.2696875000000001,0.43074074074074076],[0.2696875000000001,0.43074074074074076],[0.2912499999999999,0.41351851851851845],[0.2912499999999999,0.41351851851851845],[0.27583333333333326,0.34333333333333327],[0.27583333333333326,0.34333333333333327],[0.2727083333333333,0.23074074074074077],[0.2582291666666668,0.1485185185185186],[0.22979166666666656,0.07888888888888893],[0.21510416666666668,0.057037037037036956],[0.21510416666666668,0.057037037037036956],[0.2259375000000001,-0.03944444444444436],[0.23333333333333334,-0.17314814814814813],[0.24416666666666675,-0.2064814814814815],[0.2587500000000001,-0.24296296296296294],[0.28781249999999997,-0.2953703703703704],[0.29093749999999996,-0.32],[0.28177083333333336,-0.3022222222222222],[0.2865624999999999,-0.3425925925925926],[0.30531249999999993,-0.3955555555555556],[0.32822916666666657,-0.47833333333333333],[0.3277083333333332,-0.4883333333333333],[0.3607291666666666,-0.4975925925925926],[0.3807291666666667,-0.5055555555555555],[0.3785416666666668,-0.5312962962962963],[0.3927083333333333,-0.5842592592592593],[0.4322916666666667,-0.6457407407407407],[0.4508333333333333,-0.6905555555555555],[0.4508333333333333,-0.6905555555555555],[0.45427083333333323,-0.7087037037037037],[0.45427083333333323,-0.7087037037037037],[0.47645833333333343,-0.725],[0.4946875000000001,-0.7251851851851853],[0.4740624999999999,-0.7303703703703703],[0.4353125000000001,-0.7087037037037037],[0.39656250000000004,-0.687037037037037],[0.3883333333333333,-0.6546296296296297],[0.3883333333333333,-0.6546296296296297],[0.3576041666666666,-0.6081481481481481],[0.3576041666666666,-0.6081481481481481],[0.3316666666666668,-0.5833333333333334],[0.34833333333333344,-0.5835185185185185],[0.35395833333333326,-0.570925925925926],[0.3408333333333334,-0.5601851851851852],[0.31749999999999995,-0.5857407407407408],[0.31749999999999995,-0.5857407407407408],[0.30572916666666666,-0.5825925925925927],[0.33083333333333326,-0.605],[0.3429166666666667,-0.6153703703703703],[0.35052083333333334,-0.6364814814814814],[0.35052083333333334,-0.6364814814814814],[0.35812499999999997,-0.6575925925925926],[0.36083333333333345,-0.6527777777777778],[0.32302083333333326,-0.640925925925926],[0.32302083333333326,-0.640925925925926],[0.3021874999999999,-0.6361111111111111],[0.28364583333333326,-0.6357407407407407],[0.28364583333333326,-0.6357407407407407],[0.2694791666666667,-0.6294444444444444],[0.2640625,-0.6325925925925926],[0.23687500000000009,-0.6035185185185185],[0.21770833333333334,-0.5803703703703703],[0.21770833333333334,-0.5803703703703703],[0.20020833333333338,-0.5357407407407407],[0.20020833333333338,-0.5357407407407407],[0.190625,-0.5433333333333333],[0.15520833333333334,-0.5068518518518518],[0.1430208333333333,-0.465],[0.12645833333333342,-0.4318518518518518],[0.10750000000000005,-0.4009259259259259],[0.07427083333333329,-0.3514814814814815],[0.04833333333333331,-0.31203703703703706],[0.021458333333333357,-0.2855555555555555],[-0.004479166666666619,-0.24240740740740738],[-0.004479166666666619,-0.24240740740740738],[-0.03208333333333328,-0.2207407407407407],[-0.06447916666666664,-0.17462962962962966],[-0.06739583333333338,-0.16814814814814816],[-0.06739583333333338,-0.16814814814814816],[-0.07458333333333336,-0.16574074074074074],[-0.08489583333333334,-0.14907407407407408],[-0.08489583333333334,-0.14907407407407408],[-0.07697916666666664,-0.14629629629629629],[-0.06604166666666664,-0.15833333333333333],[-0.06604166666666664,-0.15833333333333333],[-0.06197916666666667,-0.16370370370370366],[-0.0672916666666667,-0.15962962962962962],[-0.0672916666666667,-0.15962962962962962],[-0.06854166666666663,-0.17833333333333334],[-0.06854166666666663,-0.17833333333333334],[-0.06614583333333333,-0.20537037037037034],[-0.06614583333333333,-0.20537037037037034],[-0.06083333333333331,-0.21518518518518517],[-0.06083333333333331,-0.21518518518518517],[-0.07729166666666672,-0.22759259259259254],[-0.07729166666666672,-0.22759259259259254],[-0.09833333333333331,-0.23351851851851857],[-0.09833333333333331,-0.23351851851851857],[-0.10729166666666666,-0.2477777777777778],[-0.10729166666666666,-0.2477777777777778],[-0.12989583333333338,-0.23981481481481481],[-0.15218750000000003,-0.22259259259259256],[-0.14968750000000006,-0.20925925925925926],[-0.16187499999999996,-0.2074074074074074],[-0.17635416666666662,-0.19796296296296292],[-0.19010416666666666,-0.18592592592592588],[-0.19010416666666666,-0.18592592592592588],[-0.1734375,-0.10388888888888893],[-0.15968749999999995,0.006111111111111027],[-0.14052083333333332,0.10240740740740732],[-0.09802083333333336,0.17962962962962964],[-0.060000000000000026,0.2551851851851851],[0.008645833333333287,0.3088888888888888],[0.059375,0.35981481481481475],[0.10374999999999991,0.4324074074074074],[0.15041666666666675,0.49740740740740746],[0.20031249999999995,0.5605555555555556],[0.21375000000000005,0.5642592592592593],[0.23947916666666677,0.5287037037037037],[0.26437499999999997,0.5003703703703705],[0.26437499999999997,0.5003703703703705],[0.24020833333333325,0.4868518518518518],[0.21604166666666677,0.4733333333333334],[0.21604166666666677,0.4733333333333334],[0.1881249999999999,0.4737037037037036],[0.1881249999999999,0.4737037037037036],[0.1881249999999999,0.4737037037037036],[0.15958333333333338,0.45129629629629636],[0.15229166666666671,0.41388888888888886],[0.15229166666666671,0.41388888888888886],[0.14291666666666672,0.3725925925925927],[0.10052083333333334,0.3487037037037036],[0.10052083333333334,0.3487037037037036],[0.06510416666666667,0.31425925925925935],[0.019687499999999976,0.287962962962963],[-0.003333333333333381,0.26518518518518525],[-0.013541666666666667,0.2598148148148147],[-0.02374999999999995,0.2544444444444444],[-0.05291666666666662,0.24203703703703713],[-0.090625,0.25277777777777777],[-0.13406250000000006,0.2727777777777777],[-0.17541666666666664,0.29666666666666675],[-0.19302083333333328,0.2972222222222222],[-0.21760416666666665,0.30833333333333335],[-0.21656249999999996,0.3087037037037038],[-0.23791666666666664,0.3055555555555556],[-0.256875,0.2862962962962963],[-0.2773958333333333,0.2785185185185185],[-0.28875000000000006,0.27833333333333327],[-0.27125,0.24944444444444452],[-0.27749999999999997,0.244074074074074],[-0.26885416666666667,0.21666666666666667],[-0.26187499999999997,0.2064814814814815],[-0.24343750000000006,0.2014814814814814],[-0.23177083333333334,0.20425925925925917],[-0.23489583333333333,0.20092592592592592],[-0.23364583333333327,0.202962962962963],[-0.23364583333333327,0.19537037037037036],[-0.23489583333333333,0.17222222222222222],[-0.25583333333333336,0.17740740740740732],[-0.2755208333333333,0.20925925925925926],[-0.2755208333333333,0.20925925925925926],[-0.290625,0.20870370370370378],[-0.29375,0.24777777777777768],[-0.3241666666666667,0.28777777777777774],[-0.35093749999999996,0.32388888888888884],[-0.36739583333333337,0.3685185185185185],[-0.38822916666666674,0.40777777777777785],[-0.4013541666666666,0.44962962962962955],[-0.41281249999999997,0.49981481481481477],[-0.42468750000000005,0.5572222222222222],[-0.40739583333333335,0.5496296296296296],[-0.40958333333333335,0.5964814814814815],[-0.431875,0.6064814814814815],[-0.4383333333333333,0.6103703703703705],[-0.4005208333333333,0.5866666666666666],[-0.37072916666666667,0.5677777777777778],[-0.32875000000000004,0.51],[-0.296875,0.43555555555555564],[-0.2672916666666667,0.375],[-0.2247916666666666,0.29796296296296293],[-0.19197916666666662,0.22592592592592592],[-0.19197916666666662,0.22592592592592592],[-0.15406249999999996,0.14537037037037037],[-0.15406249999999996,0.14537037037037037],[-0.10874999999999997,0.06111111111111111],[-0.07135416666666666,-0.037037037037037035],[-0.08187500000000002,-0.1037037037037037],[-0.08156249999999995,-0.11259259259259262],[-0.09343750000000005,-0.08259259259259263],[-0.10104166666666667,-0.05648148148148148],[-0.10677083333333333,-0.037037037037037035],[-0.13177083333333334,-0.040370370370370286],[-0.14802083333333335,-0.04314814814814806],[-0.16937500000000003,-0.03740740740740749],[-0.18135416666666668,-0.04407407407407399],[-0.18541666666666667,-0.03685185185185181],[-0.18875000000000006,-0.02759259259259255],[-0.19041666666666662,-0.08333333333333333],[-0.1953125,-0.15388888888888894],[-0.19927083333333329,-0.20833333333333334],[-0.18635416666666665,-0.2740740740740741],[-0.16666666666666666,-0.30777777777777776],[-0.1295833333333333,-0.3359259259259259],[-0.09510416666666661,-0.3792592592592593],[-0.06593749999999995,-0.412962962962963],[-0.03833333333333329,-0.44074074074074077],[-0.011458333333333333,-0.4705555555555556],[0.011354166666666643,-0.49018518518518517],[0.03739583333333331,-0.495],[0.06520833333333335,-0.5135185185185185],[0.07614583333333323,-0.5207407407407407],[0.0818749999999999,-0.5257407407407407],[0.05531250000000002,-0.5301851851851852],[0.06083333333333331,-0.5192592592592592],[0.05499999999999995,-0.512962962962963],[0.0626041666666667,-0.5125925925925926],[0.07020833333333343,-0.5122222222222222],[0.0818749999999999,-0.522037037037037],[0.0818749999999999,-0.522037037037037],[0.08541666666666667,-0.5331481481481481],[0.10427083333333324,-0.5303703703703704],[0.12312500000000005,-0.5275925925925925],[0.14031250000000003,-0.5274074074074074],[0.17239583333333333,-0.5333333333333333],[0.17239583333333333,-0.5333333333333333],[0.15770833333333342,-0.542962962962963],[0.1736458333333334,-0.5437037037037038],[0.17822916666666658,-0.5442592592592592],[0.1828125,-0.5448148148148148],[0.17572916666666671,-0.5396296296296296],[0.17677083333333338,-0.5331481481481481],[0.17677083333333338,-0.5331481481481481],[0.16697916666666662,-0.532962962962963],[0.1462500000000001,-0.5355555555555556],[0.13239583333333324,-0.5377777777777777],[0.12322916666666663,-0.5287037037037037],[0.12322916666666663,-0.5287037037037037],[0.13135416666666658,-0.5161111111111111],[0.1318749999999999,-0.4962962962962963],[0.12770833333333323,-0.4542592592592593],[0.12354166666666658,-0.41222222222222227],[0.1310416666666666,-0.37592592592592594],[0.1310416666666666,-0.37592592592592594],[0.13614583333333338,-0.33666666666666667],[0.13614583333333338,-0.33666666666666667],[0.13572916666666662,-0.28166666666666673],[0.14968750000000006,-0.23925925925925923],[0.16364583333333324,-0.19685185185185186],[0.1646874999999999,-0.17333333333333337],[0.17718749999999991,-0.15055555555555558],[0.17802083333333343,-0.13925925925925925],[0.1736458333333334,-0.1485185185185185],[0.16927083333333334,-0.15777777777777777],[0.16906249999999995,-0.15759259259259265],[0.16906249999999995,-0.15759259259259265],[0.17833333333333337,-0.16425925925925924],[0.17833333333333337,-0.16425925925925924],[0.15979166666666675,-0.102962962962963],[0.1538541666666667,-0.026111111111111154],[0.15583333333333324,0.04314814814814806],[0.15583333333333324,0.04314814814814806],[0.16604166666666675,0.11999999999999991],[0.15322916666666658,0.20314814814814824],[0.13864583333333325,0.29000000000000004],[0.1334374999999999,0.375],[0.12822916666666656,0.45999999999999996],[0.12843749999999995,0.5398148148148149],[0.12156250000000005,0.6235185185185186],[0.14260416666666675,0.6166666666666667],[0.1476041666666667,0.6096296296296297],[0.1525000000000001,0.5888888888888889],[0.15739583333333323,0.5681481481481481],[0.15739583333333323,0.5681481481481481],[0.19562499999999997,0.5157407407407407],[0.19562499999999997,0.5157407407407407],[0.22333333333333344,0.4594444444444445],[0.2513541666666666,0.38870370370370366],[0.24510416666666662,0.31574074074074077],[0.24510416666666662,0.31574074074074077],[0.22927083333333323,0.23851851851851844],[0.25125000000000003,0.17740740740740732],[0.25364583333333335,0.12129629629629629],[0.2560416666666666,0.06518518518518526],[0.2513541666666666,0.025],[0.2513541666666666,0.025],[0.24666666666666662,-0.01518518518518527],[0.23135416666666658,-0.030555555555555555],[0.20791666666666658,-0.04888888888888885],[0.19979166666666662,-0.04740740740740745],[0.2259375000000001,-0.043703703703703745],[0.2259375000000001,-0.043703703703703745],[0.24812500000000004,-0.03481481481481473],[0.24812500000000004,-0.03481481481481473],[0.2491666666666667,-0.026666666666666623],[0.23010416666666675,-0.03629629629629634],[0.2303124999999999,-0.051666666666666625],[0.24416666666666675,-0.059999999999999956],[0.2493750000000001,-0.06166666666666669],[0.24343750000000006,-0.062037037037037036],[0.2717708333333334,-0.06444444444444447],[0.28447916666666656,-0.07222222222222222],[0.28447916666666656,-0.07222222222222222],[0.29968750000000005,-0.09185185185185189],[0.29968750000000005,-0.09185185185185189],[0.29187500000000005,-0.11962962962962967],[0.29187500000000005,-0.11962962962962967],[0.27406249999999993,-0.14648148148148152],[0.27406249999999993,-0.14648148148148152],[0.29364583333333344,-0.16277777777777774],[0.29364583333333344,-0.16277777777777774],[0.3042708333333332,-0.15648148148148147],[0.3042708333333332,-0.15648148148148147],[0.28458333333333335,-0.15925925925925927],[0.27354166666666657,-0.16870370370370374],[0.27354166666666657,-0.16870370370370374],[0.2569791666666667,-0.13574074074074077],[0.24208333333333343,-0.1418518518518519],[0.2271874999999999,-0.1479629629629629],[0.19104166666666675,-0.09148148148148144],[0.1818749999999999,-0.032037037037036954],[0.16989583333333325,0.003703703703703704],[0.1396874999999999,0.06722222222222214],[0.09916666666666671,0.11388888888888889],[0.0796875,0.16925925925925922],[0.06020833333333329,0.22462962962962954],[0.0390625,0.24018518518518528],[0.002395833333333286,0.3],[-0.03333333333333333,0.3574074074074074],[-0.050312499999999954,0.3640740740740741],[-0.06760416666666665,0.36648148148148146],[-0.08875000000000005,0.3762962962962964],[-0.08875000000000005,0.3762962962962964],[-0.08468749999999996,0.36925925925925923],[-0.10281250000000004,0.36370370370370364],[-0.12604166666666666,0.3568518518518519],[-0.15229166666666671,0.3424074074074074],[-0.17135416666666667,0.3253703703703705],[-0.19041666666666662,0.30833333333333335],[-0.20604166666666662,0.29240740740740734],[-0.22166666666666662,0.2764814814814814],[-0.23395833333333335,0.26944444444444443],[-0.24624999999999997,0.2624074074074075],[-0.26135416666666667,0.25500000000000006],[-0.26135416666666667,0.25500000000000006],[-0.2573958333333334,0.25259259259259254],[-0.25541666666666674,0.2511111111111112],[-0.2504166666666666,0.2572222222222222],[-0.2289583333333333,0.24166666666666667],[-0.20750000000000005,0.22611111111111115],[-0.19322916666666667,0.1977777777777777],[-0.17406250000000004,0.1698148148148149],[-0.14885416666666665,0.19648148148148153],[-0.11677083333333335,0.21777777777777782],[-0.10791666666666669,0.2381481481481482],[-0.08270833333333331,0.24722222222222223],[-0.06156250000000003,0.2577777777777779],[-0.04041666666666662,0.2683333333333333],[-0.015208333333333357,0.3101851851851852],[0.005312500000000024,0.35537037037037034],[0.016666666666666666,0.430925925925926],[0.016666666666666666,0.430925925925926],[0.02312500000000005,0.5061111111111111],[0.02312500000000005,0.5061111111111111],[0.030416666666666713,0.5261111111111112],[0.04708333333333338,0.5368518518518518],[0.08427083333333343,0.5531481481481483],[0.11749999999999995,0.5587037037037038],[0.15677083333333333,0.5618518518518518],[0.15677083333333333,0.5618518518518518],[0.1828125,0.5874074074074075],[0.2103125000000001,0.5975925925925927],[0.22999999999999995,0.6005555555555555],[0.2616666666666667,0.5872222222222223],[0.2726041666666667,0.5842592592592593],[0.28312499999999996,0.5703703703703704],[0.28125,0.5618518518518518],[0.2772916666666667,0.5501851851851852],[0.25333333333333335,0.5485185185185186],[0.22989583333333338,0.5442592592592592],[0.2185416666666666,0.5109259259259259],[0.18520833333333328,0.48333333333333334],[0.1720833333333334,0.4677777777777778],[0.1720833333333334,0.4677777777777778],[0.15895833333333323,0.4522222222222223],[0.17708333333333334,0.41518518518518527],[0.1742708333333333,0.39574074074074084],[0.17218749999999997,0.3787037037037037],[0.17218749999999997,0.3787037037037037],[0.16124999999999995,0.36148148148148157],[0.1580208333333334,0.36203703703703705],[0.1580208333333334,0.36203703703703705],[0.15104166666666666,0.36018518518518516],[0.15104166666666666,0.36018518518518516],[0.15697916666666673,0.3603703703703704],[0.14656250000000004,0.3672222222222221],[0.14885416666666676,0.3633333333333334],[0.1310416666666666,0.3031481481481482],[0.11375000000000005,0.2662962962962962],[0.10177083333333338,0.21333333333333343],[0.09791666666666667,0.22759259259259254],[0.10499999999999995,0.24518518518518514],[0.10697916666666671,0.25703703703703695],[0.11802083333333328,0.277962962962963],[0.13562500000000005,0.31055555555555564],[0.16958333333333328,0.33648148148148155],[0.1805208333333333,0.3512962962962964],[0.2115624999999999,0.42240740740740745],[0.22364583333333338,0.4742592592592593],[0.24187500000000003,0.5314814814814814],[0.24739583333333334,0.5283333333333332],[0.2747916666666666,0.5246296296296296],[0.3103125000000001,0.5144444444444444],[0.3141666666666666,0.5072222222222221],[0.29322916666666665,0.5053703703703704],[0.2640625,0.49370370370370376],[0.253125,0.45999999999999996],[0.24187500000000003,0.4383333333333334],[0.22770833333333323,0.44611111111111107],[0.21354166666666666,0.45388888888888895],[0.2040625000000001,0.4075925925925926],[0.17572916666666671,0.39888888888888885],[0.17572916666666671,0.39888888888888885],[0.1446875000000001,0.35481481481481486],[0.1446875000000001,0.35481481481481486],[0.1330208333333334,0.35240740740740734],[0.13020833333333334,0.33796296296296297],[0.13562500000000005,0.3333333333333333],[0.09552083333333337,0.36648148148148146],[0.09552083333333337,0.36648148148148146],[0.05572916666666667,0.3875925925925925],[0.046875,0.38499999999999995],[0.029062499999999977,0.39351851851851855],[0.006562499999999953,0.456111111111111],[-0.01895833333333338,0.4816666666666667],[-0.01895833333333338,0.4816666666666667],[-0.035104166666666714,0.5370370370370371],[-0.04125000000000002,0.5316666666666667],[-0.049791666666666616,0.5259259259259259],[-0.04739583333333333,0.519074074074074],[-0.015104166666666667,0.5101851851851852],[-0.0016666666666666904,0.5048148148148148],[0.004791666666666691,0.4922222222222221],[0.02020833333333331,0.4685185185185185],[0.04635416666666667,0.45925925925925926],[0.07249999999999991,0.45],[0.10250000000000009,0.4411111111111112],[0.12197916666666657,0.4551851851851851],[0.1382291666666667,0.467962962962963],[0.14354166666666662,0.4818518518518519],[0.1525000000000001,0.49240740740740735],[0.1803124999999999,0.4994444444444445],[0.19427083333333334,0.5155555555555555],[0.20822916666666677,0.5316666666666667],[0.209375,0.5329629629629629],[0.21052083333333324,0.5342592592592592],[0.20416666666666666,0.5327777777777779],[0.20479166666666657,0.5203703703703704],[0.20864583333333328,0.5092592592592593],[0.20864583333333328,0.5092592592592593],[0.22270833333333329,0.5050000000000001],[0.24291666666666673,0.505925925925926],[0.2631249999999999,0.5068518518518519],[0.2585416666666667,0.5098148148148147],[0.2760416666666667,0.5225925925925927],[0.2760416666666667,0.5225925925925927],[0.29562499999999997,0.5357407407407406],[0.3081249999999999,0.549074074074074],[0.3242708333333333,0.5540740740740742],[0.3242708333333333,0.5540740740740742],[0.34041666666666665,0.5590740740740741],[0.36656250000000007,0.5696296296296297],[0.37312500000000004,0.5718518518518517],[0.3706249999999999,0.5731481481481482],[0.3610416666666666,0.5800000000000001],[0.37697916666666675,0.5842592592592593],[0.37354166666666655,0.5801851851851851],[0.37354166666666655,0.5801851851851851],[0.3701041666666666,0.5761111111111111],[0.3602083333333333,0.5651851851851852],[0.3710416666666667,0.5635185185185184],[0.3844791666666666,0.5568518518518519],[0.3844791666666666,0.5568518518518519],[0.38791666666666674,0.5446296296296297],[0.38791666666666674,0.5446296296296297],[0.39656250000000004,0.5433333333333333],[0.39656250000000004,0.5433333333333333],[0.40499999999999997,0.5457407407407409],[0.4045833333333334,0.5462962962962963],[0.4022916666666667,0.5418518518518519],[0.4023958333333333,0.524074074074074],[0.4025000000000001,0.5062962962962962],[0.4015625,0.5068518518518519],[0.3732291666666666,0.5144444444444444],[0.35656249999999995,0.5153703703703703],[0.3398958333333333,0.5162962962962963],[0.3177083333333333,0.5183333333333333],[0.29500000000000004,0.5157407407407407],[0.29145833333333326,0.4975925925925927],[0.2897916666666667,0.4844444444444445],[0.28250000000000003,0.4846296296296297],[0.28250000000000003,0.4846296296296297],[0.2752083333333334,0.48481481481481475],[0.2794791666666666,0.48333333333333334],[0.29020833333333323,0.4751851851851852],[0.2724999999999999,0.48407407407407405],[0.26895833333333335,0.4875925925925925],[0.26843750000000005,0.48407407407407405],[0.2679166666666667,0.48055555555555557],[0.2490624999999999,0.49611111111111106],[0.23020833333333332,0.5116666666666666],[0.23145833333333338,0.5192592592592592],[0.2257291666666667,0.5246296296296296],[0.2257291666666667,0.5246296296296296],[0.22302083333333325,0.5199999999999999],[0.22468750000000004,0.5218518518518518],[0.23395833333333324,0.5183333333333333],[0.22625000000000003,0.519814814814815],[0.23395833333333324,0.5038888888888889],[0.2412499999999999,0.5037037037037037],[0.2612499999999999,0.48555555555555563],[0.26583333333333337,0.47925925925925916],[0.27458333333333323,0.4557407407407408],[0.27458333333333323,0.4557407407407408],[0.29031250000000003,0.43444444444444447],[0.29031250000000003,0.43444444444444447],[0.28895833333333343,0.43944444444444436],[0.27458333333333323,0.42907407407407416],[0.2555208333333333,0.42666666666666664],[0.2522916666666667,0.4170370370370371],[0.22729166666666673,0.42888888888888893],[0.22729166666666673,0.42888888888888893],[0.21916666666666676,0.4227777777777777],[0.22000000000000006,0.42907407407407416],[0.22000000000000006,0.42907407407407416],[0.2328125,0.4168518518518519],[0.221875,0.4338888888888888],[0.2109375,0.45092592592592595],[0.2099999999999999,0.42018518518518516],[0.21124999999999997,0.4050000000000001],[0.23093750000000005,0.37888888888888894],[0.23760416666666656,0.3603703703703704],[0.2703125,0.3359259259259259],[0.2703125,0.3359259259259259],[0.2865624999999999,0.31370370370370365],[0.2865624999999999,0.31370370370370365],[0.2803124999999999,0.29555555555555557],[0.2847916666666668,0.2837037037037038],[0.2847916666666668,0.2837037037037038],[0.2868750000000001,0.2699999999999999],[0.28572916666666665,0.2711111111111111],[0.2916666666666667,0.29370370370370374],[0.29958333333333326,0.31444444444444436],[0.2886458333333332,0.33907407407407414],[0.2777083333333332,0.36370370370370364],[0.2777083333333332,0.36370370370370364],[0.25510416666666674,0.3861111111111111],[0.25510416666666674,0.3861111111111111],[0.2400000000000001,0.4075925925925926],[0.2400000000000001,0.4075925925925926],[0.24489583333333323,0.4168518518518519],[0.24489583333333323,0.4168518518518519],[0.22781250000000006,0.43629629629629635],[0.22760416666666666,0.4479629629629629],[0.22760416666666666,0.4479629629629629],[0.22177083333333342,0.44648148148148153],[0.2247916666666666,0.43407407407407406],[0.2247916666666666,0.43407407407407406],[0.22583333333333327,0.4235185185185186],[0.2345833333333334,0.40925925925925927],[0.24166666666666667,0.38203703703703695],[0.2476041666666667,0.37222222222222223],[0.23937499999999995,0.3714814814814815],[0.22708333333333333,0.3772222222222223],[0.22333333333333344,0.3648148148148148],[0.20510416666666675,0.35648148148148145],[0.19947916666666668,0.34685185185185174],[0.18499999999999991,0.34814814814814815],[0.16760416666666675,0.3485185185185186],[0.14572916666666677,0.3596296296296297],[0.14572916666666677,0.3596296296296297],[0.1271874999999999,0.3646296296296296],[0.10843749999999991,0.3527777777777778],[0.0900000000000001,0.33499999999999996],[0.07156250000000004,0.3172222222222221],[0.06531250000000005,0.30759259259259264],[0.06104166666666669,0.3044444444444444],[0.05302083333333331,0.30092592592592593],[0.04125000000000002,0.28833333333333344],[0.03239583333333336,0.2766666666666666],[0.019583333333333286,0.2711111111111111],[0.005104166666666643,0.28462962962962973],[-0.0012500000000000473,0.27870370370370373],[-0.0012500000000000473,0.2705555555555556],[-0.0009374999999999763,0.25018518518518523],[-0.0009374999999999763,0.25018518518518523],[-0.006666666666666643,0.2300000000000001],[-0.009791666666666643,0.22370370370370363],[-0.004270833333333357,0.2294444444444444],[0.004999999999999952,0.2442592592592592],[0.028958333333333287,0.24277777777777781],[0.028958333333333287,0.24277777777777781],[0.06531250000000005,0.2272222222222223],[0.06531250000000005,0.2272222222222223],[0.0806250000000001,0.22166666666666676],[0.0806250000000001,0.22166666666666676],[0.10979166666666676,0.23425925925925925],[0.1443749999999999,0.22814814814814824],[0.184375,0.2490740740740741],[0.21458333333333332,0.25999999999999995],[0.24031250000000004,0.2735185185185186],[0.2582291666666668,0.259074074074074],[0.2713541666666667,0.2548148148148149],[0.2726041666666667,0.25277777777777777],[0.2681250000000001,0.2646296296296296],[0.2778125000000001,0.25629629629629624],[0.2570833333333333,0.2524074074074073],[0.22781250000000006,0.27444444444444455],[0.21291666666666675,0.2759259259259259],[0.17937500000000003,0.28648148148148156],[0.17604166666666668,0.2733333333333334],[0.16072916666666662,0.2794444444444444],[0.16458333333333333,0.2785185185185185],[0.15270833333333325,0.28888888888888886],[0.15697916666666673,0.28462962962962973],[0.15499999999999994,0.28648148148148156],[0.16822916666666668,0.28703703703703703],[0.16333333333333327,0.2975925925925927],[0.15958333333333338,0.29666666666666675],[0.15958333333333338,0.29666666666666675],[0.16083333333333344,0.26518518518518525],[0.13697916666666668,0.290925925925926],[0.11843750000000004,0.31555555555555553],[0.10177083333333338,0.3177777777777778],[0.09249999999999996,0.3359259259259259],[0.07937500000000004,0.3625925925925925],[0.09281249999999991,0.3768518518518518],[0.09187500000000005,0.4022222222222223],[0.11822916666666666,0.3937037037037037],[0.12354166666666658,0.4022222222222223],[0.14635416666666667,0.43870370370370365],[0.13916666666666658,0.4324074074074074],[0.15177083333333338,0.42018518518518516],[0.1414583333333333,0.4444444444444444],[0.14104166666666676,0.44814814814814813],[0.14020833333333324,0.43796296296296294],[0.11802083333333328,0.4607407407407407],[0.12354166666666658,0.447037037037037],[0.11812500000000009,0.4681481481481481],[0.1125,0.48944444444444435],[0.09822916666666662,0.5114814814814815],[0.11875,0.519074074074074],[0.12531249999999997,0.5303703703703704],[0.13385416666666666,0.5205555555555555],[0.13802083333333334,0.518148148148148],[0.16302083333333334,0.5172222222222221],[0.1803124999999999,0.4988888888888888],[0.18875000000000006,0.5025925925925926],[0.19083333333333338,0.44907407407407407],[0.1929166666666667,0.3955555555555556],[0.21489583333333329,0.34888888888888886],[0.2193749999999999,0.3109259259259259],[0.22531249999999994,0.2653703703703703],[0.23447916666666657,0.24777777777777768],[0.23447916666666657,0.24777777777777768],[0.24354166666666663,0.22481481481481477],[0.24354166666666663,0.22481481481481477],[0.22020833333333342,0.2012962962962964],[0.23833333333333329,0.1787037037037037],[0.24520833333333342,0.15759259259259265],[0.24812500000000004,0.18111111111111103],[0.25052083333333336,0.1992592592592593],[0.25125000000000003,0.2338888888888888],[0.2594791666666666,0.26055555555555565],[0.24447916666666672,0.29796296296296293],[0.23093750000000005,0.31129629629629635],[0.23093750000000005,0.31129629629629635],[0.21749999999999994,0.33000000000000007],[0.22145833333333323,0.3527777777777778],[0.18364583333333329,0.3846296296296297],[0.18364583333333329,0.3846296296296297],[0.14583333333333334,0.41648148148148145],[0.1446875000000001,0.43740740740740747],[0.14406249999999995,0.4637037037037037],[0.12052083333333338,0.47537037037037044],[0.09864583333333338,0.48703703703703705],[0.09343750000000005,0.49666666666666676],[0.07520833333333338,0.5122222222222222],[0.06979166666666667,0.5164814814814814],[0.05239583333333329,0.5218518518518518],[0.05354166666666664,0.51],[0.049374999999999974,0.5079629629629628],[0.025833333333333285,0.5199999999999999],[0.01395833333333331,0.5274074074074073],[0.004270833333333357,0.5342592592592592],[-0.007083333333333286,0.5411111111111112],[-0.013125000000000024,0.5449999999999999],[0.0017708333333333807,0.5294444444444444],[0.0017708333333333807,0.5294444444444444],[0.01864583333333331,0.5375925925925925],[0.02510416666666669,0.5474074074074075],[0.04729166666666664,0.4740740740740741],[0.08979166666666671,0.36796296296296305],[0.14718749999999994,0.2633333333333334],[0.15822916666666675,0.1609259259259259],[0.15822916666666675,0.1609259259259259],[0.19041666666666662,0.06370370370370367],[0.23052083333333329,-0.027962962962963005],[0.28020833333333334,-0.12518518518518523],[0.3173958333333334,-0.21351851851851855],[0.32822916666666657,-0.29129629629629633],[0.32822916666666657,-0.29129629629629633],[0.36218750000000005,-0.39462962962962966],[0.3915625000000001,-0.40370370370370373],[0.36875,-0.4403703703703704],[0.36875,-0.4403703703703704],[0.3537499999999999,-0.445],[0.3537499999999999,-0.445],[0.3766666666666666,-0.4301851851851852],[0.36604166666666677,-0.4572222222222222],[0.3544791666666666,-0.495],[0.33312499999999995,-0.5253703703703704],[0.31312499999999993,-0.5551851851851852],[0.31312499999999993,-0.5551851851851852],[0.3271874999999999,-0.5844444444444444],[0.3271874999999999,-0.5844444444444444],[0.32874999999999993,-0.6085185185185186],[0.32874999999999993,-0.6085185185185186],[0.31906249999999997,-0.6246296296296296],[0.31906249999999997,-0.6246296296296296],[0.3388541666666666,-0.600925925925926],[0.3388541666666666,-0.600925925925926],[0.35875000000000007,-0.6246296296296296],[0.3734375,-0.6585185185185186],[0.40687499999999993,-0.6507407407407407],[0.40687499999999993,-0.6507407407407407],[0.4391666666666666,-0.6509259259259259],[0.4540625000000001,-0.6335185185185186],[0.48885416666666665,-0.6244444444444445],[0.5011458333333333,-0.6388888888888888],[0.49718749999999995,-0.6105555555555555],[0.49072916666666655,-0.5931481481481482],[0.4962500000000001,-0.5825925925925927],[0.47687499999999994,-0.5668518518518519],[0.46156249999999993,-0.5653703703703704],[0.46156249999999993,-0.5653703703703704],[0.4569791666666667,-0.5742592592592592],[0.4395833333333333,-0.5616666666666666],[0.4395833333333333,-0.5666666666666667],[0.4313541666666666,-0.5631481481481482],[0.42312500000000003,-0.5596296296296296],[0.42156250000000006,-0.5712962962962963],[0.44197916666666665,-0.5585185185185185],[0.44197916666666665,-0.5585185185185185],[0.45812499999999995,-0.5281481481481481],[0.45812499999999995,-0.5281481481481481],[0.4508333333333333,-0.49981481481481477],[0.43416666666666665,-0.4209259259259259],[0.42177083333333343,-0.34518518518518515],[0.42177083333333343,-0.34518518518518515],[0.4163541666666667,-0.2777777777777778],[0.4163541666666667,-0.2777777777777778],[0.40947916666666656,-0.22981481481481486],[0.40947916666666656,-0.22981481481481486],[0.40354166666666674,-0.20722222222222217],[0.40354166666666674,-0.20722222222222217],[0.3719791666666666,-0.18703703703703703],[0.3719791666666666,-0.18703703703703703],[0.37625000000000003,-0.16648148148148145],[0.37625000000000003,-0.16648148148148145],[0.3880208333333333,-0.16574074074074074],[0.384375,-0.1668518518518519],[0.4041666666666667,-0.16592592592592598],[0.4201041666666666,-0.2111111111111111],[0.4405208333333334,-0.25851851851851854],[0.46458333333333335,-0.2866666666666667],[0.4947916666666667,-0.2942592592592592]]","[[-0.2219791666666667,-0.032037037037036954,0.00040000009536811376],[-0.17625000000000005,-0.024814814814814772,0.04899999999999949],[-0.17625000000000005,-0.024814814814814772,0.07180000019073418],[-0.12229166666666665,-0.03592592592592588,0.08819999980926241],[-0.12229166666666665,-0.03592592592592588,0.09719999980926275],[-0.0626041666666667,-0.04388888888888897,0.10969999980926559],[-0.05510416666666664,-0.021851851851851768,0.1263000001907315],[-0.07302083333333335,-0.002962962962963005,0.14300000000000068],[-0.05604166666666662,-0.02629629629629638,0.15969999980926275],[-0.05604166666666662,-0.02629629629629638,0.17649999999999721],[-0.05687500000000002,-0.027962962962963005,0.1930999999046321],[-0.06916666666666664,-0.03814814814814819,0.21419999980926008],[-0.06916666666666664,-0.03814814814814819,0.2264000000953672],[-0.09145833333333328,-0.03166666666666671,0.24630000019072895],[-0.0858333333333333,-0.005185185185185101,0.25990000009536374],[-0.08489583333333334,0.03259259259259263,0.2768000001907325],[-0.08562500000000005,0.08055555555555556,0.2931999998092607],[-0.08989583333333329,0.06092592592592588,0.3101999998092637],[-0.05,0.07370370370370362,0.3264000000953615],[-0.017499999999999953,0.06759259259259259,0.3429999999999964],[0.014999999999999977,0.06148148148148157,0.36299999999999955],[0.029062499999999977,0.07314814814814814,0.3766999998092615],[0.029062499999999977,0.07314814814814814,0.3930000000000007],[0.06124999999999995,0.04592592592592584,0.4095999999046285],[0.06687500000000005,0.028703703703703703,0.42630000019072867],[0.06822916666666666,0.022592592592592678,0.44299999999999784],[0.06854166666666663,-0.002777777777777778,0.46080000019073],[0.03739583333333331,0.006111111111111027,0.47630000019073293],[0.03739583333333331,0.006111111111111027,0.49309999990462927],[0.024583333333333356,-0.028518518518518478,0.5096999998092642],[0.008229166666666643,-0.06796296296296295,0.5263000001907301],[0.008958333333333356,-0.07962962962962963,0.5456999998092655],[-0.009687499999999953,-0.05129629629629638,0.5610999999046271],[-0.009895833333333333,-0.040740740740740744,0.5771999998092596],[-0.00010416666666669035,-0.025185185185185227,0.6015999999046286],[-0.00010416666666669035,-0.025185185185185227,0.6099999999999994],[0.02822916666666669,0.002407407407407323,0.6265999999046272],[0.02822916666666669,0.002407407407407323,0.6431999998092621],[0.041458333333333285,0.00592592592592601,0.6659999999999968],[0.041458333333333285,0.00592592592592601,0.6765999999046315],[0.05593750000000005,0.09370370370370375,0.6933000001907317],[0.05593750000000005,0.09370370370370375,0.7190999999046284],[0.0896874999999999,0.044444444444444446,0.7263000001907329],[0.0896874999999999,0.044444444444444446,0.7430999999046293],[0.11687500000000005,0.08777777777777773,0.7595999999046299],[0.11687500000000005,0.08777777777777773,0.7764000000953644],[0.13552083333333323,0.0962962962962963,0.7930999999046264],[0.15895833333333323,0.08537037037037042,0.8104999999999976],[0.20177083333333337,0.034444444444444486,0.8264000000953615],[0.23135416666666658,-0.01574074074074074,0.8429999999999964],[0.26500000000000007,-0.012222222222222264,0.8596999998092656],[0.26500000000000007,-0.012222222222222264,0.8763000001907315],[0.24812500000000004,-0.03537037037037041,0.8965999999046304],[0.25197916666666675,-0.062407407407407384,0.911999999999999],[0.26062500000000005,-0.1655555555555555,0.926800000190731],[0.27197916666666655,-0.1838888888888889,0.9429999999999978],[0.28927083333333337,-0.21388888888888888,0.9603000001907347],[0.3150000000000001,-0.2294444444444444,0.9763000001907329],[0.32177083333333345,-0.2207407407407407,0.9949999999999974],[0.3306250000000001,-0.21944444444444444,1.0096999998092642],[0.3811458333333334,-0.2309259259259259,1.0268000001907325],[0.3836458333333333,-0.2322222222222222,1.0429999999999993],[0.4184375000000001,-0.2662962962962963,1.0596999998092613],[0.4540625000000001,-0.2959259259259259,1.0763000001907344],[0.46072916666666663,-0.24500000000000002,1.0959000000953623],[0.4523958333333333,-0.2059259259259259,1.113199999809261],[0.425,-0.15314814814814812,1.1310999999046274],[0.39656250000000004,-0.10203703703703708,1.14680000019073],[0.3728125000000001,-0.057777777777777754,1.1625999999046286],[0.34874999999999995,0.029814814814814856,1.1801999998092612],[0.34874999999999995,0.029814814814814856,1.1930999999046321],[0.29625000000000007,0.1294444444444444,1.2098000001907323],[0.29625000000000007,0.1294444444444444,1.2264000000953672],[0.26583333333333337,0.19092592592592597,1.242999999999995],[0.21260416666666657,0.27388888888888885,1.2629999999999981],[0.14500000000000005,0.3077777777777779,1.2768000001907325],[0.14500000000000005,0.3077777777777779,1.2930999999046264],[0.09322916666666667,0.27981481481481485,1.3098000001907337],[0.03270833333333331,0.2722222222222222,1.326900000095364],[-0.004375000000000047,0.24462962962962967,1.343199999809265],[-0.04375,0.20092592592592592,1.3595999999046313],[-0.08312499999999995,0.15722222222222218,1.3763000001907315],[-0.12781250000000005,0.11944444444444445,1.3961999998092622],[-0.16739583333333338,0.052037037037037076,1.4099999999999966],[-0.2045833333333333,0.005370370370370328,1.4263000001907287],[-0.2048958333333334,-0.0301851851851851,1.4429999999999978],[-0.2263541666666666,-0.014074074074074116,1.4598000001907323],[-0.24958333333333335,-0.03814814814814819,1.476300000190733],[-0.2543750000000001,-0.07037037037037037,1.493699999809266],[-0.2579166666666667,-0.10037037037037035,1.50959999990463],[-0.2454166666666667,-0.060370370370370414,1.5261999998092648],[-0.21312500000000004,-0.03518518518518519,1.5429999999999993],[-0.17218749999999997,-0.055185185185185205,1.5599999999999952],[-0.11854166666666661,-0.038703703703703664,1.5763000001907344],[-0.06270833333333338,-0.028888888888888933,1.5929999999999964],[-0.06270833333333338,-0.028888888888888933,1.6095999999046313],[-0.029270833333333357,0.02814814814814823,1.6263000001907315],[0.01895833333333338,0.05185185185185185,1.6440999999046326],[0.07604166666666666,0.08888888888888889,1.6604000000953647],[0.16208333333333325,0.13111111111111104,1.6763000001907287],[0.24052083333333343,0.16611111111111118,1.693400000095366],[0.26322916666666674,0.12907407407407415,1.70969999980926],[0.24489583333333323,0.18555555555555564,1.7305999999046264],[0.20114583333333325,0.2103703703703704,1.7464999999999975],[0.13708333333333325,0.2668518518518519,1.762199999809262],[0.07552083333333333,0.28481481481481474,1.7768000001907325],[0.028645833333333332,0.2853703703703704,1.7953000001907355],[-0.014479166666666644,0.31129629629629635,1.8130999999046296],[-0.08020833333333334,0.28851851851851845,1.828400000095364],[-0.17687499999999995,0.2814814814814815,1.843599999904633],[-0.2621875000000001,0.3237037037037036,1.8599000000953652],[-0.32083333333333336,0.322037037037037,1.876800000190734],[-0.32843749999999994,0.23629629629629634,1.8944000000953665],[-0.3202083333333333,0.17925925925925917,1.9124000000953671],[-0.3094791666666667,0.0837037037037038,1.9293000001907288],[-0.30531250000000004,0.07537037037037045,1.9459000000953637],[-0.3116666666666667,0.0492592592592593,1.95969999980926],[-0.2985416666666667,0.03370370370370379,1.9791999998092606],[-0.26281249999999995,0.0668518518518519,1.9971999998092613],[-0.18958333333333333,0.1337037037037038,2.0105999999046276],[-0.12770833333333337,0.15129629629629637,2.02630000019073],[-0.03697916666666667,0.23370370370370377,2.0429999999999993],[0.023958333333333335,0.32148148148148153,2.059599999904627],[0.07510416666666657,0.40629629629629627,2.0763000001907344],[0.13541666666666666,0.48870370370370364,2.095800000190735],[0.1828125,0.5337037037037038,2.115099999904629],[0.2397916666666667,0.4770370370370371,2.1306999998092593],[0.2696875000000001,0.43074074074074076,2.1504000000953667],[0.2696875000000001,0.43074074074074076,2.159800000190735],[0.2912499999999999,0.41351851851851845,2.1809999999999974],[0.2912499999999999,0.41351851851851845,2.1933000001907317],[0.27583333333333326,0.34333333333333327,2.210000000000001],[0.27583333333333326,0.34333333333333327,2.2313000001907355],[0.2727083333333333,0.23074074074074077,2.2431999998092635],[0.2582291666666668,0.1485185185185186,2.2598000001907295],[0.22979166666666656,0.07888888888888893,2.276599999904633],[0.21510416666666668,0.057037037037036956,2.2996999998092633],[0.21510416666666668,0.057037037037036956,2.309999999999995],[0.2259375000000001,-0.03944444444444436,2.3266999998092643],[0.23333333333333334,-0.17314814814814813,2.3464000000953646],[0.24416666666666675,-0.2064814814814815,2.3619000000953676],[0.2587500000000001,-0.24296296296296294,2.3769999999999953],[0.28781249999999997,-0.2953703703703704,2.3934000000953617],[0.29093749999999996,-0.32,2.4096999998092627],[0.28177083333333336,-0.3022222222222222,2.430099999904627],[0.2865624999999999,-0.3425925925925926,2.4436999998092617],[0.30531249999999993,-0.3955555555555556,2.4599000000953666],[0.32822916666666657,-0.47833333333333333,2.476300000190733],[0.3277083333333332,-0.4883333333333333,2.4950999999046317],[0.3607291666666666,-0.4975925925925926,2.5120999999046276],[0.3807291666666667,-0.5055555555555555,2.527300000190735],[0.3785416666666668,-0.5312962962962963,2.5449000000953674],[0.3927083333333333,-0.5842592592592593,2.5600999999046294],[0.4322916666666667,-0.6457407407407407,2.5763000001907344],[0.4508333333333333,-0.6905555555555555,2.5951999998092603],[0.4508333333333333,-0.6905555555555555,2.6096999998092656],[0.45427083333333323,-0.7087037037037037,2.6263000001907315],[0.45427083333333323,-0.7087037037037037,2.6430000000000007],[0.47645833333333343,-0.725,2.6596999998092627],[0.4946875000000001,-0.7251851851851853,2.676400000095363],[0.4740624999999999,-0.7303703703703703,2.6973000001907295],[0.4353125000000001,-0.7087037037037037,2.71419999980926],[0.39656250000000004,-0.687037037037037,2.7303000001907307],[0.3883333333333333,-0.6546296296296297,2.748800000190734],[0.3883333333333333,-0.6546296296296297,2.75959999990463],[0.3576041666666666,-0.6081481481481481,2.77630000019073],[0.3576041666666666,-0.6081481481481481,2.7929999999999993],[0.3316666666666668,-0.5833333333333334,2.8096999998092613],[0.34833333333333344,-0.5835185185185185,2.82959999990463],[0.35395833333333326,-0.570925925925926,2.8470999999046285],[0.3408333333333334,-0.5601851851851852,2.8638000001907287],[0.31749999999999995,-0.5857407407407408,2.880499999999998],[0.31749999999999995,-0.5857407407407408,2.8930000000000007],[0.30572916666666666,-0.5825925925925927,2.9096999998092627],[0.33083333333333326,-0.605,2.9295999999046316],[0.3429166666666667,-0.6153703703703703,2.9475999999046323],[0.35052083333333334,-0.6364814814814814,2.965199999809265],[0.35052083333333334,-0.6364814814814814,2.976300000190733],[0.35812499999999997,-0.6575925925925926,2.9931999998092635],[0.36083333333333345,-0.6527777777777778,3.012900000095364],[0.32302083333333326,-0.640925925925926,3.0309000000953645],[0.32302083333333326,-0.640925925925926,3.0490999999046267],[0.3021874999999999,-0.6361111111111111,3.0596999998092613],[0.28364583333333326,-0.6357407407407407,3.079499999999996],[0.28364583333333326,-0.6357407407407407,3.0930999999046307],[0.2694791666666667,-0.6294444444444444,3.1095999999046313],[0.2640625,-0.6325925925925926,3.1314999999999955],[0.23687500000000009,-0.6035185185185185,3.1478000001907347],[0.21770833333333334,-0.5803703703703703,3.165300000190733],[0.21770833333333334,-0.5803703703703703,3.1776999998092634],[0.20020833333333338,-0.5357407407407407,3.193099999904632],[0.20020833333333338,-0.5357407407407407,3.20969999980926],[0.190625,-0.5433333333333333,3.2264999999999944],[0.15520833333333334,-0.5068518518518518,3.2430999999046293],[0.1430208333333333,-0.465,3.259699999809264],[0.12645833333333342,-0.4318518518518518,3.27669999980926],[0.10750000000000005,-0.4009259259259259,3.296199999809261],[0.07427083333333329,-0.3514814814814815,3.312599999904627],[0.04833333333333331,-0.31203703703703706,3.3293000001907345],[0.021458333333333357,-0.2855555555555555,3.3456999998092627],[-0.004479166666666619,-0.24240740740740738,3.3636999998092634],[-0.004479166666666619,-0.24240740740740738,3.376199999809259],[-0.03208333333333328,-0.2207407407407407,3.3933000001907345],[-0.06447916666666664,-0.17462962962962966,3.4129000000953624],[-0.06739583333333338,-0.16814814814814816,3.429099999904629],[-0.06739583333333338,-0.16814814814814816,3.4429000000953636],[-0.07458333333333336,-0.16574074074074074,3.45969999980926],[-0.08489583333333334,-0.14907407407407408,3.484499999999997],[-0.08489583333333334,-0.14907407407407408,3.4930999999046293],[-0.07697916666666664,-0.14629629629629629,3.509699999809264],[-0.06604166666666664,-0.15833333333333333,3.5311999998092602],[-0.06604166666666664,-0.15833333333333333,3.5429999999999993],[-0.06197916666666667,-0.16370370370370366,3.5596999998092613],[-0.0672916666666667,-0.15962962962962962,3.577300000190732],[-0.0672916666666667,-0.15962962962962962,3.5930999999046307],[-0.06854166666666663,-0.17833333333333334,3.6096999998092656],[-0.06854166666666663,-0.17833333333333334,3.626400000095366],[-0.06614583333333333,-0.20537037037037034,3.6430000000000007],[-0.06614583333333333,-0.20537037037037034,3.6596999998092627],[-0.06083333333333331,-0.21518518518518517,3.676400000095363],[-0.06083333333333331,-0.21518518518518517,3.692999999999998],[-0.07729166666666672,-0.22759259259259254,3.70969999980926],[-0.07729166666666672,-0.22759259259259254,3.726400000095367],[-0.09833333333333331,-0.23351851851851857,3.742999999999995],[-0.09833333333333331,-0.23351851851851857,3.75959999990463],[-0.10729166666666666,-0.2477777777777778,3.77630000019073],[-0.10729166666666666,-0.2477777777777778,3.793300000190733],[-0.12989583333333338,-0.23981481481481481,3.809599999904627],[-0.15218750000000003,-0.22259259259259256,3.8264000000953615],[-0.14968750000000006,-0.20925925925925926,3.842900000095362],[-0.16187499999999996,-0.2074074074074074,3.864300000190731],[-0.17635416666666662,-0.19796296296296292,3.8795999999046273],[-0.19010416666666666,-0.18592592592592588,3.89680000019073],[-0.19010416666666666,-0.18592592592592588,3.911199999809263],[-0.1734375,-0.10388888888888893,3.9263000001907287],[-0.15968749999999995,0.006111111111111027,3.943400000095366],[-0.14052083333333332,0.10240740740740732,3.9599000000953666],[-0.09802083333333336,0.17962962962962964,3.9769000000953625],[-0.060000000000000026,0.2551851851851851,3.9934999999999974],[0.008645833333333287,0.3088888888888888,4.0105],[0.059375,0.35981481481481475,4.026999999999994],[0.10374999999999991,0.4324074074074074,4.042900000095365],[0.15041666666666675,0.49740740740740746,4.061999999999998],[0.20031249999999995,0.5605555555555556,4.076999999999998],[0.21375000000000005,0.5642592592592593,4.094999999999999],[0.23947916666666677,0.5287037037037037,4.1104000000953675],[0.26437499999999997,0.5003703703703705,4.132999999999996],[0.26437499999999997,0.5003703703703705,4.142900000095366],[0.24020833333333325,0.4868518518518518,4.159699999809263],[0.21604166666666677,0.4733333333333334,4.181599999904627],[0.21604166666666677,0.4733333333333334,4.208500000000001],[0.1881249999999999,0.4737037037037036,4.231900000095365],[0.1881249999999999,0.4737037037037036,4.241],[0.1881249999999999,0.4737037037037036,4.243599999904632],[0.15958333333333338,0.45129629629629636,4.259699999809264],[0.15229166666666671,0.41388888888888886,4.2794000000953645],[0.15229166666666671,0.41388888888888886,4.293300000190733],[0.14291666666666672,0.3725925925925927,4.309699999809261],[0.10052083333333334,0.3487037037037036,4.3264000000953615],[0.10052083333333334,0.3487037037037036,4.342900000095362],[0.06510416666666667,0.31425925925925935,4.359599999904631],[0.019687499999999976,0.287962962962963,4.376800000190734],[-0.003333333333333381,0.26518518518518525,4.393000000000001],[-0.013541666666666667,0.2598148148148147,4.409800000190735],[-0.02374999999999995,0.2544444444444444,4.426400000095363],[-0.05291666666666662,0.24203703703703713,4.442999999999998],[-0.090625,0.25277777777777777,4.459599999904633],[-0.13406250000000006,0.2727777777777777,4.476300000190733],[-0.17541666666666664,0.29666666666666675,4.492999999999995],[-0.19302083333333328,0.2972222222222222,4.509699999809264],[-0.21760416666666665,0.30833333333333335,4.52630000019073],[-0.21656249999999996,0.3087037037037038,4.543099999904626],[-0.23791666666666664,0.3055555555555556,4.559599999904627],[-0.256875,0.2862962962962963,4.576199999809262],[-0.2773958333333333,0.2785185185185185,4.593900000095367],[-0.28875000000000006,0.27833333333333327,4.609599999904631],[-0.27125,0.24944444444444452,4.6266999998092615],[-0.27749999999999997,0.244074074074074,4.642900000095366],[-0.26885416666666667,0.21666666666666667,4.659699999809263],[-0.26187499999999997,0.2064814814814815,4.676300000190729],[-0.24343750000000006,0.2014814814814814,4.693300000190732],[-0.23177083333333334,0.20425925925925917,4.709599999904633],[-0.23489583333333333,0.20092592592592592,4.726599999904629],[-0.23364583333333327,0.202962962962963,4.745900000095368],[-0.23364583333333327,0.19537037037037036,4.7624000000953615],[-0.23489583333333333,0.17222222222222222,4.776499999999999],[-0.25583333333333336,0.17740740740740732,4.793099999904626],[-0.2755208333333333,0.20925925925925926,4.809699999809261],[-0.2755208333333333,0.20925925925925926,4.826199999809262],[-0.290625,0.20870370370370378,4.843199999809265],[-0.29375,0.24777777777777768,4.862300000190736],[-0.3241666666666667,0.28777777777777774,4.87859999990463],[-0.35093749999999996,0.32388888888888884,4.897300000190732],[-0.36739583333333337,0.3685185185185185,4.913199999809265],[-0.38822916666666674,0.40777777777777785,4.930099999904627],[-0.4013541666666666,0.44962962962962955,4.946800000190734],[-0.41281249999999997,0.49981481481481477,4.960000000000001],[-0.42468750000000005,0.5572222222222222,4.976300000190733],[-0.40739583333333335,0.5496296296296296,4.994999999999997],[-0.40958333333333335,0.5964814814814815,5.00959999990463],[-0.431875,0.6064814814814815,5.026400000095364],[-0.4383333333333333,0.6103703703703705,5.042900000095365],[-0.4005208333333333,0.5866666666666666,5.059699999809261],[-0.37072916666666667,0.5677777777777778,5.076199999809262],[-0.32875000000000004,0.51,5.093199999809265],[-0.296875,0.43555555555555564,5.112300000190736],[-0.2672916666666667,0.375,5.1265],[-0.2247916666666666,0.29796296296296293,5.143199999809262],[-0.19197916666666662,0.22592592592592592,5.163199999809265],[-0.19197916666666662,0.22592592592592592,5.176499999999997],[-0.15406249999999996,0.14537037037037037,5.193099999904632],[-0.15406249999999996,0.14537037037037037,5.209900000095367],[-0.10874999999999997,0.06111111111111111,5.226400000095367],[-0.07135416666666666,-0.037037037037037035,5.242999999999995],[-0.08187500000000002,-0.1037037037037037,5.25959999990463],[-0.08156249999999995,-0.11259259259259262,5.276400000095364],[-0.09343750000000005,-0.08259259259259263,5.293099999904626],[-0.10104166666666667,-0.05648148148148148,5.309699999809261],[-0.10677083333333333,-0.037037037037037035,5.326300000190734],[-0.13177083333333334,-0.040370370370370286,5.342999999999996],[-0.14802083333333335,-0.04314814814814806,5.359699999809266],[-0.16937500000000003,-0.03740740740740749,5.3763000001907315],[-0.18135416666666668,-0.04407407407407399,5.393199999809262],[-0.18541666666666667,-0.03685185185185181,5.4095999999046285],[-0.18875000000000006,-0.02759259259259255,5.426400000095363],[-0.19041666666666662,-0.08333333333333333,5.442900000095364],[-0.1953125,-0.15388888888888894,5.459800000190732],[-0.19927083333333329,-0.20833333333333334,5.4