inst1_resp.keys,inst1_resp.rt,calibrationMouse.x,calibrationMouse.y,calibrationMouse.leftButton,calibrationMouse.midButton,calibrationMouse.rightButton,calibrationClick.x,calibrationClick.y,calibrationClick.leftButton,calibrationClick.midButton,calibrationClick.rightButton,calibrationClick.clicked_name,trialsc.thisRepN,trialsc.thisTrialN,trialsc.thisN,trialsc.thisIndex,trialsc.ran,calibration_x,calibration_y,participant,session,date,expName,psychopyVersion,OS,frameRate,ScreenRes_pixels,Camera_pixels,mouse_2.x,mouse_2.y,mouse_2.leftButton,mouse_2.midButton,mouse_2.rightButton,mouse_2.time,mouse_2.clicked_name,mouse.x,mouse.y,mouse.leftButton,mouse.midButton,mouse.rightButton,mouse.time,mouse.clicked_name,Choice,Trial,TrialDuration,MOUSE_GAZE,ET_GAZE,ET_GAZE_x_T,time,unixTime,ET_GAZE_NF,Loc_Bus_label,Loc_Metro_label,Loc_RH_label,Loc_Cost_label,Loc_Travel_label,Loc_Comfort_label,Loc_Bus_cost,Loc_Metro_cost,Loc_RH_cost,Loc_Bus_travel,Loc_Metro_travel,Loc_RH_travel,Loc_Bus_comfort,Loc_Metro_comfort,Loc_RH_comfort,trials.thisRepN,trials.thisTrialN,trials.thisN,trials.thisIndex,trials.ran,Block,Device,RH_cost,RH_travel_time,RH_Comfort,metro_cost,metro_travel_time,metro_Comfort,Bus_cost,Bus_travel_time,Bus_Comfort
space,2.6606,-0.158333333,-0.268518519,1,0,0,0.6625,-0.666666667,1,0,0,calibration_square,0,0,0,20,1,0.67,-0.67,09,001,2024-11-19_15h17.48.594,Attention_exp_legacy,2023.1.0,Win32,60.24096386,,,,,,,,,,,,,,,,,,,,,,,,,,,,,,,,,,,,,,,,,,,,,,,,,,,,,,,,
,,,,,,,0,0.325925926,1,0,0,calibration_square,0,1,1,12,1,0,0.33,09,001,2024-11-19_15h17.48.594,Attention_exp_legacy,2023.1.0,Win32,60.24096386,,,,,,,,,,,,,,,,,,,,,,,,,,,,,,,,,,,,,,,,,,,,,,,,,,,,,,,,
,,,,,,,0.326041667,0.32962963,1,0,0,calibration_square,0,2,2,17,1,0.33,0.33,09,001,2024-11-19_15h17.48.594,Attention_exp_legacy,2023.1.0,Win32,60.24096386,,,,,,,,,,,,,,,,,,,,,,,,,,,,,,,,,,,,,,,,,,,,,,,,,,,,,,,,
,,,,,,,-0.003125,-0.316666667,1,0,0,,0,3,3,10,1,0,-0.33,09,001,2024-11-19_15h17.48.594,Attention_exp_legacy,2023.1.0,Win32,60.24096386,,,,,,,,,,,,,,,,,,,,,,,,,,,,,,,,,,,,,,,,,,,,,,,,,,,,,,,,
,,,,,,,-0.678125,-0.331481481,1,0,0,calibration_square,0,4,4,1,1,-0.67,-0.33,09,001,2024-11-19_15h17.48.594,Attention_exp_legacy,2023.1.0,Win32,60.24096386,,,,,,,,,,,,,,,,,,,,,,,,,,,,,,,,,,,,,,,,,,,,,,,,,,,,,,,,
,,,,,,,0.3375,-0.012962963,1,0,0,,0,5,5,16,1,0.33,0,09,001,2024-11-19_15h17.48.594,Attention_exp_legacy,2023.1.0,Win32,60.24096386,,,,,,,,,,,,,,,,,,,,,,,,,,,,,,,,,,,,,,,,,,,,,,,,,,,,,,,,
,,,,,,,-0.342708333,0.009259259,1,0,0,,0,6,6,6,1,-0.33,0,09,001,2024-11-19_15h17.48.594,Attention_exp_legacy,2023.1.0,Win32,60.24096386,,,,,,,,,,,,,,,,,,,,,,,,,,,,,,,,,,,,,,,,,,,,,,,,,,,,,,,,
,,,,,,,-0.322916667,0.657407407,1,0,0,,0,7,7,8,1,-0.33,0.67,09,001,2024-11-19_15h17.48.594,Attention_exp_legacy,2023.1.0,Win32,60.24096386,,,,,,,,,,,,,,,,,,,,,,,,,,,,,,,,,,,,,,,,,,,,,,,,,,,,,,,,
,,,,,,,0.002083333,-0.675925926,1,0,0,calibration_square,0,8,8,9,1,0,-0.67,09,001,2024-11-19_15h17.48.594,Attention_exp_legacy,2023.1.0,Win32,60.24096386,,,,,,,,,,,,,,,,,,,,,,,,,,,,,,,,,,,,,,,,,,,,,,,,,,,,,,,,
,,,,,,,0.328125,0.675925926,1,0,0,calibration_square,0,9,9,18,1,0.33,0.67,09,001,2024-11-19_15h17.48.594,Attention_exp_legacy,2023.1.0,Win32,60.24096386,,,,,,,,,,,,,,,,,,,,,,,,,,,,,,,,,,,,,,,,,,,,,,,,,,,,,,,,
,,,,,,,-0.667708333,0.318518519,1,0,0,,0,10,10,3,1,-0.67,0.33,09,001,2024-11-19_15h17.48.594,Attention_exp_legacy,2023.1.0,Win32,60.24096386,,,,,,,,,,,,,,,,,,,,,,,,,,,,,,,,,,,,,,,,,,,,,,,,,,,,,,,,
,,,,,,,0.665625,0.65,1,0,0,,0,11,11,19,1,0.67,0.67,09,001,2024-11-19_15h17.48.594,Attention_exp_legacy,2023.1.0,Win32,60.24096386,,,,,,,,,,,,,,,,,,,,,,,,,,,,,,,,,,,,,,,,,,,,,,,,,,,,,,,,
,,,,,,,-0.682291667,-0.011111111,1,0,0,,0,12,12,2,1,-0.67,0,09,001,2024-11-19_15h17.48.594,Attention_exp_legacy,2023.1.0,Win32,60.24096386,,,,,,,,,,,,,,,,,,,,,,,,,,,,,,,,,,,,,,,,,,,,,,,,,,,,,,,,
,,,,,,,-0.348958333,-0.307407407,1,0,0,,0,13,13,5,1,-0.33,-0.33,09,001,2024-11-19_15h17.48.594,Attention_exp_legacy,2023.1.0,Win32,60.24096386,,,,,,,,,,,,,,,,,,,,,,,,,,,,,,,,,,,,,,,,,,,,,,,,,,,,,,,,
,,,,,,,0.326041667,-0.659259259,1,0,0,,0,14,14,14,1,0.33,-0.67,09,001,2024-11-19_15h17.48.594,Attention_exp_legacy,2023.1.0,Win32,60.24096386,,,,,,,,,,,,,,,,,,,,,,,,,,,,,,,,,,,,,,,,,,,,,,,,,,,,,,,,
,,,,,,,-0.333333333,0.32962963,1,0,0,calibration_square,0,15,15,7,1,-0.33,0.33,09,001,2024-11-19_15h17.48.594,Attention_exp_legacy,2023.1.0,Win32,60.24096386,,,,,,,,,,,,,,,,,,,,,,,,,,,,,,,,,,,,,,,,,,,,,,,,,,,,,,,,
,,,,,,,0.002083333,0.672222222,1,0,0,calibration_square,0,16,16,13,1,0,0.67,09,001,2024-11-19_15h17.48.594,Attention_exp_legacy,2023.1.0,Win32,60.24096386,,,,,,,,,,,,,,,,,,,,,,,,,,,,,,,,,,,,,,,,,,,,,,,,,,,,,,,,
,,,,,,,0.328125,-0.32962963,1,0,0,calibration_square,0,17,17,15,1,0.33,-0.33,09,001,2024-11-19_15h17.48.594,Attention_exp_legacy,2023.1.0,Win32,60.24096386,,,,,,,,,,,,,,,,,,,,,,,,,,,,,,,,,,,,,,,,,,,,,,,,,,,,,,,,
,,,,,,,-0.660416667,-0.674074074,1,0,0,calibration_square,0,18,18,0,1,-0.67,-0.67,09,001,2024-11-19_15h17.48.594,Attention_exp_legacy,2023.1.0,Win32,60.24096386,,,,,,,,,,,,,,,,,,,,,,,,,,,,,,,,,,,,,,,,,,,,,,,,,,,,,,,,
,,,,,,,0.003125,-0.005555556,1,0,0,calibration_square,0,19,19,11,1,0,0,09,001,2024-11-19_15h17.48.594,Attention_exp_legacy,2023.1.0,Win32,60.24096386,,,,,,,,,,,,,,,,,,,,,,,,,,,,,,,,,,,,,,,,,,,,,,,,,,,,,,,,
,,,,,,,-0.317708333,-0.661111111,1,0,0,,0,20,20,4,1,-0.33,-0.67,09,001,2024-11-19_15h17.48.594,Attention_exp_legacy,2023.1.0,Win32,60.24096386,,,,,,,,,,,,,,,,,,,,,,,,,,,,,,,,,,,,,,,,,,,,,,,,,,,,,,,,
,,,,,,,,,,,,,,,,,,,,09,001,2024-11-19_15h17.48.594,Attention_exp_legacy,2023.1.0,Win32,60.24096386,"[1920,1080]","[640,480]",[-0.028125],[-0.5037037037037037],[1],[0],[0],[9.379799999713896],"[""StartButton""]",[0.19166666666666668],[0.4222222222222222],[1],[0],[0],[7.501099999904632],"[""Metro_label""]",Metro_label,1,8.5117,"[[0.011458333333333333,-0.22777777777777777],[0.011458333333333333,-0.22777777777777777],[0.011458333333333333,-0.22777777777777777],[0.011458333333333333,-0.22777777777777777],[0.011458333333333333,-0.22777777777777777],[0.011458333333333333,-0.22777777777777777],[0.011458333333333333,-0.22777777777777777],[0.011458333333333333,-0.22777777777777777],[0.011458333333333333,-0.22777777777777777],[0.011458333333333333,-0.22777777777777777],[0.011458333333333333,-0.22777777777777777],[0.011458333333333333,-0.22777777777777777],[0.011458333333333333,-0.22777777777777777],[0.011458333333333333,-0.22777777777777777],[0.011458333333333333,-0.22777777777777777],[0.011458333333333333,-0.22777777777777777],[0.011458333333333333,-0.22777777777777777],[0.011458333333333333,-0.22777777777777777],[0.011458333333333333,-0.22777777777777777],[0.011458333333333333,-0.22777777777777777],[0.011458333333333333,-0.22777777777777777],[0.011458333333333333,-0.22777777777777777],[0.011458333333333333,-0.22777777777777777],[0.011458333333333333,-0.22777777777777777],[0.011458333333333333,-0.22777777777777777],[0.011458333333333333,-0.22777777777777777],[0.011458333333333333,-0.22777777777777777],[0.011458333333333333,-0.22777777777777777],[0.011458333333333333,-0.22777777777777777],[0.011458333333333333,-0.22777777777777777],[0.011458333333333333,-0.22777777777777777],[0.011458333333333333,-0.22777777777777777],[0.011458333333333333,-0.22777777777777777],[0.011458333333333333,-0.22777777777777777],[0.011458333333333333,-0.22777777777777777],[0.011458333333333333,-0.22777777777777777],[0.011458333333333333,-0.22777777777777777],[0.011458333333333333,-0.22777777777777777],[0.011458333333333333,-0.22777777777777777],[0.011458333333333333,-0.22777777777777777],[0.011458333333333333,-0.22777777777777777],[0.011458333333333333,-0.22777777777777777],[0.011458333333333333,-0.22777777777777777],[0.011458333333333333,-0.22777777777777777],[0.011458333333333333,-0.22777777777777777],[0.011458333333333333,-0.22777777777777777],[0.011458333333333333,-0.22777777777777777],[0.011458333333333333,-0.22777777777777777],[0.011458333333333333,-0.22777777777777777],[0.011458333333333333,-0.22777777777777777],[0.011458333333333333,-0.22777777777777777],[0.011458333333333333,-0.22777777777777777],[0.011458333333333333,-0.22777777777777777],[0.011458333333333333,-0.22777777777777777],[0.011458333333333333,-0.22777777777777777],[0.011458333333333333,-0.22777777777777777],[0.011458333333333333,-0.22777777777777777],[0.011458333333333333,-0.22777777777777777],[0.011458333333333333,-0.22777777777777777],[0.011458333333333333,-0.22777777777777777],[0.011458333333333333,-0.22777777777777777],[0.011458333333333333,-0.22777777777777777],[0.011458333333333333,-0.22777777777777777],[0.011458333333333333,-0.22592592592592592],[0.0010416666666666667,-0.20925925925925926],[-0.009375,-0.19814814814814816],[-0.017708333333333333,-0.19074074074074074],[-0.03125,-0.17777777777777778],[-0.052083333333333336,-0.15925925925925927],[-0.07083333333333333,-0.1388888888888889],[-0.08541666666666667,-0.12407407407407407],[-0.08541666666666667,-0.12407407407407407],[-0.08541666666666667,-0.12407407407407407],[-0.08541666666666667,-0.12407407407407407],[-0.08541666666666667,-0.12407407407407407],[-0.08541666666666667,-0.12407407407407407],[-0.08541666666666667,-0.12407407407407407],[-0.08541666666666667,-0.12407407407407407],[-0.08541666666666667,-0.12407407407407407],[-0.08541666666666667,-0.12407407407407407],[-0.08541666666666667,-0.12407407407407407],[-0.08541666666666667,-0.12407407407407407],[-0.08541666666666667,-0.12407407407407407],[-0.08541666666666667,-0.12407407407407407],[-0.08541666666666667,-0.12407407407407407],[-0.08541666666666667,-0.12407407407407407],[-0.08541666666666667,-0.12407407407407407],[-0.08541666666666667,-0.12407407407407407],[-0.08541666666666667,-0.12407407407407407],[-0.08541666666666667,-0.12407407407407407],[-0.08541666666666667,-0.12407407407407407],[-0.08541666666666667,-0.12407407407407407],[-0.08541666666666667,-0.12407407407407407],[-0.08541666666666667,-0.12407407407407407],[-0.08541666666666667,-0.12407407407407407],[-0.08541666666666667,-0.12407407407407407],[-0.08541666666666667,-0.12407407407407407],[-0.08541666666666667,-0.12407407407407407],[-0.08541666666666667,-0.12407407407407407],[-0.08541666666666667,-0.12407407407407407],[-0.08541666666666667,-0.12407407407407407],[-0.08541666666666667,-0.12407407407407407],[-0.08541666666666667,-0.12407407407407407],[-0.08541666666666667,-0.12407407407407407],[-0.08541666666666667,-0.12407407407407407],[-0.08541666666666667,-0.12407407407407407],[-0.08541666666666667,-0.12407407407407407],[-0.08541666666666667,-0.12407407407407407],[-0.08541666666666667,-0.12407407407407407],[-0.08541666666666667,-0.12407407407407407],[-0.08541666666666667,-0.12407407407407407],[-0.08541666666666667,-0.1259259259259259],[-0.08541666666666667,-0.1259259259259259],[-0.08541666666666667,-0.1259259259259259],[-0.08541666666666667,-0.1259259259259259],[-0.08541666666666667,-0.1259259259259259],[-0.08541666666666667,-0.1259259259259259],[-0.08541666666666667,-0.1259259259259259],[-0.08541666666666667,-0.1259259259259259],[-0.08541666666666667,-0.1259259259259259],[-0.08541666666666667,-0.1259259259259259],[-0.08541666666666667,-0.12777777777777777],[-0.08541666666666667,-0.12777777777777777],[-0.08541666666666667,-0.12777777777777777],[-0.08541666666666667,-0.12777777777777777],[-0.08541666666666667,-0.12777777777777777],[-0.08541666666666667,-0.12777777777777777],[-0.08541666666666667,-0.12777777777777777],[-0.08541666666666667,-0.12777777777777777],[-0.08541666666666667,-0.12777777777777777],[-0.08541666666666667,-0.12777777777777777],[-0.08541666666666667,-0.12777777777777777],[-0.08541666666666667,-0.12777777777777777],[-0.08541666666666667,-0.12777777777777777],[-0.08541666666666667,-0.12777777777777777],[-0.08541666666666667,-0.12777777777777777],[-0.08541666666666667,-0.12777777777777777],[-0.08541666666666667,-0.12777777777777777],[-0.08541666666666667,-0.12777777777777777],[-0.08541666666666667,-0.12777777777777777],[-0.08541666666666667,-0.12777777777777777],[-0.08541666666666667,-0.12777777777777777],[-0.08541666666666667,-0.12777777777777777],[-0.08541666666666667,-0.12777777777777777],[-0.08541666666666667,-0.12777777777777777],[-0.08541666666666667,-0.12777777777777777],[-0.08541666666666667,-0.12777777777777777],[-0.08541666666666667,-0.12777777777777777],[-0.08541666666666667,-0.12777777777777777],[-0.08541666666666667,-0.12777777777777777],[-0.08541666666666667,-0.12777777777777777],[-0.08541666666666667,-0.12777777777777777],[-0.08541666666666667,-0.12777777777777777],[-0.08541666666666667,-0.12777777777777777],[-0.08541666666666667,-0.12777777777777777],[-0.08541666666666667,-0.12777777777777777],[-0.08541666666666667,-0.12777777777777777],[-0.08541666666666667,-0.12777777777777777],[-0.08541666666666667,-0.12777777777777777],[-0.08541666666666667,-0.12777777777777777],[-0.08541666666666667,-0.12777777777777777],[-0.08541666666666667,-0.12777777777777777],[-0.08541666666666667,-0.12777777777777777],[-0.08541666666666667,-0.12777777777777777],[-0.08541666666666667,-0.12777777777777777],[-0.08541666666666667,-0.12777777777777777],[-0.08541666666666667,-0.12777777777777777],[-0.08541666666666667,-0.12777777777777777],[-0.08541666666666667,-0.12777777777777777],[-0.08541666666666667,-0.12777777777777777],[-0.08541666666666667,-0.12777777777777777],[-0.08541666666666667,-0.12777777777777777],[-0.08541666666666667,-0.12777777777777777],[-0.08541666666666667,-0.12777777777777777],[-0.08541666666666667,-0.12777777777777777],[-0.08541666666666667,-0.12777777777777777],[-0.08541666666666667,-0.12777777777777777],[-0.08541666666666667,-0.12777777777777777],[-0.08541666666666667,-0.12777777777777777],[-0.08541666666666667,-0.12777777777777777],[-0.08541666666666667,-0.12777777777777777],[-0.08541666666666667,-0.12777777777777777],[-0.08541666666666667,-0.12777777777777777],[-0.08541666666666667,-0.12777777777777777],[-0.08541666666666667,-0.12777777777777777],[-0.08541666666666667,-0.12777777777777777],[-0.08541666666666667,-0.12777777777777777],[-0.08541666666666667,-0.12777777777777777],[-0.08541666666666667,-0.12777777777777777],[-0.08541666666666667,-0.12777777777777777],[-0.08541666666666667,-0.12777777777777777],[-0.08541666666666667,-0.12777777777777777],[-0.08541666666666667,-0.12777777777777777],[-0.08541666666666667,-0.12777777777777777],[-0.08541666666666667,-0.12777777777777777],[-0.08541666666666667,-0.12777777777777777],[-0.08541666666666667,-0.12777777777777777],[-0.08541666666666667,-0.12777777777777777],[-0.08541666666666667,-0.12777777777777777],[-0.08541666666666667,-0.12777777777777777],[-0.08541666666666667,-0.12777777777777777],[-0.08541666666666667,-0.12777777777777777],[-0.08541666666666667,-0.12777777777777777],[-0.08541666666666667,-0.12777777777777777],[-0.08541666666666667,-0.12777777777777777],[-0.08541666666666667,-0.12777777777777777],[-0.08541666666666667,-0.12777777777777777],[-0.08541666666666667,-0.12777777777777777],[-0.08541666666666667,-0.12777777777777777],[-0.08541666666666667,-0.12777777777777777],[-0.08541666666666667,-0.12777777777777777],[-0.08541666666666667,-0.12777777777777777],[-0.08541666666666667,-0.12777777777777777],[-0.08541666666666667,-0.12777777777777777],[-0.08541666666666667,-0.12777777777777777],[-0.08541666666666667,-0.12777777777777777],[-0.08541666666666667,-0.12777777777777777],[-0.08541666666666667,-0.12777777777777777],[-0.08541666666666667,-0.12777777777777777],[-0.08541666666666667,-0.12777777777777777],[-0.08541666666666667,-0.12777777777777777],[-0.08541666666666667,-0.12777777777777777],[-0.08541666666666667,-0.12777777777777777],[-0.08541666666666667,-0.12777777777777777],[-0.08541666666666667,-0.12777777777777777],[-0.08541666666666667,-0.12777777777777777],[-0.08541666666666667,-0.12777777777777777],[-0.084375,-0.12777777777777777],[-0.07916666666666666,-0.12777777777777777],[-0.07395833333333333,-0.12777777777777777],[-0.06875,-0.12777777777777777],[-0.06354166666666666,-0.12777777777777777],[-0.057291666666666664,-0.12777777777777777],[-0.051041666666666666,-0.12777777777777777],[-0.04583333333333333,-0.12777777777777777],[-0.03958333333333333,-0.12777777777777777],[-0.03229166666666667,-0.12777777777777777],[-0.025,-0.12777777777777777],[-0.0125,-0.12777777777777777],[-0.00625,-0.12777777777777777],[-0.0020833333333333333,-0.12777777777777777],[0.00625,-0.13148148148148148],[0.0125,-0.13333333333333333],[0.023958333333333335,-0.13703703703703704],[0.034375,-0.1425925925925926],[0.040625,-0.14814814814814814],[0.05,-0.1537037037037037],[0.05520833333333333,-0.1574074074074074],[0.06145833333333333,-0.1648148148148148],[0.06666666666666667,-0.1685185185185185],[0.07291666666666667,-0.17407407407407408],[0.078125,-0.17777777777777778],[0.0875,-0.18518518518518517],[0.09166666666666666,-0.18703703703703703],[0.09583333333333334,-0.18888888888888888],[0.096875,-0.18888888888888888],[0.09895833333333333,-0.19074074074074074],[0.09895833333333333,-0.19074074074074074],[0.1,-0.19074074074074074],[0.10104166666666667,-0.1925925925925926],[0.10416666666666667,-0.1925925925925926],[0.10416666666666667,-0.1925925925925926],[0.10729166666666666,-0.19444444444444445],[0.11145833333333334,-0.19444444444444445],[0.11354166666666667,-0.1962962962962963],[0.11458333333333333,-0.1962962962962963],[0.11666666666666667,-0.1962962962962963],[0.11979166666666667,-0.1962962962962963],[0.12291666666666666,-0.1962962962962963],[0.12395833333333334,-0.1962962962962963],[0.12708333333333333,-0.1962962962962963],[0.12916666666666668,-0.1962962962962963],[0.13020833333333334,-0.1962962962962963],[0.13125,-0.1962962962962963],[0.13333333333333333,-0.1962962962962963],[0.13333333333333333,-0.1962962962962963],[0.134375,-0.1962962962962963],[0.134375,-0.1962962962962963],[0.134375,-0.1962962962962963],[0.134375,-0.1962962962962963],[0.134375,-0.1962962962962963],[0.134375,-0.1962962962962963],[0.134375,-0.1962962962962963],[0.134375,-0.1962962962962963],[0.134375,-0.1962962962962963],[0.134375,-0.1962962962962963],[0.134375,-0.1962962962962963],[0.134375,-0.1962962962962963],[0.134375,-0.1962962962962963],[0.134375,-0.1962962962962963],[0.134375,-0.1962962962962963],[0.134375,-0.1962962962962963],[0.134375,-0.1962962962962963],[0.134375,-0.1962962962962963],[0.134375,-0.1962962962962963],[0.134375,-0.1962962962962963],[0.134375,-0.1962962962962963],[0.134375,-0.1962962962962963],[0.134375,-0.1962962962962963],[0.134375,-0.1962962962962963],[0.134375,-0.1962962962962963],[0.134375,-0.1962962962962963],[0.134375,-0.1962962962962963],[0.134375,-0.1962962962962963],[0.134375,-0.1962962962962963],[0.134375,-0.1962962962962963],[0.134375,-0.1962962962962963],[0.134375,-0.1962962962962963],[0.134375,-0.1962962962962963],[0.134375,-0.1962962962962963],[0.134375,-0.1962962962962963],[0.134375,-0.1962962962962963],[0.134375,-0.1962962962962963],[0.134375,-0.1962962962962963],[0.134375,-0.1962962962962963],[0.134375,-0.1962962962962963],[0.134375,-0.1962962962962963],[0.134375,-0.1962962962962963],[0.134375,-0.1962962962962963],[0.134375,-0.1962962962962963],[0.13333333333333333,-0.1962962962962963],[0.13333333333333333,-0.1962962962962963],[0.13333333333333333,-0.1962962962962963],[0.13125,-0.1962962962962963],[0.13125,-0.1962962962962963],[0.13125,-0.1962962962962963],[0.128125,-0.1962962962962963],[0.128125,-0.1962962962962963],[0.12708333333333333,-0.1962962962962963],[0.12708333333333333,-0.1962962962962963],[0.12708333333333333,-0.1962962962962963],[0.12708333333333333,-0.1962962962962963],[0.12708333333333333,-0.1962962962962963],[0.12708333333333333,-0.1962962962962963],[0.12708333333333333,-0.1962962962962963],[0.12708333333333333,-0.1962962962962963],[0.12708333333333333,-0.1962962962962963],[0.12708333333333333,-0.1962962962962963],[0.12708333333333333,-0.1962962962962963],[0.12708333333333333,-0.1962962962962963],[0.12708333333333333,-0.1962962962962963],[0.12708333333333333,-0.1962962962962963],[0.12708333333333333,-0.1962962962962963],[0.12708333333333333,-0.1962962962962963],[0.12708333333333333,-0.19074074074074074],[0.13229166666666667,-0.18518518518518517],[0.134375,-0.1814814814814815],[0.13645833333333332,-0.17962962962962964],[0.1375,-0.17592592592592593],[0.1375,-0.17592592592592593],[0.13854166666666667,-0.17592592592592593],[0.13854166666666667,-0.17592592592592593],[0.13854166666666667,-0.17592592592592593],[0.13854166666666667,-0.17592592592592593],[0.13854166666666667,-0.17592592592592593],[0.13854166666666667,-0.17592592592592593],[0.13854166666666667,-0.17592592592592593],[0.13854166666666667,-0.17592592592592593],[0.13854166666666667,-0.17592592592592593],[0.13854166666666667,-0.17592592592592593],[0.140625,-0.17592592592592593],[0.14583333333333334,-0.17592592592592593],[0.15208333333333332,-0.17592592592592593],[0.15625,-0.17592592592592593],[0.159375,-0.17592592592592593],[0.1625,-0.17592592592592593],[0.165625,-0.17592592592592593],[0.16770833333333332,-0.17222222222222222],[0.17083333333333334,-0.17037037037037037],[0.17291666666666666,-0.16666666666666666],[0.17395833333333333,-0.1648148148148148],[0.17708333333333334,-0.16296296296296298],[0.178125,-0.16111111111111112],[0.178125,-0.15925925925925927],[0.18125,-0.15555555555555556],[0.18125,-0.15555555555555556],[0.18125,-0.1537037037037037],[0.18229166666666666,-0.15185185185185185],[0.18229166666666666,-0.15185185185185185],[0.18229166666666666,-0.15185185185185185],[0.18229166666666666,-0.15185185185185185],[0.18229166666666666,-0.15185185185185185],[0.18229166666666666,-0.15185185185185185],[0.18229166666666666,-0.15185185185185185],[0.18229166666666666,-0.15185185185185185],[0.18229166666666666,-0.15185185185185185],[0.18229166666666666,-0.15185185185185185],[0.18229166666666666,-0.15185185185185185],[0.18229166666666666,-0.15185185185185185],[0.18229166666666666,-0.15185185185185185],[0.18229166666666666,-0.15185185185185185],[0.18229166666666666,-0.15185185185185185],[0.18229166666666666,-0.15185185185185185],[0.18229166666666666,-0.15185185185185185],[0.18229166666666666,-0.15185185185185185],[0.18229166666666666,-0.15185185185185185],[0.18229166666666666,-0.15185185185185185],[0.18229166666666666,-0.15185185185185185],[0.18229166666666666,-0.15185185185185185],[0.18229166666666666,-0.15185185185185185],[0.18229166666666666,-0.15185185185185185],[0.18229166666666666,-0.15185185185185185],[0.18229166666666666,-0.15185185185185185],[0.18229166666666666,-0.15185185185185185],[0.18229166666666666,-0.15185185185185185],[0.18229166666666666,-0.15185185185185185],[0.18229166666666666,-0.15185185185185185],[0.18229166666666666,-0.15185185185185185],[0.18229166666666666,-0.15185185185185185],[0.18229166666666666,-0.15185185185185185],[0.190625,-0.12037037037037036],[0.20208333333333334,-0.06481481481481481],[0.21979166666666666,0.07037037037037037],[0.23125,0.22037037037037038],[0.23541666666666666,0.3537037037037037],[0.23333333333333334,0.43703703703703706],[0.23020833333333332,0.47962962962962963],[0.22708333333333333,0.5203703703703704],[0.22395833333333334,0.5296296296296297],[0.22291666666666668,0.5425925925925926],[0.22083333333333333,0.5481481481481482],[0.21979166666666666,0.5574074074074075],[0.21979166666666666,0.562962962962963],[0.21875,0.5666666666666667],[0.21875,0.5666666666666667],[0.21875,0.5666666666666667],[0.21875,0.5666666666666667],[0.21875,0.5666666666666667],[0.21875,0.5666666666666667],[0.21666666666666667,0.5648148148148148],[0.21145833333333333,0.5333333333333333],[0.20625,0.4981481481481482],[0.20104166666666667,0.4685185185185185],[0.19583333333333333,0.44074074074074077],[0.19479166666666667,0.43703703703703706],[0.19270833333333334,0.42777777777777776],[0.19166666666666668,0.42407407407407405],[0.19166666666666668,0.4222222222222222],[0.19166666666666668,0.4222222222222222],[0.19166666666666668,0.4222222222222222],[0.19166666666666668,0.4222222222222222],[0.19166666666666668,0.4222222222222222],[0.19166666666666668,0.4222222222222222],[0.19166666666666668,0.4222222222222222],[0.19166666666666668,0.4222222222222222],[0.19166666666666668,0.4222222222222222],[0.19166666666666668,0.4222222222222222],[0.19166666666666668,0.4222222222222222],[0.19166666666666668,0.4222222222222222],[0.19166666666666668,0.4222222222222222],[0.19166666666666668,0.4222222222222222],[0.19166666666666668,0.4222222222222222],[0.19166666666666668,0.4222222222222222],[0.19166666666666668,0.4222222222222222],[0.19166666666666668,0.4222222222222222],[0.19166666666666668,0.4222222222222222],[0.19166666666666668,0.4222222222222222],[0.19166666666666668,0.4222222222222222],[0.19166666666666668,0.4222222222222222],[0.19166666666666668,0.4222222222222222],[0.19166666666666668,0.4222222222222222],[0.19166666666666668,0.4222222222222222],[0.19166666666666668,0.4222222222222222],[0.19166666666666668,0.4222222222222222],[0.19166666666666668,0.4222222222222222],[0.19166666666666668,0.4222222222222222],[0.19166666666666668,0.4222222222222222],[0.19166666666666668,0.4222222222222222],[0.19166666666666668,0.4222222222222222],[0.19166666666666668,0.4222222222222222],[0.19166666666666668,0.4222222222222222],[0.19166666666666668,0.4222222222222222],[0.19166666666666668,0.4222222222222222],[0.19166666666666668,0.4222222222222222],[0.19166666666666668,0.4222222222222222],[0.19166666666666668,0.4222222222222222],[0.19166666666666668,0.4222222222222222],[0.19166666666666668,0.4222222222222222],[0.19166666666666668,0.4222222222222222],[0.19166666666666668,0.4222222222222222],[0.19166666666666668,0.4222222222222222],[0.19166666666666668,0.4222222222222222],[0.19166666666666668,0.4222222222222222],[0.19166666666666668,0.4222222222222222],[0.19166666666666668,0.4222222222222222],[0.19166666666666668,0.4222222222222222],[0.19166666666666668,0.4222222222222222],[0.19166666666666668,0.4222222222222222],[0.19166666666666668,0.4222222222222222],[0.19166666666666668,0.4222222222222222],[0.19166666666666668,0.4222222222222222],[0.19166666666666668,0.4222222222222222],[0.19166666666666668,0.4222222222222222],[0.19166666666666668,0.4222222222222222],[0.19166666666666668,0.4222222222222222],[0.19166666666666668,0.4222222222222222],[0.19166666666666668,0.4222222222222222],[0.19166666666666668,0.4222222222222222],[0.19166666666666668,0.4222222222222222],[0.19166666666666668,0.4222222222222222],[0.19166666666666668,0.4222222222222222],[0.19166666666666668,0.4222222222222222],[0.19166666666666668,0.4222222222222222],[0.19166666666666668,0.4222222222222222],[0.19166666666666668,0.4222222222222222],[0.19166666666666668,0.4222222222222222],[0.19166666666666668,0.4222222222222222],[0.19166666666666668,0.4222222222222222],[0.19166666666666668,0.4222222222222222]]","[[0.03885416666666662,0.1014814814814814],[0.03885416666666662,0.1014814814814814],[0.05406249999999998,0.09666666666666675],[0.05406249999999998,0.09666666666666675],[0.0655208333333333,0.10018518518518522],[0.0655208333333333,0.10018518518518522],[0.06177083333333329,0.09314814814814806],[0.05406249999999998,0.09222222222222214],[0.05406249999999998,0.09222222222222214],[0.059062500000000046,0.10759259259259263],[0.059062500000000046,0.10759259259259263],[0.06687500000000005,0.12962962962962962],[0.07156250000000004,0.09685185185185177],[0.057083333333333285,0.07259259259259268],[0.04635416666666667,0.08537037037037042],[0.04125000000000002,0.11185185185185181],[0.04593750000000003,0.13148148148148148],[0.016666666666666666,0.1359259259259259],[0.013333333333333286,0.15037037037037046],[0.017812500000000023,0.15333333333333324],[-0.011979166666666667,0.16648148148148145],[-0.040625,0.16666666666666666],[-0.0702083333333333,0.20333333333333325],[-0.07958333333333331,0.2449999999999999],[-0.10822916666666664,0.25833333333333336],[-0.13624999999999995,0.25925925925925924],[-0.17250000000000001,0.25925925925925924],[-0.17000000000000004,0.26222222222222225],[-0.17083333333333334,0.2705555555555556],[-0.16677083333333337,0.282037037037037],[-0.1638541666666666,0.2698148148148149],[-0.1638541666666666,0.2698148148148149],[-0.1578125,0.2675925925925926],[-0.17593749999999997,0.25870370370370377],[-0.21208333333333335,0.22629629629629638],[-0.22937500000000005,0.19740740740740745],[-0.24802083333333336,0.18203703703703694],[-0.25843750000000004,0.1675925925925926],[-0.2791666666666667,0.15629629629629627],[-0.31656249999999997,0.14148148148148143],[-0.3696875,0.11407407407407412],[-0.4028125000000001,0.0977777777777777],[-0.42916666666666664,0.06296296296296296],[-0.42843749999999997,0.03722222222222227],[-0.42843749999999997,0.03722222222222227],[-0.4189583333333334,0.020555555555555598],[-0.4366666666666667,0.058333333333333334],[-0.4469791666666667,0.030555555555555555],[-0.4478125,0.009629629629629714],[-0.44864583333333335,-0.011296296296296339],[-0.46,0.006481481481481481],[-0.44802083333333337,0.005740740740740783],[-0.4466666666666666,0.006851851851851936],[-0.4466666666666666,0.006851851851851936],[-0.4552083333333333,0.01648148148148144],[-0.4580208333333334,0.025925925925925925],[-0.4711458333333333,0.054074074074074156],[-0.4711458333333333,0.054074074074074156],[-0.4570833333333333,0.027777777777777776],[-0.46031249999999996,0.051666666666666625],[-0.46447916666666667,0.04148148148148144],[-0.47427083333333336,0.057037037037036956],[-0.47302083333333333,0.03481481481481473],[-0.4763541666666667,0.05611111111111103],[-0.4763541666666667,0.05611111111111103],[-0.4348958333333333,0.03185185185185194],[-0.3877083333333334,0.023333333333333376],[-0.3416666666666667,0.003888888888888931],[-0.286875,-0.0485185185185186],[-0.23854166666666668,-0.14222222222222225],[-0.23854166666666668,-0.14222222222222225],[-0.19479166666666667,-0.1955555555555556],[-0.15531250000000002,-0.20870370370370367],[-0.07979166666666669,-0.2337037037037037],[-0.014999999999999977,-0.2507407407407407],[0.03718750000000005,-0.2972222222222222],[0.05479166666666669,-0.2929629629629629],[0.06666666666666667,-0.3044444444444444],[0.06385416666666661,-0.30351851851851847],[0.03458333333333338,-0.3140740740740741],[0.03875000000000005,-0.25981481481481483],[0.03875000000000005,-0.25981481481481483],[0.05249999999999998,-0.24537037037037038],[0.07468750000000005,-0.23425925925925925],[0.06499999999999997,-0.24277777777777781],[0.07677083333333339,-0.247037037037037],[0.09052083333333343,-0.2388888888888889],[0.10989583333333333,-0.2462962962962963],[0.1337500000000001,-0.2631481481481482],[0.15177083333333338,-0.29203703703703704],[0.1883333333333333,-0.2735185185185185],[0.20541666666666672,-0.28833333333333333],[0.22947916666666662,-0.32037037037037036],[0.24083333333333337,-0.36203703703703705],[0.25062499999999993,-0.3622222222222223],[0.2352083333333333,-0.3961111111111111],[0.24072916666666658,-0.40185185185185185],[0.24333333333333323,-0.3911111111111111],[0.2478125000000001,-0.38740740740740737],[0.2478125000000001,-0.38740740740740737],[0.2553124999999999,-0.40111111111111114],[0.2742708333333333,-0.3677777777777778],[0.2716666666666666,-0.30277777777777776],[0.23937499999999995,-0.22722222222222221],[0.24541666666666656,-0.18833333333333332],[0.2595833333333334,-0.14814814814814814],[0.27197916666666655,-0.08555555555555554],[0.27104166666666674,-0.046481481481481526],[0.28020833333333334,-0.020555555555555598],[0.2830208333333334,0.021851851851851768],[0.29874999999999996,0.09240740740740737],[0.29812500000000003,0.06111111111111111],[0.2872916666666666,0.05685185185185194],[0.2991666666666667,0.05925925925925926],[0.2547916666666666,0.11685185185185189],[0.20645833333333338,0.13518518518518519],[0.19500000000000003,0.1198148148148149],[0.18354166666666671,0.10444444444444441],[0.14031250000000003,0.11055555555555564],[0.09541666666666657,0.10407407407407415],[0.09541666666666657,0.10407407407407415],[0.05802083333333338,0.11037037037037041],[0.05802083333333338,0.11037037037037041],[0.018229166666666668,0.19314814814814807],[0.018229166666666668,0.19314814814814807],[0.02385416666666664,0.2170370370370371],[0.02385416666666664,0.2170370370370371],[0.05302083333333331,0.19685185185185178],[0.05302083333333331,0.19685185185185178],[0.09156250000000009,0.21999999999999992],[0.09156250000000009,0.21999999999999992],[0.1296875,0.2412962962962962],[0.13947916666666677,0.2777777777777778],[0.1368750000000001,0.32518518518518524],[0.15364583333333334,0.3562962962962963],[0.1724999999999999,0.3787037037037037],[0.20145833333333343,0.36500000000000005],[0.23624999999999996,0.31740740740740736],[0.2404166666666666,0.2927777777777778],[0.22104166666666672,0.3122222222222223],[0.22104166666666672,0.3122222222222223],[0.1712500000000001,0.2918518518518519],[0.16281249999999994,0.21907407407407398],[0.12052083333333338,0.18333333333333332],[0.10833333333333334,0.14351851851851852],[0.10447916666666662,0.09962962962962954],[0.09187500000000005,0.0801851851851851],[0.09187500000000005,0.0801851851851851],[0.06166666666666672,0.08407407407407404],[0.009791666666666643,0.10611111111111103],[-0.020833333333333332,0.10037037037037046],[-0.06541666666666662,0.09685185185185177],[-0.06989583333333335,0.06759259259259259],[-0.12614583333333335,0.09462962962962967],[-0.1297916666666667,0.09759259259259268],[-0.15114583333333337,0.09370370370370375],[-0.19979166666666662,0.08981481481481482],[-0.23541666666666666,0.08907407407407411],[-0.2757291666666667,0.08203703703703695],[-0.28875000000000006,0.06777777777777783],[-0.31052083333333336,0.056666666666666705],[-0.31833333333333336,0.04333333333333329],[-0.31843750000000004,0.04425925925925922],[-0.30885416666666665,0.04537037037037037],[-0.3146875,0.056666666666666705],[-0.32052083333333337,0.06796296296296304],[-0.29968750000000005,0.08148148148148149],[-0.2835416666666667,0.08870370370370366],[-0.2543750000000001,0.09444444444444444],[-0.23083333333333336,0.08925925925925934],[-0.22489583333333332,0.10333333333333325],[-0.2189583333333334,0.11740740740740736],[-0.23333333333333334,0.11129629629629634],[-0.24770833333333328,0.1051851851851851],[-0.25281250000000005,0.09444444444444444],[-0.2579166666666667,0.0837037037037038],[-0.2752083333333334,0.07925925925925917],[-0.2924999999999999,0.07481481481481478],[-0.3168750000000001,0.06500000000000004],[-0.34125,0.0551851851851851],[-0.35572916666666665,0.05018518518518523],[-0.3702083333333333,0.04518518518518514],[-0.3702083333333333,0.04518518518518514],[-0.37041666666666667,0.049074074074074076],[-0.37041666666666667,0.049074074074074076],[-0.36124999999999996,0.05814814814814811],[-0.275625,0.03370370370370379],[-0.21520833333333336,-0.00722222222222218],[-0.15874999999999997,-0.012222222222222264],[-0.09916666666666671,-0.012037037037037037],[-0.036562500000000026,-0.014074074074074116],[0.036249999999999956,-0.0477777777777777],[0.10499999999999995,-0.062407407407407384],[0.17374999999999996,-0.07703703703703708],[0.17374999999999996,-0.07703703703703708],[0.24604166666666671,-0.09314814814814817],[0.30229166666666674,-0.1014814814814815],[0.2764583333333334,-0.08277777777777776],[0.2664583333333333,-0.04740740740740745],[0.2648958333333333,-0.05240740740740743],[0.25677083333333334,-0.06870370370370374],[0.24656250000000005,-0.05907407407407403],[0.23072916666666668,-0.025925925925925925],[0.22156250000000005,-0.0507407407407407],[0.19677083333333342,-0.05259259259259255],[0.165625,-0.052222222222222205],[0.14114583333333333,-0.06481481481481481],[0.12791666666666662,-0.06166666666666669],[0.13666666666666671,-0.06462962962962959],[0.15885416666666666,-0.12333333333333338],[0.17395833333333333,-0.10796296296296298],[0.1868750000000001,-0.10314814814814813],[0.1868750000000001,-0.10314814814814813],[0.190625,-0.0977777777777778],[0.18895833333333342,-0.062037037037037036],[0.22864583333333333,-0.05388888888888893],[0.2459374999999999,-0.03629629629629634],[0.2582291666666668,-0.041666666666666664],[0.2642708333333334,-0.022222222222222223],[0.2642708333333334,-0.022222222222222223],[0.25833333333333336,-0.002962962962963005],[0.24406249999999996,0.06851851851851852],[0.24697916666666658,0.0668518518518519],[0.24697916666666658,0.0668518518518519],[0.24989583333333343,0.06518518518518526],[0.24989583333333343,0.06518518518518526],[0.25197916666666675,0.08222222222222218],[0.29031250000000003,0.09185185185185189],[0.2604166666666667,0.09592592592592585],[0.2640625,0.0824074074074074],[0.2727083333333333,0.09185185185185189],[0.2603125000000001,0.08851851851851844],[0.24322916666666666,0.08722222222222227],[0.2165625000000001,0.06629629629629621],[0.19083333333333338,0.07574074074074069],[0.15322916666666658,0.09351851851851851],[0.15322916666666658,0.09351851851851851],[0.14989583333333342,0.10759259259259263],[0.1209374999999999,0.10685185185185193],[0.13447916666666657,0.11629629629629622],[0.13447916666666657,0.11629629629629622],[0.13010416666666677,0.15407407407407417],[0.13010416666666677,0.15407407407407417],[0.1146874999999999,0.16777777777777783],[0.1146874999999999,0.16777777777777783],[0.10510416666666676,0.18351851851851855],[0.10510416666666676,0.18351851851851855],[0.11635416666666672,0.20666666666666672],[0.11635416666666672,0.20666666666666672],[0.11593749999999996,0.222037037037037],[0.11593749999999996,0.222037037037037],[0.1273958333333333,0.20962962962962972],[0.11729166666666657,0.21425925925925934],[0.09239583333333339,0.20500000000000007],[0.044375000000000026,0.20722222222222217],[0.044375000000000026,0.20722222222222217],[0.027395833333333286,0.21222222222222226],[0.007708333333333309,0.2014814814814814],[-0.009895833333333333,0.21648148148148144],[-0.009895833333333333,0.21648148148148144],[0.003125,0.21222222222222226],[-0.005833333333333357,0.18314814814814812],[-0.0017708333333333807,0.18870370370370365],[-0.008958333333333356,0.20407407407407416],[0.015625,0.20037037037037045],[0.026145833333333358,0.20314814814814824],[0.026145833333333358,0.20314814814814824],[0.06645833333333329,0.21777777777777782],[0.07208333333333337,0.22240740740740744],[0.0609375,0.21851851851851853],[0.09291666666666672,0.2101851851851852],[0.09541666666666657,0.19499999999999992],[0.09541666666666657,0.19499999999999992],[0.11677083333333324,0.222037037037037],[0.13739583333333344,0.26851851851851855],[0.16281249999999994,0.2627777777777777],[0.19020833333333323,0.26444444444444437],[0.19645833333333323,0.27518518518518525],[0.1681250000000001,0.3],[0.1493750000000001,0.3014814814814814],[0.16218750000000004,0.30759259259259264],[0.1408333333333334,0.3164814814814814],[0.12114583333333329,0.3533333333333332],[0.10812499999999996,0.35722222222222216],[0.10812499999999996,0.35722222222222216],[0.09041666666666662,0.3477777777777777],[0.06177083333333329,0.37777777777777777],[0.05,0.36277777777777775],[0.049687500000000044,0.3814814814814815],[0.06427083333333337,0.3744444444444445],[0.1087500000000001,0.37962962962962965],[0.1087500000000001,0.37962962962962965],[0.14885416666666676,0.3846296296296297],[0.14375,0.39351851851851855],[0.14375,0.39351851851851855],[0.15989583333333332,0.39277777777777784],[0.15989583333333332,0.39277777777777784],[0.1521874999999999,0.36925925925925923],[0.19416666666666677,0.3550000000000001],[0.2085416666666667,0.33499999999999996],[0.19604166666666673,0.34444444444444444],[0.19322916666666667,0.3111111111111111],[0.20031249999999995,0.2844444444444445],[0.20031249999999995,0.2844444444444445],[0.16906249999999995,0.2788888888888889],[0.16541666666666663,0.280925925925926],[0.20614583333333342,0.2772222222222223],[0.24343750000000006,0.23833333333333342],[0.2820833333333333,0.2633333333333334],[0.2768749999999999,0.27611111111111114],[0.2907291666666666,0.28407407407407403],[0.33583333333333343,0.30351851851851847],[0.34395833333333337,0.30537037037037035],[0.3554166666666667,0.30111111111111116],[0.3585416666666667,0.29981481481481476],[0.3321875000000001,0.28296296296296286],[0.30270833333333325,0.2733333333333334],[0.26687500000000003,0.2681481481481481],[0.26687500000000003,0.2681481481481481],[0.22947916666666662,0.2548148148148149],[0.20510416666666675,0.24314814814814806],[0.18250000000000005,0.23444444444444448],[0.13791666666666677,0.2272222222222223],[0.13114583333333343,0.21999999999999992],[0.1109375,0.2155555555555555],[0.09895833333333333,0.2183333333333333],[0.09385416666666657,0.22592592592592592],[0.10083333333333329,0.22370370370370363],[0.10843749999999991,0.23592592592592587],[0.1296875,0.20777777777777787],[0.13958333333333334,0.18055555555555555],[0.13718750000000005,0.172037037037037],[0.16843750000000005,0.12333333333333338],[0.17177083333333343,0.10574074074074079],[0.18229166666666666,0.10777777777777786],[0.20447916666666663,0.0911111111111112],[0.19166666666666668,0.09722222222222222],[0.18760416666666657,0.08462962962962971],[0.1742708333333333,0.08944444444444435],[0.1631249999999999,0.0801851851851851],[0.13489583333333333,0.09129629629629621],[0.13489583333333333,0.09129629629629621],[0.14947916666666666,0.08574074074074066],[0.10427083333333324,0.1257407407407407],[0.11510416666666666,0.14092592592592595],[0.10979166666666676,0.14296296296296304],[0.096875,0.15166666666666662],[0.096875,0.15166666666666662],[0.1203125,0.13148148148148148],[0.12958333333333344,0.130925925925926],[0.1502083333333334,0.09870370370370361],[0.13937499999999994,0.11648148148148144],[0.14802083333333324,0.08962962962962959],[0.13083333333333325,0.07388888888888885],[0.14895833333333333,0.051111111111111156],[0.13812499999999991,0.039629629629629584],[0.13812499999999991,0.039629629629629584],[0.15291666666666662,0.032407407407407406],[0.15093750000000009,0.019444444444444445],[0.14166666666666666,0.015370370370370286],[0.14166666666666666,0.015370370370370286],[0.1462500000000001,0.027407407407407325],[0.1462500000000001,0.027407407407407325],[0.14572916666666677,0.04092592592592597],[0.14572916666666677,0.04092592592592597],[0.14354166666666662,0.05129629629629638],[0.14354166666666662,0.05129629629629638],[0.1290625000000001,0.10611111111111103],[0.1290625000000001,0.10611111111111103],[0.14614583333333328,0.1307407407407408],[0.14614583333333328,0.1307407407407408],[0.15052083333333333,0.15462962962962962],[0.15968749999999995,0.16629629629629622],[0.1622916666666666,0.1705555555555556],[0.17927083333333324,0.18111111111111103],[0.19604166666666673,0.2007407407407407],[0.19604166666666673,0.2007407407407407],[0.20666666666666675,0.19592592592592584],[0.22197916666666656,0.20333333333333325],[0.25833333333333336,0.19759259259259268],[0.30968749999999995,0.16740740740740737],[0.32916666666666666,0.16722222222222213],[0.33916666666666656,0.16111111111111112],[0.34437499999999993,0.16722222222222213],[0.3398958333333333,0.20037037037037045],[0.3363541666666668,0.23203703703703696],[0.35354166666666675,0.2462962962962963],[0.3625,0.2687037037037037],[0.33875000000000005,0.30111111111111116],[0.3150000000000001,0.33351851851851855],[0.31239583333333343,0.3453703703703704],[0.31010416666666674,0.3574074074074074],[0.3090625000000001,0.3507407407407407],[0.30802083333333335,0.344074074074074],[0.3098958333333333,0.35240740740740734],[0.33781249999999996,0.33833333333333343],[0.3203125,0.3322222222222222],[0.3416666666666667,0.3207407407407408],[0.3798958333333334,0.3051851851851851],[0.3970833333333334,0.29018518518518527],[0.3859375,0.28962962962962957],[0.39083333333333337,0.2737037037037036],[0.3992708333333333,0.3074074074074074],[0.39302083333333326,0.33277777777777784],[0.39302083333333326,0.33277777777777784],[0.4103125000000001,0.3198148148148149],[0.4069791666666667,0.3042592592592592],[0.4262500000000001,0.31666666666666665],[0.39052083333333343,0.32148148148148153],[0.36531250000000004,0.3224074074074075],[0.3423958333333334,0.2757407407407407],[0.31302083333333336,0.2638888888888889],[0.29489583333333325,0.23370370370370377],[0.25812499999999994,0.18518518518518517],[0.2617708333333333,0.13481481481481472],[0.24447916666666672,0.05925925925925926],[0.22458333333333325,0.020185185185185143],[0.1953125,-0.04351851851851852],[0.18979166666666672,-0.1111111111111111],[0.18125,-0.1455555555555556],[0.1779166666666666,-0.1559259259259259],[0.19895833333333332,-0.2257407407407407],[0.19479166666666667,-0.24888888888888885],[0.19479166666666667,-0.24888888888888885],[0.21489583333333329,-0.3042592592592593],[0.21489583333333329,-0.3042592592592593],[0.2209374999999999,-0.31962962962962965],[0.2241666666666667,-0.3314814814814815],[0.22729166666666673,-0.3698148148148148],[0.23541666666666666,-0.41500000000000004],[0.24572916666666675,-0.41277777777777774],[0.25718750000000007,-0.43277777777777776],[0.27541666666666675,-0.41944444444444445],[0.2705208333333334,-0.4118518518518518],[0.2705208333333334,-0.4118518518518518],[0.25791666666666657,-0.4190740740740741],[0.2708333333333333,-0.4190740740740741],[0.2720833333333334,-0.44888888888888884],[0.2648958333333333,-0.447037037037037],[0.25499999999999995,-0.4301851851851852],[0.25125000000000003,-0.3987037037037037],[0.23552083333333323,-0.3940740740740741],[0.21864583333333343,-0.44111111111111106],[0.2085416666666667,-0.49851851851851847],[0.2085416666666667,-0.512962962962963],[0.21416666666666656,-0.5255555555555556],[0.19729166666666675,-0.5285185185185185],[0.1921875,-0.5120370370370371],[0.1872916666666666,-0.47962962962962963],[0.18260416666666662,-0.4207407407407407],[0.19322916666666667,-0.40111111111111114],[0.20385416666666673,-0.3814814814814815],[0.20197916666666677,-0.28944444444444445],[0.20947916666666658,-0.21425925925925923],[0.21833333333333324,-0.1359259259259259],[0.2271874999999999,-0.05759259259259263],[0.2321875000000001,0.020370370370370372],[0.22489583333333343,0.08055555555555556],[0.2367708333333333,0.10037037037037046],[0.24833333333333343,0.09055555555555551],[0.23822916666666671,0.0977777777777777],[0.228125,0.10500000000000008],[0.2421875,0.08722222222222227],[0.2421875,0.08722222222222227],[0.246875,0.08629629629629634],[0.2535416666666668,0.07981481481481485],[0.25791666666666657,0.0794444444444444],[0.2703125,0.06185185185185181],[0.2751041666666666,0.05222222222222231],[0.2759375000000001,0.05333333333333325],[0.2768749999999999,0.05759259259259263],[0.26281249999999995,0.09148148148148144],[0.2713541666666667,0.10722222222222218],[0.27614583333333326,0.12481481481481477],[0.2787499999999999,0.14814814814814814],[0.2759375000000001,0.16740740740740737],[0.2759375000000001,0.16740740740740737],[0.2717708333333334,0.16129629629629633],[0.25885416666666666,0.1905555555555555],[0.2462500000000001,0.23648148148148157],[0.2353125000000001,0.24055555555555552],[0.2353125000000001,0.24055555555555552],[0.22458333333333325,0.24722222222222223],[0.22458333333333325,0.24722222222222223],[0.23114583333333344,0.26777777777777784],[0.23114583333333344,0.26777777777777784],[0.2303124999999999,0.2942592592592592],[0.2303124999999999,0.2942592592592592],[0.21124999999999997,0.32611111111111113],[0.20697916666666671,0.36629629629629623],[0.20697916666666671,0.36629629629629623],[0.19562499999999997,0.37759259259259254],[0.18041666666666673,0.3824074074074074],[0.14291666666666672,0.3918518518518519],[0.14291666666666672,0.3918518518518519],[0.13208333333333327,0.33537037037037043],[0.11760416666666676,0.3509259259259259],[0.10697916666666671,0.33185185185185195],[0.08031249999999991,0.306111111111111],[0.050520833333333334,0.25259259259259254],[0.03677083333333329,0.18462962962962973],[0.010416666666666666,0.10259259259259255],[-0.002291666666666714,0.04814814814814815],[-0.007500000000000047,0.019444444444444445],[0.01083333333333331,-0.020740740740740823],[0.010312499999999976,-0.021296296296296296],[0.03718750000000005,-0.09814814814814815],[0.04666666666666662,-0.14907407407407408],[0.07989583333333337,-0.22666666666666663]]","[[0.03885416666666662,0.1014814814814814,0.00020000028610667187],[0.03885416666666662,0.1014814814814814,0.05159999990463149],[0.05406249999999998,0.09666666666666675,0.08200000000000074],[0.05406249999999998,0.09666666666666675,0.09250000000000114],[0.0655208333333333,0.10018518518518522,0.11570000028610394],[0.0655208333333333,0.10018518518518522,0.12709999990463672],[0.06177083333333329,0.09314814814814806,0.14270000028610497],[0.05406249999999998,0.09222222222222214,0.1664999999999992],[0.05406249999999998,0.09222222222222214,0.17590000009536766],[0.059062500000000046,0.10759259259259263,0.19270000028610212],[0.059062500000000046,0.10759259259259263,0.20930000019073702],[0.06687500000000005,0.12962962962962962,0.2259999999999991],[0.07156250000000004,0.09685185185185177,0.24359999990463166],[0.057083333333333285,0.07259259259259268,0.25950000000000273],[0.04635416666666667,0.08537037037037042,0.27730000019073486],[0.04125000000000002,0.11185185185185181,0.29259999990463115],[0.04593750000000003,0.13148148148148148,0.3134000000953705],[0.016666666666666666,0.1359259259259259,0.33009999990463257],[0.013333333333333286,0.15037037037037046,0.3460999999046308],[0.017812500000000023,0.15333333333333324,0.3620000000000019],[-0.011979166666666667,0.16648148148148145,0.3785000000000025],[-0.040625,0.16666666666666666,0.39530000019073697],[-0.0702083333333333,0.20333333333333325,0.4118000001907376],[-0.07958333333333331,0.2449999999999999,0.42849999999999966],[-0.10822916666666664,0.25833333333333336,0.4440999999046369],[-0.13624999999999995,0.25925925925925924,0.45920000028610275],[-0.17250000000000001,0.25925925925925924,0.4782000002861011],[-0.17000000000000004,0.26222222222222225,0.49290000009536783],[-0.17083333333333334,0.2705555555555556,0.5093000001907342],[-0.16677083333333337,0.282037037037037,0.5275000000000034],[-0.1638541666666666,0.2698148148148149,0.5425999999046311],[-0.1638541666666666,0.2698148148148149,0.5593000001907384],[-0.1578125,0.2675925925925926,0.5760000000000005],[-0.17593749999999997,0.25870370370370377,0.5940999999046355],[-0.21208333333333335,0.22629629629629638,0.6092000002861013],[-0.22937500000000005,0.19740740740740745,0.6259999999999977],[-0.24802083333333336,0.18203703703703694,0.6445000000000007],[-0.25843750000000004,0.1675925925925926,0.6599000000953694],[-0.2791666666666667,0.15629629629629627,0.6765999999046315],[-0.31656249999999997,0.14148148148148143,0.6932000002861045],[-0.3696875,0.11407407407407412,0.7115000000000009],[-0.4028125000000001,0.0977777777777777,0.7259999999999991],[-0.42916666666666664,0.06296296296296296,0.7450000000000045],[-0.42843749999999997,0.03722222222222227,0.760300000190739],[-0.42843749999999997,0.03722222222222227,0.7760000000000034],[-0.4189583333333334,0.020555555555555598,0.7925999999046311],[-0.4366666666666667,0.058333333333333334,0.8108000001907385],[-0.4469791666666667,0.030555555555555555,0.8260000000000005],[-0.4478125,0.009629629629629714,0.8429000000953693],[-0.44864583333333335,-0.011296296296296339,0.8620999999046361],[-0.46,0.006481481481481481,0.8795999999046344],[-0.44802083333333337,0.005740740740740783,0.8980999999046304],[-0.4466666666666666,0.006851851851851936,0.9129000000953695],[-0.4466666666666666,0.006851851851851936,0.9260000000000019],[-0.4552083333333333,0.01648148148148144,0.9427000002861021],[-0.4580208333333334,0.025925925925925925,0.9597000002861051],[-0.4711458333333333,0.054074074074074156,0.9803000001907378],[-0.4711458333333333,0.054074074074074156,0.9969999999999999],[-0.4570833333333333,0.027777777777777776,1.0093000001907342],[-0.46031249999999996,0.051666666666666625,1.0260000000000034],[-0.46447916666666667,0.04148148148148144,1.0425999999046311],[-0.47427083333333336,0.057037037037036956,1.0593000001907384],[-0.47302083333333333,0.03481481481481473,1.0760999999046348],[-0.4763541666666667,0.05611111111111103,1.0975000000000037],[-0.4763541666666667,0.05611111111111103,1.1095000000000041],[-0.4348958333333333,0.03185185185185194,1.126099999904632],[-0.3877083333333334,0.023333333333333376,1.1433000001907345],[-0.3416666666666667,0.003888888888888931,1.161999999999999],[-0.286875,-0.0485185185185186,1.179000000000002],[-0.23854166666666668,-0.14222222222222225,1.1950999999046346],[-0.23854166666666668,-0.14222222222222225,1.2124999999999986],[-0.19479166666666667,-0.1955555555555556,1.225900000095372],[-0.15531250000000002,-0.20870370370370367,1.242599999904634],[-0.07979166666666669,-0.2337037037037037,1.2592000002861],[-0.014999999999999977,-0.2507407407407407,1.276200000286103],[0.03718750000000005,-0.2972222222222222,1.2925999999046311],[0.05479166666666669,-0.2929629629629629,1.3093000001907384],[0.06666666666666667,-0.3044444444444444,1.3259000000953662],[0.06385416666666661,-0.30351851851851847,1.3430000000000035],[0.03458333333333338,-0.3140740740740741,1.3592000002861013],[0.03875000000000005,-0.25981481481481483,1.3759999999999977],[0.03875000000000005,-0.25981481481481483,1.3925999999046326],[0.05249999999999998,-0.24537037037037038,1.4092000002861056],[0.07468750000000005,-0.23425925925925925,1.4259000000953677],[0.06499999999999997,-0.24277777777777781,1.4425000000000026],[0.07677083333333339,-0.247037037037037,1.4592000002861027],[0.09052083333333343,-0.2388888888888889,1.475999999999999],[0.10989583333333333,-0.2462962962962963,1.4928000001907336],[0.1337500000000001,-0.2631481481481482,1.5113000001907366],[0.15177083333333338,-0.29203703703703704,1.525900000095369],[0.1883333333333333,-0.2735185185185185,1.5425999999046311],[0.20541666666666672,-0.28833333333333333,1.5594000000953656],[0.22947916666666662,-0.32037037037037036,1.5763000001907344],[0.24083333333333337,-0.36203703703703705,1.5925999999046354],[0.25062499999999993,-0.3622222222222223,1.6092000002861013],[0.2352083333333333,-0.3961111111111111,1.6259000000953705],[0.24072916666666658,-0.40185185185185185,1.6425999999046326],[0.24333333333333323,-0.3911111111111111,1.6593000001907328],[0.2478125000000001,-0.38740740740740737,1.676000000000002],[0.2478125000000001,-0.38740740740740737,1.6925999999046368],[0.2553124999999999,-0.40111111111111114,1.709300000190737],[0.2742708333333333,-0.3677777777777778,1.7297000002861012],[0.2716666666666666,-0.30277777777777776,1.7443000001907336],[0.23937499999999995,-0.22722222222222221,1.7610000000000028],[0.24541666666666656,-0.18833333333333332,1.777700000286103],[0.2595833333333334,-0.14814814814814814,1.792900000095372],[0.27197916666666655,-0.08555555555555554,1.8093000001907384],[0.27104166666666674,-0.046481481481481526,1.8260999999046348],[0.28020833333333334,-0.020555555555555598,1.8425999999046354],[0.2830208333333334,0.021851851851851768,1.8610000000000042],[0.29874999999999996,0.09240740740740737,1.8777000002861044],[0.29812500000000003,0.06111111111111111,1.8949000000953689],[0.2872916666666666,0.05685185185185194,1.9093000001907328],[0.2991666666666667,0.05925925925925926,1.9262000002861015],[0.2547916666666666,0.11685185185185189,1.9428000001907364],[0.20645833333333338,0.13518518518518519,1.959300000190737],[0.19500000000000003,0.1198148148148149,1.9789999999999992],[0.18354166666666671,0.10444444444444441,1.992599999904634],[0.14031250000000003,0.11055555555555564,2.0092000002861],[0.09541666666666657,0.10407407407407415,2.025900000095369],[0.09541666666666657,0.10407407407407415,2.042599999904631],[0.05802083333333338,0.11037037037037041,2.0649999999999977],[0.05802083333333338,0.11037037037037041,2.0778000001907344],[0.018229166666666668,0.19314814814814807,2.0925999999046354],[0.018229166666666668,0.19314814814814807,2.1093000001907356],[0.02385416666666664,0.2170370370370371,2.1259000000953705],[0.02385416666666664,0.2170370370370371,2.1425999999046326],[0.05302083333333331,0.19685185185185178,2.1593000001907328],[0.05302083333333331,0.19685185185185178,2.1759000000953677],[0.09156250000000009,0.21999999999999992,2.192700000286102],[0.09156250000000009,0.21999999999999992,2.209300000190737],[0.1296875,0.2412962962962962,2.225900000095372],[0.13947916666666677,0.2777777777777778,2.2439999999999998],[0.1368750000000001,0.32518518518518524,2.2592000002861],[0.15364583333333334,0.3562962962962963,2.2785999999046354],[0.1724999999999999,0.3787037037037037,2.29540000009537],[0.20145833333333343,0.36500000000000005,2.309200000286104],[0.23624999999999996,0.31740740740740736,2.3259000000953662],[0.2404166666666666,0.2927777777777778,2.3430000000000035],[0.22104166666666672,0.3122222222222223,2.3592000002861013],[0.22104166666666672,0.3122222222222223,2.3759999999999977],[0.1712500000000001,0.2918518518518519,2.3925999999046326],[0.16281249999999994,0.21907407407407398,2.4093000001907328],[0.12052083333333338,0.18333333333333332,2.426000000000002],[0.10833333333333334,0.14351851851851852,2.4432000002861045],[0.10447916666666662,0.09962962962962954,2.4592000002861027],[0.09187500000000005,0.0801851851851851,2.478099999904636],[0.09187500000000005,0.0801851851851851,2.492599999904634],[0.06166666666666672,0.08407407407407404,2.509300000190734],[0.009791666666666643,0.10611111111111103,2.5260000000000034],[-0.020833333333333332,0.10037037037037046,2.543300000190733],[-0.06541666666666662,0.09685185185185177,2.5598000001907337],[-0.06989583333333335,0.06759259259259259,2.577300000190739],[-0.12614583333333335,0.09462962962962967,2.593499999999999],[-0.1297916666666667,0.09759259259259268,2.610500000000002],[-0.15114583333333337,0.09370370370370375,2.6259000000953705],[-0.19979166666666662,0.08981481481481482,2.6425999999046326],[-0.23541666666666666,0.08907407407407411,2.6605999999046333],[-0.2757291666666667,0.08203703703703695,2.6759000000953677],[-0.28875000000000006,0.06777777777777783,2.692599999904637],[-0.31052083333333336,0.056666666666666705,2.7120000000000033],[-0.31833333333333336,0.04333333333333329,2.7288000001907378],[-0.31843750000000004,0.04425925925925922,2.7430999999046364],[-0.30885416666666665,0.04537037037037037,2.7597000002861023],[-0.3146875,0.056666666666666705,2.7764000000953715],[-0.32052083333333337,0.06796296296296304,2.792599999904631],[-0.29968750000000005,0.08148148148148149,2.8130000000000024],[-0.2835416666666667,0.08870370370370366,2.8278000001907344],[-0.2543750000000001,0.09444444444444444,2.842500000000001],[-0.23083333333333336,0.08925925925925934,2.8597000002861037],[-0.22489583333333332,0.10333333333333325,2.8765],[-0.2189583333333334,0.11740740740740736,2.8924999999999983],[-0.23333333333333334,0.11129629629629634,2.909800000190735],[-0.24770833333333328,0.1051851851851851,2.9265000000000043],[-0.25281250000000005,0.09444444444444444,2.942599999904637],[-0.2579166666666667,0.0837037037037038,2.959300000190737],[-0.2752083333333334,0.07925925925925917,2.977700000286106],[-0.2924999999999999,0.07481481481481478,2.994099999904634],[-0.3168750000000001,0.06500000000000004,3.009300000190734],[-0.34125,0.0551851851851851,3.0260999999046305],[-0.35572916666666665,0.05018518518518523,3.043200000286106],[-0.3702083333333333,0.04518518518518514,3.0638000001907386],[-0.3702083333333333,0.04518518518518514,3.0760000000000005],[-0.37041666666666667,0.049074074074074076,3.0927000002861007],[-0.37041666666666667,0.049074074074074076,3.1093000001907356],[-0.36124999999999996,0.05814814814814811,3.1259999999999977],[-0.275625,0.03370370370370379,3.144599999904635],[-0.21520833333333336,-0.00722222222222218,3.1592000002861056],[-0.15874999999999997,-0.012222222222222264,3.177800000190736],[-0.09916666666666671,-0.012037037037037037,3.192599999904637],[-0.036562500000000026,-0.014074074074074116,3.2092000002861027],[0.036249999999999956,-0.0477777777777777,3.225999999999999],[0.10499999999999995,-0.062407407407407384,3.242599999904634],[0.17374999999999996,-0.07703703703703708,3.2592000002861],[0.17374999999999996,-0.07703703703703708,3.275900000095369],[0.24604166666666671,-0.09314814814814817,3.2929999999999993],[0.30229166666666674,-0.1014814814814815,3.309200000286104],[0.2764583333333334,-0.08277777777777776,3.3259000000953662],[0.2664583333333333,-0.04740740740740745,3.3425999999046354],[0.2648958333333333,-0.05240740740740743,3.3618000001907333],[0.25677083333333334,-0.06870370370370374,3.379800000190734],[0.24656250000000005,-0.05907407407407403,3.395300000190737],[0.23072916666666668,-0.025925925925925925,3.409400000095367],[0.22156250000000005,-0.0507407407407407,3.42790000009537],[0.19677083333333342,-0.05259259259259255,3.442599999904637],[0.165625,-0.052222222222222205,3.460700000286103],[0.14114583333333333,-0.06481481481481481,3.477700000286106],[0.12791666666666662,-0.06166666666666669,3.494800000190736],[0.13666666666666671,-0.06462962962962959,3.5092000002861],[0.15885416666666666,-0.12333333333333338,3.526200000286103],[0.17395833333333333,-0.10796296296296298,3.545099999904636],[0.1868750000000001,-0.10314814814814813,3.561],[0.1868750000000001,-0.10314814814814813,3.5760000000000005],[0.190625,-0.0977777777777778,3.5927000002861007],[0.18895833333333342,-0.062037037037037036,3.6092000002861013],[0.22864583333333333,-0.05388888888888893,3.6259000000953705],[0.2459374999999999,-0.03629629629629634,3.6424999999999983],[0.2582291666666668,-0.041666666666666664,3.6592000002861056],[0.2642708333333334,-0.022222222222222223,3.676700000286104],[0.2642708333333334,-0.022222222222222223,3.6925000000000026],[0.25833333333333336,-0.002962962962963005,3.7092000002861027],[0.24406249999999996,0.06851851851851852,3.725999999999999],[0.24697916666666658,0.0668518518518519,3.742599999904634],[0.24697916666666658,0.0668518518518519,3.7592000002861],[0.24989583333333343,0.06518518518518526,3.7760000000000034],[0.24989583333333343,0.06518518518518526,3.792599999904631],[0.25197916666666675,0.08222222222222218,3.809200000286104],[0.29031250000000003,0.09185185185185189,3.828800000190739],[0.2604166666666667,0.09592592592592585,3.843599999904633],[0.2640625,0.0824074074074074,3.861000000000004],[0.2727083333333333,0.09185185185185189,3.880800000190739],[0.2603125000000001,0.08851851851851844,3.897500000000001],[0.24322916666666666,0.08722222222222227,3.9132000002861034],[0.2165625000000001,0.06629629629629621,3.931200000286104],[0.19083333333333338,0.07574074074074069,3.9469000000953685],[0.15322916666666658,0.09351851851851851,3.9642000002861053],[0.15322916666666658,0.09351851851851851,3.9762000002861058],[0.14989583333333342,0.10759259259259263,3.995599999904634],[0.1209374999999999,0.10685185185185193,4.012099999904635],[0.13447916666666657,0.11629629629629622,4.0290000000000035],[0.13447916666666657,0.11629629629629622,4.047200000286104],[0.13010416666666677,0.15407407407407417,4.059599999904634],[0.13010416666666677,0.15407407407407417,4.076099999904635],[0.1146874999999999,0.16777777777777783,4.096800000190733],[0.1146874999999999,0.16777777777777783,4.109500000000004],[0.10510416666666676,0.18351851851851855,4.126099999904632],[0.10510416666666676,0.18351851851851855,4.142700000286105],[0.11635416666666672,0.20666666666666672,4.167200000286101],[0.11635416666666672,0.20666666666666672,4.176000000000002],[0.11593749999999996,0.222037037037037,4.192800000190736],[0.11593749999999996,0.222037037037037,4.209400000095371],[0.1273958333333333,0.20962962962962972,4.229800000190735],[0.11729166666666657,0.21425925925925934,4.246599999904632],[0.09239583333333339,0.20500000000000007,4.262500000000003],[0.044375000000000026,0.20722222222222217,4.281500000000001],[0.044375000000000026,0.20722222222222217,4.292599999904631],[0.027395833333333286,0.21222222222222226,4.3095],[0.007708333333333309,0.2014814814814814,4.326099999904635],[-0.009895833333333333,0.21648148148148144,4.347099999904636],[-0.009895833333333333,0.21648148148148144,4.35940000009537],[0.003125,0.21222222222222226,4.376099999904632],[-0.005833333333333357,0.18314814814814812,4.3944000000953665],[-0.0017708333333333807,0.18870370370370365,4.411999999999999],[-0.008958333333333356,0.20407407407407416,4.428900000095368],[0.015625,0.20037037037037045,4.445599999904637],[0.026145833333333358,0.20314814814814824,4.465900000095367],[0.026145833333333358,0.20314814814814824,4.475999999999999],[0.06645833333333329,0.21777777777777782,4.4928000001907336],[0.07208333333333337,0.22240740740740744,4.5094000000953685],[0.0609375,0.21851851851851853,4.529599999904633],[0.09291666666666672,0.2101851851851852,4.545700000286104],[0.09541666666666657,0.19499999999999992,4.564599999904637],[0.09541666666666657,0.19499999999999992,4.576099999904635],[0.11677083333333324,0.222037037037037,4.596599999904633],[0.13739583333333344,0.26851851851851855,4.611599999904634],[0.16281249999999994,0.2627777777777777,4.626300000190739],[0.19020833333333323,0.26444444444444437,4.64509999990463],[0.19645833333333323,0.27518518518518525,4.662099999904633],[0.1681250000000001,0.3,4.679000000000002],[0.1493750000000001,0.3014814814814814,4.696400000095366],[0.16218750000000004,0.30759259259259264,4.712200000286103],[0.1408333333333334,0.3164814814814814,4.729500000000002],[0.12114583333333329,0.3533333333333332,4.7455],[0.10812499999999996,0.35722222222222216,4.761800000190739],[0.10812499999999996,0.35722222222222216,4.775900000095369],[0.09041666666666662,0.3477777777777777,4.792599999904631],[0.06177083333333329,0.37777777777777777,4.809200000286104],[0.05,0.36277777777777775,4.825900000095366],[0.049687500000000044,0.3814814814814815,4.8463000001907375],[0.06427083333333337,0.3744444444444445,4.861900000095368],[0.1087500000000001,0.37962962962962965,4.879800000190734],[0.1087500000000001,0.37962962962962965,4.892599999904633],[0.14885416666666676,0.3846296296296297,4.909300000190733],[0.14375,0.39351851851851855,4.927500000000002],[0.14375,0.39351851851851855,4.956599999904633],[0.15989583333333332,0.39277777777777784,4.971599999904633],[0.15989583333333332,0.39277777777777784,4.980900000095367],[0.1521874999999999,0.36925925925925923,4.9925],[0.19416666666666677,0.3550000000000001,5.009300000190734],[0.2085416666666667,0.33499999999999996,5.025800000190735],[0.19604166666666673,0.34444444444444444,5.042599999904631],[0.19322916666666667,0.3111111111111111,5.060599999904632],[0.20031249999999995,0.2844444444444445,5.079099999904635],[0.20031249999999995,0.2844444444444445,5.092599999904635],[0.16906249999999995,0.2788888888888889,5.109300000190736],[0.16541666666666663,0.280925925925926,5.130000000000003],[0.20614583333333342,0.2772222222222223,5.145400000095371],[0.24343750000000006,0.23833333333333342,5.159200000286106],[0.2820833333333333,0.2633333333333334,5.175900000095368],[0.2768749999999999,0.27611111111111114,5.192999999999998],[0.2907291666666666,0.28407407407407403,5.209200000286103],[0.33583333333333343,0.30351851851851847,5.225900000095372],[0.34395833333333337,0.30537037037037035,5.242599999904634],[0.3554166666666667,0.30111111111111116,5.259800000190737],[0.3585416666666667,0.29981481481481476,5.277300000190735],[0.3321875000000001,0.28296296296296286,5.292500000000004],[0.30270833333333325,0.2733333333333334,5.309200000286104],[0.26687500000000003,0.2681481481481481,5.325900000095366],[0.26687500000000003,0.2681481481481481,5.342599999904635],[0.22947916666666662,0.2548148148148149,5.359300000190736],[0.20510416666666675,0.24314814814814806,5.378900000095371],[0.18250000000000005,0.23444444444444448,5.392499999999998],[0.13791666666666677,0.2272222222222223,5.409200000286106],[0.13114583333333343,0.21999999999999992,5.426099999904636],[0.1109375,0.2155555555555555,5.442500000000003],[0.09895833333333333,0.2183333333333333,5.459200000286103],[0.09385416666666657,0.22592592592592592,5.4787000002861035],[0.10083333333333329,0.22370370370370363,5.4925],[0.10843749999999991,0.23592592592592587,5.5094000000953685],[0.1296875,0.20777777777777787,5.526000000000003],[0.13958333333333334,0.18055555555555555,5.542500000000004],[0.13718750000000005,0.172037037037037,5.559200000286104],[0.16843750000000005,0.12333333333333338,5.575900000095366],[0.17177083333333343,0.10574074074074079,5.592700000286101],[0.18229166666666666,0.10777777777777786,5.609200000286101],[0.20447916666666663,0.0911111111111112,5.625800000190736],[0.19166666666666668,0.09722222222222222,5.642599999904633],[0.18760416666666657,0.08462962962962971,5.659200000286106],[0.1742708333333333,0.08944444444444435,5.67640000009537],[0.1631249999999999,0.0801851851851851,5.692599999904637],[0.13489583333333333,0.09129629629629621,5.709300000190737],[0.13489583333333333,0.09129629629629621,5.725900000095372],[0.14947916666666666,0.08574074074074066,5.7425],[0.10427083333333324,0.1257407407407407,5.7622000002861],[0.11510416666666666,0.14092592592592595,5.779099999904631],[0.10979166666666676,0.14296296296296304,5.792800000190738],[0.096875,0.15166666666666662,5.8093000001907384],[0.096875,0.15166666666666662,5.826099999904635],[0.1203125,0.13148148148148148,5.845300000190733],[0.12958333333333344,0.130925925925926,5.861099999904631],[0.1502083333333334,0.09870370370370361,5.879800000190734],[0.13937499999999994,0.11648148148148144,5.89659999990463],[0.14802083333333324,0.08962962962962959,5.913599999904633],[0.13083333333333325,0.07388888888888885,5.929700000286104],[0.14895833333333333,0.051111111111111156,5.946400000095366],[0.13812499999999991,0.039629629629629584,5.9620999999046305],[0.13812499999999991,0.039629629629629584,5.975900000095372],[0.15291666666666662,0.032407407407407406,5.992599999904634],[0.15093750000000009,0.019444444444444445,6.0092000002861],[0.14166666666666666,0.015370370370370286,6.025800000190735],[0.14166666666666666,0.015370370370370286,6.045900000095365],[0.1462500000000001,0.027407407407407325,6.0595],[0.1462500000000001,0.027407407407407325,6.077200000286105],[0.14572916666666677,0.04092592592592597,6.098700000286101],[0.14572916666666677,0.04092592592592597,6.109500000000004],[0.14354166666666662,0.05129629629629638,6.126200000286104],[0.14354166666666662,0.05129629629629638,6.142700000286105],[0.1290625000000001,0.10611111111111103,6.166700000286106],[0.1290625000000001,0.10611111111111103,6.17640000009537],[0.14614583333333328,0.1307407407407408,6.192700000286102],[0.14614583333333328,0.1307407407407408,6.209300000190737],[0.15052083333333333,0.15462962962962962,6.229300000190733],[0.15968749999999995,0.16629629629629622,6.243300000190736],[0.1622916666666666,0.1705555555555556,6.2594000000953685],[0.17927083333333324,0.18111111111111103,6.279300000190737],[0.19604166666666673,0.2007407407407407,6.297000000000004],[0.19604166666666673,0.2007407407407407,6.309400000095366],[0.20666666666666675,0.19592592592592584,6.326099999904635],[0.22197916666666656,0.20333333333333325,6.342599999904635],[0.25833333333333336,0.19759259259259268,6.359300000190736],[0.30968749999999995,0.16740740740740737,6.377300000190736],[0.32916666666666666,0.16722222222222213,6.392900000095366],[0.33916666666666656,0.16111111111111112,6.409300000190733],[0.34437499999999993,0.16722222222222213,6.425900000095368],[0.3398958333333333,0.20037037037037045,6.442500000000003],[0.3363541666666668,0.23203703703703696,6.459200000286103],[0.35354166666666675,0.2462962962962963,6.475900000095372],[0.3625,0.2687037037037037,6.4925],[0.33875000000000005,0.30111111111111116,6.513300000190739],[0.3150000000000001,0.33351851851851855,6.5290000000000035],[0.31239583333333343,0.3453703703703704,6.542599999904631],[0.31010416666666674,0.3574074074074074,6.559200000286104],[0.3090625000000001,0.3507407407407407,6.578099999904637],[0.30802083333333335,0.344074074074074,6.592599999904635],[0.3098958333333333,0.35240740740740734,6.609200000286101],[0.33781249999999996,0.33833333333333343,6.628999999999998],[0.3203125,0.3322222222222222,6.642499999999998],[0.3416666666666667,0.3207407407407408,6.659800000190735],[0.3798958333333334,0.3051851851851851,6.6785],[0.3970833333333334,0.29018518518518527,6.695700000286102],[0.3859375,0.28962962962962957,6.7117000002861005],[0.39083333333333337,0.2737037037037036,6.728800000190738],[0.3992708333333333,0.3074074074074074,6.744500000000002],[0.39302083333333326,0.33277777777777784,6.763400000095366],[0.39302083333333326,0.33277777777777784,6.775900000095369],[0.4103125000000001,0.3198148148148149,6.792500000000004],[0.4069791666666667,0.3042592592592592,6.809200000286104],[0.4262500000000001,0.31666666666666665,6.825900000095366],[0.39052083333333343,0.32148148148148153,6.842599999904635],[0.36531250000000004,0.3224074074074075,6.859200000286101],[0.3423958333333334,0.2757407407407407,6.879400000095366],[0.31302083333333336,0.2638888888888889,6.895300000190737],[0.29489583333333325,0.23370370370370377,6.910000000000004],[0.25812499999999994,0.18518518518518517,6.929900000095365],[0.2617708333333333,0.13481481481481472,6.9458000001907365],[0.24447916666666672,0.05925925925925926,6.962400000095371],[0.22458333333333325,0.020185185185185143,6.98140000009537],[0.1953125,-0.04351851851851852,6.996200000286102],[0.18979166666666672,-0.1111111111111111,7.011000000000003],[0.18125,-0.1455555555555556,7.0279000000953715],[0.1779166666666666,-0.1559259259259259,7.045999999999999],[0.19895833333333332,-0.2257407407407407,7.062900000095368],[0.19479166666666667,-0.24888888888888885,7.082099999904635],[0.19479166666666667,-0.24888888888888885,7.096200000286103],[0.21489583333333329,-0.3042592592592593,7.109200000286101],[0.21489583333333329,-0.3042592592592593,7.1259000000953705],[0.2209374999999999,-0.31962962962962965,7.142499999999998],[0.2241666666666667,-0.3314814814814815,7.159200000286106],[0.22729166666666673,-0.3698148148148148,7.179599999904632],[0.23541666666666666,-0.41500000000000004,7.196300000190739],[0.24572916666666675,-0.41277777777777774,7.2109999999999985],[0.25718750000000007,-0.43277777777777776,7.227700000286106],[0.27541666666666675,-0.41944444444444445,7.242700000286106],[0.2705208333333334,-0.4118518518518518,7.271300000190735],[0.2705208333333334,-0.4118518518518518,7.279800000190733],[0.25791666666666657,-0.4190740740740741,7.2927000002861035],[0.2708333333333333,-0.4190740740740741,7.3093000001907384],[0.2720833333333334,-0.44888888888888884,7.329800000190737],[0.2648958333333333,-0.447037037037037,7.3455999999046355],[0.25499999999999995,-0.4301851851851852,7.359900000095365],[0.25125000000000003,-0.3987037037037037,7.378400000095368],[0.23552083333333323,-0.3940740740740741,7.394800000190735],[0.21864583333333343,-0.44111111111111106,7.409400000095367],[0.2085416666666667,-0.49851851851851847,7.425800000190733],[0.2085416666666667,-0.512962962962963,7.4432000002861045],[0.21416666666666656,-0.5255555555555556,7.4594999999999985],[0.19729166666666675,-0.5285185185185185,7.475900000095372],[0.1921875,-0.5120370370370371,7.492599999904634],[0.1872916666666666,-0.47962962962962963,7.5109000000953685],[0.18260416666666662,-0.4207407407407407,7.526599999904633],[0.19322916666666667,-0.40111111111111114,7.542900000095372],[0.20385416666666673,-0.3814814814814815,7.562599999904634],[0.20197916666666677,-0.28944444444444445,7.578900000095366],[0.20947916666666658,-0.21425925925925923,7.595300000190733],[0.21833333333333324,-0.1359259259259259,7.611099999904631],[0.2271874999999999,-0.05759259259259263,7.627499999999998],[0.2321875000000001,0.020370370370370372,7.642800000190739],[0.22489583333333343,0.08055555555555556,7.659200000286106],[0.2367708333333333,0.10037037037037046,7.675800000190733],[0.24833333333333343,0.09055555555555551,7.694400000095371],[0.23822916666666671,0.0977777777777777,7.709200000286103],[0.228125,0.10500000000000008,7.729500000000002],[0.2421875,0.08722222222222227,7.74490000009537],[0.2421875,0.08722222222222227,7.7592000002861],[0.246875,0.08629629629629634,7.775900000095369],[0.2535416666666668,0.07981481481481485,7.794400000095365],[0.25791666666666657,0.0794444444444444,7.809200000286104],[0.2703125,0.06185185185185181,7.8277000002861],[0.2751041666666666,0.05222222222222231,7.842500000000001],[0.2759375000000001,0.05333333333333325,7.859200000286101],[0.2768749999999999,0.05759259259259263,7.877700000286104],[0.26281249999999995,0.09148148148148144,7.895200000286103],[0.2713541666666667,0.10722222222222218,7.911000000000001],[0.27614583333333326,0.12481481481481477,7.928200000286104],[0.2787499999999999,0.14814814814814814,7.944700000286105],[0.2759375000000001,0.16740740740740737,7.959200000286103],[0.2759375000000001,0.16740740740740737,7.975900000095372],[0.2717708333333334,0.16129629629629633,7.9925],[0.25885416666666666,0.1905555555555555,8.0092000002861],[0.2462500000000001,0.23648148148148157,8.029900000095367],[0.2353125000000001,0.24055555555555552,8.0475],[0.2353125000000001,0.24055555555555552,8.059200000286104],[0.22458333333333325,0.24722222222222223,8.075900000095366],[0.22458333333333325,0.24722222222222223,8.0927000002861],[0.23114583333333344,0.26777777777777784,8.109200000286101],[0.23114583333333344,0.26777777777777784,8.12590000009537],[0.2303124999999999,0.2942592592592592,8.142599999904633],[0.2303124999999999,0.2942592592592592,8.15909999990464],[0.21124999999999997,0.32611111111111113,8.175900000095368],[0.20697916666666671,0.36629629629629623,8.198200000286107],[0.20697916666666671,0.36629629629629623,8.209200000286103],[0.19562499999999997,0.37759259259259254,8.225900000095365],[0.18041666666666673,0.3824074074074074,8.242500000000007],[0.14291666666666672,0.3918518518518519,8.265],[0.14291666666666672,0.3918518518518519,8.27609999990463],[0.13208333333333327,0.33537037037037043,8.292500000000004],[0.11760416666666676,0.3509259259259259,8.309200000286097],[0.10697916666666671,0.33185185185185195,8.32959999990463],[0.08031249999999991,0.306111111111111,8.3457000002861],[0.050520833333333334,0.25259259259259254,8.362300000190743],[0.03677083333333329,0.18462962962962973,8.379400000095373],[0.010416666666666666,0.10259259259259255,8.394599999904628],[-0.002291666666666714,0.04814814814814815,8.409200000286106],[-0.007500000000000047,0.019444444444444445,8.426700000286104],[0.01083333333333331,-0.020740740740740823,8.442499999999995],[0.010312499999999976,-0.021296296296296296,8.4617000002861],[0.03718750000000005,-0.09814814814814815,8.479400000095367],[0.04666666666666662,-0.14907407407407408,8.494],[0.07989583333333337,-0.22666666666666663,8.511700000286098]]","[0.00020000028610667187,0.05159999990463149,0.08200000000000074,0.09250000000000114,0.11570000028610394,0.12709999990463672,0.14270000028610497,0.1664999999999992,0.17590000009536766,0.19270000028610212,0.20930000019073702,0.2259999999999991,0.24359999990463166,0.25950000000000273,0.27730000019073486,0.29259999990463115,0.3134000000953705,0.33009999990463257,0.3460999999046308,0.3620000000000019,0.3785000000000025,0.39530000019073697,0.4118000001907376,0.42849999999999966,0.4440999999046369,0.45920000028610275,0.4782000002861011,0.49290000009536783,0.5093000001907342,0.5275000000000034,0.5425999999046311,0.5593000001907384,0.5760000000000005,0.5940999999046355,0.6092000002861013,0.6259999999999977,0.6445000000000007,0.6599000000953694,0.6765999999046315,0.6932000002861045,0.7115000000000009,0.7259999999999991,0.7450000000000045,0.760300000190739,0.7760000000000034,0.7925999999046311,0.8108000001907385,0.8260000000000005,0.8429000000953693,0.8620999999046361,0.8795999999046344,0.8980999999046304,0.9129000000953695,0.9260000000000019,0.9427000002861021,0.9597000002861051,0.9803000001907378,0.9969999999999999,1.0093000001907342,1.0260000000000034,1.0425999999046311,1.0593000001907384,1.0760999999046348,1.0975000000000037,1.1095000000000041,1.126099999904632,1.1433000001907345,1.161999999999999,1.179000000000002,1.1950999999046346,1.2124999999999986,1.225900000095372,1.242599999904634,1.2592000002861,1.276200000286103,1.2925999999046311,1.3093000001907384,1.3259000000953662,1.3430000000000035,1.3592000002861013,1.3759999999999977,1.3925999999046326,1.4092000002861056,1.4259000000953677,1.4425000000000026,1.4592000002861027,1.475999999999999,1.4928000001907336,1.5113000001907366,1.525900000095369,1.5425999999046311,1.5594000000953656,1.5763000001907344,1.5925999999046354,1.6092000002861013,1.6259000000953705,1.6425999999046326,1.6593000001907328,1.676000000000002,1.6925999999046368,1.709300000190737,1.7297000002861012,1.7443000001907336,1.7610000000000028,1.777700000286103,1.792900000095372,1.8093000001907384,1.8260999999046348,1.8425999999046354,1.8610000000000042,1.8777000002861044,1.8949000000953689,1.9093000001907328,1.9262000002861015,1.9428000001907364,1.959300000190737,1.9789999999999992,1.992599999904634,2.0092000002861,2.025900000095369,2.042599999904631,2.0649999999999977,2.0778000001907344,2.0925999999046354,2.1093000001907356,2.1259000000953705,2.1425999999046326,2.1593000001907328,2.1759000000953677,2.192700000286102,2.209300000190737,2.225900000095372,2.2439999999999998,2.2592000002861,2.2785999999046354,2.29540000009537,2.309200000286104,2.3259000000953662,2.3430000000000035,2.3592000002861013,2.3759999999999977,2.3925999999046326,2.4093000001907328,2.426000000000002,2.4432000002861045,2.4592000002861027,2.478099999904636,2.492599999904634,2.509300000190734,2.5260000000000034,2.543300000190733,2.5598000001907337,2.577300000190739,2.593499999999999,2.610500000000002,2.6259000000953705,2.6425999999046326,2.6605999999046333,2.6759000000953677,2.692599999904637,2.7120000000000033,2.7288000001907378,2.7430999999046364,2.7597000002861023,2.7764000000953715,2.792599999904631,2.8130000000000024,2.8278000001907344,2.842500000000001,2.8597000002861037,2.8765,2.8924999999999983,2.909800000190735,2.9265000000000043,2.942599999904637,2.959300000190737,2.977700000286106,2.994099999904634,3.009300000190734,3.0260999999046305,3.043200000286106,3.0638000001907386,3.0760000000000005,3.0927000002861007,3.1093000001907356,3.1259999999999977,3.144599999904635,3.1592000002861056,3.177800000190736,3.192599999904637,3.2092000002861027,3.225999999999999,3.242599999904634,3.2592000002861,3.275900000095369,3.2929999999999993,3.309200000286104,3.3259000000953662,3.3425999999046354,3.3618000001907333,3.379800000190734,3.395300000190737,3.409400000095367,3.42790000009537,3.442599999904637,3.460700000286103,3.477700000286106,3.494800000190736,3.5092000002861,3.526200000286103,3.545099999904636,3.561,3.5760000000000005,3.5927000002861007,3.6092000002861013,3.6259000000953705,3.6424999999999983,3.6592000002861056,3.676700000286104,3.6925000000000026,3.7092000002861027,3.725999999999999,3.742599999904634,3.7592000002861,3.7760000000000034,3.792599999904631,3.809200000286104,3.828800000190739,3.843599999904633,3.861000000000004,3.880800000190739,3.897500000000001,3.9132000002861034,3.931200000286104,3.9469000000953685,3.9642000002861053,3.9762000002861058,3.995599999904634,4.012099999904635,4.0290000000000035,4.047200000286104,4.059599999904634,4.076099999904635,4.096800000190733,4.109500000000004,4.126099999904632,4.142700000286105,4.167200000286101,4.176000000000002,4.192800000190736,4.209400000095371,4.229800000190735,4.246599999904632,4.262500000000003,4.281500000000001,4.292599999904631,4.3095,4.326099999904635,4.347099999904636,4.35940000009537,4.376099999904632,4.3944000000953665,4.411999999999999,4.428900000095368,4.445599999904637,4.465900000095367,4.475999999999999,4.4928000001907336,4.5094000000953685,4.529599999904633,4.545700000286104,4.564599999904637,4.576099999904635,4.596599999904633,4.611599999904634,4.626300000190739,4.64509999990463,4.662099999904633,4.679000000000002,4.696400000095366,4.712200000286103,4.729500000000002,4.7455,4.761800000190739,4.775900000095369,4.792599999904631,4.809200000286104,4.825900000095366,4.8463000001907375,4.861900000095368,4.879800000190734,4.892599999904633,4.909300000190733,4.927500000000002,4.956599999904633,4.971599999904633,4.980900000095367,4.9925,5.009300000190734,5.025800000190735,5.042599999904631,5.060599999904632,5.079099999904635,5.092599999904635,5.109300000190736,5.130000000000003,5.145400000095371,5.159200000286106,5.175900000095368,5.192999999999998,5.209200000286103,5.225900000095372,5.242599999904634,5.259800000190737,5.277300000190735,5.292500000000004,5.309200000286104,5.325900000095366,5.342599999904635,5.359300000190736,5.378900000095371,5.392499999999998,5.409200000286106,5.426099999904636,5.442500000000003,5.459200000286103,5.4787000002861035,5.4925,5.5094000000953685,5.526000000000003,5.542500000000004,5.559200000286104,5.575900000095366,5.592700000286101,5.609200000286101,5.625800000190736,5.642599999904633,5.659200000286106,5.67640000009537,5.692599999904637,5.709300000190737,5.725900000095372,5.7425,5.7622000002861,5.779099999904631,5.792800000190738,5.8093000001907384,5.826099999904635,5.845300000190733,5.861099999904631,5.879800000190734,5.89659999990463,5.913599999904633,5.929700000286104,5.946400000095366,5.9620999999046305,5.975900000095372,5.992599999904634,6.0092000002861,6.025800000190735,6.045900000095365,6.0595,6.077200000286105,6.098700000286101,6.109500000000004,6.126200000286104,6.142700000286105,6.166700000286106,6.17640000009537,6.192700000286102,6.209300000190737,6.229300000190733,6.243300000190736,6.2594000000953685,6.279300000190737,6.297000000000004,6.309400000095366,6.326099999904635,6.342599999904635,6.359300000190736,6.377300000190736,6.392900000095366,6.409300000190733,6.425900000095368,6.442500000000003,6.459200000286103,6.475900000095372,6.4925,6.513300000190739,6.5290000000000035,6.542599999904631,6.559200000286104,6.578099999904637,6.592599999904635,6.609200000286101,6.628999999999998,6.642499999999998,6.659800000190735,6.6785,6.695700000286102,6.7117000002861005,6.728800000190738,6.744500000000002,6.763400000095366,6.775900000095369,6.792500000000004,6.809200000286104,6.825900000095366,6.842599999904635,6.859200000286101,6.879400000095366,6.895300000190737,6.910000000000004,6.929900000095365,6.9458000001907365,6.962400000095371,6.98140000009537,6.996200000286102,7.011000000000003,7.0279000000953715,7.045999999999999,7.062900000095368,7.082099999904635,7.096200000286103,7.109200000286101,7.1259000000953705,7.142499999999998,7.159200000286106,7.179599999904632,7.196300000190739,7.2109999999999985,7.227700000286106,7.242700000286106,7.271300000190735,7.279800000190733,7.2927000002861035,7.3093000001907384,7.329800000190737,7.3455999999046355,7.359900000095365,7.378400000095368,7.394800000190735,7.409400000095367,7.425800000190733,7.4432000002861045,7.4594999999999985,7.475900000095372,7.492599999904634,7.5109000000953685,7.526599999904633,7.542900000095372,7.562599999904634,7.578900000095366,7.595300000190733,7.611099999904631,7.627499999999998,7.642800000190739,7.659200000286106,7.675800000190733,7.694400000095371,7.709200000286103,7.729500000000002,7.74490000009537,7.7592000002861,7.775900000095369,7.794400000095365,7.809200000286104,7.8277000002861,7.842500000000001,7.859200000286101,7.877700000286104,7.895200000286103,7.911000000000001,7.928200000286104,7.944700000286105,7.959200000286103,7.975900000095372,7.9925,8.0092000002861,8.029900000095367,8.0475,8.059200000286104,8.075900000095366,8.0927000002861,8.109200000286101,8.12590000009537,8.142599999904633,8.15909999990464,8.175900000095368,8.198200000286107,8.209200000286103,8.225900000095365,8.242500000000007,8.265,8.27609999990463,8.292500000000004,8.309200000286097,8.32959999990463,8.3457000002861,8.362300000190743,8.379400000095373,8.394599999904628,8.409200000286106,8.426700000286104,8.442499999999995,8.4617000002861,8.479400000095367,8.494,8.511700000286098]","[1732000715494,1732000715536,1732000715567,1732000715577,1732000715600,1732000715612,1732000715627,1732000715651,1732000715660,1732000715677,1732000715694,1732000715710,1732000715728,1732000715744,1732000715762,1732000715777,1732000715798,1732000715815,1732000715831,1732000715846,1732000715863,1732000715880,1732000715896,1732000715913,1732000715929,1732000715944,1732000715963,1732000715977,1732000715994,1732000716012,1732000716027,1732000716044,1732000716060,1732000716079,1732000716094,1732000716110,1732000716129,1732000716144,1732000716161,1732000716178,1732000716196,1732000716210,1732000716229,1732000716245,1732000716260,1732000716277,1732000716295,1732000716310,1732000716327,1732000716347,1732000716364,1732000716383,1732000716397,1732000716410,1732000716427,1732000716444,1732000716465,1732000716481,1732000716494,1732000716510,1732000716527,1732000716544,1732000716561,1732000716582,1732000716594,1732000716611,1732000716628,1732000716646,1732000716663,1732000716679,1732000716697,1732000716710,1732000716727,1732000716744,1732000716761,1732000716777,1732000716794,1732000716810,1732000716827,1732000716844,1732000716860,1732000716877,1732000716894,1732000716910,1732000716927,1732000716944,1732000716960,1732000716977,1732000716996,1732000717010,1732000717027,1732000717044,1732000717061,1732000717077,1732000717094,1732000717110,1732000717127,1732000717144,1732000717160,1732000717177,1732000717194,1732000717214,1732000717229,1732000717245,1732000717262,1732000717277,1732000717294,1732000717311,1732000717327,1732000717345,1732000717362,1732000717379,1732000717394,1732000717411,1732000717427,1732000717444,1732000717463,1732000717477,1732000717494,1732000717510,1732000717527,1732000717549,1732000717562,1732000717577,1732000717594,1732000717610,1732000717627,1732000717644,1732000717660,1732000717677,1732000717694,1732000717710,1732000717728,1732000717744,1732000717763,1732000717780,1732000717794,1732000717810,1732000717827,1732000717844,1732000717860,1732000717877,1732000717894,1732000717910,1732000717928,1732000717944,1732000717963,1732000717977,1732000717994,1732000718010,1732000718028,1732000718044,1732000718062,1732000718078,1732000718095,1732000718110,1732000718127,1732000718145,1732000718160,1732000718177,1732000718196,1732000718213,1732000718228,1732000718244,1732000718261,1732000718277,1732000718297,1732000718312,1732000718327,1732000718344,1732000718361,1732000718377,1732000718394,1732000718411,1732000718427,1732000718444,1732000718462,1732000718479,1732000718494,1732000718511,1732000718528,1732000718548,1732000718560,1732000718577,1732000718594,1732000718610,1732000718629,1732000718644,1732000718662,1732000718677,1732000718694,1732000718710,1732000718727,1732000718744,1732000718760,1732000718777,1732000718794,1732000718810,1732000718827,1732000718846,1732000718864,1732000718880,1732000718894,1732000718912,1732000718927,1732000718945,1732000718962,1732000718979,1732000718994,1732000719011,1732000719030,1732000719045,1732000719060,1732000719077,1732000719094,1732000719110,1732000719127,1732000719144,1732000719161,1732000719177,1732000719194,1732000719210,1732000719227,1732000719244,1732000719260,1732000719277,1732000719294,1732000719313,1732000719328,1732000719346,1732000719365,1732000719382,1732000719398,1732000719416,1732000719431,1732000719449,1732000719461,1732000719480,1732000719497,1732000719513,1732000719532,1732000719544,1732000719561,1732000719581,1732000719594,1732000719611,1732000719627,1732000719652,1732000719660,1732000719677,1732000719694,1732000719714,1732000719731,1732000719747,1732000719766,1732000719777,1732000719794,1732000719811,1732000719832,1732000719844,1732000719861,1732000719879,1732000719896,1732000719913,1732000719930,1732000719950,1732000719960,1732000719977,1732000719994,1732000720014,1732000720030,1732000720049,1732000720060,1732000720081,1732000720096,1732000720111,1732000720130,1732000720147,1732000720163,1732000720181,1732000720197,1732000720214,1732000720230,1732000720246,1732000720260,1732000720277,1732000720294,1732000720310,1732000720331,1732000720346,1732000720364,1732000720377,1732000720394,1732000720412,1732000720441,1732000720456,1732000720465,1732000720477,1732000720494,1732000720510,1732000720527,1732000720545,1732000720564,1732000720577,1732000720594,1732000720614,1732000720630,1732000720644,1732000720660,1732000720677,1732000720694,1732000720710,1732000720727,1732000720744,1732000720762,1732000720777,1732000720794,1732000720810,1732000720827,1732000720844,1732000720863,1732000720877,1732000720894,1732000720911,1732000720927,1732000720944,1732000720963,1732000720977,1732000720994,1732000721010,1732000721027,1732000721044,1732000721060,1732000721077,1732000721094,1732000721110,1732000721127,1732000721144,1732000721161,1732000721177,1732000721194,1732000721210,1732000721227,1732000721247,1732000721263,1732000721277,1732000721294,1732000721311,1732000721330,1732000721346,1732000721364,1732000721381,1732000721398,1732000721414,1732000721431,1732000721447,1732000721460,1732000721477,1732000721494,1732000721510,1732000721530,1732000721544,1732000721562,1732000721583,1732000721594,1732000721611,1732000721627,1732000721651,1732000721661,1732000721677,1732000721694,1732000721714,1732000721728,1732000721744,1732000721764,1732000721781,1732000721794,1732000721811,1732000721827,1732000721844,1732000721862,1732000721877,1732000721894,1732000721910,1732000721927,1732000721944,1732000721960,1732000721977,1732000721998,1732000722013,1732000722027,1732000722044,1732000722062,1732000722077,1732000722094,1732000722113,1732000722127,1732000722144,1732000722163,1732000722180,1732000722196,1732000722213,1732000722229,1732000722248,1732000722260,1732000722277,1732000722294,1732000722310,1732000722327,1732000722344,1732000722364,1732000722380,1732000722394,1732000722414,1732000722430,1732000722447,1732000722466,1732000722481,1732000722495,1732000722512,1732000722530,1732000722547,1732000722567,1732000722581,1732000722594,1732000722610,1732000722627,1732000722644,1732000722664,1732000722681,1732000722695,1732000722712,1732000722727,1732000722756,1732000722764,1732000722777,1732000722794,1732000722814,1732000722830,1732000722844,1732000722863,1732000722879,1732000722894,1732000722910,1732000722928,1732000722944,1732000722960,1732000722977,1732000722995,1732000723011,1732000723027,1732000723047,1732000723063,1732000723080,1732000723096,1732000723112,1732000723127,1732000723144,1732000723160,1732000723179,1732000723194,1732000723214,1732000723229,1732000723244,1732000723260,1732000723279,1732000723294,1732000723312,1732000723327,1732000723344,1732000723362,1732000723380,1732000723395,1732000723413,1732000723429,1732000723444,1732000723460,1732000723477,1732000723494,1732000723514,1732000723532,1732000723544,1732000723560,1732000723577,1732000723594,1732000723610,1732000723627,1732000723644,1732000723660,1732000723683,1732000723694,1732000723710,1732000723727,1732000723749,1732000723761,1732000723777,1732000723794,1732000723814,1732000723830,1732000723847,1732000723864,1732000723879,1732000723894,1732000723911,1732000723927,1732000723946,1732000723964,1732000723978,1732000723996]","[[997.3,594.8],[997.3,594.8],[1011.9,592.2],[1011.9,592.2],[1022.9,594.1],[1022.9,594.1],[1019.3,590.3],[1011.9,589.8],[1011.9,589.8],[1016.7,598.1],[1016.7,598.1],[1024.2,610],[1028.7,592.3],[1014.8,579.2],[1004.5,586.1],[999.6,600.4],[1004.1,611],[976,613.4],[972.8,621.2],[977.1,622.8],[948.5,629.9],[921,630],[892.6,649.8],[883.6,672.3],[856.1,679.5],[829.2,680],[794.4,680],[796.8,681.6],[796,686.1],[799.9,692.3],[802.7,685.7],[802.7,685.7],[808.5,684.5],[791.1,679.7],[756.4,662.2],[739.8,646.6],[721.9,638.3],[711.9,630.5],[692,624.4],[656.1,616.4],[605.1,601.6],[573.3,592.8],[548,574],[548.7,560.1],[548.7,560.1],[557.8,551.1],[540.8,571.5],[530.9,556.5],[530.1,545.2],[529.3,533.9],[518.4,543.5],[529.9,543.1],[531.2,543.7],[531.2,543.7],[523,548.9],[520.3,554],[507.7,569.2],[507.7,569.2],[521.2,555],[518.1,567.9],[514.1,562.4],[504.7,570.8],[505.9,558.8],[502.7,570.3],[502.7,570.3],[542.5,557.2],[587.8,552.6],[632,542.1],[684.6,513.8],[731,463.2],[731,463.2],[773,434.4],[810.9,427.3],[883.4,413.8],[945.6,404.6],[995.7,379.5],[1012.6,381.8],[1024,375.6],[1021.3,376.1],[993.2,370.4],[997.2,399.7],[997.2,399.7],[1010.4,407.5],[1031.7,413.5],[1022.4,408.9],[1033.7,406.6],[1046.9,411],[1065.5,407],[1088.4,397.9],[1105.7,382.3],[1140.8,392.3],[1157.2,384.3],[1180.3,367],[1191.2,344.5],[1200.6,344.4],[1185.8,326.1],[1191.1,323],[1193.6,328.8],[1197.9,330.8],[1197.9,330.8],[1205.1,323.4],[1223.3,341.4],[1220.8,376.5],[1189.8,417.3],[1195.6,438.3],[1209.2,460],[1221.1,493.8],[1220.2,514.9],[1229,528.9],[1231.7,551.8],[1246.8,589.9],[1246.2,573],[1235.8,570.7],[1247.2,572],[1204.6,603.1],[1158.2,613],[1147.2,604.7],[1136.2,596.4],[1094.7,599.7],[1051.6,596.2],[1051.6,596.2],[1015.7,599.6],[1015.7,599.6],[977.5,644.3],[977.5,644.3],[982.9,657.2],[982.9,657.2],[1010.9,646.3],[1010.9,646.3],[1047.9,658.8],[1047.9,658.8],[1084.5,670.3],[1093.9,690],[1091.4,715.6],[1107.5,732.4],[1125.6,744.5],[1153.4,737.1],[1186.8,711.4],[1190.8,698.1],[1172.2,708.6],[1172.2,708.6],[1124.4,697.6],[1116.3,658.3],[1075.7,639],[1064,617.5],[1060.3,593.8],[1048.2,583.3],[1048.2,583.3],[1019.2,585.4],[969.4,597.3],[940,594.2],[897.2,592.3],[892.9,576.5],[838.9,591.1],[835.4,592.7],[814.9,590.6],[768.2,588.5],[734,588.1],[695.3,584.3],[682.8,576.6],[661.9,570.6],[654.4,563.4],[654.3,563.9],[663.5,564.5],[657.9,570.6],[652.3,576.7],[672.3,584],[687.8,587.9],[715.8,591],[738.4,588.2],[744.1,595.8],[749.8,603.4],[736,600.1],[722.2,596.8],[717.3,591],[712.4,585.2],[695.8,582.8],[679.2,580.4],[655.8,575.1],[632.4,569.8],[618.5,567.1],[604.6,564.4],[604.6,564.4],[604.4,566.5],[604.4,566.5],[613.2,571.4],[695.4,558.2],[753.4,536.1],[807.6,533.4],[864.8,533.5],[924.9,532.4],[994.8,514.2],[1060.8,506.3],[1126.8,498.4],[1126.8,498.4],[1196.2,489.7],[1250.2,485.2],[1225.4,495.3],[1215.8,514.4],[1214.3,511.7],[1206.5,502.9],[1196.7,508.1],[1181.5,526],[1172.7,512.6],[1148.9,511.6],[1119,511.8],[1095.5,505],[1082.8,506.7],[1091.2,505.1],[1112.5,473.4],[1127,481.7],[1139.4,484.3],[1139.4,484.3],[1143,487.2],[1141.4,506.5],[1179.5,510.9],[1196.1,520.4],[1207.9,517.5],[1213.7,528],[1213.7,528],[1208,538.4],[1194.3,577],[1197.1,576.1],[1197.1,576.1],[1199.9,575.2],[1199.9,575.2],[1201.9,584.4],[1238.7,589.6],[1210,591.8],[1213.5,584.5],[1221.8,589.6],[1209.9,587.8],[1193.5,587.1],[1167.9,575.8],[1143.2,580.9],[1107.1,590.5],[1107.1,590.5],[1103.9,598.1],[1076.1,597.7],[1089.1,602.8],[1089.1,602.8],[1084.9,623.2],[1084.9,623.2],[1070.1,630.6],[1070.1,630.6],[1060.9,639.1],[1060.9,639.1],[1071.7,651.6],[1071.7,651.6],[1071.3,659.9],[1071.3,659.9],[1082.3,653.2],[1072.6,655.7],[1048.7,650.7],[1002.6,651.9],[1002.6,651.9],[986.3,654.6],[967.4,648.8],[950.5,656.9],[950.5,656.9],[963,654.6],[954.4,638.9],[958.3,641.9],[951.4,650.2],[975,648.2],[985.1,649.7],[985.1,649.7],[1023.8,657.6],[1029.2,660.1],[1018.5,658],[1049.2,653.5],[1051.6,645.3],[1051.6,645.3],[1072.1,659.9],[1091.9,685],[1116.3,681.9],[1142.6,682.8],[1148.6,688.6],[1121.4,702],[1103.4,702.8],[1115.7,706.1],[1095.2,710.9],[1076.3,730.8],[1063.8,732.9],[1063.8,732.9],[1046.8,727.8],[1019.3,744],[1008,735.9],[1007.7,746],[1021.7,742.2],[1064.4,745],[1064.4,745],[1102.9,747.7],[1098,752.5],[1098,752.5],[1113.5,752.1],[1113.5,752.1],[1106.1,739.4],[1146.4,731.7],[1160.2,720.9],[1148.2,726],[1145.5,708],[1152.3,693.6],[1152.3,693.6],[1122.3,690.6],[1118.8,691.7],[1157.9,689.7],[1193.7,668.7],[1230.8,682.2],[1225.8,689.1],[1239.1,693.4],[1282.4,703.9],[1290.2,704.9],[1301.2,702.6],[1304.2,701.9],[1278.9,692.8],[1250.6,687.6],[1216.2,684.8],[1216.2,684.8],[1180.3,677.6],[1156.9,671.3],[1135.2,666.6],[1092.4,662.7],[1085.9,658.8],[1066.5,656.4],[1055,657.9],[1050.1,662],[1056.8,660.8],[1064.1,667.4],[1084.5,652.2],[1094,637.5],[1091.7,632.9],[1121.7,606.6],[1124.9,597.1],[1135,598.2],[1156.3,589.2],[1144,592.5],[1140.1,585.7],[1127.3,588.3],[1116.6,583.3],[1089.5,589.3],[1089.5,589.3],[1103.5,586.3],[1060.1,607.9],[1070.5,616.1],[1065.4,617.2],[1053,621.9],[1053,621.9],[1075.5,611],[1084.4,610.7],[1104.2,593.3],[1093.8,602.9],[1102.1,588.4],[1085.6,579.9],[1103,567.6],[1092.6,561.4],[1092.6,561.4],[1106.8,557.5],[1104.9,550.5],[1096,548.3],[1096,548.3],[1100.4,554.8],[1100.4,554.8],[1099.9,562.1],[1099.9,562.1],[1097.8,567.7],[1097.8,567.7],[1083.9,597.3],[1083.9,597.3],[1100.3,610.6],[1100.3,610.6],[1104.5,623.5],[1113.3,629.8],[1115.8,632.1],[1132.1,637.8],[1148.2,648.4],[1148.2,648.4],[1158.4,645.8],[1173.1,649.8],[1208,646.7],[1257.3,630.4],[1276,630.3],[1285.6,627],[1290.6,630.3],[1286.3,648.2],[1282.9,665.3],[1299.4,673],[1308,685.1],[1285.2,702.6],[1262.4,720.1],[1259.9,726.5],[1257.7,733],[1256.7,729.4],[1255.7,725.8],[1257.5,730.3],[1284.3,722.7],[1267.5,719.4],[1288,713.2],[1324.7,704.8],[1341.2,696.7],[1330.5,696.4],[1335.2,687.8],[1343.3,706],[1337.3,719.7],[1337.3,719.7],[1353.9,712.7],[1350.7,704.3],[1369.2,7