inst1_resp.keys,inst1_resp.rt,calibrationMouse.x,calibrationMouse.y,calibrationMouse.leftButton,calibrationMouse.midButton,calibrationMouse.rightButton,calibrationClick.x,calibrationClick.y,calibrationClick.leftButton,calibrationClick.midButton,calibrationClick.rightButton,calibrationClick.clicked_name,trialsc.thisRepN,trialsc.thisTrialN,trialsc.thisN,trialsc.thisIndex,trialsc.ran,calibration_x,calibration_y,participant,session,date,expName,psychopyVersion,OS,frameRate,ScreenRes_pixels,Camera_pixels,mouse_2.x,mouse_2.y,mouse_2.leftButton,mouse_2.midButton,mouse_2.rightButton,mouse_2.time,mouse_2.clicked_name,mouse.x,mouse.y,mouse.leftButton,mouse.midButton,mouse.rightButton,mouse.time,mouse.clicked_name,Choice,Trial,TrialDuration,MOUSE_GAZE,ET_GAZE,ET_GAZE_x_T,time,unixTime,ET_GAZE_NF,Loc_Bus_label,Loc_Metro_label,Loc_RH_label,Loc_Cost_label,Loc_Travel_label,Loc_Comfort_label,Loc_Bus_cost,Loc_Metro_cost,Loc_RH_cost,Loc_Bus_travel,Loc_Metro_travel,Loc_RH_travel,Loc_Bus_comfort,Loc_Metro_comfort,Loc_RH_comfort,trials.thisRepN,trials.thisTrialN,trials.thisN,trials.thisIndex,trials.ran,Block,Device,RH_cost,RH_travel_time,RH_Comfort,metro_cost,metro_travel_time,metro_Comfort,Bus_cost,Bus_travel_time,Bus_Comfort
space,2.148,0.039583333,-0.053703704,1,0,0,-0.333333333,0.672222222,1,0,0,calibration_square,0,0,0,8,1,-0.33,0.67,23,001,2024-11-19_13h22.38.182,Attention_exp_legacy,2023.1.0,Win32,60.24096386,,,,,,,,,,,,,,,,,,,,,,,,,,,,,,,,,,,,,,,,,,,,,,,,,,,,,,,,
,,,,,,,-0.667708333,-0.344444444,1,0,0,,0,1,1,1,1,-0.67,-0.33,23,001,2024-11-19_13h22.38.182,Attention_exp_legacy,2023.1.0,Win32,60.24096386,,,,,,,,,,,,,,,,,,,,,,,,,,,,,,,,,,,,,,,,,,,,,,,,,,,,,,,,
,,,,,,,0,0.338888889,1,0,0,calibration_square,0,2,2,12,1,0,0.33,23,001,2024-11-19_13h22.38.182,Attention_exp_legacy,2023.1.0,Win32,60.24096386,,,,,,,,,,,,,,,,,,,,,,,,,,,,,,,,,,,,,,,,,,,,,,,,,,,,,,,,
,,,,,,,0.326041667,0.655555556,1,0,0,,0,3,3,18,1,0.33,0.67,23,001,2024-11-19_13h22.38.182,Attention_exp_legacy,2023.1.0,Win32,60.24096386,,,,,,,,,,,,,,,,,,,,,,,,,,,,,,,,,,,,,,,,,,,,,,,,,,,,,,,,
,,,,,,,-0.00625,-0.340740741,1,0,0,,0,4,4,10,1,0,-0.33,23,001,2024-11-19_13h22.38.182,Attention_exp_legacy,2023.1.0,Win32,60.24096386,,,,,,,,,,,,,,,,,,,,,,,,,,,,,,,,,,,,,,,,,,,,,,,,,,,,,,,,
,,,,,,,-0.002083333,0.661111111,1,0,0,calibration_square,0,5,5,13,1,0,0.67,23,001,2024-11-19_13h22.38.182,Attention_exp_legacy,2023.1.0,Win32,60.24096386,,,,,,,,,,,,,,,,,,,,,,,,,,,,,,,,,,,,,,,,,,,,,,,,,,,,,,,,
,,,,,,,-0.669791667,0.338888889,1,0,0,calibration_square,0,6,6,3,1,-0.67,0.33,23,001,2024-11-19_13h22.38.182,Attention_exp_legacy,2023.1.0,Win32,60.24096386,,,,,,,,,,,,,,,,,,,,,,,,,,,,,,,,,,,,,,,,,,,,,,,,,,,,,,,,
,,,,,,,-0.66875,-0.67037037,1,0,0,calibration_square,0,7,7,0,1,-0.67,-0.67,23,001,2024-11-19_13h22.38.182,Attention_exp_legacy,2023.1.0,Win32,60.24096386,,,,,,,,,,,,,,,,,,,,,,,,,,,,,,,,,,,,,,,,,,,,,,,,,,,,,,,,
,,,,,,,0.330208333,0,1,0,0,calibration_square,0,8,8,16,1,0.33,0,23,001,2024-11-19_13h22.38.182,Attention_exp_legacy,2023.1.0,Win32,60.24096386,,,,,,,,,,,,,,,,,,,,,,,,,,,,,,,,,,,,,,,,,,,,,,,,,,,,,,,,
,,,,,,,-0.328125,-0.661111111,1,0,0,calibration_square,0,9,9,4,1,-0.33,-0.67,23,001,2024-11-19_13h22.38.182,Attention_exp_legacy,2023.1.0,Win32,60.24096386,,,,,,,,,,,,,,,,,,,,,,,,,,,,,,,,,,,,,,,,,,,,,,,,,,,,,,,,
,,,,,,,-0.332291667,-0.314814815,1,0,0,,0,10,10,5,1,-0.33,-0.33,23,001,2024-11-19_13h22.38.182,Attention_exp_legacy,2023.1.0,Win32,60.24096386,,,,,,,,,,,,,,,,,,,,,,,,,,,,,,,,,,,,,,,,,,,,,,,,,,,,,,,,
,,,,,,,0.325,-0.664814815,1,0,0,calibration_square,0,11,11,14,1,0.33,-0.67,23,001,2024-11-19_13h22.38.182,Attention_exp_legacy,2023.1.0,Win32,60.24096386,,,,,,,,,,,,,,,,,,,,,,,,,,,,,,,,,,,,,,,,,,,,,,,,,,,,,,,,
,,,,,,,-0.332291667,0.331481481,1,0,0,calibration_square,0,12,12,7,1,-0.33,0.33,23,001,2024-11-19_13h22.38.182,Attention_exp_legacy,2023.1.0,Win32,60.24096386,,,,,,,,,,,,,,,,,,,,,,,,,,,,,,,,,,,,,,,,,,,,,,,,,,,,,,,,
,,,,,,,0.330208333,-0.322222222,1,0,0,calibration_square,0,13,13,15,1,0.33,-0.33,23,001,2024-11-19_13h22.38.182,Attention_exp_legacy,2023.1.0,Win32,60.24096386,,,,,,,,,,,,,,,,,,,,,,,,,,,,,,,,,,,,,,,,,,,,,,,,,,,,,,,,
,,,,,,,-0.675,0.005555556,1,0,0,calibration_square,0,14,14,2,1,-0.67,0,23,001,2024-11-19_13h22.38.182,Attention_exp_legacy,2023.1.0,Win32,60.24096386,,,,,,,,,,,,,,,,,,,,,,,,,,,,,,,,,,,,,,,,,,,,,,,,,,,,,,,,
,,,,,,,0.659375,-0.672222222,1,0,0,,0,15,15,20,1,0.67,-0.67,23,001,2024-11-19_13h22.38.182,Attention_exp_legacy,2023.1.0,Win32,60.24096386,,,,,,,,,,,,,,,,,,,,,,,,,,,,,,,,,,,,,,,,,,,,,,,,,,,,,,,,
,,,,,,,0.003125,-0.664814815,1,0,0,calibration_square,0,16,16,9,1,0,-0.67,23,001,2024-11-19_13h22.38.182,Attention_exp_legacy,2023.1.0,Win32,60.24096386,,,,,,,,,,,,,,,,,,,,,,,,,,,,,,,,,,,,,,,,,,,,,,,,,,,,,,,,
,,,,,,,0.665625,0.661111111,1,0,0,calibration_square,0,17,17,19,1,0.67,0.67,23,001,2024-11-19_13h22.38.182,Attention_exp_legacy,2023.1.0,Win32,60.24096386,,,,,,,,,,,,,,,,,,,,,,,,,,,,,,,,,,,,,,,,,,,,,,,,,,,,,,,,
,,,,,,,0.328125,0.324074074,1,0,0,calibration_square,0,18,18,17,1,0.33,0.33,23,001,2024-11-19_13h22.38.182,Attention_exp_legacy,2023.1.0,Win32,60.24096386,,,,,,,,,,,,,,,,,,,,,,,,,,,,,,,,,,,,,,,,,,,,,,,,,,,,,,,,
,,,,,,,-0.34375,0.003703704,1,0,0,,0,19,19,6,1,-0.33,0,23,001,2024-11-19_13h22.38.182,Attention_exp_legacy,2023.1.0,Win32,60.24096386,,,,,,,,,,,,,,,,,,,,,,,,,,,,,,,,,,,,,,,,,,,,,,,,,,,,,,,,
,,,,,,,-0.003125,0,1,0,0,calibration_square,0,20,20,11,1,0,0,23,001,2024-11-19_13h22.38.182,Attention_exp_legacy,2023.1.0,Win32,60.24096386,,,,,,,,,,,,,,,,,,,,,,,,,,,,,,,,,,,,,,,,,,,,,,,,,,,,,,,,
,,,,,,,,,,,,,,,,,,,,23,001,2024-11-19_13h22.38.182,Attention_exp_legacy,2023.1.0,Win32,60.24096386,"[1920,1080]","[640,480]",[0.025],[-0.5037037037037037],[1],[0],[0],[3.0794000000953687],"[""StartButton""]",[0.125],[0.39814814814814814],[1],[0],[0],[4.8185],"[""Metro_label""]",Metro_label,1,5.8439,"[[0.007291666666666667,0.2388888888888889],[0.007291666666666667,0.2388888888888889],[0.007291666666666667,0.2388888888888889],[0.007291666666666667,0.2388888888888889],[0.007291666666666667,0.2388888888888889],[0.007291666666666667,0.2388888888888889],[0.007291666666666667,0.2388888888888889],[0.007291666666666667,0.2388888888888889],[0.007291666666666667,0.2388888888888889],[0.007291666666666667,0.2388888888888889],[0.007291666666666667,0.2388888888888889],[0.007291666666666667,0.2388888888888889],[0.007291666666666667,0.2388888888888889],[0.007291666666666667,0.2388888888888889],[0.007291666666666667,0.2388888888888889],[0.007291666666666667,0.2388888888888889],[0.007291666666666667,0.2388888888888889],[0.007291666666666667,0.2388888888888889],[0.007291666666666667,0.2388888888888889],[0.007291666666666667,0.2388888888888889],[0.007291666666666667,0.2388888888888889],[0.007291666666666667,0.2388888888888889],[0.007291666666666667,0.2388888888888889],[0.007291666666666667,0.2388888888888889],[0.007291666666666667,0.2388888888888889],[0.007291666666666667,0.2388888888888889],[0.007291666666666667,0.2388888888888889],[0.007291666666666667,0.2388888888888889],[0.007291666666666667,0.2388888888888889],[0.007291666666666667,0.2388888888888889],[0.007291666666666667,0.2388888888888889],[0.007291666666666667,0.2388888888888889],[0.007291666666666667,0.2388888888888889],[0.007291666666666667,0.2388888888888889],[0.007291666666666667,0.2388888888888889],[0.007291666666666667,0.2388888888888889],[0.007291666666666667,0.2388888888888889],[0.007291666666666667,0.2388888888888889],[0.007291666666666667,0.2388888888888889],[0.007291666666666667,0.2388888888888889],[0.007291666666666667,0.2388888888888889],[0.007291666666666667,0.2388888888888889],[0.007291666666666667,0.2388888888888889],[0.007291666666666667,0.2388888888888889],[0.007291666666666667,0.2388888888888889],[0.007291666666666667,0.2388888888888889],[0.007291666666666667,0.2388888888888889],[0.007291666666666667,0.2388888888888889],[0.007291666666666667,0.2388888888888889],[0.007291666666666667,0.2388888888888889],[0.007291666666666667,0.2388888888888889],[0.007291666666666667,0.2388888888888889],[0.007291666666666667,0.2388888888888889],[0.007291666666666667,0.2388888888888889],[0.007291666666666667,0.2388888888888889],[0.007291666666666667,0.2388888888888889],[0.007291666666666667,0.2388888888888889],[0.007291666666666667,0.2388888888888889],[0.007291666666666667,0.2388888888888889],[0.007291666666666667,0.2388888888888889],[0.007291666666666667,0.2388888888888889],[0.007291666666666667,0.2388888888888889],[0.007291666666666667,0.2388888888888889],[0.007291666666666667,0.2388888888888889],[0.007291666666666667,0.2388888888888889],[0.007291666666666667,0.2388888888888889],[0.007291666666666667,0.2388888888888889],[0.007291666666666667,0.2388888888888889],[0.007291666666666667,0.2388888888888889],[0.007291666666666667,0.2388888888888889],[0.007291666666666667,0.2388888888888889],[0.007291666666666667,0.2388888888888889],[0.007291666666666667,0.2388888888888889],[0.007291666666666667,0.2388888888888889],[0.007291666666666667,0.2388888888888889],[0.00625,0.23703703703703705],[0.004166666666666667,0.2351851851851852],[0.0010416666666666667,0.22592592592592592],[-0.003125,0.21851851851851853],[-0.005208333333333333,0.2111111111111111],[-0.011458333333333333,0.19814814814814816],[-0.0125,0.1925925925925926],[-0.0125,0.19074074074074074],[-0.014583333333333334,0.18703703703703703],[-0.016666666666666666,0.17777777777777778],[-0.01875,0.17222222222222222],[-0.019791666666666666,0.1648148148148148],[-0.022916666666666665,0.1537037037037037],[-0.023958333333333335,0.14444444444444443],[-0.026041666666666668,0.13703703703703704],[-0.027083333333333334,0.1259259259259259],[-0.029166666666666667,0.11481481481481481],[-0.030208333333333334,0.10555555555555556],[-0.03229166666666667,0.0962962962962963],[-0.03229166666666667,0.0962962962962963],[-0.03333333333333333,0.08888888888888889],[-0.034375,0.07962962962962963],[-0.034375,0.07037037037037037],[-0.035416666666666666,0.053703703703703705],[-0.0375,0.03888888888888889],[-0.03854166666666667,0.025925925925925925],[-0.03854166666666667,0.018518518518518517],[-0.03958333333333333,0.007407407407407408],[-0.03958333333333333,-0.001851851851851852],[-0.03958333333333333,-0.009259259259259259],[-0.03958333333333333,-0.018518518518518517],[-0.03958333333333333,-0.027777777777777776],[-0.041666666666666664,-0.03888888888888889],[-0.042708333333333334,-0.046296296296296294],[-0.042708333333333334,-0.05555555555555555],[-0.04375,-0.05925925925925926],[-0.04375,-0.06666666666666667],[-0.04479166666666667,-0.07592592592592592],[-0.04479166666666667,-0.08148148148148149],[-0.04583333333333333,-0.09259259259259259],[-0.046875,-0.10740740740740741],[-0.04791666666666667,-0.11296296296296296],[-0.04895833333333333,-0.12222222222222222],[-0.05,-0.13333333333333333],[-0.05,-0.1425925925925926],[-0.05,-0.15],[-0.05,-0.16111111111111112],[-0.05,-0.17037037037037037],[-0.05,-0.1814814814814815],[-0.051041666666666666,-0.18703703703703703],[-0.051041666666666666,-0.1925925925925926],[-0.051041666666666666,-0.19814814814814816],[-0.051041666666666666,-0.2037037037037037],[-0.051041666666666666,-0.2111111111111111],[-0.051041666666666666,-0.21481481481481482],[-0.051041666666666666,-0.21851851851851853],[-0.051041666666666666,-0.22037037037037038],[-0.051041666666666666,-0.22592592592592592],[-0.05,-0.23148148148148148],[-0.05,-0.23703703703703705],[-0.04895833333333333,-0.24259259259259258],[-0.04895833333333333,-0.25],[-0.046875,-0.2537037037037037],[-0.04479166666666667,-0.26296296296296295],[-0.04479166666666667,-0.26851851851851855],[-0.041666666666666664,-0.2777777777777778],[-0.041666666666666664,-0.2814814814814815],[-0.041666666666666664,-0.28703703703703703],[-0.041666666666666664,-0.29444444444444445],[-0.040625,-0.2962962962962963],[-0.040625,-0.3],[-0.03958333333333333,-0.3037037037037037],[-0.03958333333333333,-0.3074074074074074],[-0.0375,-0.3111111111111111],[-0.0375,-0.3148148148148148],[-0.035416666666666666,-0.32037037037037036],[-0.035416666666666666,-0.32407407407407407],[-0.035416666666666666,-0.3277777777777778],[-0.034375,-0.3296296296296296],[-0.034375,-0.337037037037037],[-0.03229166666666667,-0.34074074074074073],[-0.03125,-0.34814814814814815],[-0.03125,-0.34814814814814815],[-0.03125,-0.35185185185185186],[-0.030208333333333334,-0.35555555555555557],[-0.030208333333333334,-0.35555555555555557],[-0.030208333333333334,-0.35555555555555557],[-0.030208333333333334,-0.35555555555555557],[-0.030208333333333334,-0.35555555555555557],[-0.030208333333333334,-0.35555555555555557],[-0.030208333333333334,-0.35555555555555557],[-0.030208333333333334,-0.35555555555555557],[-0.030208333333333334,-0.35555555555555557],[-0.030208333333333334,-0.35555555555555557],[-0.030208333333333334,-0.35555555555555557],[-0.030208333333333334,-0.35555555555555557],[-0.030208333333333334,-0.35555555555555557],[-0.030208333333333334,-0.35555555555555557],[-0.030208333333333334,-0.35555555555555557],[-0.030208333333333334,-0.35555555555555557],[-0.030208333333333334,-0.35555555555555557],[-0.030208333333333334,-0.35555555555555557],[-0.030208333333333334,-0.35555555555555557],[-0.030208333333333334,-0.35555555555555557],[-0.030208333333333334,-0.35555555555555557],[-0.030208333333333334,-0.35555555555555557],[-0.030208333333333334,-0.35555555555555557],[-0.030208333333333334,-0.35555555555555557],[-0.030208333333333334,-0.35555555555555557],[-0.030208333333333334,-0.35555555555555557],[-0.030208333333333334,-0.35555555555555557],[-0.030208333333333334,-0.35555555555555557],[-0.030208333333333334,-0.35555555555555557],[-0.030208333333333334,-0.35555555555555557],[-0.030208333333333334,-0.35555555555555557],[-0.030208333333333334,-0.35555555555555557],[-0.030208333333333334,-0.35555555555555557],[-0.030208333333333334,-0.35555555555555557],[-0.030208333333333334,-0.35555555555555557],[-0.030208333333333334,-0.35555555555555557],[-0.030208333333333334,-0.35555555555555557],[-0.030208333333333334,-0.35555555555555557],[-0.030208333333333334,-0.35555555555555557],[-0.030208333333333334,-0.35555555555555557],[-0.030208333333333334,-0.35555555555555557],[-0.030208333333333334,-0.35555555555555557],[-0.030208333333333334,-0.35555555555555557],[-0.030208333333333334,-0.35555555555555557],[-0.030208333333333334,-0.35555555555555557],[-0.030208333333333334,-0.35555555555555557],[-0.030208333333333334,-0.35555555555555557],[-0.030208333333333334,-0.35555555555555557],[-0.030208333333333334,-0.35555555555555557],[-0.030208333333333334,-0.3537037037037037],[-0.030208333333333334,-0.35],[-0.030208333333333334,-0.34629629629629627],[-0.030208333333333334,-0.3388888888888889],[-0.030208333333333334,-0.3351851851851852],[-0.030208333333333334,-0.3314814814814815],[-0.030208333333333334,-0.31851851851851853],[-0.030208333333333334,-0.3148148148148148],[-0.030208333333333334,-0.3074074074074074],[-0.03125,-0.3055555555555556],[-0.03125,-0.30185185185185187],[-0.03125,-0.29814814814814816],[-0.03229166666666667,-0.2962962962962963],[-0.03229166666666667,-0.29259259259259257],[-0.03229166666666667,-0.28703703703703703],[-0.03229166666666667,-0.2833333333333333],[-0.03333333333333333,-0.27037037037037037],[-0.03333333333333333,-0.26481481481481484],[-0.036458333333333336,-0.2462962962962963],[-0.0375,-0.22037037037037038],[-0.04583333333333333,-0.16296296296296298],[-0.04791666666666667,-0.11851851851851852],[-0.053125,-0.06851851851851852],[-0.05625,-0.020370370370370372],[-0.06041666666666667,0.024074074074074074],[-0.06354166666666666,0.06111111111111111],[-0.065625,0.08703703703703704],[-0.06666666666666667,0.1111111111111111],[-0.06979166666666667,0.14074074074074075],[-0.06979166666666667,0.14444444444444443],[-0.07083333333333333,0.1648148148148148],[-0.07291666666666667,0.18333333333333332],[-0.07395833333333333,0.19814814814814816],[-0.075,0.21296296296296297],[-0.075,0.2222222222222222],[-0.075,0.23148148148148148],[-0.075,0.2388888888888889],[-0.07395833333333333,0.24444444444444444],[-0.071875,0.2518518518518518],[-0.06875,0.25555555555555554],[-0.058333333333333334,0.2611111111111111],[-0.040625,0.2740740740740741],[-0.017708333333333333,0.28703703703703703],[0.013541666666666667,0.3074074074074074],[0.03229166666666667,0.32037037037037036],[0.04583333333333333,0.3314814814814815],[0.058333333333333334,0.3388888888888889],[0.071875,0.35],[0.084375,0.36666666666666664],[0.09375,0.37407407407407406],[0.103125,0.3814814814814815],[0.1125,0.387037037037037],[0.11770833333333333,0.3925925925925926],[0.12083333333333333,0.39444444444444443],[0.125,0.3962962962962963],[0.125,0.39814814814814814],[0.125,0.39814814814814814],[0.125,0.39814814814814814],[0.125,0.39814814814814814],[0.125,0.39814814814814814],[0.125,0.39814814814814814],[0.125,0.39814814814814814],[0.125,0.39814814814814814],[0.125,0.39814814814814814],[0.125,0.39814814814814814],[0.125,0.39814814814814814],[0.125,0.39814814814814814],[0.125,0.39814814814814814],[0.125,0.39814814814814814],[0.125,0.39814814814814814],[0.125,0.39814814814814814],[0.125,0.39814814814814814],[0.125,0.39814814814814814],[0.125,0.39814814814814814],[0.125,0.39814814814814814],[0.125,0.39814814814814814],[0.125,0.39814814814814814],[0.125,0.39814814814814814],[0.125,0.39814814814814814],[0.125,0.39814814814814814],[0.125,0.39814814814814814],[0.125,0.39814814814814814],[0.125,0.39814814814814814],[0.125,0.39814814814814814],[0.125,0.39814814814814814],[0.125,0.39814814814814814],[0.125,0.39814814814814814],[0.125,0.39814814814814814],[0.125,0.39814814814814814],[0.125,0.39814814814814814],[0.125,0.39814814814814814],[0.125,0.39814814814814814],[0.125,0.39814814814814814],[0.125,0.39814814814814814],[0.125,0.39814814814814814],[0.125,0.39814814814814814],[0.125,0.39814814814814814],[0.125,0.39814814814814814],[0.125,0.39814814814814814],[0.125,0.39814814814814814],[0.125,0.39814814814814814],[0.125,0.39814814814814814],[0.125,0.39814814814814814],[0.125,0.39814814814814814],[0.125,0.39814814814814814],[0.125,0.39814814814814814],[0.125,0.39814814814814814],[0.125,0.39814814814814814],[0.125,0.39814814814814814],[0.125,0.39814814814814814],[0.125,0.39814814814814814],[0.125,0.39814814814814814],[0.125,0.39814814814814814],[0.125,0.39814814814814814],[0.125,0.39814814814814814],[0.125,0.39814814814814814],[0.125,0.39814814814814814],[0.125,0.39814814814814814],[0.125,0.39814814814814814],[0.125,0.39814814814814814],[0.125,0.39814814814814814],[0.125,0.39814814814814814],[0.125,0.39814814814814814],[0.125,0.39814814814814814],[0.125,0.39814814814814814],[0.125,0.39814814814814814],[0.125,0.39814814814814814],[0.125,0.39814814814814814],[0.125,0.39814814814814814],[0.125,0.39814814814814814],[0.125,0.39814814814814814],[0.125,0.39814814814814814],[0.125,0.39814814814814814],[0.125,0.39814814814814814],[0.125,0.39814814814814814],[0.125,0.39814814814814814],[0.125,0.39814814814814814],[0.125,0.39814814814814814],[0.125,0.39814814814814814],[0.125,0.39814814814814814],[0.125,0.39814814814814814],[0.125,0.39814814814814814]]","[[0.08145833333333338,0.06851851851851852],[0.08145833333333338,0.06851851851851852],[0.12510416666666657,0.18925925925925935],[0.1502083333333334,0.3098148148148147],[0.17135416666666667,0.4198148148148149],[0.20437500000000006,0.5444444444444444],[0.2490624999999999,0.6696296296296297],[0.2569791666666667,0.778888888888889],[0.2646874999999999,0.893888888888889],[0.29322916666666665,0.9968518518518518],[0.3094791666666666,1.0662962962962963],[0.31260416666666657,1.1085185185185185],[0.29416666666666674,1.0512962962962964],[0.27072916666666674,1.0044444444444447],[0.25125000000000003,0.9681481481481481],[0.22072916666666675,0.926111111111111],[0.19020833333333323,0.884074074074074],[0.1788541666666667,0.8379629629629629],[0.15583333333333324,0.7738888888888888],[0.12937500000000005,0.7274074074074073],[0.12937500000000005,0.7274074074074073],[0.10333333333333337,0.6794444444444444],[0.10333333333333337,0.6794444444444444],[0.09718749999999995,0.6572222222222222],[0.07614583333333323,0.6272222222222223],[0.060104166666666715,0.5868518518518518],[0.02645833333333331,0.5494444444444445],[0.003854166666666714,0.5177777777777778],[-0.015208333333333357,0.4807407407407408],[-0.03343750000000002,0.45444444444444443],[-0.03979166666666671,0.4403703703703703],[-0.049687500000000044,0.43703703703703706],[-0.060000000000000026,0.4351851851851852],[-0.09249999999999996,0.42314814814814816],[-0.12552083333333333,0.4198148148148149],[-0.15375000000000003,0.41870370370370374],[-0.16437499999999997,0.41462962962962957],[-0.16593749999999996,0.4094444444444445],[-0.1710416666666667,0.40962962962962973],[-0.16614583333333333,0.4016666666666666],[-0.16124999999999995,0.3937037037037037],[-0.13729166666666662,0.37833333333333324],[-0.11333333333333329,0.362962962962963],[-0.08427083333333331,0.36870370370370376],[-0.08427083333333331,0.36870370370370376],[-0.057291666666666664,0.377962962962963],[-0.03270833333333331,0.384074074074074],[-0.008124999999999953,0.39018518518518525],[0.027187500000000024,0.3881481481481482],[0.0625,0.3861111111111111],[0.05697916666666671,0.4137037037037037],[0.05145833333333331,0.4412962962962962],[0.003958333333333286,0.43740740740740747],[-0.04354166666666662,0.4335185185185186],[-0.08072916666666667,0.42018518518518516],[-0.12593749999999998,0.42981481481481487],[-0.17354166666666668,0.4403703703703703],[-0.19979166666666662,0.4244444444444445],[-0.24583333333333332,0.4177777777777778],[-0.30187499999999995,0.402962962962963],[-0.32708333333333334,0.36666666666666664],[-0.3366666666666667,0.35407407407407415],[-0.3280208333333333,0.3888888888888889],[-0.265625,0.4514814814814814],[-0.18333333333333332,0.5488888888888889],[-0.07604166666666666,0.590925925925926],[0.004791666666666691,0.6398148148148148],[0.004791666666666691,0.6398148148148148],[0.06427083333333337,0.7151851851851853],[0.13208333333333327,0.7711111111111111],[0.13208333333333327,0.7711111111111111],[0.18135416666666657,0.8151851851851852],[0.18135416666666657,0.8151851851851852],[0.23406250000000003,0.8687037037037038],[0.24291666666666673,0.8985185185185186],[0.24291666666666673,0.8985185185185186],[0.2804166666666667,0.8103703703703704],[0.25197916666666675,0.7166666666666667],[0.25197916666666675,0.7166666666666667],[0.19718749999999996,0.5927777777777778],[0.15395833333333328,0.4766666666666666],[0.15395833333333328,0.4766666666666666],[0.1345833333333334,0.3677777777777778],[0.1345833333333334,0.3677777777777778],[0.09729166666666676,0.24444444444444444],[0.051770833333333384,0.15462962962962962],[0.04052083333333331,0.09685185185185177],[0.016458333333333287,0.009814814814814731],[0.041562499999999974,-0.08481481481481483],[0.029999999999999954,-0.09444444444444444],[0.02364583333333338,-0.13777777777777775],[0.02374999999999995,-0.18574074074074076],[-0.0010416666666666667,-0.19611111111111107],[-0.019687499999999976,-0.2035185185185185],[-0.00614583333333331,-0.21203703703703702],[0.007291666666666667,-0.2346296296296296],[0.00604166666666662,-0.2507407407407407],[0.008541666666666715,-0.24722222222222223],[-0.013750000000000047,-0.2381481481481482],[-0.019791666666666666,-0.21537037037037038],[-0.010000000000000024,-0.1962962962962963],[-0.005624999999999976,-0.15481481481481485],[-0.002812500000000047,-0.12981481481481486],[-0.007500000000000047,-0.14462962962962966],[-0.007500000000000047,-0.14462962962962966],[-0.022708333333333285,-0.11833333333333329],[-0.027499999999999976,-0.09018518518518516],[-0.01416666666666669,-0.1022222222222222],[-0.01416666666666669,-0.1022222222222222],[0.004791666666666691,-0.11407407407407412],[0.011874999999999976,-0.0735185185185185],[0.024583333333333356,-0.07370370370370373],[0.024583333333333356,-0.07370370370370373],[0.02374999999999995,-0.05537037037037033],[0.03739583333333331,-0.052222222222222205],[0.051041666666666666,-0.049074074074074076],[0.051041666666666666,-0.049074074074074076],[0.05239583333333329,-0.002777777777777778],[0.05,0.012407407407407492],[0.05,0.012407407407407492],[0.03718750000000005,0.0257407407407407],[0.051770833333333384,0.05611111111111103],[0.06791666666666671,0.10537037037037032],[0.09979166666666663,0.10425925925925918],[0.09718749999999995,0.14388888888888898],[0.09927083333333328,0.1801851851851851],[0.09229166666666658,0.20925925925925926],[0.11739583333333338,0.2524074074074073],[0.11875,0.25203703703703706],[0.11260416666666657,0.2774074074074073],[0.12572916666666673,0.27981481481481485],[0.06239583333333331,0.28462962962962973],[-0.0002083333333333807,0.2887037037037037],[-0.06437499999999995,0.3175925925925926],[-0.07229166666666664,0.31129629629629635],[-0.1,0.2861111111111111],[-0.12770833333333337,0.2609259259259259],[-0.15656249999999997,0.2507407407407407],[-0.1955208333333334,0.2511111111111112],[-0.22697916666666665,0.23129629629629625],[-0.27770833333333333,0.23444444444444448],[-0.27770833333333333,0.23444444444444448],[-0.27322916666666663,0.25333333333333324],[-0.24604166666666671,0.26222222222222225],[-0.2389583333333333,0.23962962962962958],[-0.2389583333333333,0.23962962962962958],[-0.23802083333333332,0.24611111111111106],[-0.23802083333333332,0.24611111111111106],[-0.21781250000000002,0.26962962962962966],[-0.23125,0.28481481481481474],[-0.275625,0.27092592592592585],[-0.25281250000000005,0.277962962962963],[-0.2123958333333333,0.28944444444444434],[-0.18875000000000006,0.2927777777777778],[-0.18875000000000006,0.2927777777777778],[-0.16354166666666667,0.2920370370370371],[-0.17322916666666663,0.272037037037037],[-0.18552083333333336,0.2512962962962964],[-0.21906249999999997,0.23666666666666658],[-0.2133333333333333,0.2462962962962963],[-0.17395833333333333,0.26425925925925936],[-0.11906249999999995,0.2892592592592593],[-0.084375,0.30759259259259264],[-0.0672916666666667,0.32148148148148153],[-0.06916666666666664,0.3118518518518518],[-0.07854166666666665,0.30833333333333335],[-0.0671875,0.3131481481481482],[-0.03156249999999995,0.3253703703703705],[0.009583333333333381,0.3611111111111111],[0.011979166666666667,0.3744444444444445],[0.008541666666666715,0.3633333333333334],[-0.010416666666666666,0.34518518518518515],[-0.043437500000000046,0.32981481481481484],[-0.06052083333333336,0.3272222222222223],[-0.041875000000000044,0.3562962962962963],[-0.051041666666666666,0.34388888888888897],[-0.051041666666666666,0.34388888888888897],[-0.07104166666666671,0.33425925925925926],[-0.07229166666666664,0.34018518518518526],[-0.08562500000000005,0.3175925925925926],[-0.09895833333333333,0.29499999999999993],[-0.09208333333333331,0.3025925925925925],[-0.08520833333333329,0.3101851851851852],[-0.06645833333333329,0.29685185185185176],[-0.06364583333333336,0.27074074074074084],[-0.036562500000000026,0.2712962962962963],[0.02041666666666669,0.293888888888889],[0.02041666666666669,0.293888888888889],[0.06187499999999998,0.31259259259259253],[0.10250000000000009,0.3248148148148148],[0.10250000000000009,0.3248148148148148],[0.14427083333333332,0.3303703703703703],[0.17843749999999994,0.3544444444444444],[0.17843749999999994,0.3544444444444444],[0.1883333333333333,0.36648148148148146],[0.1883333333333333,0.36648148148148146],[0.20843749999999991,0.3737037037037036],[0.20843749999999991,0.3737037037037036],[0.22302083333333325,0.4068518518518519],[0.23072916666666668,0.4414814814814814],[0.23072916666666668,0.4414814814814814],[0.21416666666666656,0.44944444444444454],[0.21416666666666656,0.44944444444444454],[0.20541666666666672,0.45925925925925926],[0.17677083333333338,0.48925925925925934],[0.1618750000000001,0.497037037037037],[0.15239583333333329,0.5164814814814814],[0.1571875000000001,0.507037037037037],[0.1662499999999999,0.5199999999999999],[0.14552083333333338,0.5068518518518519],[0.1326041666666666,0.49907407407407406],[0.1265625,0.4898148148148148],[0.12052083333333338,0.4740740740740741],[0.0678124999999999,0.46037037037037043],[0.07999999999999995,0.42981481481481487],[0.060104166666666715,0.40962962962962973],[0.025520833333333333,0.35611111111111104],[-0.011770833333333286,0.3461111111111111],[-0.04500000000000005,0.287962962962963],[-0.057187499999999974,0.2611111111111111],[-0.044062499999999956,0.24537037037037038],[-0.04375,0.21740740740740735],[-0.030624999999999975,0.2081481481481481],[-0.0067708333333333336,0.1896296296296296],[-0.012916666666666642,0.18203703703703694],[-0.03791666666666664,0.1594444444444445],[-0.04822916666666662,0.17018518518518513],[-0.09937499999999998,0.18555555555555564],[-0.14895833333333333,0.23296296296296287],[-0.18760416666666668,0.2572222222222222],[-0.2485416666666667,0.25555555555555554],[-0.2660416666666666,0.28129629629629627],[-0.29635416666666664,0.2948148148148149],[-0.3225,0.3253703703703705],[-0.3481250000000001,0.3455555555555556],[-0.34500000000000003,0.3307407407407408],[-0.32687499999999997,0.3455555555555556],[-0.2851041666666667,0.3227777777777777],[-0.23635416666666664,0.25870370370370377],[-0.2,0.21740740740740735],[-0.16218750000000004,0.21444444444444435],[-0.15333333333333338,0.15407407407407417],[-0.15333333333333338,0.15407407407407417],[-0.15041666666666664,0.1007407407407407],[-0.1452083333333333,0.059999999999999956],[-0.12395833333333334,-0.012222222222222264],[-0.11218750000000005,-0.03166666666666671],[-0.11385416666666662,-0.07907407407407405],[-0.11385416666666662,-0.07907407407407405],[-0.10322916666666669,-0.12999999999999998],[-0.08999999999999998,-0.1427777777777778],[-0.08208333333333329,-0.15703703703703706],[-0.08208333333333329,-0.15703703703703706],[-0.05416666666666667,-0.23129629629629625],[-0.02791666666666662,-0.2633333333333333],[0.010000000000000024,-0.28574074074074074],[0.04083333333333338,-0.3285185185185185],[0.049583333333333354,-0.31500000000000006],[0.0375,-0.27388888888888885],[0.05375000000000003,-0.2898148148148148],[0.05375000000000003,-0.2898148148148148],[0.06124999999999995,-0.2985185185185185],[0.06541666666666662,-0.297037037037037],[0.06541666666666662,-0.297037037037037],[0.08052083333333329,-0.30648148148148147],[0.07385416666666676,-0.28277777777777774],[0.0626041666666667,-0.25018518518518523],[0.05520833333333333,-0.24314814814814817],[0.01864583333333331,-0.2207407407407407],[-0.011874999999999976,-0.22314814814814815],[-0.011874999999999976,-0.22314814814814815],[-0.029895833333333382,-0.25277777777777777],[-0.07781250000000005,-0.2270370370370371],[-0.10562499999999998,-0.21518518518518517],[-0.12104166666666671,-0.22111111111111106],[-0.16854166666666662,-0.1838888888888889],[-0.2172916666666667,-0.1698148148148148],[-0.2530208333333333,-0.1727777777777778],[-0.29874999999999996,-0.17259259259259258],[-0.3051041666666666,-0.1712962962962963],[-0.31145833333333334,-0.17],[-0.31,-0.18277777777777776],[-0.26885416666666667,-0.1794444444444444],[-0.2046875,-0.1766666666666666],[-0.17864583333333334,-0.16666666666666666],[-0.11072916666666661,-0.18944444444444447],[-0.06385416666666661,-0.18074074074074079],[-0.025416666666666643,-0.1638888888888889],[0.03135416666666669,-0.14166666666666666],[0.09520833333333342,-0.1359259259259259],[0.1538541666666667,-0.16962962962962966],[0.20968749999999994,-0.18870370370370365],[0.23645833333333333,-0.21444444444444447],[0.22979166666666656,-0.22962962962962963],[0.24260416666666676,-0.24129629629629631],[0.2553124999999999,-0.2448148148148148],[0.27020833333333344,-0.27685185185185185],[0.2869791666666667,-0.2953703703703704],[0.2690624999999999,-0.3357407407407408],[0.2601041666666667,-0.3653703703703704],[0.2601041666666667,-0.3653703703703704],[0.26364583333333325,-0.3683333333333333],[0.26364583333333325,-0.3683333333333333],[0.27104166666666674,-0.34370370370370373],[0.25510416666666674,-0.32944444444444443],[0.2271874999999999,-0.3074074074074074],[0.21197916666666666,-0.2733333333333334],[0.1814583333333334,-0.24537037037037038],[0.1814583333333334,-0.24537037037037038],[0.1368750000000001,-0.22814814814814813],[0.13145833333333337,-0.21203703703703702],[0.13145833333333337,-0.21203703703703702],[0.1118750000000001,-0.18777777777777774],[0.1118750000000001,-0.18777777777777774],[0.10062499999999991,-0.15648148148148147],[0.10062499999999991,-0.15648148148148147],[0.08020833333333334,-0.12111111111111107],[0.08020833333333334,-0.12111111111111107],[0.06479166666666672,-0.12370370370370372],[0.06156250000000003,-0.125],[0.06156250000000003,-0.125],[0.0703125,-0.13407407407407404],[0.06822916666666666,-0.13944444444444445],[0.06822916666666666,-0.13944444444444445],[0.05489583333333338,-0.1398148148148148],[0.08666666666666671,-0.13370370370370369],[0.07739583333333329,-0.14000000000000004],[0.0921875,-0.1227777777777778],[0.09208333333333343,-0.12814814814814812],[0.09937500000000009,-0.14444444444444443],[0.10114583333333324,-0.15129629629629626],[0.10145833333333343,-0.1316666666666667],[0.11031250000000009,-0.122037037037037],[0.10635416666666657,-0.12018518518518514],[0.10104166666666667,-0.1227777777777778],[0.08510416666666672,-0.11240740740740739],[0.08208333333333329,-0.10703703703703706],[0.0859375,-0.1111111111111111],[0.07302083333333324,-0.10351851851851848],[0.05458333333333331,-0.07629629629629628],[0.04864583333333338,-0.044444444444444446],[0.04468749999999998,-0.03944444444444436],[0.03218749999999997,-0.02444444444444453],[0.019270833333333334,-0.019444444444444445],[0.01895833333333338,-0.015000000000000043],[0.03114583333333331,-0.024814814814814772],[0.0203125,-0.018333333333333292],[0.01552083333333331,-0.011481481481481566],[0.02510416666666669,-0.011481481481481566],[0.042604166666666644,-0.010370370370370412]]","[[0.08145833333333338,0.06851851851851852,0.0003000001907338401],[0.08145833333333338,0.06851851851851852,0.057099999904636434],[0.12510416666666657,0.18925925925925935,0.06450000000000244],[0.1502083333333334,0.3098148148148147,0.07790000009536868],[0.17135416666666667,0.4198148148148149,0.0940000000000012],[0.20437500000000006,0.5444444444444444,0.11070000028610139],[0.2490624999999999,0.6696296296296297,0.12740000009537056],[0.2569791666666667,0.778888888888889,0.14409999990463263],[0.2646874999999999,0.893888888888889,0.1620999999046333],[0.29322916666666665,0.9968518518518518,0.17730000019074055],[0.3094791666666666,1.0662962962962963,0.19400000000000261],[0.31260416666666657,1.1085185185185185,0.2105999999046375],[0.29416666666666674,1.0512962962962964,0.22740000009537198],[0.27072916666666674,1.0044444444444447,0.24399999999999977],[0.25125000000000003,0.9681481481481481,0.2635999999046348],[0.22072916666666675,0.926111111111111,0.27730000019073486],[0.19020833333333323,0.884074074074074,0.29400000000000404],[0.1788541666666667,0.8379629629629629,0.3108000001907385],[0.15583333333333324,0.7738888888888888,0.3274000000953734],[0.12937500000000005,0.7274074074074073,0.3440000000000012],[0.12937500000000005,0.7274074074074073,0.36080000019073566],[0.10333333333333337,0.6794444444444444,0.37740000009537056],[0.10333333333333337,0.6794444444444444,0.3940999999046326],[0.09718749999999995,0.6572222222222222,0.41070000028610565],[0.07614583333333323,0.6272222222222223,0.4274000000953677],[0.060104166666666715,0.5868518518518518,0.4440000000000026],[0.02645833333333331,0.5494444444444445,0.46090000009537135],[0.003854166666666714,0.5177777777777778,0.477400000095372],[-0.015208333333333357,0.4807407407407408,0.49409999990463405],[-0.03343750000000002,0.45444444444444443,0.5107000002861071],[-0.03979166666666671,0.4403703703703703,0.5274000000953691],[-0.049687500000000044,0.43703703703703706,0.5440999999046383],[-0.060000000000000026,0.4351851851851852,0.5634000000953705],[-0.09249999999999996,0.42314814814814816,0.5774000000953734],[-0.12552083333333333,0.4198148148148149,0.5940999999046355],[-0.15375000000000003,0.41870370370370374,0.6107000002861014],[-0.16437499999999997,0.41462962962962957,0.6289000000953706],[-0.16593749999999996,0.4094444444444445,0.6440999999046326],[-0.1710416666666667,0.40962962962962973,0.6635999999046334],[-0.16614583333333333,0.4016666666666666,0.6787000002861063],[-0.16124999999999995,0.3937037037037037,0.6940999999046369],[-0.13729166666666662,0.37833333333333324,0.7107000002861028],[-0.11333333333333329,0.362962962962963,0.727400000095372],[-0.08427083333333331,0.36870370370370376,0.7469000000953727],[-0.08427083333333331,0.36870370370370376,0.7607000002861071],[-0.057291666666666664,0.377962962962963,0.7774000000953691],[-0.03270833333333331,0.384074074074074,0.7940999999046383],[-0.008124999999999953,0.39018518518518525,0.8112000002861066],[0.027187500000000024,0.3881481481481482,0.8274000000953734],[0.0625,0.3861111111111111,0.8440999999046355],[0.05697916666666671,0.4137037037037037,0.8649000000953677],[0.05145833333333331,0.4412962962962962,0.8808000001907388],[0.003958333333333286,0.43740740740740747,0.8965999999046375],[-0.04354166666666662,0.4335185185185186,0.9107000002861056],[-0.08072916666666667,0.42018518518518516,0.9274000000953677],[-0.12593749999999998,0.42981481481481487,0.9440000000000026],[-0.17354166666666668,0.4403703703703703,0.9642000002861053],[-0.19979166666666662,0.4244444444444445,0.9799000000953697],[-0.24583333333333332,0.4177777777777778,0.9969999999999999],[-0.30187499999999995,0.402962962962963,1.0120000000000005],[-0.32708333333333334,0.36666666666666664,1.0274000000953691],[-0.3366666666666667,0.35407407407407415,1.044000000000004],[-0.3280208333333333,0.3888888888888889,1.0638000001907386],[-0.265625,0.4514814814814814,1.0805000000000007],[-0.18333333333333332,0.5488888888888889,1.0978000001907375],[-0.07604166666666666,0.590925925925926,1.1133000001907405],[0.004791666666666691,0.6398148148148148,1.1310999999046345],[0.004791666666666691,0.6398148148148148,1.1440999999046326],[0.06427083333333337,0.7151851851851853,1.16080000019074],[0.13208333333333327,0.7711111111111111,1.1835999999046365],[0.13208333333333327,0.7711111111111111,1.1940999999046369],[0.18135416666666657,0.8151851851851852,1.2107000002861028],[0.18135416666666657,0.8151851851851852,1.227400000095372],[0.23406250000000003,0.8687037037037038,1.2439999999999998],[0.24291666666666673,0.8985185185185186,1.2660999999046325],[0.24291666666666673,0.8985185185185186,1.283200000286108],[0.2804166666666667,0.8103703703703704,1.2942000002861036],[0.25197916666666675,0.7166666666666667,1.3139000000953729],[0.25197916666666675,0.7166666666666667,1.3275000000000006],[0.19718749999999996,0.5927777777777778,1.3478000001907375],[0.15395833333333328,0.4766666666666666,1.366500000000002],[0.15395833333333328,0.4766666666666666,1.3795000000000002],[0.1345833333333334,0.3677777777777778,1.3987000002861052],[0.1345833333333334,0.3677777777777778,1.41080000019074],[0.09729166666666676,0.24444444444444444,1.4275999999046363],[0.051770833333333384,0.15462962962962962,1.4474000000953708],[0.04052083333333331,0.09685185185185177,1.463000000000001],[0.016458333333333287,0.009814814814814731,1.4777000002861058],[0.041562499999999974,-0.08481481481481483,1.4997000002861043],[0.029999999999999954,-0.09444444444444444,1.5145000000000053],[0.02364583333333338,-0.13777777777777775,1.5304000000953693],[0.02374999999999995,-0.18574074074074076,1.5449000000953674],[-0.0010416666666666667,-0.19611111111111107,1.5655000000000001],[-0.019687499999999976,-0.2035185185185185,1.5803000001907392],[-0.00614583333333331,-0.21203703703703702,1.5944000000953693],[0.007291666666666667,-0.2346296296296296,1.6110000000000042],[0.00604166666666662,-0.2507407407407407,1.6304000000953707],[0.008541666666666715,-0.24722222222222223,1.6445000000000007],[-0.013750000000000047,-0.2381481481481482,1.66080000019074],[-0.019791666666666666,-0.21537037037037038,1.677500000000002],[-0.010000000000000024,-0.1962962962962963,1.6969000000953685],[-0.005624999999999976,-0.15481481481481485,1.7109000000953714],[-0.002812500000000047,-0.12981481481481486,1.7275999999046334],[-0.007500000000000047,-0.14462962962962966,1.7473000001907408],[-0.007500000000000047,-0.14462962962962966,1.7609000000953685],[-0.022708333333333285,-0.11833333333333329,1.7775000000000034],[-0.027499999999999976,-0.09018518518518516,1.7972000002861037],[-0.01416666666666669,-0.1022222222222222,1.815800000190734],[-0.01416666666666669,-0.1022222222222222,1.8330000000000055],[0.004791666666666691,-0.11407407407407412,1.846099999904638],[0.011874999999999976,-0.0735185185185185,1.8638000001907358],[0.024583333333333356,-0.07370370370370373,1.8805999999046321],[0.024583333333333356,-0.07370370370370373,1.8945000000000007],[0.02374999999999995,-0.05537037037037033,1.9142000002861081],[0.03739583333333331,-0.052222222222222205,1.9314000000953726],[0.051041666666666666,-0.049074074074074076,1.9487000002861024],[0.051041666666666666,-0.049074074074074076,1.9644000000953667],[0.05239583333333329,-0.002777777777777778,1.9777000002861058],[0.05,0.012407407407407492,1.9944000000953679],[0.05,0.012407407407407492,2.0109000000953685],[0.03718750000000005,0.0257407407407407,2.030300000190735],[0.051770833333333384,0.05611111111111103,2.0442000002861036],[0.06791666666666671,0.10537037037037032,2.0609000000953728],[0.09979166666666663,0.10425925925925918,2.0795999999046373],[0.09718749999999995,0.14388888888888898,2.0940999999046355],[0.09927083333333328,0.1801851851851851,2.11090000009537],[0.09229166666666658,0.20925925925925926,2.127599999904632],[0.11739583333333338,0.2524074074074073,2.1462000002861075],[0.11875,0.25203703703703706,2.16530000019074],[0.11260416666666657,0.2774074074074073,2.1795000000000044],[0.12572916666666673,0.27981481481481485,2.1969000000953685],[0.06239583333333331,0.28462962962962973,2.210800000190737],[-0.0002083333333333807,0.2887037037037037,2.227499999999999],[-0.06437499999999995,0.3175925925925926,2.247700000286102],[-0.07229166666666664,0.31129629629629635,2.263700000286107],[-0.1,0.2861111111111111,2.277400000095369],[-0.12770833333333337,0.2609259259259259,2.2942000002861036],[-0.15656249999999997,0.2507407407407407,2.312900000095368],[-0.1955208333333334,0.2511111111111112,2.3275000000000006],[-0.22697916666666665,0.23129629629629625,2.3440999999046355],[-0.27770833333333333,0.23444444444444448,2.3670999999046316],[-0.27770833333333333,0.23444444444444448,2.377599999904632],[-0.27322916666666663,0.25333333333333324,2.3944000000953665],[-0.24604166666666671,0.26222222222222225,2.413099999904638],[-0.2389583333333333,0.23962962962962958,2.4299999999999997],[-0.2389583333333333,0.23962962962962958,2.444200000286102],[-0.23802083333333332,0.24611111111111106,2.4610000000000056],[-0.23802083333333332,0.24611111111111106,2.4845999999046384],[-0.21781250000000002,0.26962962962962966,2.494099999904634],[-0.23125,0.28481481481481474,2.513200000286105],[-0.275625,0.27092592592592585,2.5275999999046377],[-0.25281250000000005,0.277962962962963,2.5460999999046336],[-0.2123958333333333,0.28944444444444434,2.5608000001907385],[-0.18875000000000006,0.2927777777777778,2.5775000000000006],[-0.18875000000000006,0.2927777777777778,2.59680000019074],[-0.16354166666666667,0.2920370370370371,2.611000000000004],[-0.17322916666666663,0.272037037037037,2.6278000001907387],[-0.18552083333333336,0.2512962962962964,2.6440000000000055],[-0.21906249999999997,0.23666666666666658,2.6629000000953695],[-0.2133333333333333,0.2462962962962963,2.677500000000002],[-0.17395833333333333,0.26425925925925936,2.6940000000000026],[-0.11906249999999995,0.2892592592592593,2.710700000286103],[-0.084375,0.30759259259259264,2.7299000000953697],[-0.0672916666666667,0.32148148148148153,2.7439999999999998],[-0.06916666666666664,0.3118518518518518,2.763599999904635],[-0.07854166666666665,0.30833333333333335,2.777400000095369],[-0.0671875,0.3131481481481482,2.7940999999046383],[-0.03156249999999995,0.3253703703703705,2.8107000002861042],[0.009583333333333381,0.3611111111111111,2.827300000190739],[0.011979166666666667,0.3744444444444445,2.844000000000001],[0.008541666666666715,0.3633333333333334,2.8629999999999995],[-0.010416666666666666,0.34518518518518515,2.8774000000953706],[-0.043437500000000046,0.32981481481481484,2.8940000000000055],[-0.06052083333333336,0.3272222222222223,2.91080000019074],[-0.041875000000000044,0.3562962962962963,2.9274000000953677],[-0.051041666666666666,0.34388888888888897,2.944500000000005],[-0.051041666666666666,0.34388888888888897,2.960700000286103],[-0.07104166666666671,0.33425925925925926,2.9773000001907377],[-0.07229166666666664,0.34018518518518526,2.9943000001907407],[-0.08562500000000005,0.3175925925925926,3.010700000286107],[-0.09895833333333333,0.29499999999999993,3.027400000095369],[-0.09208333333333331,0.3025925925925925,3.044000000000004],[-0.08520833333333329,0.3101851851851852,3.064300000190734],[-0.06645833333333329,0.29685185185185176,3.0777000002861072],[-0.06364583333333336,0.27074074074074084,3.094000000000001],[-0.036562500000000026,0.2712962962962963,3.1129000000953724],[0.02041666666666669,0.293888888888889,3.132400000095373],[0.02041666666666669,0.293888888888889,3.1440000000000055],[0.06187499999999998,0.31259259259259253,3.16080000019074],[0.10250000000000009,0.3248148148148148,3.183099999904634],[0.10250000000000009,0.3248148148148148,3.1940000000000026],[0.14427083333333332,0.3303703703703703,3.2105999999046375],[0.17843749999999994,0.3544444444444444,3.2325000000000017],[0.17843749999999994,0.3544444444444444,3.2439999999999998],[0.1883333333333333,0.36648148148148146,3.2608000001907342],[0.1883333333333333,0.36648148148148146,3.277300000190735],[0.20843749999999991,0.3737037037037036,3.2940999999046383],[0.20843749999999991,0.3737037037037036,3.3107000002861042],[0.22302083333333325,0.4068518518518519,3.327300000190739],[0.23072916666666668,0.4414814814814814,3.344000000000001],[0.23072916666666668,0.4414814814814814,3.3607000002861014],[0.21416666666666656,0.44944444444444454,3.377500000000005],[0.21416666666666656,0.44944444444444454,3.3940000000000055],[0.20541666666666672,0.45925925925925926,3.41080000019074],[0.17677083333333338,0.48925925925925934,3.4280999999046315],[0.1618750000000001,0.497037037037037,3.4440000000000026],[0.15239583333333329,0.5164814814814814,3.4645999999046353],[0.1571875000000001,0.507037037037037,3.480000000000004],[0.1662499999999999,0.5199999999999999,3.4983000001907385],[0.14552083333333338,0.5068518518518519,3.514400000095371],[0.1326041666666666,0.49907407407407406,3.529200000286103],[0.1265625,0.4898148148148148,3.5440999999046383],[0.12052083333333338,0.4740740740740741,3.563599999904632],[0.0678124999999999,0.46037037037037043,3.5775000000000006],[0.07999999999999995,0.42981481481481487,3.596900000095367],[0.060104166666666715,0.40962962962962973,3.6112000002861038],[0.025520833333333333,0.35611111111111104,3.6300000000000026],[-0.011770833333333286,0.3461111111111111,3.644900000095369],[-0.04500000000000005,0.287962962962963,3.663400000095372],[-0.057187499999999974,0.2611111111111111,3.682000000000002],[-0.044062499999999956,0.24537037037037038,3.696700000286107],[-0.04375,0.21740740740740735,3.710800000190737],[-0.030624999999999975,0.2081481481481481,3.728200000286108],[-0.0067708333333333336,0.1896296296296296,3.747],[-0.012916666666666642,0.18203703703703694,3.763300000190739],[-0.03791666666666664,0.1594444444444445,3.777400000095369],[-0.04822916666666662,0.17018518518518513,3.7965000000000018],[-0.09937499999999998,0.18555555555555564,3.811099999904634],[-0.14895833333333333,0.23296296296296287,3.8274000000953734],[-0.18760416666666668,0.2572222222222222,3.8440999999046355],[-0.2485416666666667,0.25555555555555554,3.8644000000953724],[-0.2660416666666666,0.28129629629629627,3.879000000000005],[-0.29635416666666664,0.2948148148148149,3.8944000000953665],[-0.3225,0.3253703703703705,3.91080000019074],[-0.3481250000000001,0.3455555555555556,3.9302000002861064],[-0.34500000000000003,0.3307407407407408,3.9450000000000003],[-0.32687499999999997,0.3455555555555556,3.9640000000000057],[-0.2851041666666667,0.3227777777777777,3.9813000001907355],[-0.23635416666666664,0.25870370370370377,3.999900000095373],[-0.2,0.21740740740740735,4.014500000000005],[-0.16218750000000004,0.21444444444444435,4.032000000000004],[-0.15333333333333338,0.15407407407407417,4.048300000190736],[-0.15333333333333338,0.15407407407407417,4.060900000095373],[-0.15041666666666664,0.1007407407407407,4.077500000000001],[-0.1452083333333333,0.059999999999999956,4.096499999999999],[-0.12395833333333334,-0.012222222222222264,4.11240000009537],[-0.11218750000000005,-0.03166666666666671,4.129300000190739],[-0.11385416666666662,-0.07907407407407405,4.1480999999046375],[-0.11385416666666662,-0.07907407407407405,4.160900000095367],[-0.10322916666666669,-0.12999999999999998,4.177500000000002],[-0.08999999999999998,-0.1427777777777778,4.194400000095371],[-0.08208333333333329,-0.15703703703703706,4.2165000000000035],[-0.08208333333333329,-0.15703703703703706,4.227400000095372],[-0.05416666666666667,-0.23129629629629625,4.244300000190741],[-0.02791666666666662,-0.2633333333333333,4.262800000190737],[0.010000000000000024,-0.28574074074074074,4.280400000095369],[0.04083333333333338,-0.3285185185185185,4.296700000286101],[0.049583333333333354,-0.31500000000000006,4.313000000000002],[0.0375,-0.27388888888888885,4.331400000095371],[0.05375000000000003,-0.2898148148148148,4.347000000000001],[0.05375000000000003,-0.2898148148148148,4.361000000000004],[0.06124999999999995,-0.2985185185185185,4.377700000286104],[0.06541666666666662,-0.297037037037037,4.402800000190737],[0.06541666666666662,-0.297037037037037,4.411000000000001],[0.08052083333333329,-0.30648148148148147,4.4273000001907405],[0.07385416666666676,-0.28277777777777774,4.444000000000003],[0.0626041666666667,-0.25018518518518523,4.460900000095371],[0.05520833333333333,-0.24314814814814817,4.477300000190738],[0.01864583333333331,-0.2207407407407407,4.494],[-0.011874999999999976,-0.22314814814814815,4.523500000000006],[-0.011874999999999976,-0.22314814814814815,4.531400000095367],[-0.029895833333333382,-0.25277777777777777,4.544000000000004],[-0.07781250000000005,-0.2270370370370371,4.563800000190739],[-0.10562499999999998,-0.21518518518518517,4.577900000095369],[-0.12104166666666671,-0.22111111111111106,4.594000000000001],[-0.16854166666666662,-0.1838888888888889,4.610599999904636],[-0.2172916666666667,-0.1698148148148148,4.628700000286102],[-0.2530208333333333,-0.1727777777777778,4.645800000190739],[-0.29874999999999996,-0.17259259259259258,4.663300000190738],[-0.3051041666666666,-0.1712962962962963,4.677700000286102],[-0.31145833333333334,-0.17,4.6958000001907365],[-0.31,-0.18277777777777776,4.710700000286103],[-0.26885416666666667,-0.1794444444444444,4.729599999904636],[-0.2046875,-0.1766666666666666,4.744300000190741],[-0.17864583333333334,-0.16666666666666666,4.764400000095371],[-0.11072916666666661,-0.18944444444444447,4.779599999904633],[-0.06385416666666661,-0.18074074074074079,4.797599999904634],[-0.025416666666666643,-0.1638888888888889,4.812400000095373],[0.03135416666666669,-0.14166666666666666,4.828900000095366],[0.09520833333333342,-0.1359259259259259,4.844000000000001],[0.1538541666666667,-0.16962962962962966,4.863599999904636],[0.20968749999999994,-0.18870370370370365,4.877599999904632],[0.23645833333333333,-0.21444444444444447,4.8965999999046375],[0.22979166666666656,-0.22962962962962963,4.913300000190738],[0.24260416666666676,-0.24129629629629631,4.930200000286106],[0.2553124999999999,-0.2448148148148148,4.944900000095373],[0.27020833333333344,-0.27685185185185185,4.963200000286108],[0.2869791666666667,-0.2953703703703704,4.978800000190738],[0.2690624999999999,-0.3357407407407408,4.994300000190741],[0.2601041666666667,-0.3653703703703704,5.011400000095371],[0.2601041666666667,-0.3653703703703704,5.03580000019074],[0.26364583333333325,-0.3683333333333333,5.050900000095368],[0.26364583333333325,-0.3683333333333333,5.060599999904632],[0.27104166666666674,-0.34370370370370373,5.077300000190739],[0.25510416666666674,-0.32944444444444443,5.096000000000004],[0.2271874999999999,-0.3074074074074074,5.1129999999999995],[0.21197916666666666,-0.2733333333333334,5.132099999904632],[0.1814583333333334,-0.24537037037037038,5.152099999904635],[0.1814583333333334,-0.24537037037037038,5.1629000000953695],[0.1368750000000001,-0.22814814814814813,5.177400000095368],[0.13145833333333337,-0.21203703703703702,5.2010000000000005],[0.13145833333333337,-0.21203703703703702,5.2105999999046375],[0.1118750000000001,-0.18777777777777774,5.227400000095372],[0.1118750000000001,-0.18777777777777774,5.244],[0.10062499999999991,-0.15648148148148147,5.260599999904635],[0.10062499999999991,-0.15648148148148147,5.277300000190735],[0.08020833333333334,-0.12111111111111107,5.294000000000004],[0.08020833333333334,-0.12111111111111107,5.310599999904632],[0.06479166666666672,-0.12370370370370372,5.327300000190739],[0.06156250000000003,-0.125,5.344000000000001],[0.06156250000000003,-0.125,5.360700000286101],[0.0703125,-0.13407407407407404,5.377400000095371],[0.06822916666666666,-0.13944444444444445,5.397599999904635],[0.06822916666666666,-0.13944444444444445,5.410700000286106],[0.05489583333333338,-0.1398148148148148,5.427400000095368],[0.08666666666666671,-0.13370370370370369,5.444000000000003],[0.07739583333333329,-0.14000000000000004,5.4605999999046375],[0.0921875,-0.1227777777777778,5.477300000190738],[0.09208333333333343,-0.12814814814814812,5.494],[0.09937500000000009,-0.14444444444444443,5.510599999904635],[0.10114583333333324,-0.15129629629629626,5.527500000000003],[0.10145833333333343,-0.1316666666666667,5.544400000095372],[0.11031250000000009,-0.122037037037037,5.562900000095368],[0.10635416666666657,-0.12018518518518514,5.577400000095373],[0.10104166666666667,-0.1227777777777778,5.594000000000001],[0.08510416666666672,-0.11240740740740739,5.6107000002861085],[0.08208333333333329,-0.10703703703703706,5.627300000190736],[0.0859375,-0.1111111111111111,5.643999999999998],[0.07302083333333324,-0.10351851851851848,5.661200000286108],[0.05458333333333331,-0.07629629629629628,5.677300000190733],[0.04864583333333338,-0.044444444444444446,5.6939000000953754],[0.04468749999999998,-0.03944444444444436,5.7105999999046375],[0.03218749999999997,-0.02444444444444453,5.727300000190731],[0.019270833333333334,-0.019444444444444445,5.744099999904641],[0.01895833333333338,-0.015000000000000043,5.7607000002861],[0.03114583333333331,-0.024814814814814772,5.777400000095376],[0.0203125,-0.018333333333333292,5.794000000000004],[0.01552083333333331,-0.011481481481481566,5.810599999904632],[0.02510416666666669,-0.011481481481481566,5.82820000028611],[0.042604166666666644,-0.010370370370370412,5.843900000095367]]","[0.0003000001907338401,0.057099999904636434,0.06450000000000244,0.07790000009536868,0.0940000000000012,0.11070000028610139,0.12740000009537056,0.14409999990463263,0.1620999999046333,0.17730000019074055,0.19400000000000261,0.2105999999046375,0.22740000009537198,0.24399999999999977,0.2635999999046348,0.27730000019073486,0.29400000000000404,0.3108000001907385,0.3274000000953734,0.3440000000000012,0.36080000019073566,0.37740000009537056,0.3940999999046326,0.41070000028610565,0.4274000000953677,0.4440000000000026,0.46090000009537135,0.477400000095372,0.49409999990463405,0.5107000002861071,0.5274000000953691,0.5440999999046383,0.5634000000953705,0.5774000000953734,0.5940999999046355,0.6107000002861014,0.6289000000953706,0.6440999999046326,0.6635999999046334,0.6787000002861063,0.6940999999046369,0.7107000002861028,0.727400000095372,0.7469000000953727,0.7607000002861071,0.7774000000953691,0.7940999999046383,0.8112000002861066,0.8274000000953734,0.8440999999046355,0.8649000000953677,0.8808000001907388,0.8965999999046375,0.9107000002861056,0.9274000000953677,0.9440000000000026,0.9642000002861053,0.9799000000953697,0.9969999999999999,1.0120000000000005,1.0274000000953691,1.044000000000004,1.0638000001907386,1.0805000000000007,1.0978000001907375,1.1133000001907405,1.1310999999046345,1.1440999999046326,1.16080000019074,1.1835999999046365,1.1940999999046369,1.2107000002861028,1.227400000095372,1.2439999999999998,1.2660999999046325,1.283200000286108,1.2942000002861036,1.3139000000953729,1.3275000000000006,1.3478000001907375,1.366500000000002,1.3795000000000002,1.3987000002861052,1.41080000019074,1.4275999999046363,1.4474000000953708,1.463000000000001,1.4777000002861058,1.4997000002861043,1.5145000000000053,1.5304000000953693,1.5449000000953674,1.5655000000000001,1.5803000001907392,1.5944000000953693,1.6110000000000042,1.6304000000953707,1.6445000000000007,1.66080000019074,1.677500000000002,1.6969000000953685,1.7109000000953714,1.7275999999046334,1.7473000001907408,1.7609000000953685,1.7775000000000034,1.7972000002861037,1.815800000190734,1.8330000000000055,1.846099999904638,1.8638000001907358,1.8805999999046321,1.8945000000000007,1.9142000002861081,1.9314000000953726,1.9487000002861024,1.9644000000953667,1.9777000002861058,1.9944000000953679,2.0109000000953685,2.030300000190735,2.0442000002861036,2.0609000000953728,2.0795999999046373,2.0940999999046355,2.11090000009537,2.127599999904632,2.1462000002861075,2.16530000019074,2.1795000000000044,2.1969000000953685,2.210800000190737,2.227499999999999,2.247700000286102,2.263700000286107,2.277400000095369,2.2942000002861036,2.312900000095368,2.3275000000000006,2.3440999999046355,2.3670999999046316,2.377599999904632,2.3944000000953665,2.413099999904638,2.4299999999999997,2.444200000286102,2.4610000000000056,2.4845999999046384,2.494099999904634,2.513200000286105,2.5275999999046377,2.5460999999046336,2.5608000001907385,2.5775000000000006,2.59680000019074,2.611000000000004,2.6278000001907387,2.6440000000000055,2.6629000000953695,2.677500000000002,2.6940000000000026,2.710700000286103,2.7299000000953697,2.7439999999999998,2.763599999904635,2.777400000095369,2.7940999999046383,2.8107000002861042,2.827300000190739,2.844000000000001,2.8629999999999995,2.8774000000953706,2.8940000000000055,2.91080000019074,2.9274000000953677,2.944500000000005,2.960700000286103,2.9773000001907377,2.9943000001907407,3.010700000286107,3.027400000095369,3.044000000000004,3.064300000190734,3.0777000002861072,3.094000000000001,3.1129000000953724,3.132400000095373,3.1440000000000055,3.16080000019074,3.183099999904634,3.1940000000000026,3.2105999999046375,3.2325000000000017,3.2439999999999998,3.2608000001907342,3.277300000190735,3.2940999999046383,3.3107000002861042,3.327300000190739,3.344000000000001,3.3607000002861014,3.377500000000005,3.3940000000000055,3.41080000019074,3.4280999999046315,3.4440000000000026,3.4645999999046353,3.480000000000004,3.4983000001907385,3.514400000095371,3.529200000286103,3.5440999999046383,3.563599999904632,3.5775000000000006,3.596900000095367,3.6112000002861038,3.6300000000000026,3.644900000095369,3.663400000095372,3.682000000000002,3.696700000286107,3.710800000190737,3.728200000286108,3.747,3.763300000190739,3.777400000095369,3.7965000000000018,3.811099999904634,3.8274000000953734,3.8440999999046355,3.8644000000953724,3.879000000000005,3.8944000000953665,3.91080000019074,3.9302000002861064,3.9450000000000003,3.9640000000000057,3.9813000001907355,3.999900000095373,4.014500000000005,4.032000000000004,4.048300000190736,4.060900000095373,4.077500000000001,4.096499999999999,4.11240000009537,4.129300000190739,4.1480999999046375,4.160900000095367,4.177500000000002,4.194400000095371,4.2165000000000035,4.227400000095372,4.244300000190741,4.262800000190737,4.280400000095369,4.296700000286101,4.313000000000002,4.331400000095371,4.347000000000001,4.361000000000004,4.377700000286104,4.402800000190737,4.411000000000001,4.4273000001907405,4.444000000000003,4.460900000095371,4.477300000190738,4.494,4.523500000000006,4.531400000095367,4.544000000000004,4.563800000190739,4.577900000095369,4.594000000000001,4.610599999904636,4.628700000286102,4.645800000190739,4.663300000190738,4.677700000286102,4.6958000001907365,4.710700000286103,4.729599999904636,4.744300000190741,4.764400000095371,4.779599999904633,4.797599999904634,4.812400000095373,4.828900000095366,4.844000000000001,4.863599999904636,4.877599999904632,4.8965999999046375,4.913300000190738,4.930200000286106,4.944900000095373,4.963200000286108,4.978800000190738,4.994300000190741,5.011400000095371,5.03580000019074,5.050900000095368,5.060599999904632,5.077300000190739,5.096000000000004,5.1129999999999995,5.132099999904632,5.152099999904635,5.1629000000953695,5.177400000095368,5.2010000000000005,5.2105999999046375,5.227400000095372,5.244,5.260599999904635,5.277300000190735,5.294000000000004,5.310599999904632,5.327300000190739,5.344000000000001,5.360700000286101,5.377400000095371,5.397599999904635,5.410700000286106,5.427400000095368,5.444000000000003,5.4605999999046375,5.477300000190738,5.494,5.510599999904635,5.527500000000003,5.544400000095372,5.562900000095368,5.577400000095373,5.594000000000001,5.6107000002861085,5.627300000190736,5.643999999999998,5.661200000286108,5.677300000190733,5.6939000000953754,5.7105999999046375,5.727300000190731,5.744099999904641,5.7607000002861,5.777400000095376,5.794000000000004,5.810599999904632,5.82820000028611,5.843900000095367]","[1731993806782,1731993806828,1731993806836,1731993806849,1731993806865,1731993806882,1731993806899,1731993806915,1731993806933,1731993806948,1731993806965,1731993806982,1731993806998,1731993807015,1731993807035,1731993807048,1731993807065,1731993807082,1731993807098,1731993807115,1731993807132,1731993807149,1731993807165,1731993807182,1731993807198,1731993807215,1731993807232,1731993807248,1731993807265,1731993807282,1731993807298,1731993807315,1731993807335,1731993807348,1731993807365,1731993807382,1731993807400,1731993807415,1731993807435,1731993807450,1731993807465,1731993807482,1731993807498,1731993807518,1731993807532,1731993807549,1731993807565,1731993807582,1731993807598,1731993807615,1731993807636,1731993807652,1731993807668,1731993807682,1731993807698,1731993807715,1731993807735,1731993807751,1731993807768,1731993807783,1731993807798,1731993807815,1731993807835,1731993807852,1731993807869,1731993807884,1731993807902,1731993807915,1731993807932,1731993807955,1731993807965,1731993807982,1731993807998,1731993808015,1731993808037,1731993808054,1731993808065,1731993808085,1731993808099,1731993808119,1731993808138,1731993808151,1731993808170,1731993808182,1731993808199,1731993808219,1731993808234,1731993808249,1731993808271,1731993808286,1731993808301,1731993808316,1731993808337,1731993808351,1731993808365,1731993808382,1731993808401,1731993808416,1731993808432,1731993808449,1731993808468,1731993808482,1731993808499,1731993808518,1731993808532,1731993808549,1731993808568,1731993808587,1731993808604,1731993808617,1731993808635,1731993808652,1731993808666,1731993808685,1731993808702,1731993808720,1731993808736,1731993808749,1731993808765,1731993808782,1731993808801,1731993808815,1731993808832,1731993808851,1731993808865,1731993808882,1731993808899,1731993808917,1731993808936,1731993808951,1731993808968,1731993808982,1731993808999,1731993809019,1731993809035,1731993809049,1731993809065,1731993809084,1731993809099,1731993809115,1731993809138,1731993809149,1731993809166,1731993809184,1731993809201,1731993809215,1731993809232,1731993809256,1731993809265,1731993809284,1731993809299,1731993809317,1731993809332,1731993809349,1731993809368,1731993809382,1731993809399,1731993809415,1731993809434,1731993809449,1731993809465,1731993809482,1731993809501,1731993809515,1731993809535,1731993809548,1731993809565,1731993809582,1731993809598,1731993809615,1731993809634,1731993809648,1731993809665,1731993809682,1731993809699,1731993809716,1731993809732,1731993809748,1731993809765,1731993809782,1731993809798,1731993809815,1731993809835,1731993809849,1731993809865,1731993809884,1731993809904,1731993809915,1731993809932,1731993809954,1731993809965,1731993809982,1731993810004,1731993810015,1731993810032,1731993810048,1731993810065,1731993810082,1731993810098,1731993810115,1731993810132,1731993810149,1731993810165,1731993810182,1731993810199,1731993810215,1731993810236,1731993810251,1731993810269,1731993810285,1731993810300,1731993810315,1731993810335,1731993810349,1731993810368,1731993810382,1731993810401,1731993810416,1731993810435,1731993810453,1731993810468,1731993810482,1731993810499,1731993810518,1731993810534,1731993810549,1731993810568,1731993810582,1731993810599,1731993810615,1731993810635,1731993810650,1731993810665,1731993810682,1731993810701,1731993810716,1731993810735,1731993810752,1731993810771,1731993810786,1731993810803,1731993810819,1731993810832,1731993810849,1731993810868,1731993810884,1731993810900,1731993810919,1731993810932,1731993810949,1731993810965,1731993810988,1731993810999,1731993811015,1731993811034,1731993811052,1731993811068,1731993811084,1731993811103,1731993811118,1731993811132,1731993811149,1731993811174,1731993811182,1731993811198,1731993811215,1731993811232,1731993811248,1731993811265,1731993811295,1731993811302,1731993811315,1731993811335,1731993811349,1731993811365,1731993811382,1731993811400,1731993811417,1731993811434,1731993811449,1731993811467,1731993811482,1731993811501,1731993811515,1731993811536,1731993811551,1731993811569,1731993811583,1731993811600,1731993811615,1731993811635,1731993811649,1731993811668,1731993811684,1731993811701,1731993811716,1731993811734,1731993811750,1731993811765,1731993811782,1731993811807,1731993811822,1731993811832,1731993811848,1731993811867,1731993811884,1731993811903,1731993811923,1731993811934,1731993811949,1731993811972,1731993811982,1731993811998,1731993812015,1731993812032,1731993812048,1731993812065,1731993812082,1731993812098,1731993812115,1731993812132,1731993812148,1731993812169,1731993812182,1731993812198,1731993812215,1731993812232,1731993812248,1731993812265,1731993812282,1731993812299,1731993812315,1731993812334,1731993812348,1731993812365,1731993812382,1731993812398,1731993812415,1731993812432,1731993812448,1731993812465,1731993812482,1731993812498,1731993812515,1731993812532,1731993812548,1731993812565,1731993812582,1731993812599,1731993812615]","[[1038.2,577],[1038.2,577],[1080.1,642.2],[1104.2,707.3],[1124.5,766.7],[1156.2,834],[1199.1,901.6],[1206.7,960.6],[1214.1,1022.7],[1241.5,1078.3],[1257.1,1115.8],[1260.1,1138.6],[1242.4,1107.7],[1219.9,1082.4],[1201.2,1062.8],[1171.9,1040.1],[1142.6,1017.4],[1131.7,992.5],[1109.6,957.9],[1084.2,932.8],[1084.2,932.8],[1059.2,906.9],[1059.2,906.9],[1053.3,894.9],[1033.1,878.7],[1017.7,856.9],[985.4,836.7],[963.7,819.6],[945.4,799.6],[927.9,785.4],[921.8,777.8],[912.3,776],[902.4,775],[871.2,768.5],[839.5,766.7],[812.4,766.1],[802.2,763.9],[800.7,761.1],[795.8,761.2],[800.5,756.9],[805.2,752.6],[828.2,744.3],[851.2,736],[879.1,739.1],[879.1,739.1],[905,744.1],[928.6,747.4],[952.2,750.7],[986.1,749.6],[1020,748.5],[1014.7,763.4],[1009.4,778.3],[963.8,776.2],[918.2,774.1],[882.5,766.9],[839.1,772.1],[793.4,777.8],[768.2,769.2],[724,765.6],[670.2,757.6],[646,738],[636.8,731.2],[645.1,750],[705,783.8],[784,836.4],[887,859.1],[964.6,885.5],[964.6,885.5],[1021.7,926.2],[1086.8,956.4],[1086.8,956.4],[1134.1,980.2],[1134.1,980.2],[1184.7,1009.1],[1193.2,1025.2],[1193.2,1025.2],[1229.2,977.6],[1201.9,927],[1201.9,927],[1149.3,860.1],[1107.8,797.4],[1107.8,797.4],[1089.2,738.6],[1089.2,738.6],[1053.4,672],[1009.7,623.5],[998.9,592.3],[975.8,545.3],[999.9,494.2],[988.8,489],[982.7,465.6],[982.8,439.7],[959,434.1],[941.1,430.1],[954.1,425.5],[967,413.3],[965.8,404.6],[968.2,406.5],[946.8,411.4],[941,423.7],[950.4,434],[954.6,456.4],[957.3,469.9],[952.8,461.9],[952.8,461.9],[938.2,476.1],[933.6,491.3],[946.4,484.8],[946.4,484.8],[964.6,478.4],[971.4,500.3],[983.6,500.2],[983.6,500.2],[982.8,510.1],[995.9,511.8],[1009,513.5],[1009,513.5],[1010.3,538.5],[1008,546.7],[1008,546.7],[995.7,553.9],[1009.7,570.3],[1025.2,596.9],[1055.8,596.3],[1053.3,617.7],[1055.3,637.3],[1048.6,653],[1072.7,676.3],[1074,676.1],[1068.1,689.8],[1080.7,691.1],[1019.9,693.7],[959.8,695.9],[898.2,711.5],[890.6,708.1],[864,694.5],[837.4,680.9],[809.7,675.4],[772.3,675.6],[742.1,664.9],[693.4,666.6],[693.4,666.6],[697.7,676.8],[723.8,681.6],[730.6,669.4],[730.6,669.4],[731.5,672.9],[731.5,672.9],[750.9,685.6],[738,693.8],[695.4,686.3],[717.3,690.1],[756.1,696.3],[778.8,698.1],[778.8,698.1],[803,697.7],[793.7,686.9],[781.9,675.7],[749.7,667.8],[755.2,673],[793,682.7],[845.7,696.2],[879,706.1],[895.4,713.6],[893.6,708.4],[884.6,706.5],[895.5,709.1],[929.7,715.7],[969.2,735],[971.5,742.2],[968.2,736.2],[950,726.4],[918.3,718.1],[901.9,716.7],[919.8,732.4],[911,725.7],[911,725.7],[891.8,720.5],[890.6,723.7],[877.8,711.5],[865,699.3],[871.6,703.4],[878.2,707.5],[896.2,700.3],[898.9,686.2],[924.9,686.5],[979.6,698.7],[979.6,698.7],[1019.4,708.8],[1058.4,715.4],[1058.4,715.4],[1098.5,718.4],[1131.3,731.4],[1131.3,731.4],[1140.8,737.9],[1140.8,737.9],[1160.1,741.8],[1160.1,741.8],[1174.1,759.7],[1181.5,778.4],[1181.5,778.4],[1165.6,782.7],[1165.6,782.7],[1157.2,788],[1129.7,804.2],[1115.4,808.4],[1106.3,818.9],[1110.9,813.8],[1119.6,820.8],[1099.7,813.7],[1087.3,809.5],[1081.5,804.5],[1075.7,796],[1025.1,788.6],[1036.8,772.1],[1017.7,761.2],[984.5,732.3],[948.7,726.9],[916.8,695.5],[905.1,681],[917.7,672.5],[918,657.4],[930.6,652.4],[953.5,642.4],[947.6,638.3],[923.6,626.1],[913.7,631.9],[864.6,640.2],[817,665.8],[779.9,678.9],[721.4,678],[704.6,691.9],[675.5,699.2],[650.4,715.7],[625.8,726.6],[628.8,718.6],[646.2,726.6],[686.3,714.3],[733.1,679.7],[768,657.4],[804.3,655.8],[812.8,623.2],[812.8,623.2],[815.6,594.4],[820.6,572.4],[841,533.4],[852.3,522.9],[850.7,497.3],[850.7,497.3],[860.9,469.8],[873.6,462.9],[881.2,455.2],[881.2,455.2],[908,415.1],[933.2,397.8],[969.6,385.7],[999.2,362.6],[1007.6,369.9],[996,392.1],[1011.6,383.5],[1011.6,383.5],[1018.8,378.8],[1022.8,379.6],[1022.8,379.6],[1037.3,374.5],[1030.9,387.3],[1020.1,404.9],[1013,408.7],[977.9,420.8],[948.6,419.5],[948.6,419.5],[931.3,403.5],[885.3,417.4],[858.6,423.8],[843.8,420.6],[798.2,440.7],[751.4,448.3],[717.1,446.7],[673.2,446.8],[667.1,447.5],[661,448.2],[662.4,441.3],[701.9,443.1],[763.5,444.6],[788.5,450],[853.7,437.7],[898.7,442.4],[935.6,451.5],[990.1,463.5],[1051.4,466.6],[1107.7,448.4],[1161.3,438.1],[1187,424.2],[1180.6,416],[1192.9,409.7],[1205.1,407.8],[1219.4,390.5],[1235.5,380.5],[1218.3,358.7],[1209.7,342.7],[1209.7,342.7],[1213.1,341.1],[1213.1,341.1],[1220.2,354.4],[1204.9,362.1],[1178.1,374],[1163.5,392.4],[1134.2,407.5],[1134.2,407.5],[1091.4,416.8],[1086.2,425.5],[1086.2,425.5],[1067.4,438.6],[1067.4,438.6],[1056.6,455.5],[1056.6,455.5],[1037,474.6],[1037,474.6],[1022.2,473.2],[1019.1,472.5],[1019.1,472.5],[1027.5,467.6],[1025.5,464.7],[1025.5,464.7],[1012.7,464.5],[1043.2,467.8],[1034.3,464.4],[1048.5,473.7],[1048.4,470.8],[1055.4,462],[1057.1,458.3],[1057.4,468.9],[1065.9,474.1],[1062.1,475.1],[1057,473.7],[1041.7,479.3],[1038.8,482.2],[1042.5,480],[1030.1,484.1],[1012.4,498.8],[1006.7,516],[1002.9,518.7],[990.9,526.8],[978.5,529.5],[978.2,531.9],[989.9,526.6],[979.5,530.1],[974.9,533.8],[984.1,533.8],[1000.9,534.4]]","[-0.142,0.42599999999999993]","[0.142,0.42599999999999993]","[0.42599999999999993,0.42599999999999993]","[-0.42599999999999993,-0.142]","[-0.42599999999999993,-0.42599999999999993]","[-0.42599999999999993,0.142]","[-0.142,-0.142]","[0.142,-0.142]","[0.42599999999999993,-0.142]","[-0.142,-0.42599999999999993]","[0.142,-0.42599999999999993]","[0.42599999999999993,-0.42599999999999993]","[-0.142,0.142]","[0.142,0.142]","[0.42599999999999993,0.142]",0,0,0,0,1,4,Laptop,25,20,8,1,60,4,1,60,3
