inst1_resp.keys,inst1_resp.rt,calibrationMouse.x,calibrationMouse.y,calibrationMouse.leftButton,calibrationMouse.midButton,calibrationMouse.rightButton,calibrationClick.x,calibrationClick.y,calibrationClick.leftButton,calibrationClick.midButton,calibrationClick.rightButton,calibrationClick.clicked_name,trialsc.thisRepN,trialsc.thisTrialN,trialsc.thisN,trialsc.thisIndex,trialsc.ran,calibration_x,calibration_y,participant,session,date,expName,psychopyVersion,OS,frameRate,ScreenRes_pixels,Camera_pixels,mouse_2.x,mouse_2.y,mouse_2.leftButton,mouse_2.midButton,mouse_2.rightButton,mouse_2.time,mouse_2.clicked_name,mouse.x,mouse.y,mouse.leftButton,mouse.midButton,mouse.rightButton,mouse.time,mouse.clicked_name,Choice,Trial,TrialDuration,MOUSE_GAZE,ET_GAZE,ET_GAZE_x_T,time,unixTime,ET_GAZE_NF,Loc_Bus_label,Loc_Metro_label,Loc_RH_label,Loc_Cost_label,Loc_Travel_label,Loc_Comfort_label,Loc_Bus_cost,Loc_Metro_cost,Loc_RH_cost,Loc_Bus_travel,Loc_Metro_travel,Loc_RH_travel,Loc_Bus_comfort,Loc_Metro_comfort,Loc_RH_comfort,trials.thisRepN,trials.thisTrialN,trials.thisN,trials.thisIndex,trials.ran,Block,Device,RH_cost,RH_travel_time,RH_Comfort,metro_cost,metro_travel_time,metro_Comfort,Bus_cost,Bus_travel_time,Bus_Comfort
space,2.7112,0.070833333,-0.12037037,1,0,0,-0.3375,-0.67962963,1,0,0,calibration_square,0,0,0,4,1,-0.33,-0.67,38,001,2024-11-19_17h29.24.144,Attention_exp_legacy,2023.1.0,Win32,59.52380952,,,,,,,,,,,,,,,,,,,,,,,,,,,,,,,,,,,,,,,,,,,,,,,,,,,,,,,,
,,,,,,,-0.65625,0.014814815,1,0,0,,0,1,1,2,1,-0.67,0,38,001,2024-11-19_17h29.24.144,Attention_exp_legacy,2023.1.0,Win32,59.52380952,,,,,,,,,,,,,,,,,,,,,,,,,,,,,,,,,,,,,,,,,,,,,,,,,,,,,,,,
,,,,,,,-0.005208333,0.327777778,1,0,0,calibration_square,0,2,2,12,1,0,0.33,38,001,2024-11-19_17h29.24.144,Attention_exp_legacy,2023.1.0,Win32,59.52380952,,,,,,,,,,,,,,,,,,,,,,,,,,,,,,,,,,,,,,,,,,,,,,,,,,,,,,,,
,,,,,,,-0.692708333,-0.677777778,1,0,0,,0,3,3,0,1,-0.67,-0.67,38,001,2024-11-19_17h29.24.144,Attention_exp_legacy,2023.1.0,Win32,59.52380952,,,,,,,,,,,,,,,,,,,,,,,,,,,,,,,,,,,,,,,,,,,,,,,,,,,,,,,,
,,,,,,,-0.334375,-0.333333333,1,0,0,calibration_square,0,4,4,5,1,-0.33,-0.33,38,001,2024-11-19_17h29.24.144,Attention_exp_legacy,2023.1.0,Win32,59.52380952,,,,,,,,,,,,,,,,,,,,,,,,,,,,,,,,,,,,,,,,,,,,,,,,,,,,,,,,
,,,,,,,0.330208333,0.014814815,1,0,0,,0,5,5,16,1,0.33,0,38,001,2024-11-19_17h29.24.144,Attention_exp_legacy,2023.1.0,Win32,59.52380952,,,,,,,,,,,,,,,,,,,,,,,,,,,,,,,,,,,,,,,,,,,,,,,,,,,,,,,,
,,,,,,,-0.336458333,0.009259259,1,0,0,calibration_square,0,6,6,6,1,-0.33,0,38,001,2024-11-19_17h29.24.144,Attention_exp_legacy,2023.1.0,Win32,59.52380952,,,,,,,,,,,,,,,,,,,,,,,,,,,,,,,,,,,,,,,,,,,,,,,,,,,,,,,,
,,,,,,,-0.339583333,0.677777778,1,0,0,calibration_square,0,7,7,8,1,-0.33,0.67,38,001,2024-11-19_17h29.24.144,Attention_exp_legacy,2023.1.0,Win32,59.52380952,,,,,,,,,,,,,,,,,,,,,,,,,,,,,,,,,,,,,,,,,,,,,,,,,,,,,,,,
,,,,,,,0.00625,0.003703704,1,0,0,calibration_square,0,8,8,11,1,0,0,38,001,2024-11-19_17h29.24.144,Attention_exp_legacy,2023.1.0,Win32,59.52380952,,,,,,,,,,,,,,,,,,,,,,,,,,,,,,,,,,,,,,,,,,,,,,,,,,,,,,,,
,,,,,,,0.330208333,0.681481481,1,0,0,,0,9,9,18,1,0.33,0.67,38,001,2024-11-19_17h29.24.144,Attention_exp_legacy,2023.1.0,Win32,59.52380952,,,,,,,,,,,,,,,,,,,,,,,,,,,,,,,,,,,,,,,,,,,,,,,,,,,,,,,,
,,,,,,,0.327083333,-0.322222222,1,0,0,calibration_square,0,10,10,15,1,0.33,-0.33,38,001,2024-11-19_17h29.24.144,Attention_exp_legacy,2023.1.0,Win32,59.52380952,,,,,,,,,,,,,,,,,,,,,,,,,,,,,,,,,,,,,,,,,,,,,,,,,,,,,,,,
,,,,,,,-0.004166667,-0.324074074,1,0,0,calibration_square,0,11,11,10,1,0,-0.33,38,001,2024-11-19_17h29.24.144,Attention_exp_legacy,2023.1.0,Win32,59.52380952,,,,,,,,,,,,,,,,,,,,,,,,,,,,,,,,,,,,,,,,,,,,,,,,,,,,,,,,
,,,,,,,-0.664583333,0.337037037,1,0,0,calibration_square,0,12,12,3,1,-0.67,0.33,38,001,2024-11-19_17h29.24.144,Attention_exp_legacy,2023.1.0,Win32,59.52380952,,,,,,,,,,,,,,,,,,,,,,,,,,,,,,,,,,,,,,,,,,,,,,,,,,,,,,,,
,,,,,,,-0.001041667,-0.668518519,1,0,0,calibration_square,0,13,13,9,1,0,-0.67,38,001,2024-11-19_17h29.24.144,Attention_exp_legacy,2023.1.0,Win32,59.52380952,,,,,,,,,,,,,,,,,,,,,,,,,,,,,,,,,,,,,,,,,,,,,,,,,,,,,,,,
,,,,,,,-0.338541667,0.337037037,1,0,0,calibration_square,0,14,14,7,1,-0.33,0.33,38,001,2024-11-19_17h29.24.144,Attention_exp_legacy,2023.1.0,Win32,59.52380952,,,,,,,,,,,,,,,,,,,,,,,,,,,,,,,,,,,,,,,,,,,,,,,,,,,,,,,,
,,,,,,,0.657291667,0.692592593,1,0,0,,0,15,15,19,1,0.67,0.67,38,001,2024-11-19_17h29.24.144,Attention_exp_legacy,2023.1.0,Win32,59.52380952,,,,,,,,,,,,,,,,,,,,,,,,,,,,,,,,,,,,,,,,,,,,,,,,,,,,,,,,
,,,,,,,-0.671875,-0.324074074,1,0,0,calibration_square,0,16,16,1,1,-0.67,-0.33,38,001,2024-11-19_17h29.24.144,Attention_exp_legacy,2023.1.0,Win32,59.52380952,,,,,,,,,,,,,,,,,,,,,,,,,,,,,,,,,,,,,,,,,,,,,,,,,,,,,,,,
,,,,,,,0.669791667,-0.675925926,1,0,0,calibration_square,0,17,17,20,1,0.67,-0.67,38,001,2024-11-19_17h29.24.144,Attention_exp_legacy,2023.1.0,Win32,59.52380952,,,,,,,,,,,,,,,,,,,,,,,,,,,,,,,,,,,,,,,,,,,,,,,,,,,,,,,,
,,,,,,,-0.004166667,0.655555556,1,0,0,,0,18,18,13,1,0,0.67,38,001,2024-11-19_17h29.24.144,Attention_exp_legacy,2023.1.0,Win32,59.52380952,,,,,,,,,,,,,,,,,,,,,,,,,,,,,,,,,,,,,,,,,,,,,,,,,,,,,,,,
,,,,,,,0.332291667,-0.688888889,1,0,0,,0,19,19,14,1,0.33,-0.67,38,001,2024-11-19_17h29.24.144,Attention_exp_legacy,2023.1.0,Win32,59.52380952,,,,,,,,,,,,,,,,,,,,,,,,,,,,,,,,,,,,,,,,,,,,,,,,,,,,,,,,
,,,,,,,0.33125,0.333333333,1,0,0,calibration_square,0,20,20,17,1,0.33,0.33,38,001,2024-11-19_17h29.24.144,Attention_exp_legacy,2023.1.0,Win32,59.52380952,,,,,,,,,,,,,,,,,,,,,,,,,,,,,,,,,,,,,,,,,,,,,,,,,,,,,,,,
,,,,,,,,,,,,,,,,,,,,38,001,2024-11-19_17h29.24.144,Attention_exp_legacy,2023.1.0,Win32,59.52380952,"[1920,1080]","[640,480]",[0.052083333333333336],[-0.4925925925925926],[1],[0],[0],[2.2568000001907365],"[""StartButton""]",[0.4625],[0.3888888888888889],[1],[0],[0],[9.482],"[""RH_label""]",RH_label,1,10.5103,"[[0.052083333333333336,-0.4925925925925926],[0.052083333333333336,-0.4925925925925926],[0.052083333333333336,-0.4925925925925926],[0.052083333333333336,-0.4925925925925926],[0.052083333333333336,-0.4925925925925926],[0.052083333333333336,-0.4925925925925926],[0.052083333333333336,-0.4925925925925926],[0.052083333333333336,-0.4925925925925926],[0.052083333333333336,-0.4925925925925926],[0.052083333333333336,-0.4925925925925926],[0.052083333333333336,-0.4925925925925926],[0.052083333333333336,-0.4925925925925926],[0.052083333333333336,-0.4925925925925926],[0.052083333333333336,-0.4925925925925926],[0.052083333333333336,-0.4925925925925926],[0.052083333333333336,-0.4925925925925926],[0.052083333333333336,-0.4925925925925926],[0.052083333333333336,-0.4925925925925926],[0.052083333333333336,-0.4925925925925926],[0.052083333333333336,-0.4925925925925926],[0.052083333333333336,-0.4925925925925926],[0.052083333333333336,-0.4925925925925926],[0.052083333333333336,-0.4925925925925926],[0.052083333333333336,-0.4925925925925926],[0.052083333333333336,-0.4925925925925926],[0.052083333333333336,-0.4925925925925926],[0.052083333333333336,-0.4925925925925926],[0.052083333333333336,-0.4925925925925926],[0.052083333333333336,-0.4925925925925926],[0.052083333333333336,-0.4925925925925926],[0.052083333333333336,-0.4925925925925926],[0.052083333333333336,-0.4925925925925926],[0.052083333333333336,-0.4925925925925926],[0.052083333333333336,-0.4925925925925926],[0.052083333333333336,-0.4925925925925926],[0.052083333333333336,-0.4925925925925926],[0.052083333333333336,-0.4925925925925926],[0.052083333333333336,-0.4925925925925926],[0.052083333333333336,-0.4925925925925926],[0.052083333333333336,-0.4925925925925926],[0.052083333333333336,-0.4925925925925926],[0.052083333333333336,-0.4925925925925926],[0.052083333333333336,-0.4925925925925926],[0.052083333333333336,-0.4925925925925926],[0.052083333333333336,-0.4925925925925926],[0.052083333333333336,-0.4925925925925926],[0.052083333333333336,-0.4925925925925926],[0.052083333333333336,-0.4925925925925926],[0.052083333333333336,-0.4925925925925926],[0.052083333333333336,-0.4925925925925926],[0.052083333333333336,-0.4925925925925926],[0.052083333333333336,-0.4925925925925926],[0.052083333333333336,-0.4925925925925926],[0.052083333333333336,-0.4925925925925926],[0.052083333333333336,-0.4925925925925926],[0.052083333333333336,-0.4925925925925926],[0.052083333333333336,-0.4925925925925926],[0.052083333333333336,-0.4925925925925926],[0.052083333333333336,-0.4925925925925926],[0.052083333333333336,-0.4925925925925926],[0.052083333333333336,-0.4925925925925926],[0.052083333333333336,-0.4925925925925926],[0.052083333333333336,-0.4925925925925926],[0.052083333333333336,-0.4925925925925926],[0.052083333333333336,-0.4925925925925926],[0.052083333333333336,-0.4925925925925926],[0.052083333333333336,-0.4925925925925926],[0.052083333333333336,-0.4925925925925926],[0.052083333333333336,-0.4925925925925926],[0.052083333333333336,-0.4925925925925926],[0.052083333333333336,-0.4925925925925926],[0.052083333333333336,-0.4925925925925926],[0.052083333333333336,-0.4925925925925926],[0.052083333333333336,-0.4925925925925926],[0.052083333333333336,-0.4925925925925926],[0.052083333333333336,-0.4925925925925926],[0.052083333333333336,-0.4925925925925926],[0.052083333333333336,-0.4925925925925926],[0.052083333333333336,-0.4925925925925926],[0.052083333333333336,-0.4925925925925926],[0.052083333333333336,-0.4925925925925926],[0.052083333333333336,-0.4925925925925926],[0.052083333333333336,-0.4925925925925926],[0.052083333333333336,-0.4925925925925926],[0.052083333333333336,-0.4925925925925926],[0.052083333333333336,-0.4925925925925926],[0.052083333333333336,-0.4925925925925926],[0.052083333333333336,-0.4925925925925926],[0.052083333333333336,-0.4925925925925926],[0.052083333333333336,-0.4925925925925926],[0.052083333333333336,-0.4925925925925926],[0.052083333333333336,-0.4925925925925926],[0.052083333333333336,-0.4925925925925926],[0.052083333333333336,-0.4925925925925926],[0.052083333333333336,-0.4925925925925926],[0.052083333333333336,-0.4925925925925926],[0.052083333333333336,-0.4925925925925926],[0.052083333333333336,-0.4925925925925926],[0.052083333333333336,-0.4925925925925926],[0.052083333333333336,-0.4925925925925926],[0.052083333333333336,-0.4925925925925926],[0.052083333333333336,-0.4925925925925926],[0.052083333333333336,-0.4925925925925926],[0.052083333333333336,-0.4925925925925926],[0.052083333333333336,-0.4925925925925926],[0.052083333333333336,-0.4925925925925926],[0.052083333333333336,-0.4925925925925926],[0.052083333333333336,-0.4925925925925926],[0.052083333333333336,-0.4925925925925926],[0.052083333333333336,-0.4925925925925926],[0.052083333333333336,-0.4925925925925926],[0.052083333333333336,-0.4925925925925926],[0.05,-0.49074074074074076],[0.04583333333333333,-0.4759259259259259],[0.04479166666666667,-0.4722222222222222],[0.040625,-0.4648148148148148],[0.03854166666666667,-0.46296296296296297],[0.036458333333333336,-0.46111111111111114],[0.035416666666666666,-0.46111111111111114],[0.03125,-0.45925925925925926],[0.028125,-0.45555555555555555],[0.020833333333333332,-0.44814814814814813],[0.013541666666666667,-0.4388888888888889],[0.0010416666666666667,-0.42407407407407405],[-0.008333333333333333,-0.40925925925925927],[-0.03125,-0.3814814814814815],[-0.04479166666666667,-0.3537037037037037],[-0.06145833333333333,-0.3111111111111111],[-0.07395833333333333,-0.26666666666666666],[-0.08645833333333333,-0.2351851851851852],[-0.09583333333333334,-0.22037037037037038],[-0.10208333333333333,-0.2037037037037037],[-0.10625,-0.1925925925925926],[-0.109375,-0.17962962962962964],[-0.11145833333333334,-0.17222222222222222],[-0.11458333333333333,-0.15925925925925927],[-0.115625,-0.1537037037037037],[-0.115625,-0.1537037037037037],[-0.11770833333333333,-0.14629629629629629],[-0.11979166666666667,-0.13703703703703704],[-0.121875,-0.12777777777777777],[-0.12291666666666666,-0.12222222222222222],[-0.12291666666666666,-0.12037037037037036],[-0.12291666666666666,-0.12037037037037036],[-0.12291666666666666,-0.12037037037037036],[-0.12291666666666666,-0.12037037037037036],[-0.12291666666666666,-0.12037037037037036],[-0.12291666666666666,-0.12037037037037036],[-0.12291666666666666,-0.12037037037037036],[-0.12291666666666666,-0.12037037037037036],[-0.12291666666666666,-0.11666666666666667],[-0.12291666666666666,-0.11481481481481481],[-0.12291666666666666,-0.1111111111111111],[-0.12291666666666666,-0.10925925925925926],[-0.12291666666666666,-0.10740740740740741],[-0.12291666666666666,-0.10740740740740741],[-0.12291666666666666,-0.10740740740740741],[-0.12291666666666666,-0.10740740740740741],[-0.12291666666666666,-0.10740740740740741],[-0.12291666666666666,-0.10740740740740741],[-0.12291666666666666,-0.10740740740740741],[-0.12291666666666666,-0.10740740740740741],[-0.12291666666666666,-0.10740740740740741],[-0.12291666666666666,-0.10185185185185185],[-0.12291666666666666,-0.09814814814814815],[-0.121875,-0.09259259259259259],[-0.12083333333333333,-0.08703703703703704],[-0.11979166666666667,-0.07962962962962963],[-0.11770833333333333,-0.06666666666666667],[-0.11458333333333333,-0.05185185185185185],[-0.1125,-0.02962962962962963],[-0.10833333333333334,-0.003703703703703704],[-0.103125,0.025925925925925925],[-0.10104166666666667,0.07962962962962963],[-0.09791666666666667,0.1],[-0.096875,0.11666666666666667],[-0.096875,0.12407407407407407],[-0.09479166666666666,0.13333333333333333],[-0.09375,0.14444444444444443],[-0.09375,0.1574074074074074],[-0.09375,0.17037037037037037],[-0.09375,0.1814814814814815],[-0.09375,0.19444444444444445],[-0.09270833333333334,0.20555555555555555],[-0.090625,0.21666666666666667],[-0.090625,0.22962962962962963],[-0.090625,0.23703703703703705],[-0.090625,0.24814814814814815],[-0.090625,0.25555555555555554],[-0.090625,0.26296296296296295],[-0.090625,0.26851851851851855],[-0.090625,0.2796296296296296],[-0.090625,0.29444444444444445],[-0.090625,0.30925925925925923],[-0.090625,0.32037037037037036],[-0.090625,0.3277777777777778],[-0.090625,0.3333333333333333],[-0.090625,0.3388888888888889],[-0.090625,0.35],[-0.090625,0.3574074074074074],[-0.090625,0.3648148148148148],[-0.090625,0.37592592592592594],[-0.090625,0.38333333333333336],[-0.090625,0.3888888888888889],[-0.090625,0.39444444444444443],[-0.090625,0.4],[-0.090625,0.40370370370370373],[-0.090625,0.4074074074074074],[-0.090625,0.40925925925925927],[-0.090625,0.412962962962963],[-0.090625,0.4148148148148148],[-0.090625,0.4148148148148148],[-0.090625,0.4166666666666667],[-0.090625,0.4185185185185185],[-0.090625,0.4185185185185185],[-0.090625,0.4203703703703704],[-0.090625,0.4222222222222222],[-0.090625,0.4222222222222222],[-0.090625,0.4222222222222222],[-0.090625,0.4222222222222222],[-0.090625,0.4222222222222222],[-0.090625,0.4222222222222222],[-0.090625,0.4222222222222222],[-0.090625,0.4222222222222222],[-0.090625,0.4222222222222222],[-0.090625,0.4222222222222222],[-0.090625,0.4222222222222222],[-0.090625,0.4222222222222222],[-0.090625,0.4222222222222222],[-0.090625,0.4222222222222222],[-0.090625,0.4222222222222222],[-0.090625,0.4222222222222222],[-0.090625,0.4222222222222222],[-0.090625,0.4222222222222222],[-0.090625,0.4222222222222222],[-0.090625,0.4222222222222222],[-0.090625,0.4222222222222222],[-0.090625,0.4222222222222222],[-0.090625,0.4222222222222222],[-0.090625,0.4222222222222222],[-0.090625,0.4222222222222222],[-0.090625,0.4222222222222222],[-0.090625,0.4222222222222222],[-0.090625,0.4222222222222222],[-0.090625,0.4222222222222222],[-0.090625,0.4222222222222222],[-0.090625,0.4222222222222222],[-0.090625,0.4222222222222222],[-0.090625,0.4222222222222222],[-0.090625,0.4222222222222222],[-0.090625,0.4222222222222222],[-0.090625,0.4222222222222222],[-0.090625,0.4222222222222222],[-0.090625,0.4222222222222222],[-0.090625,0.4222222222222222],[-0.090625,0.4222222222222222],[-0.090625,0.4222222222222222],[-0.090625,0.4222222222222222],[-0.090625,0.4222222222222222],[-0.090625,0.4222222222222222],[-0.090625,0.4222222222222222],[-0.090625,0.4222222222222222],[-0.090625,0.4222222222222222],[-0.090625,0.4222222222222222],[-0.090625,0.4222222222222222],[-0.090625,0.4222222222222222],[-0.090625,0.4222222222222222],[-0.090625,0.4222222222222222],[-0.090625,0.4222222222222222],[-0.090625,0.4222222222222222],[-0.090625,0.4222222222222222],[-0.090625,0.4222222222222222],[-0.090625,0.4222222222222222],[-0.090625,0.4222222222222222],[-0.090625,0.4222222222222222],[-0.090625,0.4222222222222222],[-0.090625,0.4222222222222222],[-0.090625,0.4222222222222222],[-0.090625,0.4222222222222222],[-0.090625,0.4222222222222222],[-0.090625,0.4222222222222222],[-0.090625,0.4222222222222222],[-0.090625,0.4222222222222222],[-0.090625,0.4222222222222222],[-0.090625,0.4222222222222222],[-0.090625,0.4222222222222222],[-0.090625,0.4222222222222222],[-0.090625,0.4222222222222222],[-0.090625,0.4222222222222222],[-0.090625,0.4222222222222222],[-0.090625,0.4222222222222222],[-0.090625,0.4222222222222222],[-0.090625,0.4222222222222222],[-0.090625,0.4222222222222222],[-0.090625,0.4222222222222222],[-0.090625,0.4222222222222222],[-0.090625,0.4222222222222222],[-0.090625,0.4222222222222222],[-0.090625,0.4222222222222222],[-0.090625,0.4222222222222222],[-0.090625,0.4222222222222222],[-0.090625,0.4222222222222222],[-0.090625,0.4222222222222222],[-0.090625,0.4222222222222222],[-0.090625,0.4222222222222222],[-0.090625,0.4222222222222222],[-0.090625,0.4222222222222222],[-0.090625,0.4222222222222222],[-0.090625,0.4222222222222222],[-0.090625,0.4222222222222222],[-0.090625,0.4222222222222222],[-0.090625,0.4222222222222222],[-0.090625,0.4222222222222222],[-0.090625,0.4222222222222222],[-0.090625,0.4222222222222222],[-0.090625,0.4222222222222222],[-0.090625,0.4222222222222222],[-0.090625,0.4222222222222222],[-0.090625,0.4222222222222222],[-0.090625,0.4222222222222222],[-0.090625,0.4222222222222222],[-0.090625,0.4222222222222222],[-0.090625,0.4222222222222222],[-0.090625,0.4222222222222222],[-0.090625,0.4222222222222222],[-0.090625,0.4222222222222222],[-0.090625,0.4222222222222222],[-0.090625,0.4222222222222222],[-0.090625,0.4222222222222222],[-0.090625,0.4222222222222222],[-0.090625,0.4222222222222222],[-0.090625,0.4222222222222222],[-0.090625,0.4222222222222222],[-0.090625,0.4222222222222222],[-0.090625,0.4222222222222222],[-0.090625,0.4222222222222222],[-0.090625,0.4222222222222222],[-0.090625,0.4222222222222222],[-0.090625,0.4222222222222222],[-0.090625,0.4222222222222222],[-0.090625,0.4222222222222222],[-0.090625,0.4222222222222222],[-0.090625,0.4222222222222222],[-0.090625,0.4222222222222222],[-0.090625,0.4222222222222222],[-0.090625,0.4222222222222222],[-0.090625,0.4222222222222222],[-0.090625,0.4222222222222222],[-0.090625,0.4222222222222222],[-0.090625,0.4222222222222222],[-0.090625,0.4222222222222222],[-0.090625,0.4222222222222222],[-0.090625,0.4222222222222222],[-0.090625,0.4222222222222222],[-0.090625,0.4222222222222222],[-0.090625,0.4222222222222222],[-0.090625,0.4222222222222222],[-0.090625,0.4222222222222222],[-0.090625,0.4222222222222222],[-0.090625,0.4222222222222222],[-0.090625,0.4222222222222222],[-0.090625,0.4222222222222222],[-0.090625,0.4222222222222222],[-0.090625,0.4222222222222222],[-0.090625,0.4222222222222222],[-0.090625,0.4222222222222222],[-0.090625,0.4222222222222222],[-0.090625,0.4222222222222222],[-0.090625,0.4222222222222222],[-0.090625,0.4222222222222222],[-0.090625,0.4222222222222222],[-0.090625,0.4222222222222222],[-0.090625,0.4222222222222222],[-0.090625,0.4222222222222222],[-0.090625,0.4222222222222222],[-0.090625,0.4222222222222222],[-0.090625,0.4222222222222222],[-0.090625,0.4222222222222222],[-0.090625,0.4222222222222222],[-0.090625,0.4222222222222222],[-0.090625,0.4222222222222222],[-0.090625,0.4222222222222222],[-0.090625,0.4222222222222222],[-0.090625,0.4222222222222222],[-0.090625,0.4222222222222222],[-0.090625,0.4222222222222222],[-0.090625,0.4222222222222222],[-0.090625,0.4222222222222222],[-0.090625,0.4222222222222222],[-0.090625,0.4222222222222222],[-0.090625,0.4222222222222222],[-0.090625,0.4222222222222222],[-0.090625,0.4222222222222222],[-0.090625,0.4222222222222222],[-0.090625,0.4222222222222222],[-0.090625,0.4222222222222222],[-0.090625,0.4222222222222222],[-0.090625,0.4222222222222222],[-0.090625,0.4222222222222222],[-0.090625,0.4222222222222222],[-0.090625,0.4222222222222222],[-0.090625,0.4222222222222222],[-0.090625,0.4222222222222222],[-0.090625,0.4222222222222222],[-0.090625,0.4222222222222222],[-0.090625,0.4222222222222222],[-0.090625,0.4222222222222222],[-0.090625,0.4222222222222222],[-0.090625,0.4222222222222222],[-0.090625,0.4222222222222222],[-0.090625,0.4222222222222222],[-0.090625,0.4222222222222222],[-0.090625,0.4222222222222222],[-0.090625,0.4222222222222222],[-0.090625,0.4222222222222222],[-0.090625,0.4222222222222222],[-0.090625,0.4222222222222222],[-0.090625,0.4222222222222222],[-0.090625,0.4222222222222222],[-0.090625,0.4222222222222222],[-0.090625,0.4222222222222222],[-0.090625,0.4222222222222222],[-0.090625,0.4222222222222222],[-0.090625,0.4222222222222222],[-0.090625,0.4222222222222222],[-0.090625,0.4222222222222222],[-0.090625,0.4222222222222222],[-0.090625,0.4222222222222222],[-0.090625,0.4222222222222222],[-0.090625,0.4222222222222222],[-0.090625,0.4222222222222222],[-0.090625,0.4222222222222222],[-0.090625,0.4222222222222222],[-0.090625,0.4222222222222222],[-0.090625,0.4222222222222222],[-0.090625,0.4222222222222222],[-0.090625,0.4222222222222222],[-0.090625,0.4222222222222222],[-0.090625,0.4222222222222222],[-0.090625,0.4222222222222222],[-0.090625,0.4222222222222222],[-0.090625,0.4222222222222222],[-0.090625,0.4222222222222222],[-0.090625,0.4222222222222222],[-0.090625,0.4222222222222222],[-0.090625,0.4222222222222222],[-0.090625,0.4222222222222222],[-0.08958333333333333,0.42407407407407405],[-0.07395833333333333,0.4203703703703704],[-0.035416666666666666,0.40185185185185185],[-0.007291666666666667,0.3888888888888889],[0.028125,0.37592592592592594],[0.057291666666666664,0.3685185185185185],[0.0875,0.3592592592592593],[0.11979166666666667,0.35],[0.15,0.34629629629629627],[0.18229166666666666,0.337037037037037],[0.21875,0.3277777777777778],[0.23020833333333332,0.32592592592592595],[0.25,0.32037037037037036],[0.278125,0.31296296296296294],[0.2989583333333333,0.3074074074074074],[0.3072916666666667,0.3074074074074074],[0.33229166666666665,0.3055555555555556],[0.34479166666666666,0.3055555555555556],[0.35520833333333335,0.3055555555555556],[0.3645833333333333,0.3055555555555556],[0.378125,0.3055555555555556],[0.3927083333333333,0.3055555555555556],[0.409375,0.3055555555555556],[0.421875,0.30925925925925923],[0.43125,0.3148148148148148],[0.43854166666666666,0.32037037037037036],[0.446875,0.3277777777777778],[0.45,0.3333333333333333],[0.45208333333333334,0.337037037037037],[0.45416666666666666,0.34074074074074073],[0.4552083333333333,0.3425925925925926],[0.4552083333333333,0.34444444444444444],[0.45625,0.34814814814814815],[0.45625,0.35],[0.45729166666666665,0.35],[0.45729166666666665,0.35185185185185186],[0.4583333333333333,0.35555555555555557],[0.46041666666666664,0.362962962962963],[0.46145833333333336,0.3685185185185185],[0.46145833333333336,0.37222222222222223],[0.4625,0.37222222222222223],[0.4625,0.37222222222222223],[0.4625,0.37222222222222223],[0.4625,0.37222222222222223],[0.4625,0.37222222222222223],[0.4625,0.37222222222222223],[0.4625,0.37222222222222223],[0.4625,0.37222222222222223],[0.4625,0.37222222222222223],[0.4625,0.37407407407407406],[0.4625,0.37777777777777777],[0.4625,0.37962962962962965],[0.4625,0.38333333333333336],[0.4625,0.3851851851851852],[0.4625,0.3851851851851852],[0.4625,0.3888888888888889],[0.4625,0.3888888888888889],[0.4625,0.3888888888888889],[0.4625,0.3888888888888889],[0.4625,0.3888888888888889],[0.4625,0.3888888888888889],[0.4625,0.3888888888888889],[0.4625,0.3888888888888889],[0.4625,0.3888888888888889],[0.4625,0.3888888888888889],[0.4625,0.3888888888888889],[0.4625,0.3888888888888889],[0.4625,0.3888888888888889],[0.4625,0.3888888888888889],[0.4625,0.3888888888888889],[0.4625,0.3888888888888889],[0.4625,0.3888888888888889],[0.4625,0.3888888888888889],[0.4625,0.3888888888888889],[0.4625,0.3888888888888889],[0.4625,0.3888888888888889],[0.4625,0.3888888888888889],[0.4625,0.3888888888888889],[0.4625,0.3888888888888889],[0.4625,0.3888888888888889],[0.4625,0.3888888888888889],[0.4625,0.3888888888888889],[0.4625,0.3888888888888889],[0.4625,0.3888888888888889],[0.4625,0.3888888888888889],[0.4625,0.3888888888888889],[0.4625,0.3888888888888889],[0.4625,0.3888888888888889],[0.4625,0.3888888888888889],[0.4625,0.3888888888888889],[0.4625,0.3888888888888889],[0.4625,0.3888888888888889],[0.4625,0.3888888888888889],[0.4625,0.3888888888888889],[0.4625,0.3888888888888889],[0.4625,0.3888888888888889],[0.4625,0.3888888888888889],[0.4625,0.3888888888888889],[0.4625,0.3888888888888889],[0.4625,0.3888888888888889],[0.4625,0.3888888888888889],[0.4625,0.3888888888888889],[0.4625,0.3888888888888889],[0.4625,0.3888888888888889],[0.4625,0.3888888888888889],[0.4625,0.3888888888888889],[0.4625,0.3888888888888889],[0.4625,0.3888888888888889],[0.4625,0.3888888888888889],[0.4625,0.3888888888888889],[0.4625,0.3888888888888889],[0.4625,0.3888888888888889],[0.4625,0.3888888888888889],[0.4625,0.3888888888888889],[0.4625,0.3888888888888889],[0.4625,0.3888888888888889],[0.4625,0.3888888888888889],[0.4625,0.3888888888888889],[0.4625,0.3888888888888889],[0.4625,0.3888888888888889],[0.4625,0.3888888888888889],[0.4625,0.3888888888888889],[0.4625,0.3888888888888889],[0.4625,0.3888888888888889],[0.4625,0.3888888888888889],[0.4625,0.3888888888888889],[0.4625,0.3888888888888889],[0.4625,0.3888888888888889],[0.4625,0.3888888888888889],[0.4625,0.3888888888888889],[0.4625,0.3888888888888889],[0.4625,0.3888888888888889],[0.4625,0.3888888888888889],[0.4625,0.3888888888888889],[0.4625,0.3888888888888889],[0.4625,0.3888888888888889],[0.4625,0.3888888888888889],[0.4625,0.3888888888888889],[0.4625,0.3888888888888889],[0.4625,0.3888888888888889],[0.4625,0.3888888888888889],[0.4625,0.3888888888888889],[0.4625,0.3888888888888889],[0.4625,0.3888888888888889],[0.4625,0.3888888888888889],[0.4625,0.3888888888888889],[0.4625,0.3888888888888889],[0.4625,0.3888888888888889],[0.4625,0.3888888888888889],[0.4625,0.3888888888888889],[0.4625,0.3888888888888889],[0.4625,0.3888888888888889],[0.4625,0.3888888888888889],[0.4625,0.3888888888888889],[0.4625,0.3888888888888889],[0.4625,0.3888888888888889],[0.4625,0.3888888888888889],[0.4625,0.3888888888888889],[0.4625,0.3888888888888889],[0.4625,0.3888888888888889],[0.4625,0.3888888888888889],[0.4625,0.3888888888888889],[0.4625,0.3888888888888889],[0.4625,0.3888888888888889],[0.4625,0.3888888888888889],[0.4625,0.3888888888888889],[0.4625,0.3888888888888889],[0.4625,0.3888888888888889],[0.4625,0.3888888888888889],[0.4625,0.3888888888888889],[0.4625,0.3888888888888889],[0.4625,0.3888888888888889],[0.4625,0.3888888888888889],[0.4625,0.3888888888888889],[0.4625,0.3888888888888889],[0.4625,0.3888888888888889],[0.4625,0.3888888888888889],[0.4625,0.3888888888888889],[0.4625,0.3888888888888889],[0.4625,0.3888888888888889],[0.4625,0.3888888888888889],[0.4625,0.3888888888888889],[0.4625,0.3888888888888889]]","[[0.27218749999999997,0.24222222222222214],[0.27218749999999997,0.24222222222222214],[0.25333333333333335,0.21222222222222226],[0.24645833333333325,0.1955555555555556],[0.2390625,0.24518518518518514],[0.23166666666666677,0.2948148148148149],[0.22468750000000004,0.262037037037037],[0.21770833333333334,0.22925925925925916],[0.21770833333333334,0.22925925925925916],[0.20708333333333329,0.22611111111111115],[0.1977083333333333,0.20407407407407416],[0.1931250000000001,0.19981481481481478],[0.18156249999999996,0.22111111111111106],[0.18395833333333325,0.23537037037037042],[0.17437500000000009,0.23629629629629634],[0.16854166666666662,0.21203703703703702],[0.16270833333333337,0.18777777777777774],[0.16927083333333334,0.20703703703703696],[0.17583333333333329,0.22629629629629638],[0.1962500000000001,0.18703703703703703],[0.1962500000000001,0.18703703703703703],[0.21541666666666662,0.16666666666666666],[0.22552083333333334,0.10407407407407415],[0.23562500000000006,0.04148148148148144],[0.24583333333333332,0.04759259259259268],[0.2560416666666666,0.053703703703703705],[0.2521874999999999,0.055740740740740785],[0.25593750000000004,0.052962962962963],[0.2341666666666666,0.018888888888888972],[0.24031250000000004,0.010370370370370412],[0.23322916666666677,0.01962962962962967],[0.22614583333333324,0.028888888888888933],[0.21229166666666663,0.04981481481481477],[0.1993750000000001,0.10388888888888893],[0.18041666666666673,0.11888888888888897],[0.14104166666666676,0.1175925925925926],[0.12447916666666667,0.12185185185185177],[0.09500000000000004,0.14074074074074075],[0.06708333333333343,0.17092592592592584],[0.06708333333333343,0.17092592592592584],[-0.0005208333333333333,0.18314814814814812],[-0.0005208333333333333,0.18314814814814812],[-0.050416666666666644,0.18703703703703703],[-0.10499999999999995,0.1866666666666666],[-0.14854166666666668,0.19907407407407407],[-0.19302083333333328,0.17833333333333326],[-0.23406250000000003,0.15851851851851856],[-0.2546875,0.15500000000000008],[-0.2921875,0.14592592592592585],[-0.32479166666666665,0.10648148148148148],[-0.33187500000000003,0.10314814814814824],[-0.3271875,0.09222222222222214],[-0.34822916666666665,0.06055555555555564],[-0.36520833333333336,0.02833333333333325],[-0.38218749999999996,-0.003888888888888931],[-0.38218749999999996,-0.003888888888888931],[-0.38739583333333333,-0.0257407407407407],[-0.38739583333333333,-0.0257407407407407],[-0.3976041666666667,-0.01592592592592597],[-0.3976041666666667,-0.01592592592592597],[-0.396875,0.007962962962962878],[-0.396875,0.007962962962962878],[-0.3892708333333334,0.010925925925925884],[-0.3892708333333334,0.010925925925925884],[-0.37875000000000003,0.01777777777777782],[-0.36437499999999995,0.01574074074074074],[-0.35,0.013703703703703662],[-0.32927083333333335,0.027962962962963005],[-0.3125,0.0418518518518519],[-0.29572916666666665,0.055740740740740785],[-0.2860416666666667,0.06111111111111111],[-0.2747916666666666,0.0338888888888888],[-0.2657291666666667,0.003888888888888931],[-0.25458333333333333,-0.009259259259259259],[-0.20083333333333328,0.011296296296296339],[-0.16145833333333334,0.020370370370370372],[-0.12177083333333331,0.03333333333333333],[-0.06749999999999995,0.06222222222222226],[-0.0015625,0.09259259259259259],[0.06437499999999995,0.12296296296296293],[0.10541666666666671,0.16518518518518527],[0.14645833333333325,0.20314814814814824],[0.17083333333333334,0.19648148148148153],[0.20906250000000004,0.24222222222222214],[0.2021874999999999,0.27092592592592585],[0.18979166666666672,0.30833333333333335],[0.17708333333333334,0.3418518518518519],[0.14249999999999996,0.3725925925925927],[0.10083333333333329,0.407037037037037],[0.07947916666666661,0.4094444444444445],[0.07833333333333338,0.39814814814814814],[0.06802083333333328,0.397037037037037],[0.065625,0.4292592592592592],[0.065625,0.4292592592592592],[0.049374999999999974,0.40907407407407403],[0.03979166666666671,0.419074074074074],[0.03677083333333329,0.4053703703703703],[0.03677083333333329,0.4053703703703703],[0.05583333333333336,0.35833333333333334],[0.09249999999999996,0.3235185185185186],[0.09249999999999996,0.3235185185185186],[0.12979166666666658,0.3333333333333333],[0.12979166666666658,0.3333333333333333],[0.15322916666666658,0.3435185185185185],[0.18114583333333342,0.35259259259259257],[0.1959374999999999,0.3827777777777779],[0.2107291666666666,0.412962962962963],[0.2203125,0.4270370370370371],[0.23145833333333338,0.4105555555555556],[0.23822916666666671,0.4244444444444445],[0.23489583333333333,0.46333333333333343],[0.21520833333333325,0.5003703703703705],[0.20499999999999996,0.4668518518518519],[0.18604166666666658,0.5057407407407408],[0.18604166666666658,0.5057407407407408],[0.15416666666666667,0.5527777777777778],[0.1553124999999999,0.5842592592592593],[0.1428124999999999,0.5712962962962963],[0.1397916666666667,0.5509259259259259],[0.12104166666666671,0.5377777777777777],[0.109375,0.5209259259259258],[0.08416666666666663,0.5164814814814814],[0.0740624999999999,0.5109259259259259],[0.05385416666666672,0.5312962962962963],[0.03708333333333336,0.5075925925925926],[0.03166666666666664,0.4733333333333334],[0.012083333333333357,0.4327777777777779],[0.00614583333333331,0.4366666666666666],[-0.007500000000000047,0.4624074074074075],[-0.043020833333333286,0.43148148148148147],[-0.08229166666666667,0.3888888888888889],[-0.11531250000000005,0.3431481481481481],[-0.14281250000000004,0.290925925925926],[-0.1592708333333333,0.23574074074074067],[-0.17687499999999995,0.1838888888888888],[-0.1938541666666667,0.15648148148148147],[-0.20739583333333336,0.12388888888888884],[-0.20739583333333336,0.12388888888888884],[-0.22385416666666663,0.07888888888888893],[-0.22854166666666664,0.04888888888888885],[-0.20385416666666673,0.06870370370370374],[-0.17916666666666667,0.08851851851851844],[-0.17916666666666667,0.08851851851851844],[-0.1622916666666666,0.10629629629629625],[-0.14187500000000006,0.144074074074074],[-0.13250000000000003,0.18481481481481474],[-0.12322916666666663,0.24611111111111106],[-0.11749999999999995,0.28648148148148156],[-0.09812500000000005,0.3066666666666667],[-0.07906249999999998,0.3557407407407408],[-0.06333333333333328,0.37333333333333335],[-0.05333333333333338,0.35759259259259263],[-0.043333333333333356,0.3418518518518519],[-0.03458333333333338,0.2992592592592593],[-0.03708333333333336,0.27259259259259266],[-0.027291666666666714,0.26740740740740737],[-0.01739583333333338,0.24166666666666667],[-0.000833333333333286,0.2170370370370371],[0.0007291666666667141,0.21796296296296305],[0.0034374999999999527,0.15759259259259265],[0.0034374999999999527,0.15759259259259265],[0.001145833333333357,0.11537037037037029],[0.001145833333333357,0.11537037037037029],[-0.009375,0.102962962962963],[-0.009583333333333381,0.11277777777777774],[-0.005416666666666714,0.15055555555555547],[-0.005416666666666714,0.15055555555555547],[-0.0034374999999999527,0.1287037037037037],[-0.02000000000000005,0.08611111111111111],[-0.03166666666666664,0.042407407407407366],[-0.04718749999999995,0.013333333333333417],[-0.06375000000000004,-0.02240740740740745],[-0.08229166666666667,-0.04796296296296292],[-0.10083333333333329,-0.0735185185185185],[-0.096875,-0.048333333333333374],[-0.096875,-0.048333333333333374],[-0.10395833333333329,-0.0816666666666667],[-0.10395833333333329,-0.0816666666666667],[-0.10531250000000002,-0.0653703703703704],[-0.10531250000000002,-0.0653703703703704],[-0.09708333333333338,-0.030000000000000086],[-0.09708333333333338,-0.030000000000000086],[-0.08354166666666671,-0.028703703703703703],[-0.08354166666666671,-0.028703703703703703],[-0.07760416666666667,-0.0477777777777777],[-0.0796875,-0.05277777777777778],[-0.08416666666666663,-0.07314814814814814],[-0.07208333333333337,-0.06148148148148146],[-0.04458333333333329,-0.044444444444444446],[-0.025625000000000023,-0.07462962962962966],[-0.025729166666666713,-0.026851851851851852],[-0.035000000000000024,-0.05944444444444449],[-0.041458333333333285,-0.044444444444444446],[-0.04697916666666669,0.003888888888888931],[-0.05322916666666669,-0.0022222222222223064],[-0.05427083333333336,-0.03814814814814819],[-0.04229166666666669,-0.04296296296296305],[-0.051250000000000046,-0.03777777777777774],[-0.06770833333333333,-0.04759259259259268],[-0.08239583333333336,-0.06092592592592588],[-0.07833333333333338,-0.10759259259259263],[-0.07875000000000003,-0.1383333333333333],[-0.08166666666666664,-0.21203703703703702],[-0.0860416666666667,-0.2855555555555555],[-0.09031250000000005,-0.2442592592592592],[-0.0828125,-0.16925925925925922],[-0.0796875,-0.15333333333333335],[-0.06197916666666667,-0.07981481481481485],[-0.06510416666666667,-0.06407407407407412],[-0.05239583333333329,-0.04388888888888897],[-0.030312500000000023,-0.06277777777777774],[-0.033854166666666664,-0.07111111111111107],[-0.035520833333333356,-0.022592592592592678],[-0.03177083333333333,-0.030000000000000086],[-0.01427083333333338,-0.047037037037036995],[-0.030312500000000023,-0.07592592592592592],[-0.04468749999999998,-0.11129629629629634],[-0.04468749999999998,-0.11129629629629634],[-0.06041666666666667,-0.2175925925925926],[-0.06041666666666667,-0.2175925925925926],[-0.05916666666666662,-0.30777777777777776],[-0.05916666666666662,-0.30777777777777776],[-0.06979166666666667,-0.3744444444444444],[-0.09510416666666661,-0.34944444444444445],[-0.09333333333333335,-0.3983333333333334],[-0.10083333333333329,-0.4674074074074074],[-0.10833333333333334,-0.4583333333333333],[-0.11687500000000005,-0.4551851851851852],[-0.1,-0.5014814814814815],[-0.0890625,-0.5333333333333333],[-0.0829166666666667,-0.5592592592592592],[-0.08302083333333338,-0.5155555555555555],[-0.08885416666666662,-0.4962962962962963],[-0.06458333333333334,-0.5437037037037038],[-0.033854166666666664,-0.512962962962963],[-0.016562499999999977,-0.52],[-0.0032291666666666905,-0.5494444444444444],[0.0007291666666667141,-0.6022222222222222],[0.00302083333333331,-0.6324074074074074],[0.005729166666666666,-0.6259259259259259],[0.01260416666666669,-0.6018518518518519],[0.02166666666666662,-0.596111111111111],[0.02166666666666662,-0.596111111111111],[0.042499999999999954,-0.5066666666666667],[0.05406249999999998,-0.42481481481481476],[0.051041666666666666,-0.4359259259259259],[0.06895833333333339,-0.38055555555555554],[0.08687500000000009,-0.3248148148148148],[0.10666666666666676,-0.257962962962963],[0.10666666666666676,-0.257962962962963],[0.13697916666666668,-0.21240740740740738],[0.15791666666666657,-0.15407407407407406],[0.17468750000000005,-0.11333333333333331],[0.19072916666666656,-0.053148148148148125],[0.19072916666666656,-0.053148148148148125],[0.19458333333333327,-0.07037037037037037],[0.1881249999999999,-0.08981481481481482],[0.1944791666666667,-0.010185185185185186],[0.20437500000000006,0.011111111111111112],[0.21416666666666656,0.03314814814814811],[0.22208333333333338,0.04407407407407399],[0.21343750000000009,0.08203703703703695],[0.21624999999999991,0.0588888888888888],[0.21416666666666656,0.06592592592592597],[0.20666666666666675,0.027037037037037078],[0.20625,0.024074074074074074],[0.2209374999999999,0.04722222222222222],[0.23739583333333342,0.06425925925925935],[0.24614583333333329,0.08796296296296297],[0.25499999999999995,0.11055555555555564],[0.25499999999999995,0.11055555555555564],[0.25968749999999996,0.1242592592592593],[0.26833333333333326,0.13944444444444437],[0.27531249999999996,0.21074074074074065],[0.2945833333333333,0.2535185185185185],[0.31197916666666664,0.31925925925925924],[0.3151041666666667,0.3446296296296297],[0.3008333333333333,0.33499999999999996],[0.2865624999999999,0.3253703703703705],[0.27104166666666674,0.3050000000000001],[0.27104166666666674,0.3050000000000001],[0.2555208333333333,0.28462962962962973],[0.2555208333333333,0.28462962962962973],[0.24833333333333343,0.26518518518518525],[0.24031250000000004,0.26666666666666666],[0.24031250000000004,0.26666666666666666],[0.23083333333333325,0.2824074074074074],[0.21166666666666673,0.2733333333333334],[0.19562499999999997,0.24962962962962953],[0.18718750000000003,0.22407407407407406],[0.17541666666666675,0.23481481481481473],[0.16364583333333324,0.2455555555555556],[0.16364583333333324,0.2455555555555556],[0.17468750000000005,0.24074074074074073],[0.17468750000000005,0.24074074074074073],[0.18302083333333338,0.244074074074074],[0.18302083333333338,0.244074074074074],[0.16541666666666663,0.28277777777777785],[0.16541666666666663,0.28277777777777785],[0.13718750000000005,0.2975925925925927],[0.13718750000000005,0.2975925925925927],[0.07552083333333333,0.22833333333333325],[0.07552083333333333,0.22833333333333325],[0.019687499999999976,0.22240740740740744],[0.019687499999999976,0.22240740740740744],[-0.036458333333333336,0.2772222222222223],[-0.036458333333333336,0.2772222222222223],[-0.10479166666666669,0.28703703703703703],[-0.10479166666666669,0.28703703703703703],[-0.17177083333333332,0.27907407407407414],[-0.17177083333333332,0.27907407407407414],[-0.23697916666666666,0.25333333333333324],[-0.23697916666666666,0.25333333333333324],[-0.3186458333333333,0.2764814814814814],[-0.3186458333333333,0.2764814814814814],[-0.3992708333333333,0.2564814814814815],[-0.44989583333333333,0.23981481481481481],[-0.49333333333333335,0.2064814814814815],[-0.513125,0.19740740740740745],[-0.5364583333333334,0.14814814814814814],[-0.5473958333333333,0.06333333333333342],[-0.5456249999999999,0.06555555555555552],[-0.54375,0.07370370370370362],[-0.5423958333333334,0.08666666666666659],[-0.5420833333333334,0.06333333333333342],[-0.5502083333333334,0.039074074074074115],[-0.5502083333333334,0.039074074074074115],[-0.5704166666666667,0.0007407407407406986],[-0.5759375,-0.013333333333333417],[-0.560625,0.03629629629629634],[-0.5453125,0.08592592592592588],[-0.5123958333333333,0.12777777777777777],[-0.4796875,0.10425925925925918],[-0.4469791666666667,0.08074074074074078],[-0.39166666666666666,0.10111111111111115],[-0.33166666666666667,0.1235185185185186],[-0.33166666666666667,0.1235185185185186],[-0.2594791666666667,0.17518518518518522],[-0.17854166666666665,0.20999999999999996],[-0.10562499999999998,0.24240740740740738],[-0.10562499999999998,0.24240740740740738],[-0.03822916666666672,0.21518518518518526],[0.027187500000000024,0.19740740740740745],[0.06979166666666667,0.17296296296296293],[0.06979166666666667,0.17296296296296293],[0.11208333333333324,0.17185185185185176],[0.15093750000000009,0.20037037037037045],[0.17687499999999995,0.24666666666666676],[0.19812500000000005,0.290925925925926],[0.2163541666666667,0.33425925925925926],[0.2296875,0.37777777777777777],[0.23145833333333338,0.37537037037037047],[0.2287499999999999,0.40666666666666673],[0.22906250000000009,0.46166666666666656],[0.2273958333333333,0.524074074074074],[0.23583333333333342,0.5894444444444443],[0.24770833333333328,0.6251851851851852],[0.24864583333333337,0.6122222222222222],[0.24520833333333342,0.6040740740740742],[0.24270833333333333,0.6035185185185185],[0.22916666666666666,0.609074074074074],[0.23666666666666672,0.6505555555555554],[0.240625,0.6912962962962962],[0.240625,0.6912962962962962],[0.24166666666666667,0.721111111111111],[0.24177083333333324,0.7287037037037037],[0.21822916666666667,0.7233333333333334],[0.1890625,0.7153703703703703],[0.15989583333333332,0.7074074074074074],[0.13614583333333338,0.6846296296296297],[0.11239583333333343,0.6618518518518518],[0.08458333333333339,0.6531481481481483],[0.03875000000000005,0.6253703703703705],[0.020729166666666642,0.6088888888888888],[0.002499999999999976,0.5862962962962963],[-0.0048958333333333805,0.5238888888888888],[0.01260416666666669,0.47314814814814815],[0.04208333333333331,0.4418518518518519],[0.07156250000000004,0.4105555555555556],[0.07333333333333343,0.4083333333333333],[0.07510416666666657,0.40611111111111103],[0.09197916666666663,0.38370370370370377],[0.11072916666666661,0.3907407407407407],[0.11927083333333334,0.362962962962963],[0.1212500000000001,0.32592592592592595],[0.11333333333333329,0.3398148148148148],[0.11333333333333329,0.3398148148148148],[0.08479166666666677,0.39296296296296307],[0.08093750000000005,0.4075925925925926],[0.07708333333333334,0.4222222222222222],[0.1078125,0.4170370370370371],[0.1078125,0.4170370370370371],[0.13718750000000005,0.40851851851851856],[0.13718750000000005,0.40851851851851856],[0.1694791666666667,0.36944444444444446],[0.19833333333333342,0.3431481481481481],[0.2109375,0.34018518518518526],[0.24020833333333325,0.33555555555555566],[0.24020833333333325,0.33555555555555566],[0.27010416666666665,0.33481481481481473],[0.27010416666666665,0.33481481481481473],[0.29708333333333337,0.2862962962962963],[0.29677083333333343,0.2655555555555555],[0.29697916666666657,0.23870370370370367],[0.28927083333333337,0.2125925925925925],[0.2829166666666666,0.18981481481481483],[0.2712500000000001,0.17962962962962964],[0.2673958333333334,0.15185185185185185],[0.2618750000000001,0.13648148148148156],[0.2509375000000001,0.10203703703703708],[0.2352083333333333,0.09314814814814806],[0.24114583333333334,0.08444444444444449],[0.23270833333333343,0.09462962962962967],[0.2321875000000001,0.12074074074074083],[0.22406249999999991,0.10500000000000008],[0.21593749999999995,0.08925925925925934],[0.21583333333333338,0.12537037037037047],[0.22062499999999996,0.1675925925925926],[0.22927083333333323,0.1983333333333334],[0.23322916666666677,0.24962962962962953],[0.2413541666666667,0.2825925925925926],[0.23989583333333328,0.2800000000000001],[0.2490624999999999,0.2524074074074073],[0.253125,0.25925925925925924],[0.253125,0.25925925925925924],[0.25020833333333337,0.2740740740740741],[0.25020833333333337,0.2740740740740741],[0.26197916666666665,0.2933333333333333],[0.26197916666666665,0.2933333333333333],[0.2648958333333333,0.28481481481481474],[0.2648958333333333,0.28481481481481474],[0.25458333333333344,0.2675925925925926],[0.24468750000000009,0.2462962962962963],[0.24468750000000009,0.2462962962962963],[0.23156249999999995,0.22296296296296292],[0.21843750000000003,0.19962962962962955],[0.2118750000000001,0.2124074074074075],[0.2118750000000001,0.2124074074074075],[0.20645833333333338,0.20537037037037034],[0.20645833333333338,0.20537037037037034],[0.1884375000000001,0.17851851851851847],[0.1884375000000001,0.17851851851851847],[0.18197916666666672,0.22074074074074082],[0.18197916666666672,0.22074074074074082],[0.16927083333333334,0.23777777777777773],[0.16927083333333334,0.23777777777777773],[0.1443749999999999,0.2537037037037037],[0.1443749999999999,0.2537037037037037],[0.12406249999999991,0.2116666666666666],[0.1134375000000001,0.16074074074074066],[0.10812499999999996,0.1051851851851851],[0.10812499999999996,0.1051851851851851],[0.09052083333333343,0.058333333333333334],[0.06645833333333329,0.017592592592592594],[0.04708333333333338,0.007592592592592635],[0.04718749999999995,-0.04870370370370362],[0.042499999999999954,-0.16259259259259262],[0.029375000000000047,-0.25574074074074077],[0.029375000000000047,-0.25574074074074077],[0.05375000000000003,-0.34870370370370374],[0.06833333333333323,-0.3688888888888889],[0.06833333333333323,-0.3688888888888889],[0.09562499999999995,-0.37462962962962965],[0.12291666666666666,-0.3803703703703703],[0.115625,-0.39037037037037037],[0.14583333333333334,-0.42314814814814816],[0.1724999999999999,-0.4757407407407407],[0.17739583333333328,-0.5022222222222222],[0.21104166666666657,-0.47555555555555556],[0.2241666666666667,-0.4735185185185185],[0.21520833333333325,-0.4766666666666666],[0.24739583333333334,-0.44592592592592595],[0.24187500000000003,-0.42888888888888893],[0.2359375,-0.45685185185185184],[0.2768749999999999,-0.4892592592592592],[0.28020833333333334,-0.44592592592592595],[0.28125,-0.3937037037037037],[0.2938541666666666,-0.34574074074074074],[0.3007291666666667,-0.367037037037037],[0.3007291666666667,-0.367037037037037],[0.32697916666666677,-0.34592592592592597],[0.36572916666666655,-0.34314814814814815],[0.3421875,-0.3831481481481481],[0.3586458333333333,-0.40777777777777774],[0.3796875,-0.37296296296296294],[0.39812500000000006,-0.33555555555555555],[0.4166666666666667,-0.35111111111111115],[0.4273958333333333,-0.3727777777777778],[0.44510416666666663,-0.3718518518518519],[0.4443749999999999,-0.3466666666666666],[0.44479166666666664,-0.33925925925925926],[0.4359375,-0.3122222222222223],[0.4617708333333333,-0.28851851851851856],[0.47062499999999996,-0.2687037037037037],[0.47531249999999997,-0.2633333333333333],[0.4616666666666667,-0.2088888888888889],[0.44802083333333326,-0.1544444444444444],[0.4493750000000001,-0.1259259259259259],[0.44375,-0.12000000000000002],[0.4405208333333334,-0.10407407407407405],[0.43385416666666665,-0.0977777777777778],[0.43291666666666656,-0.11074074074074076],[0.42520833333333335,-0.051111111111111156],[0.409375,0.009259259259259259],[0.409375,0.009259259259259259],[0.4070833333333333,0.023148148148148147],[0.41166666666666674,-0.013888888888888888],[0.4162499999999999,-0.05092592592592592],[0.4133333333333333,-0.03888888888888889],[0.40520833333333334,-0.05462962962962963],[0.4002083333333334,-0.060555555555555536],[0.39249999999999996,-0.05129629629629638],[0.36687500000000006,0.006851851851851936],[0.36687500000000006,-0.03814814814814819],[0.36687500000000006,-0.08314814814814811],[0.36479166666666674,-0.10240740740740743],[0.3767708333333334,-0.12240740740740745],[0.37447916666666664,-0.13240740740740742],[0.36572916666666655,-0.12925925925925927],[0.36770833333333336,-0.13055555555555556],[0.36739583333333337,-0.1374074074074074],[0.36739583333333337,-0.1374074074074074],[0.3759375000000001,-0.10351851851851848],[0.3820833333333333,-0.15055555555555558],[0.36989583333333326,-0.17314814814814813],[0.35750000000000004,-0.1983333333333334],[0.31239583333333343,-0.1294444444444444],[0.2672916666666666,-0.060555555555555536],[0.25760416666666663,-0.027037037037037078],[0.2546875,-0.02370370370370362],[0.2671875,-0.01592592592592597],[0.2796875,-0.008148148148148106],[0.26895833333333335,-0.04407407407407399],[0.2695833333333333,-0.030000000000000086],[0.26802083333333326,0.04296296296296305],[0.26708333333333345,0.11611111111111119],[0.28156249999999994,0.09944444444444453],[0.28156249999999994,0.09944444444444453],[0.2990624999999999,0.10111111111111115],[0.28916666666666657,0.13481481481481472],[0.27927083333333325,0.1685185185185185],[0.2491666666666667,0.23629629629629634],[0.2275000000000001,0.2831481481481481],[0.2365624999999999,0.3205555555555556],[0.24562499999999995,0.35796296296296287],[0.2428124999999999,0.3274074074074073],[0.25656249999999997,0.2898148148148148],[0.28395833333333326,0.24685185185185177],[0.30791666666666656,0.18629629629629635],[0.3381249999999999,0.11907407407407399],[0.36041666666666666,0.051666666666666625],[0.3723958333333333,-0.025370370370370456],[0.3865624999999999,-0.06777777777777783],[0.39052083333333343,-0.10333333333333336],[0.39083333333333337,-0.14759259259259258],[0.41520833333333323,-0.1911111111111111],[0.4235416666666666,-0.18925925925925924],[0.4235416666666666,-0.18925925925925924],[0.42218749999999994,-0.1559259259259259],[0.41947916666666674,-0.14648148148148152],[0.41947916666666674,-0.14648148148148152],[0.41677083333333326,-0.13703703703703704],[0.4101041666666667,-0.10129629629629627],[0.4101041666666667,-0.10129629629629627],[0.4101041666666667,-0.06111111111111111],[0.4101041666666667,-0.06111111111111111],[0.39645833333333325,-0.027407407407407325],[0.39645833333333325,-0.027407407407407325],[0.3785416666666668,-0.030000000000000086],[0.3745833333333332,0.012962962962962963],[0.35927083333333343,0.055740740740740785],[0.3433333333333332,0.06129629629629634],[0.3277083333333332,0.056666666666666705],[0.31614583333333335,0.05944444444444449],[0.3037499999999999,0.08777777777777773],[0.30322916666666655,0.09000000000000004],[0.3037499999999999,0.1051851851851851],[0.3232291666666666,0.04407407407407399],[0.3342708333333334,0.06925925925925921],[0.3349999999999999,0.05759259259259263],[0.3349999999999999,0.05759259259259263],[0.33645833333333336,0.026481481481481398],[0.33645833333333336,0.026481481481481398],[0.3263541666666666,-0.005370370370370328],[0.32302083333333326,-0.053148148148148125],[0.30520833333333336,-0.06314814814814819],[0.2882291666666667,-0.09870370370370372],[0.28843750000000007,-0.11944444444444445],[0.29052083333333345,-0.1542592592592593],[0.2672916666666666,-0.1301851851851852],[0.2595833333333334,-0.17685185185185184],[0.24749999999999991,-0.2338888888888889],[0.23552083333333323,-0.25685185185185183],[0.24072916666666658,-0.24074074074074073],[0.25020833333333337,-0.22629629629629627],[0.2537499999999999,-0.2125925925925926],[0.2513541666666666,-0.21351851851851855],[0.23177083333333334,-0.22925925925925927],[0.23802083333333332,-0.2866666666666667],[0.25364583333333335,-0.3338888888888889],[0.26666666666666666,-0.3175925925925926],[0.27802083333333344,-0.3020370370370371],[0.28708333333333325,-0.2531481481481481],[0.2867708333333333,-0.23499999999999996],[0.28010416666666677,-0.22814814814814813],[0.2915625000000001,-0.24259259259259258],[0.30614583333333345,-0.2338888888888889],[0.3207291666666668,-0.22518518518518524],[0.3133333333333333,-0.2101851851851852],[0.2984375,-0.14074074074074075],[0.2833333333333333,-0.11407407407407412],[0.27489583333333345,-0.09314814814814817],[0.2820833333333333,-0.11055555555555553],[0.2794791666666666,-0.15648148148148147],[0.2794791666666666,-0.15648148148148147],[0.27374999999999994,-0.16925925925925922],[0.26229166666666665,-0.1838888888888889],[0.27364583333333337,-0.22296296296296292],[0.2741666666666667,-0.22925925925925927],[0.28177083333333336,-0.25092592592592594],[0.2930208333333333,-0.31962962962962965],[0.3042708333333332,-0.3883333333333333],[0.3077083333333334,-0.3772222222222222],[0.3011458333333332,-0.3901851851851852],[0.3029166666666666,-0.355],[0.30281250000000004,-0.3183333333333333],[0.30281250000000004,-0.3183333333333333],[0.31354166666666666,-0.28944444444444445],[0.3042708333333332,-0.2544444444444444],[0.2976041666666667,-0.26185185185185184]]","[[0.27218749999999997,0.24222222222222214,0.0003000001907338401],[0.27218749999999997,0.24222222222222214,0.050800000190733385],[0.25333333333333335,0.21222222222222226,0.06090000009536567],[0.24645833333333325,0.1955555555555556,0.07709999990463245],[0.2390625,0.24518518518518514,0.09369999980926025],[0.23166666666666677,0.2948148148148149,0.11230000019073572],[0.22468750000000004,0.262037037037037,0.1270999999046296],[0.21770833333333334,0.22925925925925916,0.14669999980926463],[0.21770833333333334,0.22925925925925916,0.16080000019073282],[0.20708333333333329,0.22611111111111115,0.17709999990462677],[0.1977083333333333,0.20407407407407416,0.19380000019073407],[0.1931250000000001,0.19981481481481478,0.2133000001907348],[0.18156249999999996,0.22111111111111106,0.2271999998092653],[0.18395833333333325,0.23537037037037042,0.24380000019073123],[0.17437500000000009,0.23629629629629634,0.2605000000000004],[0.16854166666666662,0.21203703703703702,0.2770999999046282],[0.16270833333333337,0.18777777777777774,0.2938000001907355],[0.16927083333333334,0.20703703703703696,0.3104000000953633],[0.17583333333333329,0.22629629629629638,0.32709999990463245],[0.1962500000000001,0.18703703703703703,0.34380000019073265],[0.1962500000000001,0.18703703703703703,0.3604999999999947],[0.21541666666666662,0.16666666666666666,0.3771999998092639],[0.22552083333333334,0.10407407407407415,0.3938000001907298],[0.23562500000000006,0.04148148148148144,0.41240000009536715],[0.24583333333333332,0.04759259259259268,0.42709999990462677],[0.2560416666666666,0.053703703703703705,0.4444000000953636],[0.2521874999999999,0.055740740740740785,0.4610999999046328],[0.25593750000000004,0.052962962962963,0.47709999990463103],[0.2341666666666666,0.018888888888888972,0.49369999980926593],[0.24031250000000004,0.010370370370370412,0.5111999998092642],[0.23322916666666677,0.01962962962962967,0.5270999999046282],[0.22614583333333324,0.028888888888888933,0.5438000001907355],[0.21229166666666663,0.04981481481481477,0.5604999999999976],[0.1993750000000001,0.10388888888888893,0.5771999998092596],[0.18041666666666673,0.11888888888888897,0.5938000001907326],[0.14104166666666676,0.1175925925925926,0.6104000000953675],[0.12447916666666667,0.12185185185185177,0.6270999999046296],[0.09500000000000004,0.14074074074074075,0.6438000001907298],[0.06708333333333343,0.17092592592592584,0.6709000000953651],[0.06708333333333343,0.17092592592592584,0.6828000001907313],[-0.0005208333333333333,0.18314814814814812,0.695999999999998],[-0.0005208333333333333,0.18314814814814812,0.7104999999999961],[-0.050416666666666644,0.18703703703703703,0.727099999904631],[-0.10499999999999995,0.1866666666666666,0.7449000000953632],[-0.14854166666666668,0.19907407407407407,0.7605000000000004],[-0.19302083333333328,0.17833333333333326,0.777400000095362],[-0.23406250000000003,0.15851851851851856,0.7938000001907355],[-0.2546875,0.15500000000000008,0.8104000000953633],[-0.2921875,0.14592592592592585,0.8269999999999982],[-0.32479166666666665,0.10648148148148148,0.8438000001907326],[-0.33187500000000003,0.10314814814814824,0.8604999999999947],[-0.3271875,0.09222222222222214,0.8774999999999977],[-0.34822916666666665,0.06055555555555564,0.8938000001907298],[-0.36520833333333336,0.02833333333333325,0.9151999998092606],[-0.38218749999999996,-0.003888888888888931,0.9329999999999998],[-0.38218749999999996,-0.003888888888888931,0.9439000000953683],[-0.38739583333333333,-0.0257407407407407,0.9606999998092647],[-0.38739583333333333,-0.0257407407407407,0.977099999904631],[-0.3976041666666667,-0.01592592592592597,0.9938000001907312],[-0.3976041666666667,-0.01592592592592597,1.0104000000953661],[-0.396875,0.007962962962962878,1.0271999998092625],[-0.396875,0.007962962962962878,1.0439000000953627],[-0.3892708333333334,0.010925925925925884,1.0604999999999976],[-0.3892708333333334,0.010925925925925884,1.0770999999046325],[-0.37875000000000003,0.01777777777777782,1.093900000095367],[-0.36437499999999995,0.01574074074074074,1.1104000000953675],[-0.35,0.013703703703703662,1.1273000001907292],[-0.32927083333333335,0.027962962962963005,1.1438000001907298],[-0.3125,0.0418518518518519,1.160499999999999],[-0.29572916666666665,0.055740740740740785,1.1775999999046292],[-0.2860416666666667,0.06111111111111111,1.193800000190734],[-0.2747916666666666,0.0338888888888888,1.2104999999999961],[-0.2657291666666667,0.003888888888888931,1.2271999998092653],[-0.25458333333333333,-0.009259259259259259,1.2438000001907312],[-0.20083333333333328,0.011296296296296339,1.2605000000000004],[-0.16145833333333334,0.020370370370370372,1.2770999999046282],[-0.12177083333333331,0.03333333333333333,1.2938000001907355],[-0.06749999999999995,0.06222222222222226,1.3104999999999976],[-0.0015625,0.09259259259259259,1.3270999999046325],[0.06437499999999995,0.12296296296296293,1.3438000001907326],[0.10541666666666671,0.16518518518518527,1.3604000000953675],[0.14645833333333325,0.20314814814814824,1.3771999998092639],[0.17083333333333334,0.19648148148148153,1.3936999998092645],[0.20906250000000004,0.24222222222222214,1.4104000000953647],[0.2021874999999999,0.27092592592592585,1.427199999809261],[0.18979166666666672,0.30833333333333335,1.4443000001907293],[0.17708333333333334,0.3418518518518519,1.4604999999999961],[0.14249999999999996,0.3725925925925927,1.477099999904631],[0.10083333333333329,0.407037037037037,1.4938000001907312],[0.07947916666666661,0.4094444444444445,1.5109000000953614],[0.07833333333333338,0.39814814814814814,1.5270999999046282],[0.06802083333333328,0.397037037037037,1.5438000001907355],[0.065625,0.4292592592592592,1.5604999999999976],[0.065625,0.4292592592592592,1.5770999999046325],[0.049374999999999974,0.40907407407407403,1.5938000001907326],[0.03979166666666671,0.419074074074074,1.6109000000953628],[0.03677083333333329,0.4053703703703703,1.6270999999046296],[0.03677083333333329,0.4053703703703703,1.6438000001907298],[0.05583333333333336,0.35833333333333334,1.660499999999999],[0.09249999999999996,0.3235185185185186,1.6784000000953654],[0.09249999999999996,0.3235185185185186,1.6939999999999955],[0.12979166666666658,0.3333333333333333,1.7105999999046304],[0.12979166666666658,0.3333333333333333,1.727099999904631],[0.15322916666666658,0.3435185185185185,1.7438000001907312],[0.18114583333333342,0.35259259259259257,1.7624999999999957],[0.1959374999999999,0.3827777777777779,1.777400000095362],[0.2107291666666666,0.412962962962963,1.793699999809263],[0.2203125,0.4270370370370371,1.8104999999999976],[0.23145833333333338,0.4105555555555556,1.8270999999046325],[0.23822916666666671,0.4244444444444445,1.844699999809265],[0.23489583333333333,0.46333333333333343,1.8623000001907357],[0.21520833333333325,0.5003703703703705,1.8769999999999953],[0.20499999999999996,0.4668518518518519,1.8988000001907324],[0.18604166666666658,0.5057407407407408,1.914199999809263],[0.18604166666666658,0.5057407407407408,1.9273000001907334],[0.15416666666666667,0.5527777777777778,1.9439999999999955],[0.1553124999999999,0.5842592592592593,1.9659000000953668],[0.1428124999999999,0.5712962962962963,1.981499999999997],[0.1397916666666667,0.5509259259259259,1.9969999999999999],[0.12104166666666671,0.5377777777777777,2.01259999990463],[0.109375,0.5209259259259258,2.029999999999994],[0.08416666666666663,0.5164814814814814,2.0439000000953627],[0.0740624999999999,0.5109259259259259,2.0615999999046295],[0.05385416666666672,0.5312962962962963,2.0774000000953663],[0.03708333333333336,0.5075925925925926,2.0964000000953646],[0.03166666666666664,0.4733333333333334,2.1119000000953676],[0.012083333333333357,0.4327777777777779,2.1274999999999977],[0.00614583333333331,0.4366666666666666,2.1465999999046304],[-0.007500000000000047,0.4624074074074075,2.163800000190733],[-0.043020833333333286,0.43148148148148147,2.1810999999046317],[-0.08229166666666667,0.3888888888888889,2.1983000001907342],[-0.11531250000000005,0.3431481481481481,2.2131999998092624],[-0.14281250000000004,0.290925925925926,2.228199999809263],[-0.1592708333333333,0.23574074074074067,2.2439000000953655],[-0.17687499999999995,0.1838888888888888,2.2638000001907344],[-0.1938541666666667,0.15648148148148147,2.2819999999999965],[-0.20739583333333336,0.12388888888888884,2.2983000001907357],[-0.20739583333333336,0.12388888888888884,2.3104000000953633],[-0.22385416666666663,0.07888888888888893,2.330999999999996],[-0.22854166666666664,0.04888888888888885,2.3480999999046333],[-0.20385416666666673,0.06870370370370374,2.3644999999999996],[-0.17916666666666667,0.08851851851851844,2.384999999999998],[-0.17916666666666667,0.08851851851851844,2.3939999999999984],[-0.1622916666666666,0.10629629629629625,2.410499999999999],[-0.14187500000000006,0.144074074074074,2.4273000001907334],[-0.13250000000000003,0.18481481481481474,2.443800000190734],[-0.12322916666666663,0.24611111111111106,2.460400000095362],[-0.11749999999999995,0.28648148148148156,2.477099999904631],[-0.09812500000000005,0.3066666666666667,2.4938000001907312],[-0.07906249999999998,0.3557407407407408,2.510699999809262],[-0.06333333333333328,0.37333333333333335,2.530300000190735],[-0.05333333333333338,0.35759259259259263,2.5460999999046265],[-0.043333333333333356,0.3418518518518519,2.562900000095368],[-0.03458333333333338,0.2992592592592593,2.5804000000953664],[-0.03708333333333336,0.27259259259259266,2.5959999999999965],[-0.027291666666666714,0.26740740740740737,2.610599999904629],[-0.01739583333333338,0.24166666666666667,2.6269999999999953],[-0.000833333333333286,0.2170370370370371,2.6439999999999984],[0.0007291666666667141,0.21796296296296305,2.660499999999999],[0.0034374999999999527,0.15759259259259265,2.6770999999046268],[0.0034374999999999527,0.15759259259259265,2.693800000190734],[0.001145833333333357,0.11537037037037029,2.7105999999046304],[0.001145833333333357,0.11537037037037029,2.727099999904631],[-0.009375,0.102962962962963,2.7471999998092613],[-0.009583333333333381,0.11277777777777774,2.7616999998092595],[-0.005416666666666714,0.15055555555555547,2.7798000001907326],[-0.005416666666666714,0.15055555555555547,2.8034000000953654],[-0.0034374999999999527,0.1287037037037037,2.8104999999999976],[-0.02000000000000005,0.08611111111111111,2.8271999998092596],[-0.03166666666666664,0.042407407407407366,2.843900000095367],[-0.04718749999999995,0.013333333333333417,2.8636999998092634],[-0.06375000000000004,-0.02240740740740745,2.878300000190734],[-0.08229166666666667,-0.04796296296296292,2.893900000095364],[-0.10083333333333329,-0.0735185185185185,2.9136999998092605],[-0.096875,-0.048333333333333374,2.927900000095363],[-0.096875,-0.048333333333333374,2.9439000000953683],[-0.10395833333333329,-0.0816666666666667,2.9609000000953642],[-0.10395833333333329,-0.0816666666666667,2.9809000000953674],[-0.10531250000000002,-0.0653703703703704,2.9939999999999998],[-0.10531250000000002,-0.0653703703703704,3.0105999999046276],[-0.09708333333333338,-0.030000000000000086,3.0319999999999965],[-0.09708333333333338,-0.030000000000000086,3.0439000000953627],[-0.08354166666666671,-0.028703703703703703,3.060699999809266],[-0.08354166666666671,-0.028703703703703703,3.0798000001907297],[-0.07760416666666667,-0.0477777777777777,3.093900000095367],[-0.0796875,-0.05277777777777778,3.1106999998092633],[-0.08416666666666663,-0.07314814814814814,3.1291999998092592],[-0.07208333333333337,-0.06148148148148146,3.144599999904628],[-0.04458333333333329,-0.044444444444444446,3.1605999999046333],[-0.025625000000000023,-0.07462962962962966,3.179300000190736],[-0.025729166666666713,-0.026851851851851852,3.1939000000953683],[-0.035000000000000024,-0.05944444444444449,3.2105999999046304],[-0.041458333333333285,-0.044444444444444446,3.2271999998092653],[-0.04697916666666669,0.003888888888888931,3.245999999999995],[-0.05322916666666669,-0.0022222222222223064,3.2609999999999957],[-0.05427083333333336,-0.03814814814814819,3.277300000190735],[-0.04229166666666669,-0.04296296296296305,3.2938000001907355],[-0.051250000000000046,-0.03777777777777774,3.3124000000953657],[-0.06770833333333333,-0.04759259259259268,3.3271999998092596],[-0.08239583333333336,-0.06092592592592588,3.343999999999994],[-0.07833333333333338,-0.10759259259259263,3.3644000000953653],[-0.07875000000000003,-0.1383333333333333,3.3793000001907316],[-0.08166666666666664,-0.21203703703703702,3.393900000095364],[-0.0860416666666667,-0.2855555555555555,3.4105999999046333],[-0.09031250000000005,-0.2442592592592592,3.429099999904629],[-0.0828125,-0.16925925925925922,3.4443000001907293],[-0.0796875,-0.15333333333333335,3.4606999998092647],[-0.06197916666666667,-0.07981481481481485,3.479300000190733],[-0.06510416666666667,-0.06407407407407412,3.4939000000953655],[-0.05239583333333329,-0.04388888888888897,3.5105999999046276],[-0.030312500000000023,-0.06277777777777774,3.5271999998092625],[-0.033854166666666664,-0.07111111111111107,3.543699999809263],[-0.035520833333333356,-0.022592592592592678,3.563599999904632],[-0.03177083333333333,-0.030000000000000086,3.57959999990463],[-0.01427083333333338,-0.047037037037036995,3.596900000095367],[-0.030312500000000023,-0.07592592592592592,3.614300000190731],[-0.04468749999999998,-0.11129629629629634,3.6314999999999955],[-0.04468749999999998,-0.11129629629629634,3.6436999998092645],[-0.06041666666666667,-0.2175925925925926,3.660499999999999],[-0.06041666666666667,-0.2175925925925926,3.677199999809261],[-0.05916666666666662,-0.30777777777777776,3.693800000190734],[-0.05916666666666662,-0.30777777777777776,3.710400000095362],[-0.06979166666666667,-0.3744444444444444,3.727099999904631],[-0.09510416666666661,-0.34944444444444445,3.743699999809266],[-0.09333333333333335,-0.3983333333333334,3.7605000000000004],[-0.10083333333333329,-0.4674074074074074,3.7789999999999964],[-0.10833333333333334,-0.4583333333333333,3.7938000001907355],[-0.11687500000000005,-0.4551851851851852,3.811300000190734],[-0.1,-0.5014814814814815,3.8289000000953664],[-0.0890625,-0.5333333333333333,3.8438000001907326],[-0.0829166666666667,-0.5592592592592592,3.8604000000953675],[-0.08302083333333338,-0.5155555555555555,3.878999999999998],[-0.08885416666666662,-0.4962962962962963,3.8945000000000007],[-0.06458333333333334,-0.5437037037037038,3.9104000000953647],[-0.033854166666666664,-0.512962962962963,3.927499999999995],[-0.016562499999999977,-0.52,3.943800000190734],[-0.0032291666666666905,-0.5494444444444444,3.960499999999996],[0.0007291666666667141,-0.6022222222222222,3.9779999999999944],[0.00302083333333331,-0.6324074074074074,3.996699999809266],[0.005729166666666666,-0.6259259259259259,4.012300000190734],[0.01260416666666669,-0.6018518518518519,4.027499999999996],[0.02166666666666662,-0.596111111111111,4.0441999998092655],[0.02166666666666662,-0.596111111111111,4.0604999999999976],[0.042499999999999954,-0.5066666666666667,4.0770999999046325],[0.05406249999999998,-0.42481481481481476,4.09369999980926],[0.051041666666666666,-0.4359259259259259,4.1104000000953675],[0.06895833333333339,-0.38055555555555554,4.12709999990463],[0.08687500000000009,-0.3248148148148148,4.1436999998092645],[0.10666666666666676,-0.257962962962963,4.160499999999999],[0.10666666666666676,-0.257962962962963,4.177099999904627],[0.13697916666666668,-0.21240740740740738,4.193699999809262],[0.15791666666666657,-0.15407407407407406,4.210900000095364],[0.17468750000000005,-0.11333333333333331,4.226999999999997],[0.19072916666666656,-0.053148148148148125,4.243800000190731],[0.19072916666666656,-0.053148148148148125,4.2605],[0.19458333333333327,-0.07037037037037037,4.277099999904628],[0.1881249999999999,-0.08981481481481482,4.293699999809263],[0.1944791666666667,-0.010185185185185186,4.310300000190729],[0.20437500000000006,0.011111111111111112,4.3270999999046325],[0.21416666666666656,0.03314814814814811,4.34369999980926],[0.22208333333333338,0.04407407407407399,4.360999999999997],[0.21343750000000009,0.08203703703703695,4.377599999904632],[0.21624999999999991,0.0588888888888888,4.3936999998092645],[0.21416666666666656,0.06592592592592597,4.410400000095365],[0.20666666666666675,0.027037037037037078,4.427199999809261],[0.20625,0.024074074074074074,4.443699999809262],[0.2209374999999999,0.04722222222222222,4.460900000095364],[0.23739583333333342,0.06425925925925935,4.480300000190731],[0.24614583333333329,0.08796296296296297,4.496099999904629],[0.25499999999999995,0.11055555555555564,4.5168000001907345],[0.25499999999999995,0.11055555555555564,4.531499999999994],[0.25968749999999996,0.1242592592592593,4.543699999809263],[0.26833333333333326,0.13944444444444437,4.5604999999999976],[0.27531249999999996,0.21074074074074065,4.579099999904628],[0.2945833333333333,0.2535185185185185,4.59369999980926],[0.31197916666666664,0.31925925925925924,4.610499999999995],[0.3151041666666667,0.3446296296296297,4.626999999999995],[0.3008333333333333,0.33499999999999996,4.6436999998092645],[0.2865624999999999,0.3253703703703705,4.660999999999994],[0.27104166666666674,0.3050000000000001,4.677099999904627],[0.27104166666666674,0.3050000000000001,4.693800000190734],[0.2555208333333333,0.28462962962962973,4.710499999999996],[0.2555208333333333,0.28462962962962973,4.727099999904631],[0.24833333333333343,0.26518518518518525,4.743800000190731],[0.24031250000000004,0.26666666666666666,4.760400000095366],[0.24031250000000004,0.26666666666666666,4.777099999904628],[0.23083333333333325,0.2824074074074074,4.793900000095363],[0.21166666666666673,0.2733333333333334,4.810599999904632],[0.19562499999999997,0.24962962962962953,4.826999999999998],[0.18718750000000003,0.22407407407407406,4.84369999980926],[0.17541666666666675,0.23481481481481473,4.8604000000953675],[0.16364583333333324,0.2455555555555556,4.87709999990463],[0.16364583333333324,0.2455555555555556,4.8936999998092645],[0.17468750000000005,0.24074074074074073,4.910499999999999],[0.17468750000000005,0.24074074074074073,4.927099999904627],[0.18302083333333338,0.244074074074074,4.943900000095368],[0.18302083333333338,0.244074074074074,4.96059999990463],[0.16541666666666663,0.28277777777777785,4.977099999904631],[0.16541666666666663,0.28277777777777785,4.993699999809266],[0.13718750000000005,0.2975925925925927,5.010400000095366],[0.13718750000000005,0.2975925925925927,5.027099999904628],[0.07552083333333333,0.22833333333333325,5.043699999809263],[0.07552083333333333,0.22833333333333325,5.060400000095363],[0.019687499999999976,0.22240740740740744,5.0770999999046325],[0.019687499999999976,0.22240740740740744,5.093800000190733],[-0.036458333333333336,0.2772222222222223,5.110499999999995],[-0.036458333333333336,0.2772222222222223,5.127199999809264],[-0.10479166666666669,0.28703703703703703,5.14380000019073],[-0.10479166666666669,0.28703703703703703,5.160499999999999],[-0.17177083333333332,0.27907407407407414,5.177099999904627],[-0.17177083333333332,0.27907407407407414,5.193699999809262],[-0.23697916666666666,0.25333333333333324,5.210499999999996],[-0.23697916666666666,0.25333333333333324,5.226999999999997],[-0.3186458333333333,0.2764814814814814,5.243699999809266],[-0.3186458333333333,0.2764814814814814,5.2605],[-0.3992708333333333,0.2564814814814815,5.277099999904628],[-0.44989583333333333,0.23981481481481481,5.2956999998092655],[-0.49333333333333335,0.2064814814814815,5.3104999999999976],[-0.513125,0.19740740740740745,5.3270999999046325],[-0.5364583333333334,0.14814814814814814,5.34369999980926],[-0.5473958333333333,0.06333333333333342,5.360499999999995],[-0.5456249999999999,0.06555555555555552,5.379699999809262],[-0.54375,0.07370370370370362,5.394900000095362],[-0.5423958333333334,0.08666666666666659,5.410400000095365],[-0.5420833333333334,0.06333333333333342,5.427099999904627],[-0.5502083333333334,0.039074074074074115,5.444900000095366],[-0.5502083333333334,0.039074074074074115,5.460400000095362],[-0.5704166666666667,0.0007407407407406986,5.477199999809265],[-0.5759375,-0.013333333333333417,5.493699999809266],[-0.560625,0.03629629629629634,5.513400000095366],[-0.5453125,0.08592592592592588,5.529900000095367],[-0.5123958333333333,0.12777777777777777,5.544800000190733],[-0.4796875,0.10425925925925918,5.563400000095363],[-0.4469791666666667,0.08074074074074078,5.579199999809262],[-0.39166666666666666,0.10111111111111115,5.59369999980926],[-0.33166666666666667,0.1235185185185186,5.613199999809261],[-0.33166666666666667,0.1235185185185186,5.626999999999995],[-0.2594791666666667,0.17518518518518522,5.643900000095364],[-0.17854166666666665,0.20999999999999996,5.661599999904631],[-0.10562499999999998,0.24240740740740738,5.6829000000953656],[-0.10562499999999998,0.24240740740740738,5.693699999809262],[-0.03822916666666672,0.21518518518518526,5.710499999999996],[0.027187500000000024,0.19740740740740745,5.731900000095365],[0.06979166666666667,0.17296296296296293,5.747],[0.06979166666666667,0.17296296296296293,5.7605],[0.11208333333333324,0.17185185185185176,5.777099999904628],[0.15093750000000009,0.20037037037037045,5.795800000190731],[0.17687499999999995,0.24666666666666676,5.811],[0.19812500000000005,0.290925925925926,5.826999999999998],[0.2163541666666667,0.33425925925925926,5.84369999980926],[0.2296875,0.37777777777777777,5.861599999904627],[0.23145833333333338,0.37537037037037047,5.878],[0.2287499999999999,0.40666666666666673,5.89569999980926],[0.22906250000000009,0.46166666666666656,5.911599999904631],[0.2273958333333333,0.524074074074074,5.927699999809263],[0.23583333333333342,0.5894444444444443,5.943699999809262],[0.24770833333333328,0.6251851851851852,5.960400000095362],[0.24864583333333337,0.6122222222222222,5.976999999999997],[0.24520833333333342,0.6040740740740742,5.9939000000953655],[0.24270833333333333,0.6035185185185185,6.012199999809262],[0.22916666666666666,0.609074074074074,6.027099999904628],[0.23666666666666672,0.6505555555555554,6.043999999999997],[0.240625,0.6912962962962962,6.0604999999999976],[0.240625,0.6912962962962962,6.0770999999046325],[0.24166666666666667,0.721111111111111,6.093800000190733],[0.24177083333333324,0.7287037037037037,6.112900000095365],[0.21822916666666667,0.7233333333333334,6.129099999904632],[0.1890625,0.7153703703703703,6.14830000019073],[0.15989583333333332,0.7074074074074074,6.165300000190733],[0.13614583333333338,0.6846296296296297,6.180900000095363],[0.11239583333333343,0.6618518518518518,6.196999999999996],[0.08458333333333339,0.6531481481481483,6.21269999980926],[0.03875000000000005,0.6253703703703705,6.227599999904633],[0.020729166666666642,0.6088888888888888,6.243699999809266],[0.002499999999999976,0.5862962962962963,6.2605],[-0.0048958333333333805,0.5238888888888888,6.277000000000001],[0.01260416666666669,0.47314814814814815,6.293699999809263],[0.04208333333333331,0.4418518518518519,6.310400000095363],[0.07156250000000004,0.4105555555555556,6.327599999904628],[0.07333333333333343,0.4083333333333333,6.343800000190733],[0.07510416666666657,0.40611111111111103,6.3604000000953675],[0.09197916666666663,0.38370370370370377,6.376999999999995],[0.11072916666666661,0.3907407407407407,6.3936999998092645],[0.11927083333333334,0.362962962962963,6.412300000190733],[0.1212500000000001,0.32592592592592595,6.431099999904632],[0.11333333333333329,0.3398148148148148,6.44859999990463],[0.11333333333333329,0.3398148148148148,6.4609999999999985],[0.08479166666666677,0.39296296296296307,6.477099999904631],[0.08093750000000005,0.4075925925925926,6.495800000190734],[0.07708333333333334,0.4222222222222222,6.511599999904632],[0.1078125,0.4170370370370371,6.533300000190735],[0.1078125,0.4170370370370371,6.557800000190731],[0.13718750000000005,0.40851851851851856,6.566699999809259],[0.13718750000000005,0.40851851851851856,6.5770999999046325],[0.1694791666666667,0.36944444444444446,6.59369999980926],[0.19833333333333342,0.3431481481481481,6.6104000000953675],[0.2109375,0.34018518518518526,6.626999999999995],[0.24020833333333325,0.33555555555555566,6.6436999998092645],[0.24020833333333325,0.33555555555555566,6.660499999999999],[0.27010416666666665,0.33481481481481473,6.677199999809261],[0.27010416666666665,0.33481481481481473,6.693800000190734],[0.29708333333333337,0.2862962962962963,6.710499999999996],[0.29677083333333343,0.2655555555555555,6.729999999999997],[0.29697916666666657,0.23870370370370367,6.743699999809266],[0.28927083333333337,0.2125925925925925,6.760400000095366],[0.2829166666666666,0.18981481481481483,6.777000000000001],[0.2712500000000001,0.17962962962962964,6.793699999809263],[0.2673958333333334,0.15185185185185185,6.811300000190734],[0.2618750000000001,0.13648148148148156,6.826999999999998],[0.2509375000000001,0.10203703703703708,6.84369999980926],[0.2352083333333333,0.09314814814814806,6.861599999904627],[0.24114583333333334,0.08444444444444449,6.88009999990463],[0.23270833333333343,0.09462962962962967,6.893900000095364],[0.2321875000000001,0.12074074074074083,6.910400000095365],[0.22406249999999991,0.10500000000000008,6.927],[0.21593749999999995,0.08925925925925934,6.943699999809262],[0.21583333333333338,0.12537037037037047,6.96059999990463],[0.22062499999999996,0.1675925925925926,6.978099999904629],[0.22927083333333323,0.1983333333333334,6.993699999809266],[0.23322916666666677,0.24962962962962953,7.010300000190732],[0.2413541666666667,0.2825925925925926,7.027499999999996],[0.23989583333333328,0.2800000000000001,7.0438000001907355],[0.2490624999999999,0.2524074074074073,7.060300000190729],[0.253125,0.25925925925925924,7.076999999999998],[0.253125,0.25925925925925924,7.09369999980926],[0.25020833333333337,0.2740740740740741,7.110499999999995],[0.25020833333333337,0.2740740740740741,7.12709999990463],[0.26197916666666665,0.2933333333333333,7.143900000095364],[0.26197916666666665,0.2933333333333333,7.160400000095365],[0.2648958333333333,0.28481481481481474,7.177099999904627],[0.2648958333333333,0.28481481481481474,7.193699999809262],[0.25458333333333344,0.2675925925925926,7.210499999999996],[0.24468750000000009,0.2462962962962963,7.234699999809266],[0.24468750000000009,0.2462962962962963,7.243800000190731],[0.23156249999999995,0.22296296296296292,7.260400000095366],[0.21843750000000003,0.19962962962962955,7.281699999809263],[0.2118750000000001,0.2124074074074075,7.298499999999997],[0.2118750000000001,0.2124074074074075,7.310699999809266],[0.20645833333333338,0.20537037037037034,7.32719999980926],[0.20645833333333338,0.20537037037037034,7.343800000190733],[0.1884375000000001,0.17851851851851847,7.360499999999995],[0.1884375000000001,0.17851851851851847,7.37709999990463],[0.18197916666666672,0.22074074074074082,7.393900000095364],[0.18197916666666672,0.22074074074074082,7.410400000095365],[0.16927083333333334,0.23777777777777773,7.427099999904627],[0.16927083333333334,0.23777777777777773,7.443699999809262],[0.1443749999999999,0.2537037037037037,7.460400000095362],[0.1443749999999999,0.2537037037037037,7.481199999809263],[0.12406249999999991,0.2116666666666666,7.4939000000953655],[0.1134375000000001,0.16074074074074066,7.512999999999998],[0.10812499999999996,0.1051851851851851,7.533199999809263],[0.10812499999999996,0.1051851851851851,7.543900000095363],[0.09052083333333343,0.058333333333333334,7.561],[0.06645833333333329,0.017592592592592594,7.577999999999996],[0.04708333333333338,0.007592592592592635,7.597699999809265],[0.04718749999999995,-0.04870370370370362,7.613999999999997],[0.042499999999999954,-0.16259259259259262,7.630699999809259],[0.029375000000000047,-0.25574074074074077,7.65019999980926],[0.029375000000000047,-0.25574074074074077,7.660999999999994],[0.05375000000000003,-0.34870370370370374,7.677499999999995],[0.06833333333333323,-0.3688888888888889,7.70159999990463],[0.06833333333333323,-0.3688888888888889,7.714900000095362],[0.09562499999999995,-0.37462962962962965,7.727199999809265],[0.12291666666666666,-0.3803703703703703,7.743800000190731],[0.115625,-0.39037037037037037,7.76430000019073],[0.14583333333333334,-0.42314814814814816,7.779499999999999],[0.1724999999999999,-0.4757407407407407,7.795099999904629],[0.17739583333333328,-0.5022222222222222,7.8141999998092615],[0.21104166666666657,-0.47555555555555556,7.829400000095362],[0.2241666666666667,-0.4735185185185185,7.845499999999994],[0.21520833333333325,-0.4766666666666666,7.860599999904629],[0.24739583333333334,-0.44592592592592595,7.880199999809264],[0.24187500000000003,-0.42888888888888893,7.894699999809262],[0.2359375,-0.45685185185185184,7.9118000001907305],[0.2768749999999999,-0.4892592592592592,7.929599999904632],[0.28020833333333334,-0.44592592592592595,7.945800000190729],[0.28125,-0.3937037037037037,7.96119999980926],[0.2938541666666666,-0.34574074074074074,7.981199999809263],[0.3007291666666667,-0.367037037037037,8.005400000095364],[0.3007291666666667,-0.367037037037037,8.012499999999996],[0.32697916666666677,-0.34592592592592597,8.027199999809262],[0.36572916666666655,-0.34314814814814815,8.04619999980926],[0.3421875,-0.3831481481481481,8.061499999999995],[0.3586458333333333,-0.40777777777777774,8.077999999999996],[0.3796875,-0.37296296296296294,8.096900000095367],[0.39812500000000006,-0.33555555555555555,8.112699999809266],[0.4166666666666667,-0.35111111111111115,8.12730000019073],[0.4273958333333333,-0.3727777777777778,8.146],[0.44510416666666663,-0.3718518518518519,8.162499999999994],[0.4443749999999999,-0.3466666666666666,8.177999999999997],[0.44479166666666664,-0.33925925925925926,8.193599999904627],[0.4359375,-0.3122222222222223,8.210300000190735],[0.4617708333333333,-0.28851851851851856,8.226999999999997],[0.47062499999999996,-0.2687037037037037,8.243699999809266],[0.47531249999999997,-0.2633333333333333,8.262300000190734],[0.4616666666666667,-0.2088888888888889,8.280400000095362],[0.44802083333333326,-0.1544444444444444,8.298300000190736],[0.4493750000000001,-0.1259259259259259,8.313499999999998],[0.44375,-0.12000000000000002,8.327999999999996],[0.4405208333333334,-0.10407407407407405,8.343900000095367],[0.43385416666666665,-0.0977777777777778,8.363599999904629],[0.43291666666666656,-0.11074074074074076,8.37919999980926],[0.42520833333333335,-0.051111111111111156,8.39680000019073],[0.409375,0.009259259259259259,8.418],[0.409375,0.009259259259259259,8.427],[0.4070833333333333,0.023148148148148147,8.443699999809262],[0.41166666666666674,-0.013888888888888888,8.46059999990463],[0.4162499999999999,-0.05092592592592592,8.47730000019073],[0.4133333333333333,-0.03888888888888889,8.496800000190731],[0.40520833333333334,-0.05462962962962963,8.51319999980926],[0.4002083333333334,-0.060555555555555536,8.52759999990463],[0.39249999999999996,-0.05129629629629638,8.543699999809263],[0.36687500000000006,0.006851851851851936,8.560400000095363],[0.36687500000000006,-0.03814814814814819,8.578800000190732],[0.36687500000000006,-0.08314814814814811,8.59369999980926],[0.36479166666666674,-0.10240740740740743,8.612300000190736],[0.3767708333333334,-0.12240740740740745,8.626999999999995],[0.37447916666666664,-0.13240740740740742,8.64380000019073],[0.36572916666666655,-0.12925925925925927,8.660400000095365],[0.36770833333333336,-0.13055555555555556,8.677199999809261],[0.36739583333333337,-0.1374074074074074,8.698199999809262],[0.36739583333333337,-0.1374074074074074,8.710400000095362],[0.3759375000000001,-0.10351851851851848,8.727099999904631],[0.3820833333333333,-0.15055555555555558,8.743699999809266],[0.36989583333333326,-0.17314814814814813,8.760400000095366],[0.35750000000000004,-0.1983333333333334,8.777000000000001],[0.31239583333333343,-0.1294444444444444,8.793699999809263],[0.2672916666666666,-0.060555555555555536,8.81049999999999],[0.25760416666666663,-0.027037037037037078,8.826999999999998],[0.2546875,-0.02370370370370362,8.843599999904626],[0.2671875,-0.01592592592592597,8.860300000190733],[0.2796875,-0.008148148148148106,8.876999999999995],[0.26895833333333335,-0.04407407407407399,8.893699999809257],[0.2695833333333333,-0.030000000000000086,8.910400000095365],[0.26802083333333326,0.04296296296296305,8.927099999904627],[0.26708333333333345,0.11611111111111119,8.944099999904637],[0.28156249999999994,0.09944444444444453,8.960499999999996],[0.28156249999999994,0.09944444444444453,8.977099999904624],[0.2990624999999999,0.10111111111111115,8.993699999809266],[0.28916666666666657,0.13481481481481472,9.010400000095359],[0.27927083333333325,0.1685185185185185,9.027000000000001],[0.2491666666666667,0.23629629629629634,9.043699999809263],[0.2275000000000001,0.2831481481481481,9.06040000009537],[0.2365624999999999,0.3205555555555556,9.076999999999998],[0.24562499999999995,0.35796296296296287,9.093599999904626],[0.2428124999999999,0.3274074074074073,9.110300000190733],[0.25656249999999997,0.2898148148148148,9.126900000095361],[0.28395833333333326,0.24685185185185177,9.143699999809257],[0.30791666666666656,0.18629629629629635,9.160400000095365],[0.3381249999999999,0.11907407407407399,9.177999999999997],[0.36041666666666666,0.051666666666666625,9.193699999809269],[0.3723958333333333,-0.025370370370370456,9.210300000190728],[0.3865624999999999,-0.06777777777777783,9.227000000000004],[0.39052083333333343,-0.10333333333333336,9.243599999904632],[0.39083333333333337,-0.14759259259259258,9.260400000095359],[0.41520833333333323,-0.1911111111111111,9.277500000000003],[0.4235416666666666,-0.18925925925925924,9.293599999904629],[0.4235416666666666,-0.18925925925925924,9.310300000190736],[0.42218749999999994,-0.1559259259259259,9.326999999999998],[0.41947916666666674,-0.14648148148148152,9.349199999809258],[0.41947916666666674,-0.14648148148148152,9.360500000000002],[0.41677083333333326,-0.13703703703703704,9.377199999809264],[0.4101041666666667,-0.10129629629629627,9.399300000190735],[0.4101041666666667,-0.10129629629629627,9.410400000095365],[0.4101041666666667,-0.06111111111111111,9.426999999999992],[0.4101041666666667,-0.06111111111111111,9.443599999904635],[0.39645833333333325,-0.027407407407407325,9.461300000190732],[0.39645833333333325,-0.027407407407407325,9.477000000000004],[0.3785416666666668,-0.030000000000000086,9.493599999904632],[0.3745833333333332,0.012962962962962963,9.510400000095359],[0.35927083333333343,0.055740740740740785,9.527000000000001],[0.3433333333333332,0.06129629629629634,9.543599999904629],[0.3277083333333332,0.056666666666666705,9.56040000009537],[0.31614583333333335,0.05944444444444449,9.576999999999998],[0.3037499999999999,0.08777777777777773,9.59369999980926],[0.30322916666666655,0.09000000000000004,9.610400000095368],[0.3037499999999999,0.1051851851851851,9.626999999999995],[0.3232291666666666,0.04407407407407399,9.648599999904633],[0.3342708333333334,0.06925925925925921,9.664599999904624],[0.3349999999999999,0.05759259259259263,9.6815],[0.3349999999999999,0.05759259259259263,9.693800000190734],[0.33645833333333336,0.026481481481481398,9.710499999999996],[0.33645833333333336,0.026481481481481398,9.727000000000004],[0.3263541666666666,-0.005370370370370328,9.743800000190731],[0.32302083333333326,-0.053148148148148125,9.760300000190739],[0.30520833333333336,-0.06314814814814819,9.77740000009537],[0.2882291666666667,-0.09870370370370372,9.793599999904629],[0.28843750000000007,-0.11944444444444445,9.811300000190727],[0.29052083333333345,-0.1542592592592593,9.829900000095364],[0.2672916666666666,-0.1301851851851852,9.846300000190737],[0.2595833333333334,-0.17685185185185184,9.862499999999997],[0.24749999999999991,-0.2338888888888889,9.879400000095359],[0.23552083333333323,-0.25685185185185183,9.893900000095371],[0.24072916666666658,-0.24074074074074073,9.910400000095365],[0.25020833333333337,-0.22629629629629627,9.927099999904627],[0.2537499999999999,-0.2125925925925926,9.944000000000003],[0.2513541666666666,-0.21351851851851855,9.960400000095362],[0.23177083333333334,-0.22925925925925927,9.977199999809258],[0.23802083333333332,-0.2866666666666667,9.993599999904632],[0.25364583333333335,-0.3338888888888889,10.01109999990463],[0.26666666666666666,-0.3175925925925926,10.027000000000001],[0.27802083333333344,-0.3020370370370371,10.043699999809263],[0.28708333333333325,-0.2531481481481481,10.06040000009537],[0.2867708333333333,-0.23499999999999996,10.07880000019074],[0.28010416666666677,-0.22814814814814813,10.09369999980926],[0.2915625000000001,-0.24259259259259258,10.110300000190733],[0.30614583333333345,-0.2338888888888889,10.127400000095363],[0.3207291666666668,-0.22518518518518524,10.143800000190737],[0.3133333333333333,-0.2101851851851852,10.163599999904633],[0.2984375,-0.14074074074074075,10.179300000190736],[0.2833333333333333,-0.11407407407407412,10.194099999904637],[0.27489583333333345,-0.09314814814814817,10.210300000190728],[0.2820833333333333,-0.11055555555555553,10.227000000000004],[0.2794791666666666,-0.15648148148148147,10.247],[0.2794791666666666,-0.15648148148148147,10.26340000009536],[0.27374999999999994,-0.16925925925925922,10.277099999904635],[0.26229166666666665,-0.1838888888888889,10.293599999904629],[0.27364583333333337,-0.22296296296296292,10.310300000190736],[0.2741666666666667,-0.22925925925925927,10.326999999999998],[0.28177083333333336,-0.25092592592592594,10.34369999980926],[0.2930208333333333,-0.31962962962962965,10.360300000190733],[0.3042708333333332,-0.3883333333333333,10.380400000095364],[0.3077083333333334,-0.3772222222222222,10.393699999809257],[0.3011458333333332,-0.3901851851851852,10.41030000019073],[0.3029166666666666,-0.355,10.426999999999992],[0.30281250000000004,-0.3183333333333333,10.443699999809269],[0.30281250000000004,-0.3183333333333333,10.46059999990463],[0.31354166666666666,-0.28944444444444445,10.477000000000004],[0.3042708333333332,-0.2544444444444444,10.493599999904632],[0.2976041666666667,-0.26185185185185184,10.510300000190739]]","[0.0003000001907338401,0.050800000190733385,0.06090000009536567,0.07709999990463245,0.09369999980926025,0.11230000019073572,0.1270999999046296,0.14669999980926463,0.16080000019073282,0.17709999990462677,0.19380000019073407,0.2133000001907348,0.2271999998092653,0.24380000019073123,0.2605000000000004,0.2770999999046282,0.2938000001907355,0.3104000000953633,0.32709999990463245,0.34380000019073265,0.3604999999999947,0.3771999998092639,0.3938000001907298,0.41240000009536715,0.42709999990462677,0.4444000000953636,0.4610999999046328,0.47709999990463103,0.49369999980926593,0.5111999998092642,0.5270999999046282,0.5438000001907355,0.5604999999999976,0.5771999998092596,0.5938000001907326,0.6104000000953675,0.6270999999046296,0.6438000001907298,0.6709000000953651,0.6828000001907313,0.695999999999998,0.7104999999999961,0.727099999904631,0.7449000000953632,0.7605000000000004,0.777400000095362,0.7938000001907355,0.8104000000953633,0.8269999999999982,0.8438000001907326,0.8604999999999947,0.8774999999999977,0.8938000001907298,0.9151999998092606,0.9329999999999998,0.9439000000953683,0.9606999998092647,0.977099999904631,0.9938000001907312,1.0104000000953661,1.0271999998092625,1.0439000000953627,1.0604999999999976,1.0770999999046325,1.093900000095367,1.1104000000953675,1.1273000001907292,1.1438000001907298,1.160499999999999,1.1775999999046292,1.193800000190734,1.2104999999999961,1.2271999998092653,1.2438000001907312,1.2605000000000004,1.2770999999046282,1.2938000001907355,1.3104999999999976,1.3270999999046325,1.3438000001907326,1.3604000000953675,1.3771999998092639,1.3936999998092645,1.4104000000953647,1.427199999809261,1.4443000001907293,1.4604999999999961,1.477099999904631,1.4938000001907312,1.5109000000953614,1.5270999999046282,1.5438000001907355,1.5604999999999976,1.5770999999046325,1.5938000001907326,1.6109000000953628,1.6270999999046296,1.6438000001907298,1.660499999999999,1.6784000000953654,1.6939999999999955,1.7105999999046304,1.727099999904631,1.7438000001907312,1.7624999999999957,1.777400000095362,1.793699999809263,1.8104999999999976,1.8270999999046325,1.844699999809265,1.8623000001907357,1.8769999999999953,1.8988000001907324,1.914199999809263,1.9273000001907334,1.9439999999999955,1.9659000000953668,1.981499999999997,1.9969999999999999,2.01259999990463,2.029999999999994,2.0439000000953627,2.0615999999046295,2.0774000000953663,2.0964000000953646,2.1119000000953676,2.1274999999999977,2.1465999999046304,2.163800000190733,2.1810999999046317,2.1983000001907342,2.2131999998092624,2.228199999809263,2.2439000000953655,2.2638000001907344,2.2819999999999965,2.2983000001907357,2.3104000000953633,2.330999999999996,2.3480999999046333,2.3644999999999996,2.384999999999998,2.3939999999999984,2.410499999999999,2.4273000001907334,2.443800000190734,2.460400000095362,2.477099999904631,2.4938000001907312,2.510699999809262,2.530300000190735,2.5460999999046265,2.562900000095368,2.5804000000953664,2.5959999999999965,2.610599999904629,2.6269999999999953,2.6439999999999984,2.660499999999999,2.6770999999046268,2.693800000190734,2.7105999999046304,2.727099999904631,2.7471999998092613,2.7616999998092595,2.7798000001907326,2.8034000000953654,2.8104999999999976,2.8271999998092596,2.843900000095367,2.8636999998092634,2.878300000190734,2.893900000095364,2.9136999998092605,2.927900000095363,2.9439000000953683,2.9609000000953642,2.9809000000953674,2.9939999999999998,3.0105999999046276,3.0319999999999965,3.0439000000953627,3.060699999809266,3.0798000001907297,3.093900000095367,3.1106999998092633,3.1291999998092592,3.144599999904628,3.1605999999046333,3.179300000190736,3.1939000000953683,3.2105999999046304,3.2271999998092653,3.245999999999995,3.2609999999999957,3.277300000190735,3.2938000001907355,3.3124000000953657,3.3271999998092596,3.343999999999994,3.3644000000953653,3.3793000001907316,3.393900000095364,3.4105999999046333,3.429099999904629,3.4443000001907293,3.4606999998092647,3.479300000190733,3.4939000000953655,3.5105999999046276,3.5271999998092625,3.543699999809263,3.563599999904632,3.57959999990463,3.596900000095367,3.614300000190731,3.6314999999999955,3.6436999998092645,3.660499999999999,3.677199999809261,3.693800000190734,3.710400000095362,3.727099999904631,3.743699999809266,3.7605000000000004,3.7789999999999964,3.7938000001907355,3.811300000190734,3.8289000000953664,3.8438000001907326,3.8604000000953675,3.878999999999998,3.8945000000000007,3.9104000000953647,3.927499999999995,3.943800000190734,3.960499999999996,3.9779999999999944,3.996699999809266,4.012300000190734,4.027499999999996,4.0441999998092655,4.0604999999999976,4.0770999999046325,4.09369999980926,4.1104000000953675,4.12709999990463,4.1436999998092645,4.160499999999999,4.177099999904627,4.193699999809262,4.210900000095364,4.226999999999997,4.243800000190731,4.2605,4.277099999904628,4.293699999809263,4.310300000190729,4.3270999999046325,4.34369999980926,4.360999999999997,4.377599999904632,4.3936999998092645,4.410400000095365,4.427199999809261,4.443699999809262,4.460900000095364,4.480300000190731,4.496099999904629,4.5168000001907345,4.531499999999994,4.543699999809263,4.5604999999999976,4.579099999904628,4.59369999980926,4.610499999999995,4.626999999999995,4.6436999998092645,4.660999999999994,4.677099999904627,4.693800000190734,4.710499999999996,4.727099999904631,4.743800000190731,4.760400000095366,4.777099999904628,4.793900000095363,4.810599999904632,4.826999999999998,4.84369999980926,4.8604000000953675,4.87709999990463,4.8936999998092645,4.910499999999999,4.927099999904627,4.943900000095368,4.96059999990463,4.977099999904631,4.993699999809266,5.010400000095366,5.027099999904628,5.043699999809263,5.060400000095363,5.0770999999046325,5.093800000190733,5.110499999999995,5.127199999809264,5.14380000019073,5.160499999999999,5.177099999904627,5.193699999809262,5.210499999999996,5.226999999999997,5.243699999809266,5.2605,5.277099999904628,5.2956999998092655,5.3104999999999976,5.3270999999046325,5.34369999980926,5.360499999999995,5.379699999809262,5.394900000095362,5.410400000095365,5.427099999904627,5.444900000095366,5.460400000095362,5.477199999809265,5.493699999809266,5.513400000095366,5.529900000095367,5.544800000190733,5.563400000095363,5.579199999809262,5.59369999980926,5.613199999809261,5.626999999999995,5.643900000095364,5.661599999904631,5.6829000000953656,5.693699999809262,5.710499999999996,5.731900000095365,5.747,5.7605,5.777099999904628,5.795800000190731,5.811,5.826999999999998,5.84369999980926,5.861599999904627,5.878,5.89569999980926,5.911599999904631,5.927699999809263,5.943699999809262,5.960400000095362,5.976999999999997,5.9939000000953655,6.012199999809262,6.027099999904628,6.043999999999997,6.0604999999999976,6.0770999999046325,6.093800000190733,6.112900000095365,6.129099999904632,6.14830000019073,6.165300000190733,6.180900000095363,6.196999999999996,6.21269999980926,6.227599999904633,6.243699999809266,6.2605,6.277000000000001,6.293699999809263,6.310400000095363,6.327599999904628,6.343800000190733,6.3604000000953675,6.376999999999995,6.3936999998092645,6.412300000190733,6.431099999904632,6.44859999990463,6.4609999999999985,6.477099999904631,6.495800000190734,6.511599999904632,6.533300000190735,6.557800000190731,6.566699999809259,6.5770999999046325,6.59369999980926,6.6104000000953675,6.626999999999995,6.6436999998092645,6.660499999999999,6.677199999809261,6.693800000190734,6.710499999999996,6.729999999999997,6.743699999809266,6.760400000095366,6.777000000000001,6.793699999809263,6.811300000190734,6.826999999999998,6.84369999980926,6.861599999904627,6.88009999990463,6.893900000095364,6.910400000095365,6.927,6.943699999809262,6.96059999990463,6.978099999904629,6.993699999809266,7.010300000190732,7.027499999999996,7.0438000001907355,7.060300000190729,7.076999999999998,7.09369999980926,7.110499999999995,7.12709999990463,7.143900000095364,7.160400000095365,7.177099999904627,7.193699999809262,7.210499999999996,7.234699999809266,7.243800000190731,7.260400000095366,7.281699999809263,7.298499999999997,7.310699999809266,7.32719999980926,7.343800000190733,7.360499999999995,7.37709999990463,7.393900000095364,7.410400000095365,7.427099999904627,7.443699999809262,7.460400000095362,7.481199999809263,7.4939000000953655,7.512999999999998,7.533199999809263,7.543900000095363,7.561,7.577999999999996,7.597699999809265,7.613999999999997,7.630699999809259,7.65019999980926,7.660999999999994,7.677499999999995,7.70159999990463,7.714900000095362,7.727199999809265,7.743800000190731,7.76430000019073,7.779499999999999,7.795099999904629,7.8141999998092615,7.829400000095362,7.845499999999994,7.860599999904629,7.880199999809264,7.894699999809262,7.9118000001907305,7.929599999904632,7.945800000190729,7.96119999980926,7.981199999809263,8.005400000095364,8.012499999999996,8.027199999809262,8.04619999980926,8.061499999999995,8.077999999999996,8.096900000095367,8.112699999809266,8.12730000019073,8.146,8.162499999999994,8.177999999999997,8.193599999904627,8.210300000190735,8.226999999999997,8.243699999809266,8.262300000190734,8.280400000095362,8.298300000190736,8.313499999999998,8.327999999999996,8.343900000095367,8.363599999904629,8.37919999980926,8.39680000019073,8.418,8.427,8.443699999809262,8.46059999990463,8.47730000019073,8.496800000190731,8.51319999980926,8.52759999990463,8.543699999809263,8.560400000095363,8.578800000190732,8.59369999980926,8.6123000