inst1_resp.keys,inst1_resp.rt,calibrationMouse.x,calibrationMouse.y,calibrationMouse.leftButton,calibrationMouse.midButton,calibrationMouse.rightButton,calibrationClick.x,calibrationClick.y,calibrationClick.leftButton,calibrationClick.midButton,calibrationClick.rightButton,calibrationClick.clicked_name,trialsc.thisRepN,trialsc.thisTrialN,trialsc.thisN,trialsc.thisIndex,trialsc.ran,calibration_x,calibration_y,participant,session,date,expName,psychopyVersion,OS,frameRate,ScreenRes_pixels,Camera_pixels,mouse_2.x,mouse_2.y,mouse_2.leftButton,mouse_2.midButton,mouse_2.rightButton,mouse_2.time,mouse_2.clicked_name,mouse.x,mouse.y,mouse.leftButton,mouse.midButton,mouse.rightButton,mouse.time,mouse.clicked_name,Choice,Trial,TrialDuration,MOUSE_GAZE,ET_GAZE,ET_GAZE_x_T,time,unixTime,ET_GAZE_NF,Loc_Bus_label,Loc_Metro_label,Loc_RH_label,Loc_Cost_label,Loc_Travel_label,Loc_Comfort_label,Loc_Bus_cost,Loc_Metro_cost,Loc_RH_cost,Loc_Bus_travel,Loc_Metro_travel,Loc_RH_travel,Loc_Bus_comfort,Loc_Metro_comfort,Loc_RH_comfort,trials.thisRepN,trials.thisTrialN,trials.thisN,trials.thisIndex,trials.ran,Block,Device,RH_cost,RH_travel_time,RH_Comfort,metro_cost,metro_travel_time,metro_Comfort,Bus_cost,Bus_travel_time,Bus_Comfort
space,5.3991,0.246875,-0.194444444,1,0,0,-0.002083333,-0.664814815,1,0,0,calibration_square,0,0,0,9,1,0,-0.67,02,001,2024-11-20_14h25.59.224,Attention_exp_legacy,2023.1.0,Win32,60.24096386,,,,,,,,,,,,,,,,,,,,,,,,,,,,,,,,,,,,,,,,,,,,,,,,,,,,,,,,
,,,,,,,0.670833333,0.661111111,1,0,0,calibration_square,0,1,1,19,1,0.67,0.67,02,001,2024-11-20_14h25.59.224,Attention_exp_legacy,2023.1.0,Win32,60.24096386,,,,,,,,,,,,,,,,,,,,,,,,,,,,,,,,,,,,,,,,,,,,,,,,,,,,,,,,
,,,,,,,0.327083333,-0.67037037,1,0,0,calibration_square,0,2,2,14,1,0.33,-0.67,02,001,2024-11-20_14h25.59.224,Attention_exp_legacy,2023.1.0,Win32,60.24096386,,,,,,,,,,,,,,,,,,,,,,,,,,,,,,,,,,,,,,,,,,,,,,,,,,,,,,,,
,,,,,,,-0.334375,-0.32962963,1,0,0,calibration_square,0,3,3,5,1,-0.33,-0.33,02,001,2024-11-20_14h25.59.224,Attention_exp_legacy,2023.1.0,Win32,60.24096386,,,,,,,,,,,,,,,,,,,,,,,,,,,,,,,,,,,,,,,,,,,,,,,,,,,,,,,,
,,,,,,,-0.672916667,-0.338888889,1,0,0,calibration_square,0,4,4,1,1,-0.67,-0.33,02,001,2024-11-20_14h25.59.224,Attention_exp_legacy,2023.1.0,Win32,60.24096386,,,,,,,,,,,,,,,,,,,,,,,,,,,,,,,,,,,,,,,,,,,,,,,,,,,,,,,,
,,,,,,,0.663541667,-0.683333333,1,0,0,,0,5,5,20,1,0.67,-0.67,02,001,2024-11-20_14h25.59.224,Attention_exp_legacy,2023.1.0,Win32,60.24096386,,,,,,,,,,,,,,,,,,,,,,,,,,,,,,,,,,,,,,,,,,,,,,,,,,,,,,,,
,,,,,,,0.348958333,-0.007407407,1,0,0,,0,6,6,16,1,0.33,0,02,001,2024-11-20_14h25.59.224,Attention_exp_legacy,2023.1.0,Win32,60.24096386,,,,,,,,,,,,,,,,,,,,,,,,,,,,,,,,,,,,,,,,,,,,,,,,,,,,,,,,
,,,,,,,0.338541667,0.687037037,1,0,0,,0,7,7,18,1,0.33,0.67,02,001,2024-11-20_14h25.59.224,Attention_exp_legacy,2023.1.0,Win32,60.24096386,,,,,,,,,,,,,,,,,,,,,,,,,,,,,,,,,,,,,,,,,,,,,,,,,,,,,,,,
,,,,,,,-0.34375,0.677777778,1,0,0,,0,8,8,8,1,-0.33,0.67,02,001,2024-11-20_14h25.59.224,Attention_exp_legacy,2023.1.0,Win32,60.24096386,,,,,,,,,,,,,,,,,,,,,,,,,,,,,,,,,,,,,,,,,,,,,,,,,,,,,,,,
,,,,,,,-0.325,0.324074074,1,0,0,calibration_square,0,9,9,7,1,-0.33,0.33,02,001,2024-11-20_14h25.59.224,Attention_exp_legacy,2023.1.0,Win32,60.24096386,,,,,,,,,,,,,,,,,,,,,,,,,,,,,,,,,,,,,,,,,,,,,,,,,,,,,,,,
,,,,,,,-0.332291667,-0.65,1,0,0,,0,10,10,4,1,-0.33,-0.67,02,001,2024-11-20_14h25.59.224,Attention_exp_legacy,2023.1.0,Win32,60.24096386,,,,,,,,,,,,,,,,,,,,,,,,,,,,,,,,,,,,,,,,,,,,,,,,,,,,,,,,
,,,,,,,0.339583333,-0.322222222,1,0,0,calibration_square,0,11,11,15,1,0.33,-0.33,02,001,2024-11-20_14h25.59.224,Attention_exp_legacy,2023.1.0,Win32,60.24096386,,,,,,,,,,,,,,,,,,,,,,,,,,,,,,,,,,,,,,,,,,,,,,,,,,,,,,,,
,,,,,,,-0.023958333,-0.011111111,1,0,0,,0,12,12,11,1,0,0,02,001,2024-11-20_14h25.59.224,Attention_exp_legacy,2023.1.0,Win32,60.24096386,,,,,,,,,,,,,,,,,,,,,,,,,,,,,,,,,,,,,,,,,,,,,,,,,,,,,,,,
,,,,,,,-0.677083333,0.327777778,1,0,0,calibration_square,0,13,13,3,1,-0.67,0.33,02,001,2024-11-20_14h25.59.224,Attention_exp_legacy,2023.1.0,Win32,60.24096386,,,,,,,,,,,,,,,,,,,,,,,,,,,,,,,,,,,,,,,,,,,,,,,,,,,,,,,,
,,,,,,,0.009375,-0.290740741,1,0,0,,0,14,14,10,1,0,-0.33,02,001,2024-11-20_14h25.59.224,Attention_exp_legacy,2023.1.0,Win32,60.24096386,,,,,,,,,,,,,,,,,,,,,,,,,,,,,,,,,,,,,,,,,,,,,,,,,,,,,,,,
,,,,,,,0.333333333,0.32962963,1,0,0,calibration_square,0,15,15,17,1,0.33,0.33,02,001,2024-11-20_14h25.59.224,Attention_exp_legacy,2023.1.0,Win32,60.24096386,,,,,,,,,,,,,,,,,,,,,,,,,,,,,,,,,,,,,,,,,,,,,,,,,,,,,,,,
,,,,,,,-0.6875,-0.683333333,1,0,0,,0,16,16,0,1,-0.67,-0.67,02,001,2024-11-20_14h25.59.224,Attention_exp_legacy,2023.1.0,Win32,60.24096386,,,,,,,,,,,,,,,,,,,,,,,,,,,,,,,,,,,,,,,,,,,,,,,,,,,,,,,,
,,,,,,,-0.313541667,0,1,0,0,,0,17,17,6,1,-0.33,0,02,001,2024-11-20_14h25.59.224,Attention_exp_legacy,2023.1.0,Win32,60.24096386,,,,,,,,,,,,,,,,,,,,,,,,,,,,,,,,,,,,,,,,,,,,,,,,,,,,,,,,
,,,,,,,-0.65,0.012962963,1,0,0,,0,18,18,2,1,-0.67,0,02,001,2024-11-20_14h25.59.224,Attention_exp_legacy,2023.1.0,Win32,60.24096386,,,,,,,,,,,,,,,,,,,,,,,,,,,,,,,,,,,,,,,,,,,,,,,,,,,,,,,,
,,,,,,,0.004166667,0.685185185,1,0,0,,0,19,19,13,1,0,0.67,02,001,2024-11-20_14h25.59.224,Attention_exp_legacy,2023.1.0,Win32,60.24096386,,,,,,,,,,,,,,,,,,,,,,,,,,,,,,,,,,,,,,,,,,,,,,,,,,,,,,,,
,,,,,,,-0.008333333,0.35,1,0,0,,0,20,20,12,1,0,0.33,02,001,2024-11-20_14h25.59.224,Attention_exp_legacy,2023.1.0,Win32,60.24096386,,,,,,,,,,,,,,,,,,,,,,,,,,,,,,,,,,,,,,,,,,,,,,,,,,,,,,,,
,,,,,,,,,,,,,,,,,,,,02,001,2024-11-20_14h25.59.224,Attention_exp_legacy,2023.1.0,Win32,60.24096386,"[1920,1080]","[640,480]",[0.017708333333333333],[-0.5277777777777778],[1],[0],[0],[4.928900000095368],"[""StartButton""]","[0.4114583333333333,0.4083333333333333,0.38958333333333334]","[0.42592592592592593,0.26296296296296295,0.03518518518518519]","[1,1,1]","[0,0,0]","[0,0,0]","[18.612799999713893,19.062599999904627,19.431899999618516]","[""RH_label""]",RH_label,1,19.6232,"[[0.08125,-0.3277777777777778],[0.08125,-0.3277777777777778],[0.08125,-0.3277777777777778],[0.08125,-0.3277777777777778],[0.08125,-0.3277777777777778],[0.08125,-0.3277777777777778],[0.08125,-0.3277777777777778],[0.08125,-0.3277777777777778],[0.08125,-0.3277777777777778],[0.08125,-0.3277777777777778],[0.08125,-0.3277777777777778],[0.08125,-0.3277777777777778],[0.08125,-0.3277777777777778],[0.08125,-0.3277777777777778],[0.08125,-0.3277777777777778],[0.08125,-0.3277777777777778],[0.08125,-0.3277777777777778],[0.08125,-0.3277777777777778],[0.08125,-0.3277777777777778],[0.08125,-0.3277777777777778],[0.08125,-0.3277777777777778],[0.08125,-0.3277777777777778],[0.08125,-0.3277777777777778],[0.08125,-0.3277777777777778],[0.08125,-0.3277777777777778],[0.08125,-0.3277777777777778],[0.08125,-0.3277777777777778],[0.08125,-0.3277777777777778],[0.08125,-0.3277777777777778],[0.08125,-0.3277777777777778],[0.08125,-0.3277777777777778],[0.08125,-0.3277777777777778],[0.08125,-0.3277777777777778],[0.08125,-0.3277777777777778],[0.08125,-0.3277777777777778],[0.08125,-0.3277777777777778],[0.08125,-0.3277777777777778],[0.08125,-0.3277777777777778],[0.08125,-0.3277777777777778],[0.08125,-0.3277777777777778],[0.08125,-0.3277777777777778],[0.08125,-0.3277777777777778],[0.08125,-0.3277777777777778],[0.08125,-0.3277777777777778],[0.08125,-0.3277777777777778],[0.08125,-0.3277777777777778],[0.08125,-0.3277777777777778],[0.08125,-0.3277777777777778],[0.08125,-0.3277777777777778],[0.08125,-0.3277777777777778],[0.08125,-0.3277777777777778],[0.08125,-0.3277777777777778],[0.08125,-0.3277777777777778],[0.08125,-0.3277777777777778],[0.08125,-0.3277777777777778],[0.08125,-0.3277777777777778],[0.08125,-0.3277777777777778],[0.08125,-0.3277777777777778],[0.08125,-0.3277777777777778],[0.08125,-0.3277777777777778],[0.08125,-0.3277777777777778],[0.08125,-0.3277777777777778],[0.08125,-0.3277777777777778],[0.08125,-0.3277777777777778],[0.08125,-0.3277777777777778],[0.08125,-0.3277777777777778],[0.08125,-0.3277777777777778],[0.08125,-0.3277777777777778],[0.08125,-0.3277777777777778],[0.08125,-0.3277777777777778],[0.08125,-0.3277777777777778],[0.08125,-0.3277777777777778],[0.08125,-0.3277777777777778],[0.08125,-0.3277777777777778],[0.08125,-0.3277777777777778],[0.08125,-0.3277777777777778],[0.08125,-0.3277777777777778],[0.08125,-0.3277777777777778],[0.08125,-0.3277777777777778],[0.08125,-0.3277777777777778],[0.08125,-0.3277777777777778],[0.08125,-0.3277777777777778],[0.08125,-0.3277777777777778],[0.08125,-0.3277777777777778],[0.08125,-0.3277777777777778],[0.08125,-0.3277777777777778],[0.08125,-0.3277777777777778],[0.08125,-0.3277777777777778],[0.08125,-0.3277777777777778],[0.08125,-0.3277777777777778],[0.08125,-0.3277777777777778],[0.08125,-0.3277777777777778],[0.08125,-0.3277777777777778],[0.08125,-0.3277777777777778],[0.08125,-0.3277777777777778],[0.08125,-0.3277777777777778],[0.08125,-0.3277777777777778],[0.08125,-0.3277777777777778],[0.08125,-0.3277777777777778],[0.08125,-0.3277777777777778],[0.08125,-0.3277777777777778],[0.08125,-0.3277777777777778],[0.08125,-0.3277777777777778],[0.08125,-0.3277777777777778],[0.08125,-0.3277777777777778],[0.08125,-0.3277777777777778],[0.08125,-0.3277777777777778],[0.08125,-0.3277777777777778],[0.08125,-0.3277777777777778],[0.08125,-0.3277777777777778],[0.08125,-0.3277777777777778],[0.08125,-0.3277777777777778],[0.08125,-0.3277777777777778],[0.08125,-0.3277777777777778],[0.08125,-0.3277777777777778],[0.08125,-0.3277777777777778],[0.08125,-0.3277777777777778],[0.08125,-0.3277777777777778],[0.08125,-0.3277777777777778],[0.08125,-0.3277777777777778],[0.08125,-0.3277777777777778],[0.08125,-0.3277777777777778],[0.08125,-0.3277777777777778],[0.08125,-0.3277777777777778],[0.08125,-0.3277777777777778],[0.08125,-0.3277777777777778],[0.08125,-0.3277777777777778],[0.08125,-0.3277777777777778],[0.08125,-0.3277777777777778],[0.08125,-0.3277777777777778],[0.08125,-0.3277777777777778],[0.08125,-0.3277777777777778],[0.08125,-0.3277777777777778],[0.08125,-0.3277777777777778],[0.08125,-0.3277777777777778],[0.08125,-0.3277777777777778],[0.08125,-0.3277777777777778],[0.08125,-0.3277777777777778],[0.08125,-0.3277777777777778],[0.08125,-0.3277777777777778],[0.08125,-0.3277777777777778],[0.08125,-0.3277777777777778],[0.08125,-0.3277777777777778],[0.08125,-0.3277777777777778],[0.08125,-0.3277777777777778],[0.08125,-0.3277777777777778],[0.08125,-0.3277777777777778],[0.08125,-0.3277777777777778],[0.08125,-0.3277777777777778],[0.08125,-0.3277777777777778],[0.08125,-0.3277777777777778],[0.08125,-0.3277777777777778],[0.08125,-0.3277777777777778],[0.08125,-0.3277777777777778],[0.08125,-0.3277777777777778],[0.08125,-0.3277777777777778],[0.08125,-0.3277777777777778],[0.08125,-0.3277777777777778],[0.08125,-0.3277777777777778],[0.08125,-0.3277777777777778],[0.08125,-0.3277777777777778],[0.08125,-0.3277777777777778],[0.08125,-0.3277777777777778],[0.08125,-0.3277777777777778],[0.08125,-0.3277777777777778],[0.08125,-0.3277777777777778],[0.08125,-0.3277777777777778],[0.08125,-0.3277777777777778],[0.08125,-0.3277777777777778],[0.08125,-0.3277777777777778],[0.08125,-0.3277777777777778],[0.08125,-0.3277777777777778],[0.08125,-0.3277777777777778],[0.08125,-0.3277777777777778],[0.08125,-0.3277777777777778],[0.08125,-0.3277777777777778],[0.08125,-0.3277777777777778],[0.08125,-0.3277777777777778],[0.08125,-0.3277777777777778],[0.08125,-0.3277777777777778],[0.08125,-0.3277777777777778],[0.08125,-0.3277777777777778],[0.08125,-0.3277777777777778],[0.08125,-0.3277777777777778],[0.08125,-0.3277777777777778],[0.08125,-0.3277777777777778],[0.08125,-0.3277777777777778],[0.08125,-0.3277777777777778],[0.08125,-0.3277777777777778],[0.08125,-0.3277777777777778],[0.08125,-0.3277777777777778],[0.08125,-0.3277777777777778],[0.08125,-0.3277777777777778],[0.08125,-0.3277777777777778],[0.08125,-0.3277777777777778],[0.08125,-0.3277777777777778],[0.08125,-0.3277777777777778],[0.08125,-0.3277777777777778],[0.08125,-0.3277777777777778],[0.08125,-0.3277777777777778],[0.08125,-0.3277777777777778],[0.08125,-0.3277777777777778],[0.08125,-0.3277777777777778],[0.08125,-0.3277777777777778],[0.08125,-0.3277777777777778],[0.08125,-0.3277777777777778],[0.08125,-0.3277777777777778],[0.08125,-0.3277777777777778],[0.08125,-0.3277777777777778],[0.08125,-0.3277777777777778],[0.08125,-0.3277777777777778],[0.08125,-0.3277777777777778],[0.08125,-0.3277777777777778],[0.08125,-0.3277777777777778],[0.08125,-0.3277777777777778],[0.08125,-0.3277777777777778],[0.08125,-0.3277777777777778],[0.08125,-0.3277777777777778],[0.08125,-0.3277777777777778],[0.08125,-0.3277777777777778],[0.08125,-0.3277777777777778],[0.08125,-0.3277777777777778],[0.08125,-0.3277777777777778],[0.08125,-0.3277777777777778],[0.08125,-0.3277777777777778],[0.08125,-0.3277777777777778],[0.08125,-0.3277777777777778],[0.08125,-0.3277777777777778],[0.08125,-0.3277777777777778],[0.08125,-0.3277777777777778],[0.08125,-0.3277777777777778],[0.08125,-0.3277777777777778],[0.08125,-0.3277777777777778],[0.08125,-0.3277777777777778],[0.08125,-0.3277777777777778],[0.08125,-0.3277777777777778],[0.08125,-0.3277777777777778],[0.08125,-0.3277777777777778],[0.08125,-0.3277777777777778],[0.08125,-0.3277777777777778],[0.08125,-0.3277777777777778],[0.08125,-0.3277777777777778],[0.08125,-0.3277777777777778],[0.08125,-0.3277777777777778],[0.08125,-0.3277777777777778],[0.08125,-0.3277777777777778],[0.08125,-0.3277777777777778],[0.08125,-0.3277777777777778],[0.08125,-0.3277777777777778],[0.08125,-0.3277777777777778],[0.08125,-0.3277777777777778],[0.08125,-0.3277777777777778],[0.08125,-0.3277777777777778],[0.08125,-0.3277777777777778],[0.08125,-0.3277777777777778],[0.08125,-0.3277777777777778],[0.08125,-0.3277777777777778],[0.08125,-0.3277777777777778],[0.08125,-0.3277777777777778],[0.08125,-0.3277777777777778],[0.08125,-0.3277777777777778],[0.08125,-0.3277777777777778],[0.08125,-0.3277777777777778],[0.08125,-0.3277777777777778],[0.08125,-0.3277777777777778],[0.08125,-0.3277777777777778],[0.08125,-0.3277777777777778],[0.08125,-0.3277777777777778],[0.08125,-0.3277777777777778],[0.08125,-0.3277777777777778],[0.08125,-0.3277777777777778],[0.08125,-0.3277777777777778],[0.08125,-0.3277777777777778],[0.08125,-0.3277777777777778],[0.08125,-0.3277777777777778],[0.08125,-0.3277777777777778],[0.08125,-0.3277777777777778],[0.08125,-0.3277777777777778],[0.08125,-0.3277777777777778],[0.08125,-0.3277777777777778],[0.08125,-0.3277777777777778],[0.08125,-0.3277777777777778],[0.08125,-0.3277777777777778],[0.08125,-0.3277777777777778],[0.08125,-0.3277777777777778],[0.08125,-0.3277777777777778],[0.08125,-0.3277777777777778],[0.08125,-0.3277777777777778],[0.08125,-0.3277777777777778],[0.08125,-0.3277777777777778],[0.08125,-0.3277777777777778],[0.08125,-0.3277777777777778],[0.08125,-0.3277777777777778],[0.08125,-0.3277777777777778],[0.08125,-0.3277777777777778],[0.08125,-0.3277777777777778],[0.08125,-0.3277777777777778],[0.08125,-0.3277777777777778],[0.08125,-0.3277777777777778],[0.08125,-0.3277777777777778],[0.08125,-0.3277777777777778],[0.08125,-0.3277777777777778],[0.08125,-0.3277777777777778],[0.08125,-0.3277777777777778],[0.08125,-0.3277777777777778],[0.08125,-0.3277777777777778],[0.08125,-0.3277777777777778],[0.08125,-0.3277777777777778],[0.08125,-0.3277777777777778],[0.08125,-0.3277777777777778],[0.08125,-0.3277777777777778],[0.08125,-0.3277777777777778],[0.08125,-0.3277777777777778],[0.08125,-0.3277777777777778],[0.08125,-0.3277777777777778],[0.08125,-0.3277777777777778],[0.08125,-0.3277777777777778],[0.08125,-0.3277777777777778],[0.08125,-0.3277777777777778],[0.08125,-0.3277777777777778],[0.08125,-0.3277777777777778],[0.08125,-0.3277777777777778],[0.08125,-0.3277777777777778],[0.08125,-0.3277777777777778],[0.08125,-0.3277777777777778],[0.08125,-0.3277777777777778],[0.08125,-0.3277777777777778],[0.08125,-0.3277777777777778],[0.08125,-0.3277777777777778],[0.08125,-0.3277777777777778],[0.08125,-0.3277777777777778],[0.08125,-0.3277777777777778],[0.08125,-0.3277777777777778],[0.08125,-0.3277777777777778],[0.08125,-0.3277777777777778],[0.08125,-0.3277777777777778],[0.08125,-0.3277777777777778],[0.08125,-0.3277777777777778],[0.08125,-0.3277777777777778],[0.08125,-0.3277777777777778],[0.08125,-0.3277777777777778],[0.08125,-0.3277777777777778],[0.08125,-0.3277777777777778],[0.08125,-0.3277777777777778],[0.08125,-0.3277777777777778],[0.08125,-0.3277777777777778],[0.08125,-0.3277777777777778],[0.08125,-0.3277777777777778],[0.08125,-0.3277777777777778],[0.08125,-0.3277777777777778],[0.08125,-0.3277777777777778],[0.08125,-0.3277777777777778],[0.08125,-0.3277777777777778],[0.08125,-0.3277777777777778],[0.08125,-0.3277777777777778],[0.08125,-0.3277777777777778],[0.08125,-0.3277777777777778],[0.08125,-0.3277777777777778],[0.08125,-0.3277777777777778],[0.08125,-0.3277777777777778],[0.08125,-0.3277777777777778],[0.08125,-0.3277777777777778],[0.08125,-0.3277777777777778],[0.08125,-0.3277777777777778],[0.08125,-0.3277777777777778],[0.08125,-0.3277777777777778],[0.08125,-0.3277777777777778],[0.08125,-0.3277777777777778],[0.08125,-0.3277777777777778],[0.08125,-0.3277777777777778],[0.08125,-0.3277777777777778],[0.08125,-0.3277777777777778],[0.08125,-0.3277777777777778],[0.08125,-0.3277777777777778],[0.08125,-0.3277777777777778],[0.08125,-0.3277777777777778],[0.08125,-0.3277777777777778],[0.08125,-0.3277777777777778],[0.08125,-0.3277777777777778],[0.08125,-0.3277777777777778],[0.08125,-0.3277777777777778],[0.08125,-0.3277777777777778],[0.08125,-0.3277777777777778],[0.08125,-0.3277777777777778],[0.08125,-0.3277777777777778],[0.08125,-0.3277777777777778],[0.08125,-0.3277777777777778],[0.08125,-0.3277777777777778],[0.08125,-0.3277777777777778],[0.08125,-0.3277777777777778],[0.08125,-0.3277777777777778],[0.08125,-0.3277777777777778],[0.08125,-0.3277777777777778],[0.08125,-0.3277777777777778],[0.08125,-0.3277777777777778],[0.08125,-0.3277777777777778],[0.08125,-0.3277777777777778],[0.08125,-0.3277777777777778],[0.08125,-0.3277777777777778],[0.08125,-0.3277777777777778],[0.08125,-0.3277777777777778],[0.08125,-0.3277777777777778],[0.08125,-0.3277777777777778],[0.08125,-0.3277777777777778],[0.08125,-0.3277777777777778],[0.08125,-0.3277777777777778],[0.08125,-0.3277777777777778],[0.08125,-0.3277777777777778],[0.08125,-0.3277777777777778],[0.08125,-0.3277777777777778],[0.08125,-0.3277777777777778],[0.08125,-0.3277777777777778],[0.08125,-0.3277777777777778],[0.08125,-0.3277777777777778],[0.08125,-0.3277777777777778],[0.08125,-0.3277777777777778],[0.08125,-0.3277777777777778],[0.08125,-0.3277777777777778],[0.08125,-0.3277777777777778],[0.08125,-0.3277777777777778],[0.08125,-0.3277777777777778],[0.08125,-0.3277777777777778],[0.08125,-0.3277777777777778],[0.08125,-0.3277777777777778],[0.08125,-0.3277777777777778],[0.08125,-0.3277777777777778],[0.08125,-0.3277777777777778],[0.08125,-0.3277777777777778],[0.08125,-0.3277777777777778],[0.08125,-0.3277777777777778],[0.08125,-0.3277777777777778],[0.08125,-0.3277777777777778],[0.08125,-0.3277777777777778],[0.08125,-0.3277777777777778],[0.08125,-0.3277777777777778],[0.08125,-0.3277777777777778],[0.08125,-0.3277777777777778],[0.08125,-0.3277777777777778],[0.08125,-0.3277777777777778],[0.08125,-0.3277777777777778],[0.08125,-0.3277777777777778],[0.08125,-0.3277777777777778],[0.08125,-0.3277777777777778],[0.08125,-0.3277777777777778],[0.08125,-0.3277777777777778],[0.08125,-0.3277777777777778],[0.08125,-0.3277777777777778],[0.08125,-0.3277777777777778],[0.08125,-0.3277777777777778],[0.08125,-0.3277777777777778],[0.08125,-0.3277777777777778],[0.08125,-0.3277777777777778],[0.08125,-0.3277777777777778],[0.08125,-0.3277777777777778],[0.08125,-0.3277777777777778],[0.08125,-0.3277777777777778],[0.08125,-0.3277777777777778],[0.08125,-0.3277777777777778],[0.08125,-0.3277777777777778],[0.08125,-0.3277777777777778],[0.08125,-0.3277777777777778],[0.08125,-0.3277777777777778],[0.08125,-0.3277777777777778],[0.08125,-0.3277777777777778],[0.08125,-0.3277777777777778],[0.08125,-0.3277777777777778],[0.08125,-0.3277777777777778],[0.08125,-0.3277777777777778],[0.08125,-0.3277777777777778],[0.08125,-0.3277777777777778],[0.08125,-0.3277777777777778],[0.08125,-0.3277777777777778],[0.08125,-0.3277777777777778],[0.08125,-0.3277777777777778],[0.08125,-0.3277777777777778],[0.08125,-0.3277777777777778],[0.08125,-0.3277777777777778],[0.08125,-0.3277777777777778],[0.08125,-0.3277777777777778],[0.08125,-0.3277777777777778],[0.08125,-0.3277777777777778],[0.08125,-0.3277777777777778],[0.08125,-0.3277777777777778],[0.08125,-0.3277777777777778],[0.08125,-0.3277777777777778],[0.08125,-0.3277777777777778],[0.08125,-0.3277777777777778],[0.08125,-0.3277777777777778],[0.08125,-0.3277777777777778],[0.08125,-0.3277777777777778],[0.08125,-0.3277777777777778],[0.08125,-0.3277777777777778],[0.08125,-0.3277777777777778],[0.08125,-0.3277777777777778],[0.08125,-0.3277777777777778],[0.08125,-0.3277777777777778],[0.08125,-0.3277777777777778],[0.08125,-0.3277777777777778],[0.08125,-0.3277777777777778],[0.08125,-0.3277777777777778],[0.08125,-0.3277777777777778],[0.08125,-0.3277777777777778],[0.08125,-0.3277777777777778],[0.08125,-0.3277777777777778],[0.08125,-0.3277777777777778],[0.08125,-0.3277777777777778],[0.08125,-0.3277777777777778],[0.08125,-0.3277777777777778],[0.08125,-0.3277777777777778],[0.08125,-0.3277777777777778],[0.08125,-0.3277777777777778],[0.08125,-0.3277777777777778],[0.08125,-0.3277777777777778],[0.08125,-0.3277777777777778],[0.08125,-0.3277777777777778],[0.08125,-0.3277777777777778],[0.08125,-0.3277777777777778],[0.08125,-0.3277777777777778],[0.08125,-0.3277777777777778],[0.08125,-0.3277777777777778],[0.08125,-0.3277777777777778],[0.08125,-0.3277777777777778],[0.08125,-0.3277777777777778],[0.08125,-0.3277777777777778],[0.08125,-0.3277777777777778],[0.08125,-0.3277777777777778],[0.08125,-0.3277777777777778],[0.08125,-0.3277777777777778],[0.08125,-0.3277777777777778],[0.08125,-0.3277777777777778],[0.08125,-0.3277777777777778],[0.08125,-0.3277777777777778],[0.08125,-0.3277777777777778],[0.08125,-0.3277777777777778],[0.08125,-0.3277777777777778],[0.08125,-0.3277777777777778],[0.08125,-0.3277777777777778],[0.08125,-0.3277777777777778],[0.08125,-0.3277777777777778],[0.08125,-0.3277777777777778],[0.08125,-0.3277777777777778],[0.08125,-0.3277777777777778],[0.08125,-0.3277777777777778],[0.08125,-0.3277777777777778],[0.08125,-0.3277777777777778],[0.08125,-0.3277777777777778],[0.08125,-0.3277777777777778],[0.08125,-0.3277777777777778],[0.08125,-0.3277777777777778],[0.08125,-0.3277777777777778],[0.08125,-0.3277777777777778],[0.08125,-0.3277777777777778],[0.08125,-0.3277777777777778],[0.08125,-0.3277777777777778],[0.08125,-0.3277777777777778],[0.08125,-0.3277777777777778],[0.08125,-0.3277777777777778],[0.08125,-0.3277777777777778],[0.08125,-0.3277777777777778],[0.08125,-0.3277777777777778],[0.08125,-0.3277777777777778],[0.08125,-0.3277777777777778],[0.08125,-0.3277777777777778],[0.08125,-0.3277777777777778],[0.08125,-0.3277777777777778],[0.08125,-0.3277777777777778],[0.08125,-0.3277777777777778],[0.08125,-0.3277777777777778],[0.08125,-0.3277777777777778],[0.08125,-0.3277777777777778],[0.08125,-0.3277777777777778],[0.08125,-0.3277777777777778],[0.08125,-0.3277777777777778],[0.08125,-0.3277777777777778],[0.08125,-0.3277777777777778],[0.08125,-0.3277777777777778],[0.08125,-0.3277777777777778],[0.08125,-0.3277777777777778],[0.08125,-0.3277777777777778],[0.08125,-0.3277777777777778],[0.08125,-0.3277777777777778],[0.08125,-0.3277777777777778],[0.08125,-0.3277777777777778],[0.08125,-0.3277777777777778],[0.08125,-0.3277777777777778],[0.08125,-0.3277777777777778],[0.08125,-0.3277777777777778],[0.08125,-0.3277777777777778],[0.08125,-0.3277777777777778],[0.08125,-0.3277777777777778],[0.08125,-0.3277777777777778],[0.08125,-0.3277777777777778],[0.08125,-0.3277777777777778],[0.08125,-0.3277777777777778],[0.08125,-0.3277777777777778],[0.08125,-0.3277777777777778],[0.08125,-0.3277777777777778],[0.08125,-0.3277777777777778],[0.08125,-0.3277777777777778],[0.08125,-0.3277777777777778],[0.08125,-0.3277777777777778],[0.08125,-0.3277777777777778],[0.08125,-0.3277777777777778],[0.08125,-0.3277777777777778],[0.08125,-0.3277777777777778],[0.08125,-0.32407407407407407],[0.084375,-0.2814814814814815],[0.084375,-0.2351851851851852],[0.084375,-0.19074074074074074],[0.07916666666666666,-0.15555555555555556],[0.065625,-0.11481481481481481],[0.04895833333333333,-0.07962962962962963],[0.00625,-0.024074074074074074],[-0.03229166666666667,0.011111111111111112],[-0.07604166666666666,0.040740740740740744],[-0.128125,0.07407407407407407],[-0.17083333333333334,0.09444444444444444],[-0.2,0.09814814814814815],[-0.22395833333333334,0.09814814814814815],[-0.240625,0.09814814814814815],[-0.2625,0.09074074074074075],[-0.27708333333333335,0.08148148148148149],[-0.284375,0.07592592592592592],[-0.2989583333333333,0.06666666666666667],[-0.30416666666666664,0.05925925925925926],[-0.30625,0.05740740740740741],[-0.3072916666666667,0.05555555555555555],[-0.30833333333333335,0.053703703703703705],[-0.3125,0.040740740740740744],[-0.31666666666666665,0.012962962962962963],[-0.3229166666666667,-0.04814814814814815],[-0.32395833333333335,-0.06666666666666667],[-0.328125,-0.10185185185185185],[-0.328125,-0.1259259259259259],[-0.328125,-0.14074074074074075],[-0.328125,-0.15185185185185185],[-0.32708333333333334,-0.15925925925925927],[-0.32708333333333334,-0.16111111111111112],[-0.3260416666666667,-0.16296296296296298],[-0.325,-0.16296296296296298],[-0.3177083333333333,-0.16296296296296298],[-0.29375,-0.16296296296296298],[-0.228125,-0.16296296296296298],[-0.11666666666666667,-0.17222222222222222],[0.011458333333333333,-0.1925925925925926],[0.12708333333333333,-0.1925925925925926],[0.209375,-0.19444444444444445],[0.25729166666666664,-0.20185185185185187],[0.28229166666666666,-0.2037037037037037],[0.28541666666666665,-0.2037037037037037],[0.28541666666666665,-0.2037037037037037],[0.28541666666666665,-0.2037037037037037],[0.28541666666666665,-0.2037037037037037],[0.28541666666666665,-0.2037037037037037],[0.28541666666666665,-0.2037037037037037],[0.28541666666666665,-0.2037037037037037],[0.28541666666666665,-0.2037037037037037],[0.28541666666666665,-0.2037037037037037],[0.28541666666666665,-0.2037037037037037],[0.28541666666666665,-0.2037037037037037],[0.28541666666666665,-0.2037037037037037],[0.28541666666666665,-0.2037037037037037],[0.28541666666666665,-0.2037037037037037],[0.28541666666666665,-0.2037037037037037],[0.28541666666666665,-0.2037037037037037],[0.28541666666666665,-0.2037037037037037],[0.28541666666666665,-0.2037037037037037],[0.28541666666666665,-0.2037037037037037],[0.28541666666666665,-0.2037037037037037],[0.28541666666666665,-0.2037037037037037],[0.28541666666666665,-0.2037037037037037],[0.28541666666666665,-0.2037037037037037],[0.28541666666666665,-0.2037037037037037],[0.28541666666666665,-0.2037037037037037],[0.28541666666666665,-0.2037037037037037],[0.28541666666666665,-0.2037037037037037],[0.28541666666666665,-0.2037037037037037],[0.28541666666666665,-0.2037037037037037],[0.28541666666666665,-0.2037037037037037],[0.28541666666666665,-0.2037037037037037],[0.28541666666666665,-0.2037037037037037],[0.28541666666666665,-0.2037037037037037],[0.28541666666666665,-0.2037037037037037],[0.28541666666666665,-0.2037037037037037],[0.28541666666666665,-0.2037037037037037],[0.28541666666666665,-0.2037037037037037],[0.28541666666666665,-0.2037037037037037],[0.28541666666666665,-0.2037037037037037],[0.28541666666666665,-0.2037037037037037],[0.28541666666666665,-0.2037037037037037],[0.28541666666666665,-0.2037037037037037],[0.28541666666666665,-0.2037037037037037],[0.28541666666666665,-0.2037037037037037],[0.28541666666666665,-0.2037037037037037],[0.28541666666666665,-0.2037037037037037],[0.28541666666666665,-0.2037037037037037],[0.28541666666666665,-0.2037037037037037],[0.28541666666666665,-0.2037037037037037],[0.28541666666666665,-0.2037037037037037],[0.28541666666666665,-0.2037037037037037],[0.28541666666666665,-0.2037037037037037],[0.28541666666666665,-0.2037037037037037],[0.28541666666666665,-0.2037037037037037],[0.28541666666666665,-0.2037037037037037],[0.28541666666666665,-0.2037037037037037],[0.28541666666666665,-0.2037037037037037],[0.28541666666666665,-0.2037037037037037],[0.28541666666666665,-0.2037037037037037],[0.28541666666666665,-0.2037037037037037],[0.28541666666666665,-0.2037037037037037],[0.28541666666666665,-0.2037037037037037],[0.28541666666666665,-0.2037037037037037],[0.28541666666666665,-0.2037037037037037],[0.28541666666666665,-0.2037037037037037],[0.28541666666666665,-0.2037037037037037],[0.28541666666666665,-0.2037037037037037],[0.28541666666666665,-0.2037037037037037],[0.28541666666666665,-0.2037037037037037],[0.28541666666666665,-0.2037037037037037],[0.28541666666666665,-0.2037037037037037],[0.28541666666666665,-0.2037037037037037],[0.28541666666666665,-0.2037037037037037],[0.28541666666666665,-0.2037037037037037],[0.28541666666666665,-0.2037037037037037],[0.28541666666666665,-0.2037037037037037],[0.28541666666666665,-0.2037037037037037],[0.28541666666666665,-0.2037037037037037],[0.28541666666666665,-0.2037037037037037],[0.28541666666666665,-0.2037037037037037],[0.28541666666666665,-0.2037037037037037],[0.28541666666666665,-0.2037037037037037],[0.28541666666666665,-0.2037037037037037],[0.28541666666666665,-0.2037037037037037],[0.28541666666666665,-0.2037037037037037],[0.28541666666666665,-0.2037037037037037],[0.28541666666666665,-0.2037037037037037],[0.28541666666666665,-0.2037037037037037],[0.28541666666666665,-0.2037037037037037],[0.28541666666666665,-0.2037037037037037],[0.28541666666666665,-0.2037037037037037],[0.28541666666666665,-0.2037037037037037],[0.28541666666666665,-0.2037037037037037],[0.28541666666666665,-0.2037037037037037],[0.28541666666666665,-0.2037037037037037],[0.28541666666666665,-0.2037037037037037],[0.28541666666666665,-0.2037037037037037],[0.28541666666666665,-0.2037037037037037],[0.28541666666666665,-0.2037037037037037],[0.28541666666666665,-0.2037037037037037],[0.28541666666666665,-0.2037037037037037],[0.28541666666666665,-0.2037037037037037],[0.28541666666666665,-0.2037037037037037],[0.25833333333333336,-0.18333333333333332],[0.20833333333333334,-0.13333333333333333],[0.14270833333333333,-0.06666666666666667],[0.07604166666666666,0.001851851851851852],[0.020833333333333332,0.05740740740740741],[-0.03854166666666667,0.1],[-0.09479166666666666,0.12962962962962962],[-0.14791666666666667,0.15],[-0.19270833333333334,0.15925925925925927],[-0.22604166666666667,0.16296296296296298],[-0.246875,0.16111111111111112],[-0.25729166666666664,0.15],[-0.26875,0.12777777777777777],[-0.27708333333333335,0.08703703703703704],[-0.28020833333333334,0.027777777777777776],[-0.28020833333333334,-0.04814814814814815],[-0.2708333333333333,-0.09259259259259259],[-0.24583333333333332,-0.14444444444444443],[-0.19895833333333332,-0.20925925925925926],[-0.121875,-0.2740740740740741],[-0.017708333333333333,-0.3296296296296296],[0.14791666666666667,-0.37222222222222223],[0.19895833333333332,-0.37592592592592594],[0.29270833333333335,-0.3425925925925926],[0.35520833333333335,-0.29259259259259257],[0.4,-0.21481481481481482],[0.421875,-0.1111111111111111],[0.42291666666666666,-0.02962962962962963],[0.3854166666666667,0.10185185185185185],[0.3177083333333333,0.20185185185185187],[0.23541666666666666,0.27037037037037037],[0.16041666666666668,0.2962962962962963],[0.07604166666666666,0.2777777777777778],[-0.0125,0.18333333333333332],[-0.07916666666666666,0.03518518518518519],[-0.128125,-0.11851851851851852],[-0.146875,-0.22962962962962963],[-0.15104166666666666,-0.29814814814814816],[-0.146875,-0.35185185185185186],[-0.08958333333333333,-0.4222222222222222],[-0.008333333333333333,-0.45925925925925926],[0.08541666666666667,-0.4703703703703704],[0.18854166666666666,-0.43148148148148147],[0.29375,-0.3296296296296296],[0.3729166666666667,-0.20555555555555555],[0.4114583333333333,-0.06296296296296296],[0.415625,0.06111111111111111],[0.38125,0.1814814814814815],[0.3145833333333333,0.2759259259259259],[0.23020833333333332,0.3425925925925926],[0.13645833333333332,0.37037037037037035],[-0.00625,0.3111111111111111],[-0.09895833333333333,0.1685185185185185],[-0.15729166666666666,-0.009259259259259259],[-0.18020833333333333,-0.15555555555555556],[-0.184375,-0.25925925925925924],[-0.16041666666666668,-0.3296296296296296],[-0.08229166666666667,-0.4074074074074074],[0.03125,-0.4444444444444444],[0.15520833333333334,-0.4444444444444444],[0.278125,-0.3925925925925926],[0.37604166666666666,-0.28703703703703703],[0.45416666666666666,-0.14444444444444443],[0.484375,0.05555555555555555],[0.46041666666666664,0.17777777777777778],[0.39375,0.2833333333333333],[0.29583333333333334,0.34444444444444444],[0.2125,0.3611111111111111],[0.12395833333333334,0.3111111111111111],[0.03125,0.1685185185185185],[-0.034375,0.001851851851851852],[-0.06979166666666667,-0.14814814814814814],[-0.084375,-0.2611111111111111],[-0.084375,-0.3314814814814815],[-0.05625,-0.3962962962962963],[-0.041666666666666664,-0.40555555555555556],[-0.013541666666666667,-0.40925925925925927],[0.015625,-0.40925925925925927],[0.05520833333333333,-0.37407407407407406],[0.09479166666666666,-0.32592592592592595],[0.11666666666666667,-0.2814814814814815],[0.12604166666666666,-0.24444444444444444],[0.13020833333333334,-0.21666666666666667],[0.13125,-0.19814814814814816],[0.13125,-0.18703703703703703],[0.12916666666666668,-0.1814814814814815],[0.125,-0.17592592592592593],[0.12291666666666666,-0.17592592592592593],[0.12083333333333333,-0.17592592592592593],[0.12083333333333333,-0.19444444444444445],[0.11458333333333333,-0.2351851851851852],[0.11145833333333334,-0.2833333333333333],[0.11145833333333334,-0.34074074074074073],[0.11979166666666667,-0.387037037037037],[0.15,-0.4388888888888889],[0.18645833333333334,-0.4685185185185185],[0.221875,-0.47962962962962963],[0.253125,-0.47962962962962963],[0.2864583333333333,-0.4425925925925926],[0.29791666666666666,-0.40370370370370373],[0.29791666666666666,-0.3537037037037037],[0.2875,-0.2833333333333333],[0.25833333333333336,-0.2111111111111111],[0.23125,-0.17407407407407408],[0.2,-0.15925925925925927],[0.15729166666666666,-0.15925925925925927],[0.08333333333333333,-0.20185185185185187],[0.017708333333333333,-0.2796296296296296],[-0.027083333333333334,-0.37037037037037035],[-0.04583333333333333,-0.43333333333333335],[-0.04895833333333333,-0.4703703703703704],[-0.04895833333333333,-0.48333333333333334],[-0.041666666666666664,-0.4888888888888889],[-0.020833333333333332,-0.4888888888888889],[0.005208333333333333,-0.4759259259259259],[0.051041666666666666,-0.4148148148148148],[0.1,-0.30185185185185187],[0.13333333333333333,-0.1537037037037037],[0.13854166666666667,-0.05555555555555555],[0.12604166666666666,0.022222222222222223],[0.10625,0.07777777777777778],[0.07708333333333334,0.12037037037037036],[0.04583333333333333,0.13703703703703704],[0.014583333333333334,0.13703703703703704],[-0.053125,0.005555555555555556],[-0.10520833333333333,-0.2111111111111111],[-0.115625,-0.32222222222222224],[-0.1125,-0.3648148148148148],[-0.09583333333333334,-0.3814814814814815],[-0.084375,-0.38333333333333336],[-0.05,-0.3851851851851852],[0.0125,-0.3648148148148148],[0.07291666666666667,-0.31296296296296294],[0.11979166666666667,-0.24444444444444444],[0.15,-0.15555555555555556],[0.159375,-0.07777777777777778],[0.14479166666666668,0.011111111111111112],[0.121875,0.03148148148148148],[0.08854166666666667,0.037037037037037035],[0.035416666666666666,-0.007407407407407408],[-0.026041666666666668,-0.1425925925925926],[-0.078125,-0.32407407407407407],[-0.10833333333333334,-0.49444444444444446],[-0.11770833333333333,-0.5722222222222222],[-0.11770833333333333,-0.6055555555555555],[-0.115625,-0.6111111111111112],[-0.10729166666666666,-0.6111111111111112],[-0.08958333333333333,-0.6111111111111112],[-0.042708333333333334,-0.5833333333333334],[-0.0020833333333333333,-0.5462962962962963],[0.042708333333333334,-0.4777777777777778],[0.07604166666666666,-0.412962962962963],[0.08854166666666667,-0.3648148148148148],[0.09166666666666666,-0.3333333333333333],[0.09166666666666666,-0.31851851851851853],[0.09166666666666666,-0.3148148148148148],[0.09166666666666666,-0.3111111111111111],[0.090625,-0.3111111111111111],[0.0875,-0.3111111111111111],[0.084375,-0.3111111111111111],[0.08229166666666667,-0.3111111111111111],[0.08125,-0.3111111111111111],[0.08125,-0.3111111111111111],[0.08125,-0.3111111111111111],[0.08125,-0.3111111111111111],[0.08125,-0.3111111111111111],[0.08125,-0.3111111111111111],[0.08125,-0.3111111111111111],[0.08125,-0.3111111111111111],[0.08125,-0.3111111111111111],[0.08125,-0.3111111111111111],[0.08125,-0.3111111111111111],[0.08125,-0.3111111111111111],[0.08125,-0.3111111111111111],[0.08125,-0.3111111111111111],[0.08125,-0.3111111111111111],[0.08125,-0.3111111111111111],[0.08125,-0.3111111111111111],[0.08125,-0.3111111111111111],[0.08125,-0.3111111111111111],[0.08125,-0.3111111111111111],[0.08125,-0.3111111111111111],[0.08125,-0.3111111111111111],[0.08125,-0.3111111111111111],[0.08125,-0.3111111111111111],[0.08125,-0.3111111111111111],[0.08020833333333334,-0.30925925925925923],[0.08020833333333334,-0.30925925925925923],[0.08020833333333334,-0.30925925925925923],[0.08020833333333334,-0.30925925925925923],[0.08020833333333334,-0.30925925925925923],[0.08020833333333334,-0.30925925925925923],[0.08020833333333334,-0.30925925925925923],[0.08020833333333334,-0.30925925925925923],[0.08020833333333334,-0.30925925925925923],[0.08020833333333334,-0.30925925925925923],[0.08020833333333334,-0.30925925925925923],[0.08020833333333334,-0.30925925925925923],[0.08020833333333334,-0.30925925925925923],[0.08020833333333334,-0.30925925925925923],[0.08020833333333334,-0.30925925925925923],[0.08020833333333334,-0.30925925925925923],[0.08020833333333334,-0.30925925925925923],[0.08020833333333334,-0.30925925925925923],[0.08020833333333334,-0.30925925925925923],[0.08020833333333334,-0.30925925925925923],[0.08020833333333334,-0.30925925925925923],[0.08020833333333334,-0.30925925925925923],[0.08020833333333334,-0.30925925925925923],[0.08020833333333334,-0.30925925925925923],[0.08020833333333334,-0.30925925925925923],[0.08020833333333334,-0.30925925925925923],[0.08020833333333334,-0.30925925925925923],[0.08020833333333334,-0.30925925925925923],[0.08020833333333334,-0.30925925925925923],[0.08020833333333334,-0.30925925925925923],[0.08020833333333334,-0.30925925925925923],[0.08020833333333334,-0.30925925925925923],[0.08020833333333334,-0.30925925925925923],[0.08020833333333334,-0.30925925925925923],[0.08020833333333334,-0.30925925925925923],[0.08020833333333334,-0.30925925925925923],[0.08020833333333334,-0.30925925925925923],[0.08020833333333334,-0.30925925925925923],[0.08020833333333334,-0.30925925925925923],[0.08020833333333334,-0.30925925925925923],[0.08020833333333334,-0.30925925925925923],[0.08020833333333334,-0.30925925925925923],[0.08020833333333334,-0.30925925925925923],[0.08020833333333334,-0.30925925925925923],[0.08020833333333334,-0.30925925925925923],[0.08020833333333334,-0.30925925925925923],[0.08020833333333334,-0.30925925925925923],[0.08020833333333334,-0.30925925925925923],[0.08020833333333334,-0.30925925925925923],[0.08020833333333334,-0.30925925925925923],[0.08020833333333334,-0.30925925925925923],[0.08020833333333334,-0.30925925925925923],[0.08020833333333334,-0.30925925925925923],[0.08020833333333334,-0.30925925925925923],[0.08020833333333334,-0.30925925925925923],[0.08020833333333334,-0.30925925925925923],[0.08020833333333334,-0.30925925925925923],[0.08020833333333334,-0.30925925925925923],[0.08020833333333334,-0.30925925925925923],[0.08020833333333334,-0.30925925925925923],[0.08020833333333334,-0.30925925925925923],[0.08020833333333334,-0.30925925925925923],[0.08020833333333334,-0.30925925925925923],[0.08020833333333334,-0.30925925925925923],[0.08020833333333334,-0.30925925925925923],[0.08020833333333334,-0.30925925925925923],[0.08020833333333334,-0.30925925925925923],[0.08020833333333334,-0.30925925925925923],[0.08020833333333334,-0.30925925925925923],[0.08020833333333334,-0.30925925925925923],[0.08020833333333334,-0.30925925925925923],[0.08020833333333334,-0.30925925925925923],[0.08020833333333334,-0.30925925925925923],[0.08020833333333334,-0.30925925925925923],[0.08020833333333334,-0.30925925925925923],[0.08020833333333334,-0.30925925925925923],[0.08020833333333334,-0.30925925925925923],[0.08020833333333334,-0.30925925925925923],[0.08020833333333334,-0.30925925925925923],[0.08020833333333334,-0.30925925925925923],[0.08020833333333334,-0.30925925925925923],[0.08020833333333334,-0.30925925925925923],[0.08020833333333334,-0.30925925925925923],[0.08020833333333334,-0.30925925925925923],[0.08020833333333334,-0.30925925925925923],[0.08020833333333334,-0.30925925925925923],[0.08020833333333334,-0.30925925925925923],[0.08020833333333334,-0.30925925925925923],[0.08020833333333334,-0.30925925925925923],[0.08020833333333334,-0.30925925925925923],[0.08020833333333334,-0.30925925925925923],[0.08020833333333334,-0.30925925925925923],[0.08020833333333334,-0.30925925925925923],[0.08020833333333334,-0.30925925925925923],[0.08020833333333334,-0.30925925925925923],[0.08020833333333334,-0.30925925925925923],[0.08020833333333334,-0.30925925925925923],[0.08020833333333334,-0.30925925925925923],[0.08020833333333334,-0.30925925925925923],[0.08020833333333334,-0.30925925925925923],[0.08020833333333334,-0.30925925925925923],[0.08020833333333334,-0.30925925925925923],[0.08020833333333334,-0.30925925925925923],[0.08020833333333334,-0.30925925925925923],[0.08020833333333334,-0.30925925925925923],[0.08020833333333334,-0.30925925925925923],[0.08020833333333334,-0.30925925925925923],[0.08020833333333334,-0.30925925925925923],[0.08020833333333334,-0.30925925925925923],[0.08020833333333334,-0.30925925925925923],[0.08020833333333334,-0.30925925925925923],[0.08020833333333334,-0.30925925925925923],[0.08020833333333334,-0.30925925925925923],[0.08020833333333334,-0.30925925925925923],[0.08020833333333334,-0.30925925925925923],[0.08020833333333334,-0.30925925925925923],[0.08020833333333334,-0.30925925925925923],[0.08020833333333334,-0.30925925925925923],[0.08020833333333334,-0.30925925925925923],[0.08020833333333334,-0.30925925925925923],[0.08020833333333334,-0.30925925925925923],[0.08020833333333334,-0.30925925925925923],[0.0875,-0.29074074074074074],[0.09895833333333333,-0.26851851851851855],[0.11145833333333334,-0.24444444444444444],[0.12708333333333333,-0.21666666666666667],[0.15625,-0.1574074074074074],[0.16979166666666667,-0.12777777777777777],[0.18333333333333332,-0.09444444444444444],[0.18854166666666666,-0.07777777777777778],[0.196875,-0.046296296296296294],[0.20104166666666667,-0.02962962962962963],[0.20104166666666667,-0.024074074074074074],[0.20104166666666667,-0.018518518518518517],[0.20104166666666667,-0.014814814814814815],[0.20104166666666667,-0.005555555555555556],[0.20104166666666667,0.001851851851851852],[0.2,0.014814814814814815],[0.19895833333333332,0.020370370370370372],[0.19895833333333332,0.027777777777777776],[0.2,0.03518518518518519],[0.2,0.03518518518518519],[0.2,0.03518518518518519],[0.2,0.03518518518518519],[0.2,0.03518518518518519],[0.2,0.037037037037037035],[0.21666666666666667,0.037037037037037035],[0.246875,0.037037037037037035],[0.25416666666666665,0.04259259259259259],[0.26145833333333335,0.06296296296296296],[0.28020833333333334,0.13333333333333333],[0.3072916666666667,0.22592592592592592],[0.32916666666666666,0.29444444444444445],[0.34479166666666666,0.3333333333333333],[0.359375,0.37592592592592594],[0.3645833333333333,0.39444444444444443],[0.3697916666666667,0.4111111111111111],[0.378125,0.42962962962962964],[0.38333333333333336,0.43703703703703706],[0.3885416666666667,0.4444444444444444],[0.39895833333333336,0.4537037037037037],[0.40729166666666666,0.46111111111111114],[0.41041666666666665,0.4666666666666667],[0.41041666666666665,0.4666666666666667],[0.41041666666666665,0.4666666666666667],[0.41041666666666665,0.4666666666666667],[0.4114583333333333,0.4666666666666667],[0.4114583333333333,0.4666666666666667],[0.4114583333333333,0.4666666666666667],[0.4114583333333333,0.4666666666666667],[0.4114583333333333,0.4666666666666667],[0.4114583333333333,0.45925925925925926],[0.4114583333333333,0.4462962962962963],[0.4114583333333333,0.4388888888888889],[0.4114583333333333,0.43333333333333335],[0.4114583333333333,0.42777777777777776],[0.4114583333333333,0.42592592592592593],[0.4114583333333333,0.42592592592592593],[0.4114583333333333,0.42592592592592593],[0.4114583333333333,0.42592592592592593],[0.4114583333333333,0.42592592592592593],[0.4114583333333333,0.42592592592592593],[0.4114583333333333,0.42592592592592593],[0.4114583333333333,0.42592592592592593],[0.4114583333333333,0.42592592592592593],[0.4114583333333333,0.42592592592592593],[0.4114583333333333,0.42592592592592593],[0.4114583333333333,0.42592592592592593],[0.4114583333333333,0.42592592592592593],[0.4114583333333333,0.42592592592592593],[0.4114583333333333,0.42592592592592593],[0.4114583333333333,0.42592592592592593],[0.4114583333333333,0.42592592592592593],[0.4114583333333333,0.42592592592592593],[0.4114583333333333,0.42592592592592593],[0.4114583333333333,0.412962962962963],[0.4114583333333333,0.3925925925925926],[0.4114583333333333,0.36666666666666664],[0.4114583333333333,0.34074074074074073],[0.4114583333333333,0.31296296296296294],[0.409375,0.29259259259259257],[0.409375,0.2759259259259259],[0.4083333333333333,0.26296296296296295],[0.4083333333333333,0.26296296296296295],[0.4083333333333333,0.26296296296296295],[0.4083333333333333,0.26296296296296295],[0.4083333333333333,0.26296296296296295],[0.4083333333333333,0.26296296296296295],[0.4083333333333333,0.26296296296296295],[0.4083333333333333,0.26296296296296295],[0.4083333333333333,0.26296296296296295],[0.4083333333333333,0.26296296296296295],[0.4083333333333333,0.26296296296296295],[0.4083333333333333,0.26296296296296295],[0.4083333333333333,0.26296296296296295],[0.4083333333333333,0.26296296296296295],[0.40729166666666666,0.2537037037037037],[0.4041666666666667,0.2222222222222222],[0.39791666666666664,0.17037037037037037],[0.39375,0.11666666666666667],[0.390625,0.07222222222222222],[0.38958333333333334,0.04814814814814815],[0.38958333333333334,0.037037037037037035],[0.38958333333333334,0.03518518518518519],[0.38958333333333334,0.03518518518518519],[0.38958333333333334,0.03518518518518519],[0.38958333333333334,0.03518518518518519],[0.38958333333333334,0.03518518518518519],[0.38958333333333334,0.03518518518518519],[0.38958333333333334,0.03518518518518519],[0.38958333333333334,0.03518518518518519],[0.38958333333333334,0.03518518518518519],[0.38958333333333334,0.03518518518518519],[0.38958333333333334,0.03518518518518519],[0.38958333333333334,0.03518518518518519],[0.38958333333333334,0.03518518518518519],[0.39479166666666665,0.09814814814814815],[0.41354166666666664,0.23703703703703705]]","[[-0.0860416666666667,0.10999999999999996],[-0.0860416666666667,0.10999999999999996],[-0.10104166666666667,0.11999999999999991],[-0.10104166666666667,0.11999999999999991],[-0.10333333333333337,0.09444444444444444],[-0.10333333333333337,0.09444444444444444],[-0.07666666666666669,0.040740740740740744],[-0.07666666666666669,0.040740740740740744],[-0.09135416666666671,0.04592592592592584],[-0.09135416666666671,0.04592592592592584],[-0.11114583333333337,0.05537037037037033],[-0.11114583333333337,0.05537037037037033],[-0.13531249999999997,0.08333333333333333],[-0.13531249999999997,0.08333333333333333],[-0.13895833333333332,0.13259259259259262],[-0.13895833333333332,0.13259259259259262],[-0.16010416666666671,0.19574074074074083],[-0.16010416666666671,0.19574074074074083],[-0.18343750000000003,0.2544444444444444],[-0.18343750000000003,0.2544444444444444],[-0.19864583333333338,0.27444444444444455],[-0.19864583333333338,0.27444444444444455],[-0.286875,0.272037037037037],[-0.286875,0.272037037037037],[-0.3333333333333333,0.29555555555555557],[-0.3333333333333333,0.29555555555555557],[-0.41000000000000003,0.3531481481481482],[-0.41000000000000003,0.3531481481481482],[-0.45510416666666664,0.3712962962962963],[-0.45510416666666664,0.3712962962962963],[-0.44479166666666664,0.3566666666666667],[-0.47479166666666667,0.33203703703703696],[-0.49156249999999996,0.2766666666666666],[-0.5042708333333333,0.20870370370370378],[-0.5026041666666666,0.1962962962962963],[-0.5614583333333333,0.22092592592592583],[-0.5501041666666667,0.256111111111111],[-0.5696875,0.25500000000000006],[-0.5660416666666667,0.24518518518518514],[-0.5566666666666666,0.2564814814814815],[-0.598125,0.30833333333333335],[-0.5948958333333334,0.3516666666666666],[-0.6053125,0.4137037037037037],[-0.5961458333333333,0.4272222222222223],[-0.5791666666666667,0.3961111111111111],[-0.5271875,0.4118518518518518],[-0.49354166666666666,0.3757407407407407],[-0.471875,0.35425925925925916],[-0.4483333333333333,0.3603703703703704],[-0.4247916666666666,0.36648148148148146],[-0.4247916666666666,0.36648148148148146],[-0.38375,0.30648148148148147],[-0.35093749999999996,0.2722222222222222],[-0.35093749999999996,0.2722222222222222],[-0.3202083333333333,0.24462962962962967],[-0.2751041666666667,0.2505555555555555],[-0.2751041666666667,0.2505555555555555],[-0.23385416666666667,0.2733333333333334],[-0.23385416666666667,0.2733333333333334],[-0.19104166666666664,0.25388888888888894],[-0.19104166666666664,0.25388888888888894],[-0.14624999999999996,0.27685185185185185],[-0.09208333333333331,0.2920370370370371],[-0.09208333333333331,0.2920370370370371],[-0.04791666666666667,0.2748148148148148],[-0.015625,0.24296296296296305],[0.007708333333333309,0.26370370370370366],[0.03927083333333338,0.25870370370370377],[0.08458333333333339,0.225],[0.109375,0.20500000000000007],[0.12854166666666675,0.17166666666666675],[0.12854166666666675,0.17166666666666675],[0.1546875,0.14462962962962966],[0.17020833333333343,0.11037037037037041],[0.17635416666666662,0.0838888888888888],[0.15906250000000005,0.10481481481481486],[0.18229166666666666,0.13481481481481472],[0.17583333333333329,0.1455555555555556],[0.16937499999999991,0.15629629629629627],[0.153125,0.1844444444444445],[0.1368750000000001,0.2125925925925925],[0.11708333333333343,0.26425925925925936],[0.10614583333333343,0.3066666666666667],[0.08885416666666662,0.3346296296296297],[0.08312499999999995,0.3449999999999999],[0.0859375,0.330925925925926],[0.07864583333333333,0.32111111111111107],[0.08364583333333328,0.32629629629629636],[0.08364583333333328,0.32629629629629636],[0.08197916666666671,0.34740740740740744],[0.07687499999999996,0.3633333333333334],[0.07177083333333342,0.3792592592592592],[0.049791666666666616,0.4014814814814814],[0.0515625,0.402962962962963],[0.04385416666666669,0.42314814814814816],[0.04385416666666669,0.42314814814814816],[0.024583333333333356,0.4609259259259259],[0.006458333333333381,0.4981481481481482],[-0.030208333333333334,0.5366666666666666],[-0.07052083333333338,0.5672222222222222],[-0.10416666666666667,0.581851851851852],[-0.1907291666666667,0.6118518518518518],[-0.2772916666666667,0.6418518518518519],[-0.3540625,0.6716666666666667],[-0.45260416666666664,0.7033333333333333],[-0.5353125,0.7307407407407408],[-0.6180208333333332,0.7581481481481481],[-0.6802083333333333,0.7514814814814814],[-0.7186458333333333,0.7588888888888888],[-0.7534375,0.7742592592592593],[-0.7534375,0.7742592592592593],[-0.8227083333333333,0.8138888888888889],[-0.8439583333333334,0.8435185185185186],[-0.855,0.8674074074074074],[-0.8591666666666666,0.8709259259259259],[-0.8665625,0.8972222222222223],[-0.86,0.9096296296296297],[-0.8557291666666667,0.9353703703703702],[-0.8742708333333333,0.9731481481481481],[-0.8742708333333333,0.9731481481481481],[-0.9165625,0.9968518518518518],[-0.9401041666666666,1.027037037037037],[-0.9282291666666667,1.0348148148148146],[-0.9131250000000001,1.0348148148148146],[-0.9082291666666666,1.0405555555555557],[-0.8981250000000001,1.0399999999999998],[-0.8867708333333333,1.0355555555555556],[-0.8955208333333334,1.0635185185185185],[-0.8877083333333334,1.0649999999999997],[-0.8877083333333334,1.0649999999999997],[-0.8613541666666666,1.05],[-0.831875,1.0403703703703704],[-0.8315625,1.0444444444444445],[-0.8321875,1.0466666666666669],[-0.8045833333333333,1.022962962962963],[-0.7769791666666667,0.9992592592592591],[-0.7365625,0.9703703703703703],[-0.6770833333333334,0.9364814814814816],[-0.6770833333333334,0.9364814814814816],[-0.6485416666666667,0.9101851851851852],[-0.6359375,0.9220370370370372],[-0.6258333333333332,0.95],[-0.6330208333333334,0.9712962962962963],[-0.6297916666666666,0.9724074074074073],[-0.6472916666666666,0.9992592592592591],[-0.6866666666666668,1.0572222222222223],[-0.7260416666666667,1.1151851851851853],[-0.7620833333333333,1.151111111111111],[-0.8207291666666666,1.2077777777777778],[-0.8267708333333333,1.2],[-0.8057291666666667,1.1075925925925925],[-0.7855208333333333,1.0859259259259262],[-0.7561458333333333,1.067222222222222],[-0.7773958333333333,1.0722222222222222],[-0.7561458333333333,1.0425925925925925],[-0.7367708333333333,1.0157407407407408],[-0.7002083333333334,0.9609259259259261],[-0.6821875,0.9407407407407408],[-0.6865625000000001,0.9364814814814816],[-0.7064583333333334,0.9705555555555554],[-0.7097916666666666,1.038703703703704],[-0.7122916666666667,1.0361111111111112],[-0.7346874999999999,1.037962962962963],[-0.7252083333333333,1.0342592592592592],[-0.7331249999999999,1.038148148148148],[-0.7178125000000001,0.9981481481481481],[-0.7115625,1.0022222222222223],[-0.7053125,1.0062962962962965],[-0.6601041666666667,0.9566666666666664],[-0.6148958333333333,0.907037037037037],[-0.6116666666666667,0.8829629629629628],[-0.6430208333333333,0.8937037037037038],[-0.6220833333333334,0.8753703703703705],[-0.6220833333333334,0.8753703703703705],[-0.5793750000000001,0.8288888888888889],[-0.5492708333333333,0.793148148148148],[-0.5492708333333333,0.793148148148148],[-0.5154166666666666,0.7903703703703703],[-0.5154166666666666,0.7903703703703703],[-0.459375,0.7262962962962963],[-0.459375,0.7262962962962963],[-0.4514583333333333,0.7320370370370369],[-0.4514583333333333,0.7320370370370369],[-0.41437499999999994,0.7014814814814814],[-0.41437499999999994,0.7014814814814814],[-0.4070833333333333,0.7111111111111111],[-0.35281250000000003,0.6638888888888889],[-0.2827083333333333,0.5898148148148148],[-0.21541666666666662,0.5485185185185186],[-0.15114583333333337,0.5172222222222221],[-0.10041666666666664,0.5235185185185186],[-0.07479166666666662,0.537962962962963],[-0.07364583333333338,0.5733333333333334],[-0.024374999999999977,0.49981481481481477],[-0.01729166666666669,0.4846296296296297],[0.042812500000000024,0.43796296296296294],[0.05593750000000005,0.44814814814814813],[0.06135416666666664,0.49444444444444446],[0.0421875,0.530925925925926],[0.002812500000000047,0.547037037037037],[0.002812500000000047,0.547037037037037],[-0.014791666666666713,0.5161111111111112],[-0.046875,0.5259259259259259],[-0.05322916666666669,0.537962962962963],[-0.065625,0.5924074074074074],[-0.06020833333333329,0.6387037037037037],[-0.08312499999999995,0.6816666666666668],[-0.10604166666666662,0.7246296296296295],[-0.09479166666666666,0.7422222222222221],[-0.08354166666666671,0.7598148148148147],[-0.05427083333333336,0.7725925925925927],[-0.025,0.7853703703703704],[0.0234375,0.7477777777777777],[0.04031250000000005,0.7322222222222222],[0.05166666666666669,0.7364814814814815],[0.04520833333333331,0.7488888888888888],[0.03729166666666662,0.7475925925925927],[0.029375000000000047,0.7462962962962963],[0.013750000000000047,0.7262962962962963],[0.0014583333333333095,0.696111111111111],[-0.008645833333333287,0.6911111111111112],[-0.008229166666666643,0.6962962962962963],[-0.0125,0.7111111111111111],[-0.02302083333333336,0.7266666666666666],[-0.021979166666666692,0.719074074074074],[-0.016250000000000025,0.712037037037037],[-0.0015625,0.7066666666666667],[0.013125000000000024,0.7012962962962964],[0.03864583333333336,0.6877777777777777],[0.06083333333333331,0.6844444444444445],[0.08166666666666676,0.6833333333333333],[0.10125000000000005,0.6801851851851851],[0.10385416666666672,0.6696296296296297],[0.11270833333333338,0.6583333333333333],[0.1178124999999999,0.6418518518518519],[0.11489583333333328,0.6231481481481481],[0.12468750000000005,0.6214814814814815],[0.13447916666666657,0.6198148148148149],[0.13447916666666657,0.6198148148148149],[0.11916666666666677,0.6407407407407407],[0.11635416666666672,0.657037037037037],[0.11489583333333328,0.6711111111111111],[0.10416666666666667,0.6770370370370371],[0.08760416666666657,0.6881481481481482],[0.07104166666666671,0.6992592592592592],[0.0026041666666666665,0.75],[-0.0625,0.8024074074074073],[-0.15416666666666667,0.8548148148148148],[-0.15416666666666667,0.8548148148148148],[-0.23666666666666672,0.9120370370370371],[-0.30041666666666667,0.9557407407407406],[-0.3766666666666667,1.0040740740740741],[-0.463125,1.0455555555555553],[-0.5495833333333333,1.087037037037037],[-0.6152083333333334,1.118888888888889],[-0.6808333333333334,1.1507407407407408],[-0.7010416666666667,1.1655555555555557],[-0.72125,1.1803703703703705],[-0.7180208333333333,1.1735185185185186],[-0.7239583333333334,1.161851851851852],[-0.7594791666666667,1.1522222222222223],[-0.795,1.1425925925925926],[-0.810625,1.137037037037037],[-0.82625,1.1314814814814815],[-0.8351041666666668,1.1485185185185185],[-0.8439583333333334,1.1655555555555557],[-0.8439583333333334,1.1655555555555557],[-0.8426041666666666,1.1651851851851853],[-0.8579166666666667,1.1603703703703703],[-0.875625,1.1651851851851853],[-0.8933333333333333,1.17],[-0.8942708333333333,1.173888888888889],[-0.8952083333333333,1.1777777777777778],[-0.91,1.1833333333333333],[-0.9247916666666666,1.1888888888888889],[-0.9362499999999999,1.1887037037037038],[-0.9516666666666667,1.186851851851852],[-0.9670833333333333,1.1850000000000003],[-0.9632291666666667,1.180185185185185],[-0.9689583333333334,1.1770370370370369],[-0.9701041666666667,1.1887037037037038],[-0.9629166666666666,1.1983333333333333],[-0.9403125,1.1777777777777778],[-0.9135416666666667,1.1583333333333334],[-0.9001041666666667,1.1609259259259261],[-0.8947916666666667,1.1585185185185183],[-0.8735416666666667,1.1587037037037038],[-0.8522916666666667,1.1588888888888889],[-0.7941666666666667,1.1662962962962962],[-0.7334375000000001,1.1246296296296296],[-0.6772916666666667,1.068148148148148],[-0.6085416666666668,0.9944444444444445],[-0.5552083333333333,0.950925925925926],[-0.5552083333333333,0.950925925925926],[-0.46947916666666667,0.8968518518518518],[-0.46947916666666667,0.8968518518518518],[-0.3330208333333334,0.8598148148148147],[-0.3330208333333334,0.8598148148148147],[-0.2155208333333333,0.8133333333333335],[-0.2155208333333333,0.8133333333333335],[-0.11520833333333336,0.735],[-0.11520833333333336,0.735],[-0.04885416666666664,0.6466666666666667],[-0.04885416666666664,0.6466666666666667],[-0.03177083333333333,0.5574074074074075],[-0.019375000000000024,0.5425925925925926],[-0.010416666666666666,0.5333333333333333],[-0.0140625,0.5412962962962962],[-0.04041666666666662,0.5738888888888889],[-0.09916666666666671,0.6170370370370372],[-0.20020833333333338,0.6322222222222221],[-0.28718750000000004,0.6683333333333333],[-0.35958333333333337,0.7237037037037036],[-0.35958333333333337,0.7237037037037036],[-0.3980208333333334,0.7890740740740741],[-0.4360416666666667,0.8205555555555556],[-0.4784375,0.8714814814814815],[-0.5127083333333333,0.9079629629629629],[-0.5469791666666667,0.9444444444444444],[-0.575625,0.9703703703703703],[-0.6042708333333333,0.9962962962962963],[-0.5927083333333333,1.0031481481481481],[-0.57625,0.9985185185185186],[-0.57625,0.9985185185185186],[-0.5129166666666667,0.9785185185185187],[-0.42906249999999996,0.9764814814814814],[-0.3492708333333333,1.001666666666667],[-0.2630208333333333,0.9820370370370369],[-0.19781249999999997,0.955925925925926],[-0.19781249999999997,0.955925925925926],[-0.1326041666666666,0.9298148148148146],[-0.04635416666666667,0.8894444444444444],[0.03302083333333338,0.8175925925925925],[0.07708333333333334,0.7537037037037037],[0.10791666666666658,0.6888888888888889],[0.08250000000000005,0.6511111111111112],[0.025729166666666713,0.6164814814814814],[-0.012395833333333309,0.587037037037037],[-0.050520833333333334,0.5575925925925926],[-0.09052083333333331,0.5577777777777778],[-0.13052083333333328,0.5579629629629629],[-0.1736458333333334,0.5638888888888889],[-0.20989583333333334,0.6012962962962963],[-0.24260416666666665,0.6364814814814815],[-0.26208333333333333,0.6725925925925926],[-0.286875,0.7062962962962962],[-0.2986458333333334,0.7201851851851852],[-0.33708333333333335,0.7390740740740741],[-0.37468750000000006,0.7624074074074075],[-0.3940624999999999,0.7714814814814815],[-0.4163541666666667,0.7798148148148148],[-0.43947916666666664,0.7825925925925926],[-0.43947916666666664,0.7825925925925926],[-0.4708333333333333,0.7883333333333334],[-0.4934375,0.8088888888888888],[-0.5160416666666666,0.8294444444444444],[-0.5502083333333334,0.8512962962962963],[-0.5865625,0.8718518518518518],[-0.5688541666666667,0.8674074074074074],[-0.5688541666666667,0.8674074074074074],[-0.5519791666666667,0.8585185185185186],[-0.5545833333333333,0.8648148148148148],[-0.5279166666666667,0.8640740740740741],[-0.5220833333333333,0.8514814814814814],[-0.5080208333333334,0.8359259259259259],[-0.49635416666666665,0.8079629629629629],[-0.4846875,0.7800000000000001],[-0.44770833333333326,0.7605555555555557],[-0.41072916666666665,0.7411111111111112],[-0.43812500000000004,0.7553703703703704],[-0.4601041666666667,0.7651851851851853],[-0.47593749999999996,0.7738888888888888],[-0.51125,0.7805555555555556],[-0.5155208333333333,0.7925925925925926],[-0.5366666666666667,0.7975925925925926],[-0.5677083333333334,0.8024074074074073],[-0.5888541666666666,0.8131481481481482],[-0.6184375000000001,0.8164814814814815],[-0.6184375000000001,0.8164814814814815],[-0.6351041666666667,0.8109259259259259],[-0.6139583333333333,0.7724074074074074],[-0.5982291666666666,0.7383333333333334],[-0.6007291666666668,0.727037037037037],[-0.6007291666666668,0.727037037037037],[-0.6101041666666667,0.7255555555555555],[-0.6101041666666667,0.7255555555555555],[-0.5610416666666667,0.687037037037037],[-0.4594791666666667,0.6762962962962964],[-0.37083333333333335,0.6461111111111111],[-0.2672916666666667,0.6638888888888889],[-0.16375000000000003,0.6816666666666668],[-0.16375000000000003,0.6816666666666668],[-0.08364583333333328,0.7005555555555555],[-0.020729166666666642,0.7198148148148149],[0.04760416666666671,0.7187037037037037],[0.1443749999999999,0.6642592592592593],[0.2150000000000001,0.6199999999999999],[0.2169791666666666,0.6192592592592592],[0.17218749999999997,0.5977777777777777],[0.14031250000000003,0.5957407407407408],[0.06864583333333343,0.5318518518518519],[-0.00302083333333331,0.467962962962963],[-0.04364583333333331,0.4301851851851851],[-0.07312500000000005,0.41388888888888886],[-0.09479166666666666,0.41796296296296304],[-0.11333333333333329,0.4385185185185184],[-0.1390625,0.48296296296296287],[-0.1390625,0.48296296296296287],[-0.14645833333333336,0.5314814814814814],[-0.1319791666666667,0.5681481481481481],[-0.1123958333333333,0.5949999999999999],[-0.07937500000000004,0.6251851851851852],[-0.06989583333333335,0.6675925925925926],[-0.05541666666666671,0.6642592592592593],[-0.05541666666666671,0.6642592592592593],[-0.03843749999999998,0.6625925925925925],[-0.03843749999999998,0.6625925925925925],[-0.034687499999999954,0.6609259259259259],[-0.034687499999999954,0.6609259259259259],[-0.049270833333333285,0.6892592592592593],[-0.049270833333333285,0.6892592592592593],[-0.019479166666666714,0.6733333333333333],[-0.024583333333333356,0.6548148148148148],[-0.024583333333333356,0.6548148148148148],[-0.04041666666666662,0.6481481481481481],[-0.04041666666666662,0.6481481481481481],[-0.07145833333333336,0.6664814814814815],[-0.10416666666666667,0.681111111111111],[-0.11843750000000004,0.6925925925925925],[-0.12854166666666664,0.7168518518518519],[-0.15687500000000001,0.7487037037037036],[-0.15687500000000001,0.7487037037037036],[-0.18520833333333328,0.7805555555555556],[-0.1811458333333333,0.7798148148148148],[-0.2179166666666667,0.7933333333333333],[-0.23989583333333328,0.8170370370370371],[-0.26187499999999997,0.8407407407407408],[-0.28020833333333334,0.8442592592592593],[-0.2953125,0.856111111111111],[-0.2916666666666667,0.8588888888888888],[-0.3177083333333333,0.8762962962962964],[-0.3255208333333333,0.8496296296296295],[-0.32406250000000003,0.7988888888888889],[-0.3366666666666667,0.7507407407407407],[-0.32447916666666665,0.7133333333333334],[-0.3177083333333333,0.6851851851851852],[-0.3265625,0.6833333333333333],[-0.3219791666666667,0.68],[-0.3016666666666667,0.6827777777777778],[-0.30229166666666674,0.6844444444444445],[-0.2997916666666666,0.6966666666666668],[-0.2997916666666666,0.7437037037037038],[-0.30489583333333337,0.8098148148148148],[-0.31,0.8759259259259259],[-0.32000000000000006,0.8988888888888891],[-0.3228125,0.9009259259259259],[-0.3228125,0.9009259259259259],[-0.30114583333333333,0.8407407407407408],[-0.25541666666666674,0.812962962962963],[-0.2341666666666666,0.7748148148148147],[-0.20562499999999997,0.7377777777777778],[-0.18479166666666663,0.6557407407407407],[-0.14750000000000002,0.5575925925925926],[-0.11197916666666667,0.48222222222222216],[-0.07645833333333331,0.4068518518518519],[-0.033645833333333285,0.3635185185185184],[0.00916666666666662,0.32018518518518513],[0.035104166666666714,0.30574074074074076],[0.035625000000000046,0.2722222222222222],[0.04885416666666664,0.24777777777777768],[0.05770833333333331,0.2264814814814814],[0.07010416666666662,0.23574074074074067],[0.06635416666666671,0.26944444444444443],[0.06031249999999998,0.2887037037037037],[0.06031249999999998,0.2887037037037037],[0.05604166666666662,0.28722222222222227],[0.05437500000000005,0.29018518518518527],[0.05260416666666667,0.29981481481481476],[0.058437500000000024,0.319074074074074],[0.058645833333333286,0.3314814814814815],[0.04739583333333333,0.32166666666666677],[0.04739583333333333,0.32166666666666677],[0.04052083333333331,0.3087037037037038],[0.02958333333333331,0.2905555555555555],[0.028750000000000022,0.2759259259259259],[0.028750000000000022,0.2759259259259259],[0.027604166666666666,0.25555555555555554],[0.02781250000000005,0.24777777777777768],[0.02802083333333331,0.23185185185185195],[0.02958333333333331,0.21277777777777773],[0.03156249999999995,0.1911111111111112],[0.024583333333333356,0.17296296296296293],[0.034166666666666616,0.17462962962962955],[0.04375,0.17629629629629637],[0.06281249999999995,0.18055555555555555],[0.07145833333333323,0.17296296296296293],[0.0806250000000001,0.14018518518518527],[0.08104166666666662,0.1242592592592593],[0.09572916666666677,0.10222222222222231],[0.10916666666666662,0.07666666666666662],[0.11239583333333343,0.04055555555555551],[0.12458333333333324,0.000925925925925926],[0.1330208333333334,-0.034074074074074034],[0.1414583333333333,-0.0690740740740741],[0.13510416666666672,-0.06592592592592597],[0.1287499999999999,-0.06277777777777774],[0.1352083333333333,-0.01185185185185181],[0.14729166666666677,0.03037037037037033],[0.14510416666666662,0.0787037037037037],[0.1337500000000001,0.11407407407407412],[0.1337500000000001,0.11407407407407412],[0.1326041666666666,0.15999999999999995],[0.14541666666666658,0.2125925925925925],[0.15072916666666672,0.28407407407407403],[0.10572916666666667,0.3816666666666667],[0.09979166666666663,0.4166666666666667],[0.09208333333333343,0.43425925925925923],[0.07125000000000009,0.4316666666666667],[0.050625000000000024,0.44537037037037036],[0.001145833333333357,0.47925925925925916],[-0.04583333333333333,0.5274074074074073],[-0.06989583333333335,0.5390740740740741],[-0.1304166666666667,0.5468518518518518],[-0.18875000000000006,0.5287037037037037],[-0.20499999999999996,0.5300000000000001],[-0.24989583333333332,0.5622222222222223],[-0.2907291666666667,0.6088888888888888],[-0.3311458333333333,0.6596296296296297],[-0.42781250000000004,0.6942592592592592],[-0.49562500000000004,0.7087037037037038],[-0.5627083333333334,0.7116666666666666],[-0.6527083333333333,0.7511111111111112],[-0.7202083333333333,0.7877777777777777],[-0.7202083333333333,0.7877777777777777],[-0.7973958333333333,0.8233333333333334],[-0.7973958333333333,0.8233333333333334],[-0.8355208333333334,0.8187037037037037],[-0.8355208333333334,0.8187037037037037],[-0.8836458333333332,0.7903703703703703],[-0.9131250000000001,0.7448148148148149],[-0.9530208333333333,0.7024074074074074],[-0.9530208333333333,0.7024074074074074],[-0.9542708333333334,0.6638888888888889],[-0.9542708333333334,0.6638888888888889],[-0.9476041666666667,0.6211111111111111],[-0.9476041666666667,0.6211111111111111],[-0.9115625,0.5659259259259259],[-0.8904166666666666,0.5138888888888888],[-0.8655208333333333,0.4448148148148149],[-0.8297916666666667,0.3955555555555556],[-0.8090625,0.33351851851851855],[-0.7814583333333334,0.2716666666666668],[-0.7433333333333334,0.26222222222222225],[-0.6952083333333333,0.2455555555555556],[-0.5966666666666666,0.22537037037037044],[-0.5060416666666667,0.2094444444444445],[-0.4388541666666666,0.2161111111111112],[-0.35916666666666663,0.2338888888888888],[-0.2798958333333334,0.2614814814814816],[-0.20968749999999994,0.2788888888888889],[-0.20968749999999994,0.2788888888888889],[-0.14489583333333336,0.3044444444444444],[-0.08822916666666672,0.35722222222222216],[-0.04500000000000005,0.3727777777777777],[-0.013437499999999976,0.3794444444444444],[-0.014895833333333285,0.38555555555555565],[-0.006979166666666714,0.4105555555555556],[0.0009374999999999763,0.43555555555555564],[0.014895833333333285,0.4203703703703704],[0.025520833333333333,0.4124074074074075],[0.041562499999999974,0.41500000000000004],[0.04718749999999995,0.4168518518518519],[0.07104166666666671,0.4101851851851852],[0.07687499999999996,0.40851851851851856],[0.08552083333333324,0.4161111111111112],[0.09416666666666676,0.42370370370370364],[0.08197916666666671,0.3937037037037037],[0.0678124999999999,0.3603703703703704],[0.05447916666666662,0.38000000000000006],[0.035104166666666714,0.3998148148148148],[0.024270833333333287,0.40037037037037043],[0.020937500000000022,0.37185185185185177],[0.020937500000000022,0.37185185185185177],[0.010625000000000048,0.34814814814814815],[0.010625000000000048,0.34814814814814815],[0.007291666666666667,0.3435185185185185],[-0.018229166666666668,0.33000000000000007],[-0.03822916666666672,0.3138888888888889],[-0.09125000000000003,0.2920370370370371],[-0.14229166666666668,0.2735185185185186],[-0.21437499999999995,0.2485185185185186],[-0.2804166666666667,0.22333333333333338],[-0.33083333333333337,0.1814814814814815],[-0.38875000000000004,0.16870370370370374],[-0.4554166666666667,0.16055555555555565],[-0.5290625,0.13333333333333333],[-0.5769791666666666,0.1111111111111111],[-0.6304166666666667,0.09148148148148144],[-0.6214583333333333,0.08499999999999996],[-0.6125,0.07851851851851847],[-0.6039583333333333,0.05018518518518523],[-0.5954166666666667,0.021851851851851768],[-0.6051041666666667,0.005370370370370328],[-0.6147916666666667,-0.011111111111111112],[-0.6157291666666667,-0.03222222222222218],[-0.6260416666666667,-0.0448148148148149],[-0.5508333333333333,-0.01907407407407399],[-0.48874999999999996,-0.00851851851851856],[-0.4445833333333333,0.013333333333333417],[-0.4126041666666667,0.06351851851851843],[-0.4126041666666667,0.06351851851851843],[-0.35208333333333336,0.09759259259259268],[-0.29125,0.17833333333333326],[-0.22791666666666663,0.19185185185185188],[-0.18322916666666664,0.20425925925925917],[-0.13854166666666667,0.21666666666666667],[-0.08854166666666667,0.22481481481481477],[-0.08854166666666667,0.22481481481481477],[-0.10677083333333333,0.19499999999999992],[-0.13031250000000003,0.19407407407407398],[-0.16656249999999997,0.19981481481481478],[-0.18333333333333332,0.17296296296296293],[-0.20979166666666665,0.16277777777777774],[-0.23395833333333335,0.1081481481481481],[-0.24718749999999995,0.10629629629629625],[-0.24177083333333335,0.10555555555555556],[-0.25812499999999994,0.09814814814814815],[-0.25812499999999994,0.09814814814814815],[-0.29229166666666667,0.1411111111111112],[-0.31656249999999997,0.1581481481481481],[-0.3223958333333333,0.16148148148148156],[-0.3223958333333333,0.16148148148148156],[-0.2978125,0.1338888888888888],[-0.2552083333333333,0.12240740740740745],[-0.21447916666666664,0.11166666666666658],[-0.21447916666666664,0.11166666666666658],[-0.15906250000000005,0.12185185185185177],[-0.12291666666666666,0.1685185185185185],[-0.12291666666666666,0.1685185185185185],[-0.12635416666666663,0.17925925925925917],[-0.12479166666666662,0.2183333333333333],[-0.10135416666666662,0.20277777777777778],[-0.08166666666666664,0.1675925925925926],[-0.06197916666666667,0.13240740740740742],[-0.059583333333333384,0.13444444444444448],[-0.060104166666666715,0.13703703703703704],[-0.04489583333333336,0.14574074074074084],[-0.04697916666666669,0.13129629629629624],[-0.04479166666666667,0.07685185185185185],[-0.04479166666666667,0.07685185185185185],[-0.0002083333333333807,0.08574074074074066],[0.02510416666666669,0.05814814814814811],[0.050416666666666644,0.030555555555555555],[0.050416666666666644,0.030555555555555555],[0.07114583333333328,0.04537037037037037],[0.07114583333333328,0.04537037037037037],[0.10458333333333343,0.0794444444444444],[0.13395833333333323,0.11351851851851844],[0.13395833333333323,0.11351851851851844],[0.14052083333333343,0.10037037037037046],[0.14052083333333343,0.10037037037037046],[0.11572916666666658,0.06944444444444445],[0.0978125000000001,0.05277777777777778],[0.0978125000000001,0.05277777777777778],[0.07802083333333343,0.05907407407407403],[0.05916666666666662,0.032777777777777864],[0.04635416666666667,0.04518518518518514],[0.036145833333333384,0.042407407407407366],[0.008124999999999953,0.03722222222222227],[-0.014791666666666713,0.03259259259259263],[-0.022812499999999975,0.01777777777777782],[-0.030416666666666713,0.03777777777777774],[-0.03166666666666664,0.05722222222222218],[-0.03979166666666671,0.062407407407407495],[-0.058229166666666644,0.06629629629629621],[-0.07906249999999998,0.06500000000000004],[-0.07458333333333336,0.04148148148148144],[-0.058124999999999954,0.014629629629629588],[-0.03927083333333338,-0.000925925925925926],[-0.013229166666666714,-0.02759259259259255],[-0.0005208333333333333,-0.05907407407407403],[0.024895833333333308,-0.15407407407407406],[0.029895833333333382,-0.23740740740740737],[0.034895833333333334,-0.3207407407407407],[0.05291666666666662,-0.3677777777777778],[0.06958333333333329,-0.4044444444444444],[0.09520833333333342,-0.46166666666666667],[0.10572916666666667,-0.4987037037037037],[0.12864583333333332,-0.5403703703703704],[0.12864583333333332,-0.5403703703703704],[0.1265625,-0.5907407407407408],[0.09979166666666663,-0.6587037037037037],[0.06885416666666658,-0.6553703703703704],[0.06760416666666676,-0.6514814814814816],[0.03458333333333338,-0.6116666666666667],[0.03458333333333338,-0.6116666666666667],[0.03458333333333338,-0.6116666666666667],[0.002291666666666714,-0.5925925925925926],[-0.03572916666666662,-0.5877777777777777],[-0.0780208333333333,-0.5640740740740741],[-0.11979166666666667,-0.542037037037037],[-0.15572916666666667,-0.5142592592592592],[-0.1953125,-0.4898148148148148],[-0.1953125,-0.4898148148148148],[-0.22614583333333335,-0.45037037037037037],[-0.25364583333333335,-0.41444444444444445],[-0.2934375000000001,-0.3538888888888889],[-0.3039583333333333,-0.3375925925925926],[-0.30895833333333333,-0.32037037037037036],[-0.30822916666666667,-0.28888888888888886],[-0.30822916666666667,-0.28888888888888886],[-0.31656249999999997,-0.2844444444444445],[-0.3142708333333334,-0.26888888888888884],[-0.33145833333333335,-0.27759259259259256],[-0.35479166666666667,-0.247037037037037],[-0.3601041666666667,-0.21185185185185182],[-0.3797916666666667,-0.18777777777777774],[-0.3871875000000001,-0.18833333333333332],[-0.37687499999999996,-0.18759259259259262],[-0.37687499999999996,-0.18759259259259262],[-0.38947916666666665,-0.19888888888888884],[-0.40427083333333336,-0.18129629629629626],[-0.3998958333333333,-0.1559259259259259],[-0.3980208333333334,-0.15129629629629626],[-0.40114583333333337,-0.11648148148148144],[-0.39479166666666665,-0.07851851851851847],[-0.39010416666666664,-0.044999999999999915],[-0.36520833333333336,-0.004074074074074159],[-0.3403125000000001,0.03685185185185181],[-0.29281250000000003,0.08907407407407411],[-0.23604166666666668,0.14944444444444452],[-0.17604166666666668,0.1838888888888888],[-0.13083333333333336,0.2324074074074074],[-0.0953125,0.3],[-0.05499999999999995,0.3494444444444445],[-0.014374999999999952,0.35981481481481475],[0.026979166666666644,0.37537037037037047],[0.050625000000000024,0.3903703703703703],[0.0515625,0.4209259259259258],[0.014687500000000023,0.44722222222222224],[-0.01083333333333331,0.44722222222222224],[-0.03739583333333331,0.44425925925925924],[-0.0609375,0.4514814814814814],[-0.08020833333333334,0.45333333333333325],[-0.07677083333333339,0.4625925925925925],[-0.0733333333333333,0.47185185185185174],[-0.05447916666666662,0.47166666666666673],[-0.035625000000000046,0.4714814814814815],[0.016458333333333287,0.46037037037037043],[0.05927083333333331,0.43185185185185193],[0.08479166666666677,0.44092592592592594],[0.11302083333333333,0.4427777777777778],[0.14291666666666672,0.4396296296296296],[0.17552083333333332,0.4050000000000001],[0.20302083333333343,0.3568518518518519],[0.23052083333333329,0.3087037037037038],[0.2521874999999999,0.28296296296296286],[0.22000000000000006,0.2512962962962964],[0.18156249999999996,0.18370370370370379],[0.15416666666666667,0.13629629629629633],[0.1259375000000001,0.044444444444444446],[0.10229166666666671,-0.01648148148148144],[0.06072916666666662,-0.019444444444444445],[0.007395833333333357,-0.012222222222222264],[0.007395833333333357,-0.012222222222222264],[-0.04614583333333329,-0.02759259259259255],[-0.10499999999999995,-0.0544444444444444],[-0.17635416666666662,-0.07222222222222222],[-0.2202083333333333,-0.06722222222222224],[-0.25843750000000004,-0.027777777777777776],[-0.29416666666666663,0.001851851851851852],[-0.2982291666666666,0.06407407407407412],[-0.3095833333333334,0.10259259259259255],[-0.30822916666666667,0.05759259259259263],[-0.30822916666666667,0.05759259259259263],[-0.3366666666666667,0.06129629629629634],[-0.3366666666666667,0.06129629629629634],[-0.36916666666666664,0.08759259259259251],[-0.36916666666666664,0.08759259259259251],[-0.35187499999999994,0.11333333333333341],[-0.35187499999999994,0.11333333333333341],[-0.2938541666666667,0.10925925925925926],[-0.2938541666666667,0.10925925925925926],[-0.2520833333333333,0.08203703703703695],[-0.1530208333333333,0.044999999999999915],[-0.10541666666666671,0.01648148148148144],[-0.10520833333333333,-0.009629629629629714],[-0.09322916666666667,-0.034074074074074034],[-0.02010416666666662,-0.030740740740740784],[0.04718749999999995,-0.051111111111111156],[0.18250000000000005,-0.08111111111111113],[0.2349999999999999,-0.0507407407407407],[0.14989583333333342,-0.018703703703703747],[0.11333333333333329,0],[0.11333333333333329,0],[0.051979166666666646,0.06888888888888897],[0.03781249999999995,0.13629629629629633],[0.06822916666666666,0.13425925925925927],[0.06822916666666666,0.13425925925925927],[0.09770833333333329,0.1270370370370371],[0.07125000000000009,0.1175925925925926],[0.090625,0.12148148148148152],[0.06583333333333338,0.07240740740740745],[0.027187500000000024,0.02833333333333325],[0.0912499999999999,-0.010925925925925884],[0.15552083333333327,-0.03314814814814811],[0.1678124999999999,-0.06962962962962967],[0.1570833333333333,-0.1388888888888889],[0.21343750000000009,-0.1294444444444444],[0.1943749999999999,-0.17222222222222222],[0.16531250000000006,-0.1690740740740741],[0.13239583333333324,-0.18703703703703703],[0.08395833333333323,-0.06722222222222224],[0.1404166666666666,-0.09425925925925922],[0.12135416666666667,-0.1111111111111111],[0.1984375,-0.0787037037037037],[0.2326041666666666,-0.12629629629629627],[0.2846874999999999,-0.10907407407407403],[0.2439583333333334,-0.15648148148148147],[0.3155208333333334,-0.12999999999999998],[0.40083333333333326,-0.1633333333333333],[0.4570833333333333,-0.1794444444444444],[0.5211458333333333,-0.262037037037037],[0.4783333333333334,-0.22388888888888886],[0.5667708333333332,-0.2190740740740741],[0.5224999999999999,-0.257962962962963],[0.5319791666666667,-0.24018518518518517],[0.5319791666666667,-0.24018518518518517],[0.5465625000000001,-0.2544444444444444],[0.5148958333333333,-0.21240740740740738],[0.41260416666666655,-0.15537037037037033],[0.3342708333333334,-0.12444444444444443],[0.2778125000000001,-0.12833333333333335],[0.19645833333333323,-0.05759259259259263],[0.19479166666666667,-0.05740740740740741],[0.13541666666666666,-0.03351851851851856],[0.09364583333333343,-0.021296296296296296],[0.057500000000000044,0.014629629629629588],[0.00916666666666662,0.0031481481481482323],[0.01260416666666669,-0.02962962962962963],[0.05239583333333329,-0.03351851851851856],[0.08270833333333343,0.0448148148148149],[0.08604166666666657,0.13444444444444448],[0.12270833333333328,0.07611111111111116],[0.13385416666666666,0.06111111111111111],[0.13864583333333325,0.09388888888888898],[0.13864583333333325,0.09388888888888898],[0.1560416666666666,0.14944444444444452],[0.16656250000000009,0.17537037037037045],[0.1834374999999999,0.230925925925926],[0.24854166666666658,0.2770370370370371],[0.30020833333333335,0.2611111111111111],[0.31572916666666656,0.21851851851851853],[0.3476041666666667,0.19574074074074083],[0.3476041666666667,0.19574074074074083],[0.3132291666666667,0.2868518518518518],[0.2972916666666668,0.368888888888889],[0.2985416666666666,0.3416666666666667],[0.31135416666666677,0.3133333333333334],[0.3241666666666667,0.285],[0.31135416666666677,0.3133333333333334],[0.24552083333333338,0.34037037037037027],[0.17916666666666667,0.40185185185185185],[0.12947916666666662,0.44240740740740736],[0.10447916666666662,0.4772222222222223],[0.11114583333333337,0.47740740740740734],[0.08812499999999991,0.47611111111111115],[0.05427083333333336,0.5362962962962964],[0.017499999999999953,0.5372222222222223],[-0.030520833333333285,0.5287037037037037],[-0.024062500000000025,0.48296296296296287],[0.007604166666666619,0.49833333333333335],[0.03979166666666671,0.47925925925925916],[0.041979166666666616,0.4842592592592593],[0.03729166666666662,0.48148148148148145],[0.03729166666666662,0.48148148148148145],[0.0703125,0.40425925925925915],[0.09552083333333337,0.3472222222222222],[0.09552083333333337,0.3472222222222222],[0.09916666666666671,0.3357407407407407],[0.09916666666666671,0.3357407407407407],[0.10333333333333337,0.3668518518518519],[0.12229166666666676,0.37833333333333324],[0.11822916666666666,0.3881481481481482],[0.11822916666666666,0.3881481481481482],[0.10041666666666677,0.34037037037037027],[0.08239583333333324,0.32018518518518513],[0.09645833333333324,0.2942592592592592],[0.09645833333333324,0.2942592592592592],[0.09416666666666676,0.2718518518518518],[0.08802083333333334,0.36425925925925934],[0.09010416666666667,0.31851851851851853],[0.10416666666666667,0.26296296296296295],[0.10416666666666667,0.26296296296296295],[0.08562500000000005,0.19388888888888897],[0.08562500000000005,0.19388888888888897],[0.09614583333333329,0.19592592592592584],[0.09614583333333329,0.19592592592592584],[0.08125,0.21296296296296297],[0.08125,0.21296296296296297],[0.065625,0.22111111111111106],[0.065625,0.22111111111111106],[0.08010416666666677,0.18981481481481483],[0.08010416666666677,0.18981481481481483],[0.12604166666666666,0.06148148148148157],[0.14874999999999997,-0.019444444444444445],[0.15270833333333325,-0.1479629629629629],[0.18520833333333328,-0.16500000000000004],[0.2169791666666666,-0.23740740740740737],[0.24093749999999994,-0.18555555555555553],[0.18895833333333342,-0.1037037037037037],[0.1951041666666666,-0.08666666666666668],[0.18895833333333342,-0.028888888888888933],[0.1554166666666667,0.03796296296296296],[0.1078125,0.1911111111111112],[0.09979166666666663,0.2933333333333333],[0.07666666666666658,0.4027777777777778],[0.07666666666666658,0.4027777777777778],[0.02177083333333331,0.5518518518518518],[-0.04468749999999998,0.6998148148148148],[-0.0796875,0.7407407407407407],[-0.07479166666666662,0.6849999999999999],[-0.10260416666666666,0.6790740740740742],[-0.12374999999999996,0.7161111111111111],[-0.13479166666666664,0.7550000000000001],[-0.18041666666666673,0.744074074074074],[-0.22437499999999996,0.7040740740740742],[-0.26833333333333337,0.6640740740740741],[-0.28875000000000006,0.5937037037037037],[-0.2872916666666666,0.544074074074074],[-0.28791666666666665,0.5264814814814814],[-0.2851041666666667,0.5335185185185186],[-0.29635416666666664,0.5575925925925926],[-0.3051041666666666,0.5212962962962963],[-0.3304166666666667,0.43870370370370365],[-0.3393749999999999,0.40370370370370373],[-0.34489583333333335,0.43870370370370365],[-0.35041666666666665,0.4737037037037036],[-0.35822916666666665,0.5318518518518519],[-0.34437500000000004,0.5207407407407408],[-0.32843749999999994,0.47759259259259257],[-0.3063541666666667,0.38925925925925936],[-0.271875,0.32222222222222224],[-0.25406249999999997,0.2851851851851852],[-0.23229166666666667,0.2953703703703704],[-0.2078125,0.3509259259259259],[-0.19333333333333336,0.37666666666666665],[-0.19916666666666671,0.4270370370370371],[-0.18156249999999996,0.41648148148148145],[-0.18562500000000004,0.4751851851851852],[-0.21312500000000004,0.5375925925925925],[-0.24177083333333335,0.6485185185185186],[-0.263125,0.7483333333333334],[-0.2755208333333333,0.8090740740740741],[-0.27468750000000003,0.859074074074074],[-0.28531249999999997,0.8720370370370369],[-0.30593750000000003,0.8511111111111112],[-0.31906249999999997,0.8294444444444444],[-0.3217708333333333,0.8127777777777777],[-0.34968750000000004,0.7935185185185185],[-0.3667708333333334,0.7588888888888888],[-0.3667708333333334,0.7588888888888888],[-0.38520833333333326,0.730185185185185],[-0.4195833333333333,0.6716666666666667],[-0.44625,0.6222222222222222],[-0.4740625,0.6322222222222221],[-0.4740625,0.6322222222222221],[-0.5009374999999999,0.5959259259259259],[-0.49624999999999997,0.6253703703703705],[-0.494375,0.6279629629629631],[-0.5335416666666667,0.6711111111111111],[-0.5029166666666667,0.7148148148148148],[-0.4401041666666667,0.7674074074074073],[-0.38093750000000004,0.8107407407407407],[-0.31010416666666674,0.8418518518518519],[-0.23927083333333338,0.8729629629629629],[-0.17739583333333328,0.8616666666666666],[-0.10770833333333331,0.8883333333333334],[-0.050312499999999954,0.8716666666666667],[0.01593749999999995,0.8522222222222223],[0.07322916666666662,0.8151851851851852],[0.0859375,0.7801851851851851],[0.08708333333333323,0.7546296296296297],[0.08822916666666672,0.7290740740740742],[0.09677083333333343,0.7225925925925927],[0.1053124999999999,0.7161111111111111],[0.09343750000000005,0.6896296296296296],[0.09343750000000005,0.6896296296296296],[0.08156249999999995,0.6631481481481482],[0.09572916666666677,0.6216666666666667],[0.11666666666666667,0.5859259259259259],[0.1414583333333333,0.5646296296296296],[0.1662499999999999,0.5433333333333333],[0.1756249999999999,0.5031481481481482],[0.18499999999999991,0.46296296296296297],[0.1993750000000001,0.4209259259259258],[0.1921875,0.3844444444444445],[0.2022916666666667,0.3616666666666666],[0.1974999999999999,0.3557407407407408],[0.16010416666666671,0.36648148148148146],[0.14552083333333338,0.32611111111111113],[0.10739583333333323,0.34740740740740744],[0.09177083333333323,0.3096296296296297],[0.08354166666666671,0.28407407407407403],[0.058124999999999954,0.2572222222222222],[0.018333333333333358,0.2035185185185185],[-0.008437500000000023,0.14092592592592595],[-0.035208333333333286,0.07833333333333325],[-0.03083333333333336,0.01185185185185181],[-0.019375000000000024,-0.060370370370370414],[-0.024687500000000046,-0.05129629629629638],[-0.0013541666666666192,-0.1007407407407407],[-0.0005208333333333333,-0.09111111111111109],[-0.0005208333333333333,-0.09111111111111109],[-0.02645833333333331,-0.0507407407407407],[-0.02645833333333331,-0.0507407407407407],[0.0020833333333333333,0.009999999999999959],[0.0020833333333333333,0.009999999999999959],[0.024583333333333356,0.11018518518518519],[0.024583333333333356,0.11018518518518519],[0.05427083333333336,0.21277777777777773],[0.0787499999999999,0.3229629629629629],[0.0787499999999999,0.3229629629629629],[0.09770833333333329,0.4101851851851852],[0.1296875,0.49166666666666664],[0.1388541666666666,0.5361111111111111],[0.12104166666666671,0.5783333333333333],[0.115625,0.6092592592592593],[0.13708333333333325,0.6288888888888889],[0.09916666666666671,0.6327777777777779],[0.10364583333333334,0.5979629629629629],[0.10364583333333334,0.5979629629629629],[0.09239583333333339,0.5696296296296297],[0.07593750000000009,0.5492592592592593],[0.05239583333333329,0.5074074074074074],[0.0109375,0.4757407407407407],[-0.013750000000000047,0.45092592592592595],[0.002708333333333357,0.46296296296296297],[-0.0026041666666666665,0.4903703703703703],[-0.007708333333333309,0.5051851851851851],[0.015104166666666667,0.49685185185185177],[0.005416666666666714,0.5187037037037038],[0.012812499999999952,0.5349999999999999],[0.05645833333333338,0.5509259259259259],[0.071875,0.6018518518518519],[0.08822916666666672,0.662962962962963],[0.09812500000000005,0.715925925925926],[0.09666666666666662,0.7364814814814815],[0.10812499999999996,0.7546296296296297],[0.11479166666666671,0.7737037037037037],[0.0859375,0.7742592592592593],[0.1009375000000001,0.7685185185185185],[0.09322916666666667,0.7829629629629629],[0.08229166666666667,0.7538888888888889],[0.08375000000000009,0.7181481481481481],[0.08552083333333324,0.677962962962963],[0.08885416666666662,0.6774074074074073],[0.08104166666666662,0.6616666666666666],[0.04614583333333329,0.6774074074074073],[0.014791666666666713,0.6787037037037037],[0.013125000000000024,0.7183333333333333],[-0.005312500000000024,0.6531481481481483],[-0.01229166666666662,0.5892592592592594],[-0.02000000000000005,0.5268518518518519],[-0.03177083333333333,0.5092592592592593],[-0.04479166666666667,0.4859259259259259],[-0.04697916666666669,0.43333333333333335],[-0.04697916666666669,0.43333333333333335],[-0.028958333333333287,0.3738888888888888],[-0.02041666666666669,0.293888888888889],[0.0037500000000000237,0.22018518518518515],[0.025625000000000023,0.15129629629629637],[0.024791666666666618,0.15833333333333333],[0.035208333333333286,0.14388888888888898],[0.02177083333333331,0.15703703703703695],[0.03458333333333338,0.1448148148148149],[0.06124999999999995,0.125],[0.06937499999999991,0.09351851851851851],[0.09854166666666657,0.10111111111111115],[0.13552083333333323,0.10333333333333325],[0.15364583333333334,0.05722222222222218],[0.1740624999999999,0.006296296296296254],[0.1740624999999999,0.006296296296296254],[0.22197916666666656,0.013888888888888888],[0.23156249999999995,0.003888888888888931],[0.2757291666666667,0.013888888888888888],[0.29885416666666675,0.009629629629629714],[0.2929166666666667,-0.006296296296296254],[0.29968750000000005,-0.0025925925925925505],[0.28270833333333345,0.007037037037036953],[0.29093749999999996,0.009444444444444486],[0.29093749999999996,0.009444444444444486],[0.2928124999999999,0.026111111111111154],[0.2928124999999999,0.026111111111111154],[0.31302083333333336,0.058703703703703786],[0.28104166666666663,0.05129629629629638],[0.30364583333333334,0.05388888888888893],[0.28177083333333336,0.018148148148148063],[0.2960416666666667,-0.014814814814814815],[0.3255208333333333,-0.028518518518518478],[0.36864583333333345,-0.04611111111111107],[0.36864583333333345,-0.04611111111111107],[0.38822916666666674,-0.11703703703703702],[0.38822916666666674,-0.11703703703703702],[0.3963541666666667,-0.15499999999999997],[0.4105208333333332,-0.18351851851851855],[0.42333333333333345,-0.19296296296296295],[0.45322916666666657,-0.19222222222222224],[0.46687500000000004,-0.1838888888888889],[0.5088541666666667,-0.1940740740740741],[0.5088541666666667,-0.1940740740740741],[0.49937500000000007,-0.2175925925925926],[0.5092708333333335,-0.24407407407407408],[0.49156250000000007,-0.2633333333333333],[0.4827083333333334,-0.26185185185185184],[0.4898958333333333,-0.2494444444444444],[0.5015625,-0.21203703703703702],[0.5036458333333333,-0.24611111111111106],[0.5004166666666667,-0.2844444444444445],[0.4938541666666666,-0.34814814814814815],[0.4787499999999999,-0.33499999999999996],[0.4775000000000001,-0.33555555555555555],[0.4716666666666666,-0.29518518518518516],[0.4747916666666666,-0.30037037037037034],[0.47770833333333323,-0.2824074074074074],[0.46843750000000006,-0.30277777777777776],[0.4986458333333334,-0.32222222222222224],[0.5070833333333333,-0.26777777777777784],[0.5097916666666668,-0.24592592592592594],[0.5158333333333334,-0.19870370370370372],[0.49666666666666665,-0.19907407407407407],[0.5278125,-0.1542592592592593],[0.5441666666666668,-0.14740740740740746],[0.5441666666666668,-0.14740740740740746],[0.5276041666666667,-0.15037037037037035],[0.5276041666666667,-0.15037037037037035],[0.5202083333333334,-0.11888888888888886],[0.5202083333333334,-0.11888888888888886],[0.5210416666666667,-0.13555555555555554],[0.5210416666666667,-0.13555555555555554],[0.47552083333333334,-0.13703703703703704],[0.47552083333333334,-0.13703703703703704],[0.4544791666666666,-0.15351851851851847],[0.4544791666666666,-0.15351851851851847],[0.42864583333333334,-0.14759259259259258],[0.42864583333333334,-0.14759259259259258],[0.4192708333333333,-0.14907407407407408],[0.41520833333333323,-0.1492592592592593],[0.3696875000000001,-0.1361111111111111],[0.33260416666666665,-0.1653703703703704],[0.3363541666666668,-0.16592592592592598],[0.33697916666666666,-0.22018518518518515],[0.33145833333333335,-0.18407407407407403],[0.33697916666666666,-0.1983333333333334],[0.3150000000000001,-0.25462962962962965],[0.33093750000000005,-0.2683333333333333],[0.3304166666666667,-0.27462962962962967],[0.33614583333333337,-0.2964814814814815],[0.36062500000000003,-0.32092592592592595],[0.38093750000000004,-0.3168518518518519],[0.4132291666666667,-0.2631481481481482],[0.4150000000000001,-0.23055555555555557],[0.4222916666666668,-0.24574074074074073],[0.41281249999999997,-0.22407407407407406],[0.43083333333333323,-0.18333333333333332],[0.43875000000000003,-0.1764814814814815],[0.42687499999999995,-0.19814814814814816],[0.42072916666666677,-0.19870370370370372],[0.3959374999999999,-0.20629629629629626],[0.37625000000000003,-0.2235185185185185],[0.35427083333333326,-0.2640740740740741],[0.3541666666666667,-0.25277777777777777],[0.3614583333333333,-0.24981481481481477],[0.4069791666666667,-0.26296296296296295],[0.42302083333333323,-0.2542592592592593],[0.42302083333333323,-0.2542592592592593]]","[[-0.0860416666666667,0.10999999999999996,0.00019999980926854732],[-0.0860416666666667,0.10999999999999996,0.05509999990463399],[-0.10104166666666667,0.11999999999999991,0.07609999990463479],[-0.10104166666666667,0.11999999999999991,0.0825999999046374],[-0.10333333333333337,0.09444444444444444,0.10909999990463604],[-0.10333333333333337,0.09444444444444444,0.12000000000000455],[-0.07666666666666669,0.040740740740740744,0.14309999990463496],[-0.07666666666666669,0.040740740740740744,0.15050000000000097],[-0.09135416666666671,0.04592592592592584,0.17590000009536766],[-0.09135416666666671,0.04592592592592584,0.18350000000000222],[-0.11114583333333337,0.05537037037037033,0.2092999997138989],[-0.11114583333333337,0.05537037037037033,0.2175999999046354],[-0.13531249999999997,0.08333333333333333,0.242599999904634],[-0.13531249999999997,0.08333333333333333,0.2510000000000048],[-0.13895833333333332,0.13259259259259262,0.2757999997139038],[-0.13895833333333332,0.13259259259259262,0.2824000000953717],[-0.16010416666666671,0.19574074074074083,0.3090000000000046],[-0.16010416666666671,0.19574074074074083,0.3177999997138983],[-0.18343750000000003,0.2544444444444444,0.3410000000000011],[-0.18343750000000003,0.2544444444444444,0.3484000000953742],[-0.19864583333333338,0.27444444444444455,0.37559999990463666],[-0.19864583333333338,0.27444444444444455,0.3824000000953731],[-0.286875,0.272037037037037,0.40919999980926747],[-0.286875,0.272037037037037,0.41850000000000165],[-0.3333333333333333,0.29555555555555557,0.44209999990463444],[-0.3333333333333333,0.29555555555555557,0.44869999980927133],[-0.41000000000000003,0.3531481481481482,0.47609999990463336],[-0.41000000000000003,0.3531481481481482,0.499599999904639],[-0.45510416666666664,0.3712962962962963,0.513299999713901],[-0.45510416666666664,0.3712962962962963,0.5231999998092718],[-0.44479166666666664,0.3566666666666667,0.539900000095372],[-0.47479166666666667,0.33203703703703696,0.5572999997138979],[-0.49156249999999996,0.2766666666666666,0.5732999997139032],[-0.5042708333333333,0.20870370370370378,0.5899000000953691],[-0.5026041666666666,0.1962962962962963,0.606500000000004],[-0.5614583333333333,0.22092592592592583,0.6265999999046343],[-0.5501041666666667,0.256111111111111,0.6422999997138987],[-0.5696875,0.25500000000000006,0.656799999713904],[-0.5660416666666667,0.24518518518518514,0.6737999997138999],[-0.5566666666666666,0.2564814814814815,0.6900000000000048],[-0.598125,0.30833333333333335,0.7065999999046326],[-0.5948958333333334,0.3516666666666666,0.7236999998092699],[-0.6053125,0.4137037037037037,0.740000000000002],[-0.5961458333333333,0.4272222222222223,0.7571999998092664],[-0.5791666666666667,0.3961111111111111,0.7731999998092718],[-0.5271875,0.4118518518518518,0.7904000000953744],[-0.49354166666666666,0.3757407407407407,0.8094000000953727],[-0.471875,0.35425925925925916,0.8256999998092667],[-0.4483333333333333,0.3603703703703704,0.8399000000953691],[-0.4247916666666666,0.36648148148148146,0.8565999999046383],[-0.4247916666666666,0.36648148148148146,0.8731999998092661],[-0.38375,0.30648148148148147,0.8900000000000006],[-0.35093749999999996,0.2722222222222222,0.9065999999046355],[-0.35093749999999996,0.2722222222222222,0.9232999997139046],[-0.3202083333333333,0.24462962962962967,0.9399000000953706],[-0.2751041666666667,0.2505555555555555,0.9612999997139013],[-0.2751041666666667,0.2505555555555555,0.9732999997139018],[-0.23385416666666667,0.2733333333333334,0.9899000000953677],[-0.23385416666666667,0.2733333333333334,1.0065000000000026],[-0.19104166666666664,0.25388888888888894,1.023299999713899],[-0.19104166666666664,0.25388888888888894,1.0400000000000063],[-0.14624999999999996,0.27685185185185185,1.056599999904634],[-0.09208333333333331,0.2920370370370371,1.078400000095371],[-0.09208333333333331,0.2920370370370371,1.0900000000000034],[-0.04791666666666667,0.2748148148148148,1.1072999997139021],[-0.015625,0.24296296296296305,1.1232999997139004],[0.007708333333333309,0.26370370370370366,1.1399000000953734],[0.03927083333333338,0.25870370370370377,1.1565999999046355],[0.08458333333333339,0.225,1.1731999998092704],[0.109375,0.20500000000000007,1.1930999999046392],[0.12854166666666675,0.17166666666666675,1.2065000000000055],[0.12854166666666675,0.17166666666666675,1.2242999997138995],[0.1546875,0.14462962962962966,1.2399000000953677],[0.17020833333333343,0.11037037037037041,1.2566999998092712],[0.17635416666666662,0.0838888888888888,1.2731999998092718],[0.15906250000000005,0.10481481481481486,1.2912999997138996],[0.18229166666666666,0.13481481481481472,1.306599999904634],[0.17583333333333329,0.1455555555555556,1.3247999997139033],[0.16937499999999991,0.15629629629629627,1.3399000000953691],[0.153125,0.1844444444444445,1.3565999999046383],[0.1368750000000001,0.2125925925925925,1.373199999809266],[0.11708333333333343,0.26425925925925936,1.3900000000000006],[0.10614583333333343,0.3066666666666667,1.4069000000953693],[0.08885416666666662,0.3346296296296297,1.4231999998092704],[0.08312499999999995,0.3449999999999999,1.4397999997138982],[0.0859375,0.330925925925926,1