inst1_resp.keys,inst1_resp.rt,calibrationMouse.x,calibrationMouse.y,calibrationMouse.leftButton,calibrationMouse.midButton,calibrationMouse.rightButton,calibrationClick.x,calibrationClick.y,calibrationClick.leftButton,calibrationClick.midButton,calibrationClick.rightButton,calibrationClick.clicked_name,trialsc.thisRepN,trialsc.thisTrialN,trialsc.thisN,trialsc.thisIndex,trialsc.ran,calibration_x,calibration_y,participant,session,date,expName,psychopyVersion,OS,frameRate,ScreenRes_pixels,Camera_pixels,mouse_2.x,mouse_2.y,mouse_2.leftButton,mouse_2.midButton,mouse_2.rightButton,mouse_2.time,mouse_2.clicked_name,mouse.x,mouse.y,mouse.leftButton,mouse.midButton,mouse.rightButton,mouse.time,mouse.clicked_name,Choice,Trial,TrialDuration,MOUSE_GAZE,ET_GAZE,ET_GAZE_x_T,time,unixTime,ET_GAZE_NF,Loc_Bus_label,Loc_Metro_label,Loc_RH_label,Loc_Cost_label,Loc_Travel_label,Loc_Comfort_label,Loc_Bus_cost,Loc_Metro_cost,Loc_RH_cost,Loc_Bus_travel,Loc_Metro_travel,Loc_RH_travel,Loc_Bus_comfort,Loc_Metro_comfort,Loc_RH_comfort,trials.thisRepN,trials.thisTrialN,trials.thisN,trials.thisIndex,trials.ran,Block,Device,RH_cost,RH_travel_time,RH_Comfort,metro_cost,metro_travel_time,metro_Comfort,Bus_cost,Bus_travel_time,Bus_Comfort
space,1.6477,0.469791667,0.05,1,0,0,0.335416667,-0.327777778,1,0,0,calibration_square,0,0,0,15,1,0.33,-0.33,28,001,2024-11-18_11h24.05.592,Attention_exp_legacy,2023.1.0,Win32,59.88023952,,,,,,,,,,,,,,,,,,,,,,,,,,,,,,,,,,,,,,,,,,,,,,,,,,,,,,,,
,,,,,,,-0.669791667,0.325925926,1,0,0,calibration_square,0,1,1,3,1,-0.67,0.33,28,001,2024-11-18_11h24.05.592,Attention_exp_legacy,2023.1.0,Win32,59.88023952,,,,,,,,,,,,,,,,,,,,,,,,,,,,,,,,,,,,,,,,,,,,,,,,,,,,,,,,
,,,,,,,0.667708333,-0.672222222,1,0,0,calibration_square,0,2,2,20,1,0.67,-0.67,28,001,2024-11-18_11h24.05.592,Attention_exp_legacy,2023.1.0,Win32,59.88023952,,,,,,,,,,,,,,,,,,,,,,,,,,,,,,,,,,,,,,,,,,,,,,,,,,,,,,,,
,,,,,,,-0.673958333,-0.67037037,1,0,0,calibration_square,0,3,3,0,1,-0.67,-0.67,28,001,2024-11-18_11h24.05.592,Attention_exp_legacy,2023.1.0,Win32,59.88023952,,,,,,,,,,,,,,,,,,,,,,,,,,,,,,,,,,,,,,,,,,,,,,,,,,,,,,,,
,,,,,,,-0.321875,-0.677777778,1,0,0,calibration_square,0,4,4,4,1,-0.33,-0.67,28,001,2024-11-18_11h24.05.592,Attention_exp_legacy,2023.1.0,Win32,59.88023952,,,,,,,,,,,,,,,,,,,,,,,,,,,,,,,,,,,,,,,,,,,,,,,,,,,,,,,,
,,,,,,,-0.00625,-0.672222222,1,0,0,calibration_square,0,5,5,9,1,0,-0.67,28,001,2024-11-18_11h24.05.592,Attention_exp_legacy,2023.1.0,Win32,59.88023952,,,,,,,,,,,,,,,,,,,,,,,,,,,,,,,,,,,,,,,,,,,,,,,,,,,,,,,,
,,,,,,,0.672916667,0.67037037,1,0,0,calibration_square,0,6,6,19,1,0.67,0.67,28,001,2024-11-18_11h24.05.592,Attention_exp_legacy,2023.1.0,Win32,59.88023952,,,,,,,,,,,,,,,,,,,,,,,,,,,,,,,,,,,,,,,,,,,,,,,,,,,,,,,,
,,,,,,,-0.669791667,-0.007407407,1,0,0,calibration_square,0,7,7,2,1,-0.67,0,28,001,2024-11-18_11h24.05.592,Attention_exp_legacy,2023.1.0,Win32,59.88023952,,,,,,,,,,,,,,,,,,,,,,,,,,,,,,,,,,,,,,,,,,,,,,,,,,,,,,,,
,,,,,,,0.003125,0.651851852,1,0,0,,0,8,8,13,1,0,0.67,28,001,2024-11-18_11h24.05.592,Attention_exp_legacy,2023.1.0,Win32,59.88023952,,,,,,,,,,,,,,,,,,,,,,,,,,,,,,,,,,,,,,,,,,,,,,,,,,,,,,,,
,,,,,,,-0.323958333,-0.335185185,1,0,0,calibration_square,0,9,9,5,1,-0.33,-0.33,28,001,2024-11-18_11h24.05.592,Attention_exp_legacy,2023.1.0,Win32,59.88023952,,,,,,,,,,,,,,,,,,,,,,,,,,,,,,,,,,,,,,,,,,,,,,,,,,,,,,,,
,,,,,,,0.335416667,-0.666666667,1,0,0,calibration_square,0,10,10,14,1,0.33,-0.67,28,001,2024-11-18_11h24.05.592,Attention_exp_legacy,2023.1.0,Win32,59.88023952,,,,,,,,,,,,,,,,,,,,,,,,,,,,,,,,,,,,,,,,,,,,,,,,,,,,,,,,
,,,,,,,-0.335416667,0.338888889,1,0,0,calibration_square,0,11,11,7,1,-0.33,0.33,28,001,2024-11-18_11h24.05.592,Attention_exp_legacy,2023.1.0,Win32,59.88023952,,,,,,,,,,,,,,,,,,,,,,,,,,,,,,,,,,,,,,,,,,,,,,,,,,,,,,,,
,,,,,,,0.002083333,0.327777778,1,0,0,calibration_square,0,12,12,12,1,0,0.33,28,001,2024-11-18_11h24.05.592,Attention_exp_legacy,2023.1.0,Win32,59.88023952,,,,,,,,,,,,,,,,,,,,,,,,,,,,,,,,,,,,,,,,,,,,,,,,,,,,,,,,
,,,,,,,0,0.016666667,1,0,0,,0,13,13,11,1,0,0,28,001,2024-11-18_11h24.05.592,Attention_exp_legacy,2023.1.0,Win32,59.88023952,,,,,,,,,,,,,,,,,,,,,,,,,,,,,,,,,,,,,,,,,,,,,,,,,,,,,,,,
,,,,,,,0.33125,0.677777778,1,0,0,calibration_square,0,14,14,18,1,0.33,0.67,28,001,2024-11-18_11h24.05.592,Attention_exp_legacy,2023.1.0,Win32,59.88023952,,,,,,,,,,,,,,,,,,,,,,,,,,,,,,,,,,,,,,,,,,,,,,,,,,,,,,,,
,,,,,,,-0.325,-0.005555556,1,0,0,calibration_square,0,15,15,6,1,-0.33,0,28,001,2024-11-18_11h24.05.592,Attention_exp_legacy,2023.1.0,Win32,59.88023952,,,,,,,,,,,,,,,,,,,,,,,,,,,,,,,,,,,,,,,,,,,,,,,,,,,,,,,,
,,,,,,,0.3375,0.331481481,1,0,0,calibration_square,0,16,16,17,1,0.33,0.33,28,001,2024-11-18_11h24.05.592,Attention_exp_legacy,2023.1.0,Win32,59.88023952,,,,,,,,,,,,,,,,,,,,,,,,,,,,,,,,,,,,,,,,,,,,,,,,,,,,,,,,
,,,,,,,-0.330208333,0.664814815,1,0,0,calibration_square,0,17,17,8,1,-0.33,0.67,28,001,2024-11-18_11h24.05.592,Attention_exp_legacy,2023.1.0,Win32,59.88023952,,,,,,,,,,,,,,,,,,,,,,,,,,,,,,,,,,,,,,,,,,,,,,,,,,,,,,,,
,,,,,,,0.325,0.001851852,1,0,0,calibration_square,0,18,18,16,1,0.33,0,28,001,2024-11-18_11h24.05.592,Attention_exp_legacy,2023.1.0,Win32,59.88023952,,,,,,,,,,,,,,,,,,,,,,,,,,,,,,,,,,,,,,,,,,,,,,,,,,,,,,,,
,,,,,,,0.001041667,-0.324074074,1,0,0,calibration_square,0,19,19,10,1,0,-0.33,28,001,2024-11-18_11h24.05.592,Attention_exp_legacy,2023.1.0,Win32,59.88023952,,,,,,,,,,,,,,,,,,,,,,,,,,,,,,,,,,,,,,,,,,,,,,,,,,,,,,,,
,,,,,,,-0.673958333,-0.340740741,1,0,0,,0,20,20,1,1,-0.67,-0.33,28,001,2024-11-18_11h24.05.592,Attention_exp_legacy,2023.1.0,Win32,59.88023952,,,,,,,,,,,,,,,,,,,,,,,,,,,,,,,,,,,,,,,,,,,,,,,,,,,,,,,,
,,,,,,,,,,,,,,,,,,,,28,001,2024-11-18_11h24.05.592,Attention_exp_legacy,2023.1.0,Win32,59.88023952,"[1920,1080]","[640,480]",[-0.0020833333333333333],[-0.5037037037037037],[1],[0],[0],[2.4120999999046333],"[""StartButton""]",[0.121875],[0.4185185185185185],[1],[0],[0],[5.681900000095368],"[""Metro_label""]",Metro_label,1,6.6943,"[[-0.0020833333333333333,-0.5037037037037037],[-0.0020833333333333333,-0.5037037037037037],[-0.0020833333333333333,-0.5037037037037037],[-0.0020833333333333333,-0.5037037037037037],[-0.0020833333333333333,-0.5037037037037037],[-0.0020833333333333333,-0.5037037037037037],[-0.0020833333333333333,-0.5037037037037037],[-0.0020833333333333333,-0.5037037037037037],[-0.0020833333333333333,-0.5037037037037037],[-0.0020833333333333333,-0.5037037037037037],[-0.0020833333333333333,-0.5037037037037037],[-0.0020833333333333333,-0.5037037037037037],[-0.0020833333333333333,-0.5037037037037037],[-0.0020833333333333333,-0.5037037037037037],[-0.0020833333333333333,-0.5037037037037037],[-0.0020833333333333333,-0.5037037037037037],[-0.0020833333333333333,-0.5037037037037037],[-0.0020833333333333333,-0.5037037037037037],[-0.0020833333333333333,-0.5037037037037037],[-0.0020833333333333333,-0.5037037037037037],[-0.0020833333333333333,-0.5037037037037037],[-0.0020833333333333333,-0.5037037037037037],[-0.0020833333333333333,-0.5037037037037037],[-0.0020833333333333333,-0.5037037037037037],[-0.0020833333333333333,-0.5037037037037037],[-0.0020833333333333333,-0.5037037037037037],[-0.0020833333333333333,-0.5037037037037037],[-0.0020833333333333333,-0.5037037037037037],[-0.0020833333333333333,-0.5037037037037037],[-0.0020833333333333333,-0.5037037037037037],[-0.0020833333333333333,-0.5037037037037037],[-0.0020833333333333333,-0.5037037037037037],[-0.0020833333333333333,-0.5037037037037037],[-0.0020833333333333333,-0.5037037037037037],[-0.0020833333333333333,-0.5037037037037037],[-0.0020833333333333333,-0.5037037037037037],[-0.0020833333333333333,-0.5037037037037037],[-0.0020833333333333333,-0.5037037037037037],[-0.0020833333333333333,-0.5037037037037037],[-0.0020833333333333333,-0.5037037037037037],[-0.0020833333333333333,-0.5037037037037037],[-0.0020833333333333333,-0.5037037037037037],[-0.0020833333333333333,-0.5037037037037037],[-0.0020833333333333333,-0.5037037037037037],[-0.0020833333333333333,-0.5037037037037037],[-0.0020833333333333333,-0.5037037037037037],[-0.0020833333333333333,-0.5037037037037037],[-0.0020833333333333333,-0.5037037037037037],[-0.0020833333333333333,-0.5037037037037037],[-0.0020833333333333333,-0.5037037037037037],[-0.0020833333333333333,-0.5037037037037037],[-0.0020833333333333333,-0.5037037037037037],[-0.0020833333333333333,-0.5037037037037037],[-0.0020833333333333333,-0.5037037037037037],[-0.0020833333333333333,-0.5037037037037037],[-0.0020833333333333333,-0.5037037037037037],[-0.0020833333333333333,-0.5037037037037037],[-0.0020833333333333333,-0.5037037037037037],[-0.0020833333333333333,-0.5037037037037037],[-0.0020833333333333333,-0.5037037037037037],[-0.0020833333333333333,-0.5037037037037037],[-0.0020833333333333333,-0.5037037037037037],[-0.0020833333333333333,-0.5037037037037037],[-0.0020833333333333333,-0.5037037037037037],[-0.0020833333333333333,-0.5037037037037037],[-0.0020833333333333333,-0.5037037037037037],[-0.0020833333333333333,-0.5037037037037037],[-0.0020833333333333333,-0.5037037037037037],[-0.0020833333333333333,-0.5037037037037037],[-0.0020833333333333333,-0.5037037037037037],[-0.0020833333333333333,-0.5037037037037037],[-0.0020833333333333333,-0.5037037037037037],[-0.0020833333333333333,-0.5037037037037037],[-0.0020833333333333333,-0.5037037037037037],[-0.0020833333333333333,-0.5037037037037037],[-0.0020833333333333333,-0.5037037037037037],[-0.0020833333333333333,-0.5037037037037037],[-0.0020833333333333333,-0.5037037037037037],[-0.0020833333333333333,-0.5037037037037037],[-0.0020833333333333333,-0.5037037037037037],[-0.0020833333333333333,-0.5037037037037037],[-0.0020833333333333333,-0.5037037037037037],[-0.0020833333333333333,-0.5037037037037037],[-0.0020833333333333333,-0.5037037037037037],[-0.0020833333333333333,-0.5037037037037037],[-0.0020833333333333333,-0.5037037037037037],[-0.0020833333333333333,-0.5037037037037037],[-0.0020833333333333333,-0.5037037037037037],[-0.0020833333333333333,-0.5037037037037037],[-0.0020833333333333333,-0.5037037037037037],[-0.0020833333333333333,-0.5037037037037037],[-0.0020833333333333333,-0.5037037037037037],[-0.0020833333333333333,-0.5037037037037037],[-0.0020833333333333333,-0.5037037037037037],[-0.0020833333333333333,-0.5037037037037037],[-0.0020833333333333333,-0.5037037037037037],[-0.0020833333333333333,-0.5037037037037037],[-0.0020833333333333333,-0.5037037037037037],[-0.0020833333333333333,-0.5037037037037037],[-0.0020833333333333333,-0.5037037037037037],[-0.0020833333333333333,-0.5037037037037037],[-0.0020833333333333333,-0.5037037037037037],[-0.0020833333333333333,-0.5037037037037037],[-0.0020833333333333333,-0.5037037037037037],[-0.0020833333333333333,-0.5037037037037037],[-0.0020833333333333333,-0.5037037037037037],[-0.0020833333333333333,-0.5037037037037037],[-0.0020833333333333333,-0.5037037037037037],[-0.0020833333333333333,-0.5037037037037037],[-0.0020833333333333333,-0.5037037037037037],[-0.0020833333333333333,-0.5037037037037037],[-0.0020833333333333333,-0.5037037037037037],[-0.0020833333333333333,-0.5037037037037037],[-0.0020833333333333333,-0.5037037037037037],[-0.0020833333333333333,-0.5037037037037037],[-0.0020833333333333333,-0.5037037037037037],[-0.0020833333333333333,-0.5037037037037037],[-0.0020833333333333333,-0.5037037037037037],[-0.0020833333333333333,-0.5037037037037037],[-0.0020833333333333333,-0.5037037037037037],[-0.0020833333333333333,-0.5037037037037037],[-0.0020833333333333333,-0.5037037037037037],[-0.0020833333333333333,-0.5037037037037037],[-0.0020833333333333333,-0.5037037037037037],[-0.0020833333333333333,-0.5037037037037037],[-0.0020833333333333333,-0.5037037037037037],[-0.0020833333333333333,-0.5037037037037037],[-0.0020833333333333333,-0.5037037037037037],[-0.0020833333333333333,-0.5037037037037037],[-0.0020833333333333333,-0.5037037037037037],[-0.0020833333333333333,-0.5037037037037037],[-0.0020833333333333333,-0.5037037037037037],[-0.0020833333333333333,-0.5037037037037037],[-0.0020833333333333333,-0.5037037037037037],[-0.0020833333333333333,-0.5037037037037037],[-0.0020833333333333333,-0.5037037037037037],[-0.0020833333333333333,-0.5037037037037037],[-0.0020833333333333333,-0.5037037037037037],[-0.0020833333333333333,-0.5037037037037037],[-0.0020833333333333333,-0.5037037037037037],[-0.0020833333333333333,-0.5037037037037037],[-0.0020833333333333333,-0.5037037037037037],[-0.0020833333333333333,-0.5037037037037037],[-0.0020833333333333333,-0.5037037037037037],[-0.0020833333333333333,-0.5037037037037037],[-0.0020833333333333333,-0.5037037037037037],[-0.0020833333333333333,-0.5037037037037037],[-0.0020833333333333333,-0.5037037037037037],[-0.0020833333333333333,-0.5037037037037037],[-0.0020833333333333333,-0.5037037037037037],[-0.0020833333333333333,-0.5037037037037037],[-0.0020833333333333333,-0.5037037037037037],[-0.0020833333333333333,-0.5037037037037037],[-0.0020833333333333333,-0.5037037037037037],[-0.0020833333333333333,-0.5037037037037037],[-0.0020833333333333333,-0.5037037037037037],[-0.0020833333333333333,-0.5037037037037037],[-0.0020833333333333333,-0.5037037037037037],[-0.0020833333333333333,-0.5037037037037037],[0.003125,-0.5018518518518519],[0.025,-0.49074074074074076],[0.06145833333333333,-0.4722222222222222],[0.07604166666666666,-0.4648148148148148],[0.12604166666666666,-0.4388888888888889],[0.15833333333333333,-0.4222222222222222],[0.18229166666666666,-0.40555555555555556],[0.196875,-0.4],[0.20208333333333334,-0.39814814814814814],[0.203125,-0.3962962962962963],[0.203125,-0.3962962962962963],[0.203125,-0.3962962962962963],[0.203125,-0.3962962962962963],[0.203125,-0.3962962962962963],[0.203125,-0.3962962962962963],[0.203125,-0.3962962962962963],[0.203125,-0.3962962962962963],[0.203125,-0.3962962962962963],[0.20416666666666666,-0.3962962962962963],[0.20416666666666666,-0.3962962962962963],[0.20416666666666666,-0.3962962962962963],[0.20416666666666666,-0.3962962962962963],[0.20520833333333333,-0.3962962962962963],[0.20520833333333333,-0.3962962962962963],[0.20625,-0.39444444444444443],[0.20729166666666668,-0.39444444444444443],[0.20729166666666668,-0.3925925925925926],[0.21041666666666667,-0.3907407407407407],[0.2125,-0.3888888888888889],[0.215625,-0.3851851851851852],[0.21770833333333334,-0.3851851851851852],[0.221875,-0.3814814814814815],[0.22291666666666668,-0.37962962962962965],[0.22291666666666668,-0.37962962962962965],[0.22291666666666668,-0.37962962962962965],[0.22395833333333334,-0.37777777777777777],[0.225,-0.37777777777777777],[0.22604166666666667,-0.37592592592592594],[0.228125,-0.37407407407407406],[0.23020833333333332,-0.37222222222222223],[0.23229166666666667,-0.37037037037037035],[0.23229166666666667,-0.37037037037037035],[0.23229166666666667,-0.37037037037037035],[0.23229166666666667,-0.37037037037037035],[0.23229166666666667,-0.37037037037037035],[0.23229166666666667,-0.37037037037037035],[0.23229166666666667,-0.37037037037037035],[0.23229166666666667,-0.37037037037037035],[0.23229166666666667,-0.37037037037037035],[0.23229166666666667,-0.37037037037037035],[0.23229166666666667,-0.37037037037037035],[0.23229166666666667,-0.37037037037037035],[0.23229166666666667,-0.37037037037037035],[0.23229166666666667,-0.37037037037037035],[0.23229166666666667,-0.37037037037037035],[0.23229166666666667,-0.37037037037037035],[0.23229166666666667,-0.37037037037037035],[0.23229166666666667,-0.37037037037037035],[0.23229166666666667,-0.37037037037037035],[0.23229166666666667,-0.37037037037037035],[0.23229166666666667,-0.37037037037037035],[0.23229166666666667,-0.37037037037037035],[0.23229166666666667,-0.37037037037037035],[0.23229166666666667,-0.37037037037037035],[0.23229166666666667,-0.37037037037037035],[0.23229166666666667,-0.37037037037037035],[0.23229166666666667,-0.37037037037037035],[0.23229166666666667,-0.37037037037037035],[0.23229166666666667,-0.37037037037037035],[0.23229166666666667,-0.37037037037037035],[0.23229166666666667,-0.37037037037037035],[0.23229166666666667,-0.37037037037037035],[0.23229166666666667,-0.37037037037037035],[0.23229166666666667,-0.37037037037037035],[0.23229166666666667,-0.37037037037037035],[0.23229166666666667,-0.37037037037037035],[0.23229166666666667,-0.37037037037037035],[0.23229166666666667,-0.37037037037037035],[0.23229166666666667,-0.37037037037037035],[0.23229166666666667,-0.37037037037037035],[0.23229166666666667,-0.37037037037037035],[0.23229166666666667,-0.37037037037037035],[0.23229166666666667,-0.37037037037037035],[0.23229166666666667,-0.37037037037037035],[0.23229166666666667,-0.37037037037037035],[0.23229166666666667,-0.37037037037037035],[0.23229166666666667,-0.37037037037037035],[0.23229166666666667,-0.37037037037037035],[0.23229166666666667,-0.37037037037037035],[0.23229166666666667,-0.37037037037037035],[0.23229166666666667,-0.37037037037037035],[0.23229166666666667,-0.37037037037037035],[0.23229166666666667,-0.37037037037037035],[0.23229166666666667,-0.37037037037037035],[0.23229166666666667,-0.37037037037037035],[0.23229166666666667,-0.37037037037037035],[0.23229166666666667,-0.37037037037037035],[0.23229166666666667,-0.37037037037037035],[0.23229166666666667,-0.37037037037037035],[0.23229166666666667,-0.37037037037037035],[0.23229166666666667,-0.37037037037037035],[0.23229166666666667,-0.37037037037037035],[0.23229166666666667,-0.37037037037037035],[0.23229166666666667,-0.37037037037037035],[0.23229166666666667,-0.37037037037037035],[0.23229166666666667,-0.37037037037037035],[0.23229166666666667,-0.37037037037037035],[0.23229166666666667,-0.37037037037037035],[0.23229166666666667,-0.37037037037037035],[0.23229166666666667,-0.37037037037037035],[0.23229166666666667,-0.37037037037037035],[0.23229166666666667,-0.37037037037037035],[0.23229166666666667,-0.37037037037037035],[0.23229166666666667,-0.37037037037037035],[0.23229166666666667,-0.37037037037037035],[0.23229166666666667,-0.37037037037037035],[0.23229166666666667,-0.37037037037037035],[0.23229166666666667,-0.37037037037037035],[0.23229166666666667,-0.37037037037037035],[0.23229166666666667,-0.37037037037037035],[0.23229166666666667,-0.37037037037037035],[0.23229166666666667,-0.37037037037037035],[0.23229166666666667,-0.37037037037037035],[0.23229166666666667,-0.37037037037037035],[0.23229166666666667,-0.37037037037037035],[0.23229166666666667,-0.37037037037037035],[0.23229166666666667,-0.37037037037037035],[0.23229166666666667,-0.37037037037037035],[0.23229166666666667,-0.37037037037037035],[0.23229166666666667,-0.37037037037037035],[0.23229166666666667,-0.37037037037037035],[0.23229166666666667,-0.37037037037037035],[0.23229166666666667,-0.37037037037037035],[0.23229166666666667,-0.37037037037037035],[0.23229166666666667,-0.37037037037037035],[0.23229166666666667,-0.37037037037037035],[0.23229166666666667,-0.37037037037037035],[0.23229166666666667,-0.37037037037037035],[0.23229166666666667,-0.37037037037037035],[0.23229166666666667,-0.37037037037037035],[0.23229166666666667,-0.37037037037037035],[0.23229166666666667,-0.37037037037037035],[0.23229166666666667,-0.37037037037037035],[0.23229166666666667,-0.37037037037037035],[0.23229166666666667,-0.37037037037037035],[0.23229166666666667,-0.37037037037037035],[0.23229166666666667,-0.3685185185185185],[0.228125,-0.31666666666666665],[0.17083333333333334,-0.08333333333333333],[0.13333333333333333,0.10740740740740741],[0.11875,0.22037037037037038],[0.115625,0.26666666666666666],[0.11354166666666667,0.2962962962962963],[0.109375,0.31666666666666665],[0.10104166666666667,0.3388888888888889],[0.09375,0.3574074074074074],[0.08020833333333334,0.38333333333333336],[0.075,0.3962962962962963],[0.06875,0.4074074074074074],[0.06666666666666667,0.412962962962963],[0.065625,0.4166666666666667],[0.06458333333333334,0.4185185185185185],[0.06458333333333334,0.4222222222222222],[0.06458333333333334,0.42962962962962964],[0.06354166666666666,0.4351851851851852],[0.06354166666666666,0.4351851851851852],[0.06354166666666666,0.4351851851851852],[0.06354166666666666,0.4351851851851852],[0.06354166666666666,0.4351851851851852],[0.06354166666666666,0.4351851851851852],[0.065625,0.4351851851851852],[0.06979166666666667,0.43333333333333335],[0.07395833333333333,0.43333333333333335],[0.08125,0.43333333333333335],[0.08958333333333333,0.43148148148148147],[0.10208333333333333,0.42777777777777776],[0.11354166666666667,0.42407407407407405],[0.11875,0.4203703703703704],[0.11875,0.4203703703703704],[0.11979166666666667,0.4185185185185185],[0.121875,0.4185185185185185],[0.121875,0.4185185185185185],[0.121875,0.4185185185185185],[0.121875,0.4185185185185185],[0.121875,0.4185185185185185],[0.121875,0.4185185185185185],[0.121875,0.4185185185185185],[0.121875,0.4185185185185185],[0.121875,0.4185185185185185],[0.121875,0.4185185185185185],[0.121875,0.4185185185185185],[0.121875,0.4185185185185185],[0.121875,0.4185185185185185],[0.121875,0.4185185185185185],[0.121875,0.4185185185185185],[0.121875,0.4185185185185185],[0.121875,0.4185185185185185],[0.121875,0.4185185185185185],[0.121875,0.4185185185185185],[0.121875,0.4185185185185185],[0.121875,0.4185185185185185],[0.121875,0.4185185185185185],[0.121875,0.4185185185185185],[0.121875,0.4185185185185185],[0.121875,0.4185185185185185],[0.121875,0.4185185185185185],[0.121875,0.4185185185185185],[0.121875,0.4185185185185185],[0.121875,0.4185185185185185],[0.121875,0.4185185185185185],[0.121875,0.4185185185185185],[0.121875,0.4185185185185185],[0.121875,0.4185185185185185],[0.121875,0.4185185185185185],[0.121875,0.4185185185185185],[0.121875,0.4185185185185185],[0.121875,0.4185185185185185],[0.121875,0.4185185185185185],[0.121875,0.4185185185185185],[0.121875,0.4185185185185185],[0.121875,0.4185185185185185],[0.121875,0.4185185185185185],[0.121875,0.4185185185185185],[0.121875,0.4185185185185185],[0.121875,0.4185185185185185],[0.121875,0.4185185185185185],[0.121875,0.4185185185185185],[0.121875,0.4185185185185185],[0.121875,0.4185185185185185],[0.121875,0.4185185185185185],[0.121875,0.4185185185185185],[0.121875,0.4185185185185185],[0.121875,0.4185185185185185],[0.121875,0.4185185185185185],[0.121875,0.4185185185185185],[0.121875,0.4185185185185185],[0.121875,0.4185185185185185],[0.121875,0.4185185185185185],[0.121875,0.4185185185185185],[0.121875,0.4185185185185185],[0.121875,0.4185185185185185],[0.121875,0.4185185185185185]]","[[-0.04104166666666664,-0.20999999999999996],[-0.04104166666666664,-0.20999999999999996],[-0.057500000000000044,-0.20629629629629626],[-0.05302083333333331,-0.21351851851851855],[-0.041875000000000044,-0.21666666666666667],[-0.041875000000000044,-0.21666666666666667],[-0.04739583333333333,-0.21944444444444444],[-0.03843749999999998,-0.23574074074074075],[-0.03583333333333331,-0.2729629629629629],[-0.03322916666666664,-0.3101851851851852],[-0.03875000000000005,-0.33925925925925926],[-0.015416666666666618,-0.3594444444444445],[0.007708333333333309,-0.3712962962962963],[0.050729166666666714,-0.38351851851851854],[0.04864583333333338,-0.39759259259259255],[0.04656250000000005,-0.4116666666666667],[0.05499999999999995,-0.43648148148148147],[0.059375,-0.45037037037037037],[0.07895833333333328,-0.4448148148148148],[0.0890625,-0.4140740740740741],[0.09197916666666663,-0.395],[0.06687500000000005,-0.3811111111111111],[0.044166666666666646,-0.3727777777777778],[0.00635416666666669,-0.3640740740740741],[-0.0032291666666666905,-0.3542592592592593],[-0.016666666666666666,-0.3492592592592593],[-0.030104166666666644,-0.3442592592592592],[-0.041979166666666616,-0.327962962962963],[-0.03447916666666669,-0.34314814814814815],[-0.017499999999999953,-0.38351851851851854],[-0.01885416666666669,-0.4222222222222222],[-0.008749999999999977,-0.4572222222222222],[-0.008749999999999977,-0.4572222222222222],[0.007083333333333286,-0.4542592592592593],[0.026250000000000048,-0.4714814814814815],[0.042604166666666644,-0.48407407407407405],[0.06677083333333324,-0.4831481481481481],[0.06677083333333324,-0.4831481481481481],[0.09093749999999995,-0.48222222222222216],[0.09093749999999995,-0.48222222222222216],[0.10864583333333329,-0.4714814814814815],[0.10864583333333329,-0.4714814814814815],[0.0962500000000001,-0.42907407407407405],[0.0978125000000001,-0.38074074074074077],[0.09093749999999995,-0.34500000000000003],[0.11427083333333338,-0.28944444444444445],[0.11489583333333328,-0.25851851851851854],[0.13562500000000005,-0.2096296296296296],[0.15635416666666657,-0.16074074074074077],[0.1252083333333334,-0.13388888888888892],[0.09406249999999995,-0.10703703703703706],[0.05604166666666662,-0.10796296296296298],[0.019583333333333286,-0.10925925925925926],[-0.03291666666666669,-0.13870370370370366],[-0.06479166666666672,-0.1527777777777778],[-0.12927083333333336,-0.16944444444444445],[-0.17291666666666666,-0.21888888888888886],[-0.2491666666666667,-0.2581481481481481],[-0.3210416666666667,-0.27759259259259256],[-0.35572916666666665,-0.2833333333333333],[-0.39041666666666663,-0.30629629629629623],[-0.424375,-0.334074074074074],[-0.4560416666666666,-0.3516666666666666],[-0.4610416666666667,-0.33537037037037043],[-0.48947916666666663,-0.3309259259259259],[-0.50625,-0.32759259259259255],[-0.5386458333333334,-0.317037037037037],[-0.5569791666666667,-0.3266666666666666],[-0.5716666666666667,-0.3442592592592592],[-0.5695833333333333,-0.3442592592592592],[-0.5723958333333333,-0.3248148148148148],[-0.5635416666666667,-0.3264814814814815],[-0.5569791666666667,-0.3383333333333333],[-0.6036458333333333,-0.3940740740740741],[-0.6257291666666667,-0.4381481481481482],[-0.6495833333333334,-0.48814814814814816],[-0.6616666666666667,-0.5259259259259259],[-0.6555208333333333,-0.5599999999999999],[-0.6573958333333334,-0.6059259259259259],[-0.5966666666666666,-0.615925925925926],[-0.5436458333333333,-0.6405555555555555],[-0.4672916666666667,-0.6259259259259259],[-0.40177083333333335,-0.6222222222222222],[-0.3076041666666666,-0.5862962962962963],[-0.2217708333333333,-0.5674074074074074],[-0.14343750000000005,-0.5587037037037037],[-0.14343750000000005,-0.5587037037037037],[-0.05322916666666669,-0.5255555555555556],[0.014791666666666713,-0.4770370370370371],[0.07145833333333323,-0.4242592592592593],[0.05947916666666669,-0.42537037037037034],[0.057291666666666664,-0.4274074074074074],[0.033958333333333354,-0.45018518518518524],[0.033958333333333354,-0.45018518518518524],[0.03135416666666669,-0.42166666666666663],[0.029999999999999954,-0.42833333333333334],[0.035312499999999976,-0.4366666666666667],[0.026979166666666644,-0.41222222222222227],[0.017499999999999953,-0.41222222222222227],[0.008124999999999953,-0.4148148148148148],[0.008124999999999953,-0.4148148148148148],[0.018333333333333358,-0.41444444444444445],[0.0203125,-0.42611111111111116],[0.02510416666666669,-0.4244444444444444],[0.02510416666666669,-0.4244444444444444],[0.06354166666666666,-0.41462962962962957],[0.06354166666666666,-0.41462962962962957],[0.08760416666666657,-0.44611111111111107],[0.08760416666666657,-0.44611111111111107],[0.1,-0.40425925925925926],[0.1,-0.40425925925925926],[0.10906250000000005,-0.36148148148148146],[0.10906250000000005,-0.36148148148148146],[0.11875,-0.3424074074074074],[0.11875,-0.3424074074074074],[0.11822916666666666,-0.32037037037037036],[0.11843750000000004,-0.2916666666666667],[0.11083333333333342,-0.27092592592592596],[0.11145833333333334,-0.2381481481481482],[0.12447916666666667,-0.23129629629629625],[0.10479166666666657,-0.19092592592592597],[0.07791666666666662,-0.14870370370370373],[0.05406249999999998,-0.1411111111111111],[0.051770833333333384,-0.10999999999999996],[0.05687500000000002,-0.10851851851851856],[0.0626041666666667,-0.12907407407407406],[0.06885416666666658,-0.11351851851851855],[0.07468750000000005,-0.09722222222222222],[0.09770833333333329,-0.09018518518518516],[0.10833333333333334,-0.05722222222222218],[0.09854166666666657,-0.05092592592592592],[0.10041666666666677,-0.0455555555555556],[0.10416666666666667,-0.05870370370370368],[0.09375,-0.06370370370370367],[0.09239583333333339,-0.056666666666666705],[0.08989583333333329,-0.030555555555555555],[0.08604166666666657,-0.04462962962962967],[0.09083333333333338,-0.06703703703703702],[0.07843749999999995,-0.0801851851851852],[0.05666666666666664,-0.09870370370370372],[0.05625,-0.122037037037037],[0.059583333333333384,-0.14074074074074075],[0.06843750000000005,-0.14444444444444443],[0.0696875000000001,-0.1368518518518518],[0.06749999999999995,-0.12074074074074072],[0.08604166666666657,-0.11592592592592597],[0.10458333333333343,-0.1111111111111111],[0.10947916666666657,-0.14500000000000002],[0.12395833333333334,-0.1624074074074074],[0.12072916666666676,-0.16500000000000004],[0.13531250000000009,-0.19000000000000003],[0.13562500000000005,-0.22111111111111106],[0.13562500000000005,-0.22111111111111106],[0.1388541666666666,-0.2609259259259259],[0.1388541666666666,-0.2609259259259259],[0.13989583333333327,-0.2535185185185185],[0.11947916666666672,-0.26666666666666666],[0.0818749999999999,-0.26648148148148143],[0.04583333333333333,-0.25629629629629624],[0.024479166666666666,-0.21148148148148146],[-0.014895833333333285,-0.14777777777777779],[0.0021875000000000236,-0.10777777777777775],[0.0014583333333333095,-0.04537037037037037],[0.0014583333333333095,-0.04537037037037037],[-0.030104166666666644,0.004629629629629629],[-0.010104166666666714,0.0794444444444444],[0.008437500000000023,0.07481481481481478],[0.06031249999999998,0.127962962962963],[0.10864583333333329,0.17907407407407416],[0.14249999999999996,0.1962962962962963],[0.15333333333333338,0.2301851851851851],[0.18312499999999995,0.2368518518518518],[0.18354166666666671,0.2577777777777779],[0.19249999999999995,0.27611111111111114],[0.2587500000000001,0.30999999999999994],[0.2537499999999999,0.3351851851851852],[0.27843749999999995,0.35981481481481475],[0.2769791666666668,0.3461111111111111],[0.2647916666666667,0.3425925925925926],[0.27625000000000005,0.36129629629629634],[0.28114583333333343,0.37962962962962965],[0.2726041666666667,0.3774074074074073],[0.2678124999999999,0.34222222222222215],[0.2561458333333334,0.3661111111111112],[0.22666666666666657,0.36370370370370364],[0.21739583333333337,0.3624074074074075],[0.19656250000000006,0.365925925925926],[0.18614583333333337,0.39407407407407397],[0.19635416666666666,0.4014814814814814],[0.19145833333333329,0.41462962962962957],[0.2111458333333334,0.40777777777777785],[0.2111458333333334,0.40777777777777785],[0.23208333333333328,0.4335185185185186],[0.23802083333333332,0.4994444444444445],[0.24229166666666657,0.5088888888888888],[0.25510416666666674,0.5112962962962964],[0.26447916666666677,0.5051851851851851],[0.25656249999999997,0.46870370370370373],[0.25656249999999997,0.46870370370370373],[0.2570833333333333,0.4468518518518518],[0.26677083333333323,0.4699999999999999],[0.2808333333333332,0.4890740740740741],[0.2855208333333332,0.5048148148148148],[0.2713541666666667,0.48259259259259263],[0.29833333333333345,0.49129629629629623],[0.32531249999999995,0.5],[0.35104166666666664,0.5172222222222221],[0.37468750000000006,0.5416666666666666],[0.40635416666666657,0.5992592592592593],[0.42958333333333343,0.592962962962963],[0.4337500000000001,0.5522222222222223],[0.4322916666666667,0.531111111111111],[0.4322916666666667,0.531111111111111],[0.43854166666666666,0.5401851851851853],[0.43854166666666666,0.5401851851851853],[0.478125,0.5787037037037037],[0.4912499999999999,0.5742592592592592],[0.4791666666666667,0.5822222222222222],[0.4791666666666667,0.5822222222222222],[0.46677083333333325,0.6040740740740742],[0.45197916666666677,0.602037037037037],[0.4587500000000001,0.609074074074074],[0.4578125,0.6201851851851852],[0.4568749999999999,0.6312962962962962],[0.4568749999999999,0.6312962962962962],[0.46197916666666666,0.6446296296296297],[0.46197916666666666,0.6446296296296297],[0.4650000000000001,0.5887037037037036],[0.4650000000000001,0.5887037037037036],[0.44333333333333325,0.562962962962963],[0.44333333333333325,0.562962962962963],[0.42999999999999994,0.497037037037037],[0.42999999999999994,0.497037037037037],[0.4443749999999999,0.44907407407407407],[0.4443749999999999,0.44907407407407407],[0.4661458333333333,0.407037037037037],[0.49583333333333335,0.4105555555555556],[0.49677083333333344,0.4057407407407408],[0.5007291666666667,0.3592592592592593],[0.49583333333333335,0.36425925925925934],[0.48541666666666666,0.37222222222222223],[0.47802083333333345,0.42296296296296293],[0.4680208333333333,0.43574074074074065],[0.45583333333333326,0.5135185185185185],[0.43333333333333335,0.5424074074074073],[0.43333333333333335,0.5424074074074073],[0.39833333333333343,0.5746296296296295],[0.3563541666666666,0.5851851851851851],[0.3563541666666666,0.5851851851851851],[0.32802083333333343,0.5783333333333333],[0.3180208333333333,0.6312962962962962],[0.30739583333333326,0.6381481481481482],[0.28791666666666677,0.6231481481481481],[0.26447916666666677,0.6238888888888888],[0.2621875000000001,0.612037037037037],[0.2543750000000001,0.6003703703703704],[0.2543750000000001,0.6072222222222222],[0.24114583333333334,0.6105555555555556],[0.22791666666666663,0.5774074074074074],[0.2103125000000001,0.5805555555555556],[0.18291666666666656,0.5872222222222223],[0.16770833333333332,0.5888888888888889],[0.1664583333333333,0.5875925925925926],[0.16041666666666668,0.5827777777777778],[0.14770833333333327,0.5866666666666666],[0.14770833333333327,0.5866666666666666],[0.14166666666666666,0.544074074074074],[0.14166666666666666,0.544074074074074],[0.12447916666666667,0.49129629629629623],[0.13156249999999994,0.4227777777777777],[0.1421875,0.38351851851851854],[0.1421875,0.38351851851851854],[0.15833333333333333,0.33796296296296297],[0.15833333333333333,0.33796296296296297],[0.17687499999999995,0.2953703703703704],[0.17687499999999995,0.2953703703703704],[0.19072916666666656,0.2748148148148148],[0.21947916666666673,0.2294444444444444],[0.23895833333333344,0.16944444444444445],[0.26687500000000003,0.12481481481481477],[0.28406250000000005,0.10648148148148148],[0.30270833333333325,0.1294444444444444],[0.3243750000000001,0.13055555555555556],[0.3423958333333334,0.12555555555555548],[0.35281250000000003,0.10722222222222218],[0.35218749999999993,0.13481481481481472],[0.35354166666666675,0.14000000000000004],[0.35052083333333334,0.18296296296296288],[0.3615624999999999,0.244074074074074],[0.3614583333333333,0.2324074074074074],[0.36395833333333344,0.2625925925925925],[0.36479166666666674,0.23481481481481473],[0.3515625,0.24814814814814815],[0.36437499999999995,0.26851851851851855],[0.3754166666666668,0.31074074074074065],[0.39510416666666665,0.30407407407407416],[0.3914583333333333,0.30907407407407406],[0.3914583333333333,0.30907407407407406],[0.3745833333333332,0.30481481481481487],[0.38468749999999996,0.2662962962962962],[0.38343749999999993,0.30185185185185187],[0.36656250000000007,0.3127777777777777],[0.3789583333333333,0.331111111111111],[0.3913541666666667,0.3494444444444445],[0.37510416666666657,0.36925925925925923],[0.3671875,0.34814814814814815],[0.34104166666666674,0.34888888888888886],[0.33708333333333323,0.34518518518518515],[0.3414583333333333,0.3292592592592592],[0.3086458333333333,0.3622222222222223],[0.29416666666666674,0.3655555555555555],[0.2915625000000001,0.3255555555555555],[0.27791666666666665,0.30685185185185193],[0.27791666666666665,0.30685185185185193],[0.22614583333333324,0.27462962962962956],[0.1875,0.2462962962962963],[0.1564583333333334,0.2368518518518518],[0.1648958333333333,0.19148148148148145],[0.1709374999999999,0.12925925925925918],[0.1508333333333333,0.06703703703703712],[0.1515625,-0.05907407407407403],[0.13624999999999995,-0.1381481481481482],[0.13624999999999995,-0.1381481481481482],[0.11687500000000005,-0.1698148148148148],[0.0953125,-0.2175925925925926],[0.11302083333333333,-0.21777777777777782],[0.12177083333333343,-0.29370370370370374],[0.13666666666666671,-0.3633333333333333],[0.13031249999999991,-0.41888888888888887],[0.11677083333333324,-0.45851851851851855],[0.11322916666666671,-0.4903703703703704],[0.10281250000000004,-0.4094444444444445],[0.10635416666666657,-0.4027777777777778],[0.12145833333333324,-0.3883333333333333],[0.12145833333333324,-0.3883333333333333],[0.13812499999999991,-0.38870370370370366],[0.13812499999999991,-0.38870370370370366],[0.140625,-0.4179629629629629],[0.1508333333333333,-0.38685185185185184],[0.13677083333333329,-0.35555555555555557],[0.1271874999999999,-0.3446296296296297],[0.13052083333333328,-0.34074074074074073],[0.13052083333333328,-0.34074074074074073],[0.10968749999999995,-0.3133333333333333],[0.10968749999999995,-0.3133333333333333],[0.12989583333333338,-0.3394444444444445],[0.12989583333333338,-0.3394444444444445],[0.12270833333333328,-0.31148148148148147],[0.11385416666666662,-0.3472222222222222],[0.11385416666666662,-0.3472222222222222],[0.09333333333333324,-0.3520370370370371],[0.09333333333333324,-0.3520370370370371],[0.08614583333333338,-0.3661111111111111],[0.08614583333333338,-0.3661111111111111],[0.07760416666666667,-0.36574074074074076],[0.07760416666666667,-0.36574074074074076],[0.07687499999999996,-0.3918518518518519],[0.07354166666666657,-0.387037037037037],[0.06385416666666661,-0.367037037037037],[0.08729166666666661,-0.3857407407407408],[0.06593749999999995,-0.41444444444444445],[0.071875,-0.46592592592592597],[0.05916666666666662,-0.475],[0.04802083333333336,-0.512962962962963],[0.05135416666666662,-0.5501851851851852],[0.04614583333333329,-0.5655555555555555],[0.036562500000000026,-0.567037037037037],[0.02958333333333331,-0.5918518518518519],[0.03895833333333331,-0.6224074074074074],[0.04989583333333331,-0.6370370370370371],[0.04791666666666667,-0.6431481481481481],[0.04385416666666669,-0.6403703703703704],[0.05489583333333338,-0.6533333333333333],[0.0703125,-0.6625925925925926],[0.06270833333333338,-0.6287037037037037],[0.06270833333333338,-0.6366666666666667],[0.059895833333333336,-0.6237037037037038],[0.05770833333333331,-0.58],[0.044479166666666715,-0.5701851851851851],[0.030729166666666665,-0.5122222222222222],[0.0390625,-0.5018518518518519],[0.043437500000000046,-0.4957407407407407],[0.04666666666666662,-0.4522222222222222],[0.05145833333333331,-0.42240740740740745],[0.059895833333333336,-0.4035185185185185],[0.06947916666666672,-0.3725925925925926],[0.09010416666666667,-0.3859259259259259],[0.07625000000000005,-0.40925925925925927],[0.06124999999999995,-0.4074074074074074],[0.0578125,-0.4233333333333334],[0.050416666666666644,-0.39648148148148155],[0.04375,-0.35759259259259263],[0.05260416666666667,-0.37166666666666665],[0.05479166666666669,-0.34148148148148144],[0.058333333333333334,-0.33425925925925926],[0.058333333333333334,-0.33425925925925926],[0.05572916666666667,-0.34759259259259256],[0.06239583333333331,-0.29962962962962963],[0.10020833333333339,-0.25981481481481483],[0.14375,-0.2270370370370371],[0.17625000000000005,-0.22462962962962965]]","[[-0.04104166666666664,-0.20999999999999996,0.00029999971389571556],[-0.04104166666666664,-0.20999999999999996,0.04879999971389992],[-0.057500000000000044,-0.20629629629629626,0.059699999809268434],[-0.05302083333333331,-0.21351851851851855,0.07800000000000296],[-0.041875000000000044,-0.21666666666666667,0.09439999961853118],[-0.041875000000000044,-0.21666666666666667,0.10969999980926559],[-0.04739583333333333,-0.21944444444444444,0.12639999961852766],[-0.03843749999999998,-0.23574074074074075,0.14339999961853067],[-0.03583333333333331,-0.2729629629629629,0.16109999990463564],[-0.03322916666666664,-0.3101851851851852,0.17879999971389537],[-0.03875000000000005,-0.33925925925925926,0.19299999999999784],[-0.015416666666666618,-0.3594444444444445,0.2120000000000033],[0.007708333333333309,-0.3712962962962963,0.2280999999046358],[0.050729166666666714,-0.38351851851851854,0.24309999990462927],[0.04864583333333338,-0.39759259259259255,0.25969999980926417],[0.04656250000000005,-0.4116666666666667,0.27639999961853334],[0.05499999999999995,-0.43648148148148147,0.295499999999997],[0.059375,-0.45037037037037037,0.31219999980926616],[0.07895833333333328,-0.4448148148148148,0.32849999999999824],[0.0890625,-0.4140740740740741,0.3430000000000035],[0.09197916666666663,-0.395,0.36169999980926804],[0.06687500000000005,-0.3811111111111111,0.3767999997138958],[0.044166666666666646,-0.3727777777777778,0.3937999997138988],[0.00635416666666669,-0.3640740740740741,0.4116999998092652],[-0.0032291666666666905,-0.3542592592592593,0.42859999990463393],[-0.016666666666666666,-0.3492592592592593,0.44299999999999784],[-0.030104166666666644,-0.3442592592592592,0.45959999990463274],[-0.041979166666666616,-0.327962962962963,0.4763999996185291],[-0.03447916666666669,-0.34314814814814815,0.49499999999999744],[-0.017499999999999953,-0.38351851851851854,0.5112999997138985],[-0.01885416666666669,-0.4222222222222222,0.5286999998092625],[-0.008749999999999977,-0.4572222222222222,0.5483999996185318],[-0.008749999999999977,-0.4572222222222222,0.5600999999046294],[0.007083333333333286,-0.4542592592592593,0.5765000000000029],[0.026250000000000048,-0.4714814814814815,0.5981999998092675],[0.042604166666666644,-0.48407407407407405,0.6140999999046315],[0.06677083333333324,-0.4831481481481481,0.6385999999046348],[0.06677083333333324,-0.4831481481481481,0.6465000000000032],[0.09093749999999995,-0.48222222222222216,0.659799999713897],[0.09093749999999995,-0.48222222222222216,0.6769999999999996],[0.10864583333333329,-0.4714814814814815,0.6929999999999978],[0.10864583333333329,-0.4714814814814815,0.7097999997139013],[0.0962500000000001,-0.42907407407407405,0.7263999996185291],[0.0978125000000001,-0.38074074074074077,0.7430000000000021],[0.09093749999999995,-0.34500000000000003,0.7596999998092642],[0.11427083333333338,-0.28944444444444445,0.7763999996185333],[0.11489583333333328,-0.25851851851851854,0.793299999713895],[0.13562500000000005,-0.2096296296296296,0.8096999998092684],[0.15635416666666657,-0.16074074074074077,0.8263999996185305],[0.1252083333333334,-0.13388888888888892,0.8430000000000035],[0.09406249999999995,-0.10703703703703706,0.861699999809268],[0.05604166666666662,-0.10796296296296298,0.8762999997139005],[0.019583333333333286,-0.10925925925925926,0.8930000000000007],[-0.03291666666666669,-0.13870370370370366,0.909799999713897],[-0.06479166666666672,-0.1527777777777778,0.9263999996185319],[-0.12927083333333336,-0.16944444444444445,0.9430999999046321],[-0.17291666666666666,-0.21888888888888886,0.959699999809267],[-0.2491666666666667,-0.2581481481481481,0.9763999996185291],[-0.3210416666666667,-0.27759259259259256,0.9930000000000021],[-0.35572916666666665,-0.2833333333333333,1.0096999998092642],[-0.39041666666666663,-0.30629629629629623,1.026299999713899],[-0.424375,-0.334074074074074,1.0433999996185293],[-0.4560416666666666,-0.3516666666666666,1.0625999999046343],[-0.4610416666666667,-0.33537037037037043,1.0763999996185305],[-0.48947916666666663,-0.3309259259259259,1.0930000000000035],[-0.50625,-0.32759259259259255,1.1096999998092656],[-0.5386458333333334,-0.317037037037037,1.1263999996185277],[-0.5569791666666667,-0.3266666666666666,1.1430000000000007],[-0.5716666666666667,-0.3442592592592592,1.1596999998092627],[-0.5695833333333333,-0.3442592592592592,1.1762999997138976],[-0.5723958333333333,-0.3248148148148148,1.1929999999999978],[-0.5635416666666667,-0.3264814814814815,1.209699999809267],[-0.5569791666666667,-0.3383333333333333,1.2262999997138948],[-0.6036458333333333,-0.3940740740740741,1.243000000000002],[-0.6257291666666667,-0.4381481481481482,1.2596999998092642],[-0.6495833333333334,-0.48814814814814816,1.276299999713899],[-0.6616666666666667,-0.5259259259259259,1.2930999999046335],[-0.6555208333333333,-0.5599999999999999,1.3101999998092637],[-0.6573958333333334,-0.6059259259259259,1.3282999997138987],[-0.5966666666666666,-0.615925925925926,1.3430000000000035],[-0.5436458333333333,-0.6405555555555555,1.3626999998092657],[-0.4672916666666667,-0.6259259259259259,1.3765],[-0.40177083333333335,-0.6222222222222222,1.3930000000000007],[-0.3076041666666666,-0.5862962962962963,1.4096999998092627],[-0.2217708333333333,-0.5674074074074074,1.4277999997138977],[-0.14343750000000005,-0.5587037037037037,1.4430999999046321],[-0.14343750000000005,-0.5587037037037037,1.4598999996185285],[-0.05322916666666669,-0.5255555555555556,1.476399999618529],[0.014791666666666713,-0.4770370370370371,1.493000000000002],[0.07145833333333323,-0.4242592592592593,1.5096999998092642],[0.05947916666666669,-0.42537037037037034,1.5263999996185333],[0.057291666666666664,-0.4274074074074074,1.5435000000000016],[0.033958333333333354,-0.45018518518518524,1.5636999998092662],[0.033958333333333354,-0.45018518518518524,1.5763999996185305],[0.03135416666666669,-0.42166666666666663,1.5930999999046307],[0.029999999999999954,-0.42833333333333334,1.6096999998092656],[0.035312499999999976,-0.4366666666666667,1.6265999999046343],[0.026979166666666644,-0.41222222222222227,1.6430000000000007],[0.017499999999999953,-0.41222222222222227,1.6596999998092627],[0.008124999999999953,-0.4148148148148148,1.6762999997138976],[0.008124999999999953,-0.4148148148148148,1.6929999999999978],[0.018333333333333358,-0.41444444444444445,1.709699999809267],[0.0203125,-0.42611111111111116,1.7277999997138949],[0.02510416666666669,-0.4244444444444444,1.743000000000002],[0.02510416666666669,-0.4244444444444444,1.7596999998092642],[0.06354166666666666,-0.41462962962962957,1.7763999996185333],[0.06354166666666666,-0.41462962962962957,1.7929999999999993],[0.08760416666666657,-0.44611111111111107,1.8101999998092637],[0.08760416666666657,-0.44611111111111107,1.8262999997138962],[0.1,-0.40425925925925926,1.8430000000000035],[0.1,-0.40425925925925926,1.8596999998092656],[0.10906250000000005,-0.36148148148148146,1.8763999996185277],[0.10906250000000005,-0.36148148148148146,1.8933999996185307],[0.11875,-0.3424074074074074,1.909799999713897],[0.11875,-0.3424074074074074,1.9262999997138976],[0.11822916666666666,-0.32037037037037036,1.9429999999999978],[0.11843750000000004,-0.2916666666666667,1.9624999999999986],[0.11083333333333342,-0.27092592592592596,1.9762999997138948],[0.11145833333333334,-0.2381481481481482,1.9930999999046293],[0.12447916666666667,-0.23129629629629625,2.01109999990463],[0.10479166666666657,-0.19092592592592597,2.0282999997138944],[0.07791666666666662,-0.14870370370370373,2.0429999999999993],[0.05406249999999998,-0.1411111111111111,2.061],[0.051770833333333384,-0.10999999999999996,2.0762999997138962],[0.05687500000000002,-0.10851851851851856,2.0930000000000035],[0.0626041666666667,-0.12907407407407406,2.1096999998092656],[0.06885416666666658,-0.11351851851851855,2.1265999999046343],[0.07468750000000005,-0.09722222222222222,2.1430000000000007],[0.09770833333333329,-0.09018518518518516,2.1596999998092627],[0.10833333333333334,-0.05722222222222218,2.1762999997138976],[0.09854166666666657,-0.05092592592592592,2.192999999999998],[0.10041666666666677,-0.0455555555555556,2.209699999809267],[0.10416666666666667,-0.05870370370370368,2.226399999618529],[0.09375,-0.06370370370370367,2.243399999618532],[0.09239583333333339,-0.056666666666666705,2.26109999990463],[0.08989583333333329,-0.030555555555555555,2.2763999996185333],[0.08604166666666657,-0.04462962962962967,2.2929999999999993],[0.09083333333333338,-0.06703703703703702,2.3122999997139004],[0.07843749999999995,-0.0801851851851852,2.3263999996185305],[0.05666666666666664,-0.09870370370370372,2.3430000000000035],[0.05625,-0.122037037037037,2.3599999999999994],[0.059583333333333384,-0.14074074074074075,2.3762999997139005],[0.06843750000000005,-0.14444444444444443,2.3930000000000007],[0.0696875000000001,-0.1368518518518518,2.4103999996185337],[0.06749999999999995,-0.12074074074074072,2.4262999997138976],[0.08604166666666657,-0.11592592592592597,2.4436999998092688],[0.10458333333333343,-0.1111111111111111,2.4605000000000032],[0.10947916666666657,-0.14500000000000002,2.476299999713895],[0.12395833333333334,-0.1624074074074074,2.493000000000002],[0.12072916666666676,-0.16500000000000004,2.510299999713901],[0.13531250000000009,-0.19000000000000003,2.5286999998092625],[0.13562500000000005,-0.22111111111111106,2.5429999999999993],[0.13562500000000005,-0.22111111111111106,2.5597999997138956],[0.1388541666666666,-0.2609259259259259,2.5763999996185305],[0.1388541666666666,-0.2609259259259259,2.5930000000000035],[0.13989583333333327,-0.2535185185185185,2.6097999997139],[0.11947916666666672,-0.26666666666666666,2.6262999997139005],[0.0818749999999999,-0.26648148148148143,2.6430000000000007],[0.04583333333333333,-0.25629629629629624,2.6596999998092627],[0.024479166666666666,-0.21148148148148146,2.679399999618532],[-0.014895833333333285,-0.14777777777777779,2.6936999998092688],[0.0021875000000000236,-0.10777777777777775,2.7116999998092624],[0.0014583333333333095,-0.04537037037037037,2.7265999999046358],[0.0014583333333333095,-0.04537037037037037,2.7461999998092637],[-0.030104166666666644,0.004629629629629629,2.7598999996185327],[-0.010104166666666714,0.0794444444444444,2.7763999996185333],[0.008437500000000023,0.07481481481481478,2.7965000000000018],[0.06031249999999998,0.127962962962963,2.8125],[0.10864583333333329,0.17907407407407416,2.826500000000003],[0.14249999999999996,0.1962962962962963,2.8430000000000035],[0.15333333333333338,0.2301851851851851,2.8595999999046313],[0.18312499999999995,0.2368518518518518,2.8766999998092686],[0.18354166666666671,0.2577777777777779,2.893099999904635],[0.19249999999999995,0.27611111111111114,2.909799999713897],[0.2587500000000001,0.30999999999999994,2.9287999997138954],[0.2537499999999999,0.3351851851851852,2.94709999990463],[0.27843749999999995,0.35981481481481475,2.9635000000000034],[0.2769791666666668,0.3461111111111111,2.9816999998092655],[0.2647916666666667,0.3425925925925926,2.9965999999046318],[0.27625000000000005,0.36129629629629634,3.012199999809262],[0.28114583333333343,0.37962962962962965,3.0279999999999987],[0.2726041666666667,0.3774074074074073,3.046999999999997],[0.2678124999999999,0.34222222222222215,3.062099999904632],[0.2561458333333334,0.3661111111111112,3.0763999996185305],[0.22666666666666657,0.36370370370370364,3.0930999999046307],[0.21739583333333337,0.3624074074074075,3.113899999618532],[0.19656250000000006,0.365925925925926,3.1295999999046344],[0.18614583333333337,0.39407407407407397,3.1433999996185307],[0.19635416666666666,0.4014814814814814,3.159799999713897],[0.19145833333333329,0.41462962962962957,3.1787999997138954],[0.2111458333333334,0.40777777777777785,3.2005999999046324],[0.2111458333333334,0.40777777777777785,3.2098999996185285],[0.23208333333333328,0.4335185185185186,3.226299999713895],[0.23802083333333332,0.4994444444444445,3.243000000000002],[0.24229166666666657,0.5088888888888888,3.2623999996185304],[0.25510416666666674,0.5112962962962964,3.278799999713897],[0.26447916666666677,0.5051851851851851,3.2945999999046336],[0.25656249999999997,0.46870370370370373,3.3141999998092686],[0.25656249999999997,0.46870370370370373,3.32659999990463],[0.2570833333333333,0.4468518518518518,3.343499999999999],[0.26677083333333323,0.4699999999999999,3.3600999999046337],[0.2808333333333332,0.4890740740740741,3.3762999997139005],[0.2855208333333332,0.5048148148148148,3.3954999999999984],[0.2713541666666667,0.48259259259259263,3.411199999809263],[0.29833333333333345,0.49129629629629623,3.426899999618527],[0.32531249999999995,0.5,3.4468999996185303],[0.35104166666666664,0.5172222222222221,3.462699999809267],[0.37468750000000006,0.5416666666666666,3.476799999713897],[0.40635416666666657,0.5992592592592593,3.4928999996185297],[0.42958333333333343,0.592962962962963,3.50959999990463],[0.4337500000000001,0.5522222222222223,3.5300999999046354],[0.4322916666666667,0.531111111111111,3.5459999999999994],[0.4322916666666667,0.531111111111111,3.5596999998092684],[0.43854166666666666,0.5401851851851853,3.57659999990463],[0.43854166666666666,0.5401851851851853,3.5930999999046307],[0.478125,0.5787037037037037,3.6097999997139],[0.4912499999999999,0.5742592592592592,3.6276999998092663],[0.4791666666666667,0.5822222222222222,3.6488999996185285],[0.4791666666666667,0.5822222222222222,3.6596999998092627],[0.46677083333333325,0.6040740740740742,3.676399999618532],[0.45197916666666677,0.602037037037037,3.6943999996185326],[0.4587500000000001,0.609074074074074,3.712599999904633],[0.4578125,0.6201851851851852,3.728899999618534],[0.4568749999999999,0.6312962962962962,3.743000000000002],[0.4568749999999999,0.6312962962962962,3.759699999809264],[0.46197916666666666,0.6446296296296297,3.776299999713899],[0.46197916666666666,0.6446296296296297,3.792899999618527],[0.4650000000000001,0.5887037037037036,3.8096999998092684],[0.4650000000000001,0.5887037037037036,3.8262999997138962],[0.44333333333333325,0.562962962962963,3.842899999618531],[0.44333333333333325,0.562962962962963,3.8595999999046313],[0.42999999999999994,0.497037037037037,3.8762999997139005],[0.42999999999999994,0.497037037037037,3.8930000000000007],[0.4443749999999999,0.44907407407407407,3.9096999998092627],[0.4443749999999999,0.44907407407407407,3.9262999997138976],[0.4661458333333333,0.407037037037037,3.942999999999998],[0.49583333333333335,0.4105555555555556,3.961599999904635],[0.49677083333333344,0.4057407407407408,3.9802999997138997],[0.5007291666666667,0.3592592592592593,3.9967999997139003],[0.49583333333333335,0.36425925925925934,4.012899999618533],[0.48541666666666666,0.37222222222222223,4.026799999713894],[0.47802083333333345,0.42296296296296293,4.042899999618527],[0.4680208333333333,0.43574074074074065,4.059699999809268],[0.45583333333333326,0.5135185185185185,4.080299999713901],[0.43333333333333335,0.5424074074074073,4.0981999998092675],[0.43333333333333335,0.5424074074074073,4.1097999997139],[0.39833333333333343,0.5746296296296295,4.1262999997139005],[0.3563541666666666,0.5851851851851851,4.147500000000001],[0.3563541666666666,0.5851851851851851,4.159699999809263],[0.32802083333333343,0.5783333333333333,4.176399999618532],[0.3180208333333333,0.6312962962962962,4.196099999904632],[0.30739583333333326,0.6381481481481482,4.212599999904633],[0.28791666666666677,0.6231481481481481,4.230699999809268],[0.26447916666666677,0.6238888888888888,4.246199999809264],[0.2621875000000001,0.612037037037037,4.263799999713896],[0.2543750000000001,0.6003703703703704,4.279499999999999],[0.2543750000000001,0.6072222222222222,4.295399999618532],[0.24114583333333334,0.6105555555555556,4.3126999998092685],[0.22791666666666663,0.5774074074074074,4.329899999618533],[0.2103125000000001,0.5805555555555556,4.345399999618529],[0.18291666666666656,0.5872222222222223,4.359999999999999],[0.16770833333333332,0.5888888888888889,4.3762999997139005],[0.1664583333333333,0.5875925925925926,4.393399999618531],[0.16041666666666668,0.5827777777777778,4.411299999713897],[0.14770833333333327,0.5866666666666666,4.4327999997139],[0.14770833333333327,0.5866666666666666,4.450000000000003],[0.14166666666666666,0.544074074074074,4.466299999713897],[0.14166666666666666,0.544074074074074,4.476299999713895],[0.12447916666666667,0.49129629629629623,4.493000000000002],[0.13156249999999994,0.4227777777777777,4.509699999809264],[0.1421875,0.38351851851851854,4.526399999618533],[0.1421875,0.38351851851851854,4.542899999618527],[0.15833333333333333,0.33796296296296297,4.559799999713896],[0.15833333333333333,0.33796296296296297,4.576500000000003],[0.17687499999999995,0.2953703703703704,4.593099999904631],[0.17687499999999995,0.2953703703703704,4.609699999809266],[0.19072916666666656,0.2748148148148148,4.626399999618528],[0.21947916666666673,0.2294444444444444,4.643099999904635],[0.23895833333333344,0.16944444444444445,4.659699999809263],[0.26687500000000003,0.12481481481481477,4.676299999713898],[0.28406250000000005,0.10648148148148148,4.692999999999998],[0.30270833333333325,0.1294444444444444,4.709699999809267],[0.3243750000000001,0.13055555555555556,4.726199999809268],[0.3423958333333334,0.12555555555555548,4.7431999998092635],[0.35281250000000003,0.10722222222222218,4.759799999713898],[0.35218749999999993,0.13481481481481472,4.776199999809265],[0.35354166666666675,0.14000000000000004,4.7957999997139],[0.35052083333333334,0.18296296296296288,4.810199999809264],[0.3615624999999999,0.244074074074074,4.826299999713896],[0.3614583333333333,0.2324074074074074,4.8430000000000035],[0.36395833333333344,0.2625925925925925,4.859599999904631],[0.36479166666666674,0.23481481481481473,4.876199999809266],[0.3515625,0.24814814814814815,4.893000000000001],[0.36437499999999995,0.26851851851851855,4.909699999809263],[0.3754166666666668,0.31074074074074065,4.926299999713898],[0.39510416666666665,0.30407407407407416,4.9428999996185325],[0.3914583333333333,0.30907407407407406,4.959599999904633],[0.3914583333333333,0.30907407407407406,4.976299999713895],[0.3745833333333332,0.30481481481481487,4.993000000000002],[0.38468749999999996,0.2662962962962962,5.009999999999998],[0.38343749999999993,0.30185185185185187,5.026299999713899],[0.36656250000000007,0.3127777777777777,5.042899999618527],[0.3789583333333333,0.331111111111111,5.059599999904634],[0.3913541666666667,0.3494444444444445,5.076299999713896],[0.37510416666666657,0.36925925925925923,5.092899999618531],[0.3671875,0.34814814814814815,5.113899999618532],[0.34104166666666674,0.34888888888888886,5.127299999713898],[0.33708333333333323,0.34518518518518515,5.143099999904635],[0.3414583333333333,0.3292592592592592,5.159799999713897],[0.3086458333333333,0.3622222222222223,5.178199999809266],[0.29416666666666674,0.3655555555555555,5.193099999904632],[0.2915625000000001,0.3255555555555555,5.209799999713901],[0.27791666666666665,0.30685185185185193,5.2287999997139],[0.27791666666666665,0.30685185185185193,5.2431999998092635],[0.22614583333333324,0.27462962962962956,5.259799999713898],[0.1875,0.2462962962962963,5.276499999999999],[0.1564583333333334,0.2368518518518518,5.296299999713895],[0.1648958333333333,0.19148148148148145,5.3125],[0.1709374999999999,0.12925925925925918,5.327299999713901],[0.1508333333333333,0.06703703703703712,5.343099999904631],[0.1515625,-0.05907407407407403,5.364599999904634],[0.13624999999999995,-0.1381481481481482,5.37859999990463],[0.13624999999999995,-0.1381481481481482,5.396500000000003],[0.11687500000000005,-0.1698148148148148,5.412299999713895],[0.0953125,-0.2175925925925926,5.426199999809263],[0.11302083333333333,-0.21777777777777782,5.442999999999998],[0.12177083333333343,-0.29370370370370374,5.459599999904633],[0.13666666666666671,-0.3633333333333333,5.476299999713895],[0.13031249999999991,-0.41888888888888887,5.49289999961853],[0.11677083333333324,-0.45851851851851855,5.51259999990463],[0.11322916666666671,-0.4903703703703704,5.527000000000001],[0.10281250000000004,-0.4094444444444445,5.5430999999046335],[0.10635416666666657,-0.4027777777777778,5.559699999809268],[0.12145833333333324,-0.3883333333333333,5.582000000000001],[0.12145833333333324,-0.3883333333333333,5.593199999809265],[0.13812499999999991,-0.38870370370370366,5.609999999999999],[0.13812499999999991,-0.38870370370370366,5.626599999904634],[0.140625,-0.4179629629629629,5.643000000000001],[0.1508333333333333,-0.38685185185185184,5.661699999809265],[0.13677083333333329,-0.35555555555555557,5.676399999618532],[0.1271874999999999,-0.3446296296296297,5.6928999996185325],[0.13052083333333328,-0.34074074074074073,5.711599999904635],[0.13052083333333328,-0.34074074074074073,5.726299999713895],[0.10968749999999995,-0.3133333333333333,5.743000000000002],[0.10968749999999995,-0.3133333333333333,5.75959999990463],[0.12989583333333338,-0.3394444444444445,5.776299999713899],[0.12989583333333338,-0.3394444444444445,5.792999999999999],[0.12270833333333328,-0.31148148148148147,5.809699999809268],[0.11385416666666662,-0.3472222222222222,5.830299999713901],[0.11385416666666662,-0.3472222222222222,5.8430000000000035],[0.09333333333333324,-0.3520370370370371,5.859699999809266],[0.09333333333333324,-0.3520370370370371,5.8762999997139005],[0.08614583333333338,-0.3661111111111111,5.893000000000001],[0.08614583333333338,-0.3661111111111111,5.909699999809263],[0.07760416666666667,-0.36574074074074076,5.926299999713898],[0.07760416666666667,-0.36574074074074076,5.943099999904632],[0.07687499999999996,-0.3918518518518519,5.959599999904633],[0.07354166666666657,-0.387037037037037,5.976199999809268],[0.06385416666666661,-0.367037037037037,5.99289999961853],[0.08729166666666661,-0.3857407407407408,6.00959999990463],[0.06593749999999995,-0.41444444444444445,6.026299999713899],[0.071875,-0.46592592592592597,6.042899999618527],[0.05916666666666662,-0.475,6.062099999904632],[0.04802083333333336,-0.512962962962963,6.076299999713896],[0.05135416666666662,-0.5501851851851852,6.092899999618531],[0.04614583333333329,-0.5655555555555555,6.111199999809266],[0.036562500000000026,-0.567037037037037,6.1288999996185325],[0.02958333333333331,-0.5918518518518519,6.143000000000001],[0.03895833333333331,-0.6224074074074074,6.161000000000001],[0.04989583333333331,-0.6370370370370371,6.177799999713898],[0.04791666666666667,-0.6431481481481481,6.193199999809266],[0.04385416666666669,-0.6403703703703704,6.211099999904633],[0.05489583333333338,-0.6533333333333333,6.227699999809268],[0.0703125,-0.6625925925925926,6.24289999961853],[0.06270833333333338,-0.6287037037037037,6.259699999809264],[0.06270833333333338,-0.6366666666666667,6.277699999809265],[0.059895833333333336,-0.6237037037037038,6.294399999618527],[0.05770833333333331,-0.58,6.30989999961853],[0.044479166666666715,-0.5701851851851851,6.326799999713899],[0.030729166666666665,-0.5122222222222222,6.342899999618531],[0.0390625,-0.5018518518518519,6.359899999618527],[0.043437500000000046,-0.4957407407407407,6.377699999809266],[0.04666666666666662,-0.4522222222222222,6.395000000000003],[0.05145833333333331,-0.42240740740740745,6.409699999809263],[0.059895833333333336,-0.4035185185185185,6.427599999904629],[0.06947916666666672,-0.3725925925925926,6.443299999713901],[0.09010416666666667,-0.3859259259259259,6.4609999999999985],[0.07625000000000005,-0.40925925925925927,6.477699999809268],[0.06124999999999995,-0.4074074074074074,6.493099999904629],[0.0578125,-0.4233333333333334,6.510399999618528],[0.050416666666666644,-0.39648148148148155,6.527599999904631],[0.04375,-0.35759259259259263,6.542899999618527],[0.05260416666666667,-0.37166666666666665,6.55989999961853],[0.05479166666666669,-0.34148148148148144,6.5796999998092645],[0.058333333333333334,-0.33425925925925926,6.5981999998092675],[0.058333333333333334,-0.33425925925925926,6.609699999809266],[0.05572916666666667,-0.34759259259259256,6.626399999618528],[0.06239583333333331,-0.29962962962962963,6.643199999809262],[0.10020833333333339,-0.25981481481481483,6.659599999904636],[0.14375,-0.2270370370370371,6.676299999713898],[0.17625000000000005,-0.22462962962962965,6.694299999713898]]","[0.00029999971389571556,0.04879999971389992,0.059699999809268434,0.07800000000000296,0.09439999961853118,0.10969999980926559,0.12639999961852766,0.14339999961853067,0.16109999990463564,0.17879999971389537,0.19299999999999784,0.2120000000000033,0.2280999999046358,0.24309999990462927,0.25969999980926417,0.27639999961853334,0.295499999999997,0.31219999980926616,0.32849999999999824,0.3430000000000035,0.36169999980926804,0.3767999997138958,0.3937999997138988,0.4116999998092652,0.42859999990463393,0.44299999999999784,0.45959999990463274,0.4763999996185291,0.49499999999999744,0.5112999997138985,0.5286999998092625,0.5483999996185318,0.5600999999046294,0.5765000000000029,0.5981999998092675,0.6140999999046315,0.6385999999046348,0.6465000000000032,0.659799999713897,0.6769999999999996,0.6929999999999978,0.7097999997139013,0.7263999996185291,0.7430000000000021,0.7596999998092642,0.7763999996185333,0.793299999713895,0.8096999998092684,0.8263999996185305,0.8430000000000035,0.861699999809268,0.8762999997139005,0.8930000000000007,0.909799999713897,0.9263999996185319,0.9430999999046321,0.959699999809267,0.9763999996185291,0.9930000000000021,1.0096999998092642,1.026299999713899,1.0433999996185293,1.0625999999046343,1.0763999996185305,1.0930000000000035,1.1096999998092656,1.1263999996185277,1.1430000000000007,1.1596999998092627,1.1762999997138976,1.1929999999999978,1.209699999809267,1.2262999997138948,1.243000000000002,1.2596999998092642,1.276299999713899,1.2930999999046335,1.3101999998092637,1.3282999997138987,1.3430000000000035,1.3626999998092657,1.3765,1.3930000000000007,1.4096999998092627,1.4277999997138977,1.4430999999046321,1.4598999996185285,1.476399999618529,1.493000000000002,1.5096999998092642,1.5263999996185333,1.5435000000000016,1.5636999998092662,1.5763999996185305,1.5930999999046307,1.6096999998092656,1.6265999999046343,1.6430000000000007,1.6596999998092627,1.6762999997138976,1.6929999999999978,1.709699999809267,1.7277999997138949,1.743000000000002,1.7596999998092642,1.7763999996185333,1.7929999999999993,1.8101999998092637,1.8262999997138962,1.8430000000000035,1.8596999998092656,1.8763999996185277,1.8933999996185307,1.909799999713897,1.9262999997138976,1.9429999999999978,1.9624999999999986,1.9762999997138948,1.9930999999046293,2.01109999990463,2.0282999997138944,2.0429999999999993,2.061,2.0762999997138962,2.0930000000000035,2.1096999998092656,2.1265999999046343,2.1430000000000007,2.1596999998092627,2.1762999997138976,2.192999999999998,2.209699999809267,2.226399999618529,2.243399999618532,2.26109999990463,2.2763999996185333,2.2929999999999993,2.3122999997139004,2.3263999996185305,2.3430000000000035,2.3599999999999994,2.3762999997139005,2.3930000000000007,2.4103999996185337,2.4262999997138976,2.4436999998092688,2.4605000000000032,2.476299999713895,2.493000000000002,2.510299999713901,2.5286999998092625,2.5429999999999993,2.5597999997138956,2.5763999996185305,2.5930000000000035,2.6097999997139,2.6262999997139005,2.6430000000000007,2.6596999998092627,2.679399999618532,2.6936999998092688,2.7116999998092624,2.7265999999046358,2.7461999998092637,2.7598999996185327,2.7763999996185333,2.7965000000000018,2.8125,2.826500000000003,2.8430000000000035,2.8595999999046313,2.8766999998092686,2.893099999904635,2.909799999713897,2.9287999997138954,2.94709999990463,2.9635000000000034,2.9816999998092655,2.9965999999046318,3.012199999809262,3.0279999999999987,3.046999999999997,3.062099999904632,3.0763999996185305,3.0930999999046307,3.113899999618532,3.1295999999046344,3.1433999996185307,3.159799999713897,3.1787999997138954,3.2005999999046324,3.2098999996185285,3.226299999713895,3.243000000000002,3.2623999996185304,3.278799999713897,3.2945999999046336,3.3141999998092686,3.32659999990463,3.343499999999999,3.3600999999046337,3.3762999997139005,3.3954999999999984,3.411199999809263,3.426899999618527,3.4468999996185303,3.462699999809267,3.476799999713897,3.4928999996185297,3.50959999990463,3.5300999999046354,3.5459999999999994,3.5596999998092684,3.57659999990463,3.5930999999046307,3.6097999997139,3.6276999998092663,3.6488999996185285,3.6596999998092627,3.676399999618532,3.6943999996185326,3.712599999904633,3.728899999618534,3.743000000000002,3.759699999809264,3.776299999713899,3.792899999618527,3.8096999998092684,3.8262999997138962,3.842899999618531,3.8595999999046313,3.8762999997139005,3.8930000000000007,3.9096999998092627,3.9262999997138976,3.942999999999998,3.961599999904635,3.9802999997138997,3.9967999997139003,4.012899999618533,4.026799999713894,4.042899999618527,4.059699999809268,4.080299999713901,4.0981999998092675,4.1097999997139,4.1262999997139005,4.147500000000001,4.159699999809263,4.176399999618532,4.196099999904632,4.212599999904633,4.230699999809268,4.246199999809264,4.263799999713896,4.279499999999999,4.295399999618532,4.3126999998092685,4.329899999618533,4.345399999618529,4.359999999999999,4.3762999997139005,4.393399999618531,4.411299999713897,4.4327999997139,4.450000000000003,4.466299999713897,4.476299999713895,4.493000000000002,4.509699999809264,4.526399999618533,4.542899999618527,4.559799999713896,4.576500000000003,4.593099999904631,4.609699999809266,4.626399999618528,4.643099999904635,4.659699999809263,4.676299999713898,4.692999999999998,4.709699999809267,4.726199999809268,4.7431999998092635,4.759799999713898,4.776199999809265,4.7957999997139,4.810199999809264,4.826299999713896,4.8430000000000035,4.859599999904631,4.876199999809266,4.893000000000001,4.909699999809263,4.926299999713898,4.9428999996185325,4.959599999904633,4.976299999713895,4.993000000000002,5.009999999999998,5.026299999713899,5.042899999618527,5.059599999904634,5.076299999713896,5.092899999618531,5.113899999618532,5.127299999713898,5.143099999904635,5.159799999713897,5.178199999809266,5.193099999904632,5.209799999713901,5.2287999997139,5.2431999998092635,5.259799999713898,5.276499999999999,5.296299999713895,5.3125,5.327299999713901,5.343099999904631,5.364599999904634,5.37859999990463,5.396500000000003,5.412299999713895,5.426199999809263,5.442999999999998,5.459599999904633,5.476299999713895,5.49289999961853,5.51259999990463,5.527000000000001,5.5430999999046335,5.559699999809268,5.582000000000001,5.593199999809265,5.609999999999999,5.626599999904634,5.643000000000001,5.661699999809265,5.676399999618532,5.6928999996185325,5.711599999904635,5.726299999713895,5.743000000000002,5.75959999990463,5.776299999713899,5.792999999999999,5.809699999809268,5.830299999713901,5.8430000000000035,5.859699999809266,5.8762999997139005,5.893000000000001,5.909699999809263,5.926299999713898,5.943099999904632,5.959599999904633,5.976199999809268,5.99289999961853,6.00959999990463,6.026299999713899,6.042899999618527,6.062099999904632,6.076299999713896,6.092899999618531,6.111199999809266,6.1288999996185325,6.143000000000001,6.161000000000001,6.177799999713898,6.193199999809266,6.211099999904633,6.227699999809268,6.24289999961853,6.259699999809264,6.277699999809265,6.294399999618527,6.30989999961853,6.326799999713899,6.342899999618531,6.359899999618527,6.377699999809266,6.395000000000003,6.409699999809263,6.427599999904629,6.443299999713901,6.4609999999999985,6.477699999809268,6.493099999904629,6.510399999618528,6.527599999904631,6.542899999618527,6.55989999961853,6.5796999998092645,6.5981999998092675,6.609699999809266,6.626399999618528,6.643199999809262,6.659599999904636,6.676299999713898,6.694299999713898]","[1731900292444,1731900292482,1731900292493,1731900292511,1731900292527,1731900292543,1731900292559,1731900292576,1731900292594,1731900292612,1731900292626,1731900292645,1731900292661,1731900292676,1731900292693,1731900292709,1731900292728,1731900292745,1731900292762,1731900292776,1731900292795,1731900292810,1731900292827,1731900292845,1731900292862,1731900292876,1731900292893,1731900292909,1731900292928,1731900292944,1731900292962,1731900292981,1731900292993,1731900293009,1731900293031,1731900293047,1731900293072,1731900293079,1731900293093,1731900293110,1731900293126,1731900293143,1731900293159,1731900293176,1731900293193,1731900293209,1731900293226,1731900293243,1731900293259,1731900293276,1731900293295,1731900293309,1731900293326,1731900293343,1731900293359,1731900293376,1731900293393,1731900293409,1731900293426,1731900293443,1731900293459,1731900293476,1731900293496,1731900293509,1731900293526,1731900293543,1731900293559,1731900293576,1731900293593,1731900293609,1731900293626,1731900293643,1731900293659,1731900293676,1731900293693,1731900293709,1731900293726,1731900293743,1731900293761,1731900293776,1731900293796,1731900293810,1731900293826,1731900293843,1731900293861,1731900293876,1731900293893,1731900293909,1731900293926,1731900293943,1731900293959,1731900293977,1731900293997,1731900294009,1731900294026,1731900294043,1731900294060,1731900294076,1731900294093,1731900294109,1731900294126,1731900294143,1731900294161,1731900294176,1731900294193,1731900294209,1731900294226,1731900294243,1731900294259,1731900294276,1731900294293,1731900294309,1731900294326,1731900294343,1731900294359,1731900294376,1731900294396,1731900294409,1731900294426,1731900294444,1731900294461,1731900294476,1731900294494,1731900294509,1731900294526,1731900294543,1731900294560,1731900294576,1731900294593,1731900294609,1731900294626,1731900294643,1731900294659,1731900294676,1731900294694,1731900294709,1731900294726,1731900294745,1731900294759,1731900294776,1731900294793,1731900294809,1731900294826,1731900294843,1731900294859,1731900294877,1731900294893,1731900294909,1731900294926,1731900294943,1731900294962,1731900294976,1731900294993,1731900295009,1731900295026,1731900295043,1731900295059,1731900295076,1731900295093,1731900295112,1731900295127,1731900295145,1731900295160,1731900295179,1731900295193,1731900295209,1731900295230,1731900295246,1731900295260,1731900295276,1731900295293,1731900295310,1731900295326,1731900295343,1731900295362,1731900295380,1731900295397,1731900295415,1731900295430,1731900295445,1731900295461,1731900295480,1731900295495,1731900295509,1731900295526,1731900295547,1731900295563,1731900295576,1731900295593,1731900295612,1731900295634,1731900295643,1731900295659,1731900295676,1731900295695,1731900295712,1731900295728,1731900295747,1731900295760,1731900295777,1731900295793,1731900295809,1731900295829,1731900295844,1731900295860,1731900295880,1731900295896,1731900295910,1731900295926,1731900295943,1731900295963,1731900295979,1731900295993,1731900296010,1731900296026,1731900296043,1731900296061,1731900296082,1731900296093,1731900296109,1731900296127,1731900296146,1731900296162,1731900296176,1731900296193,1731900296209,1731900296226,1731900296243,1731900296259,1731900296276,1731900296293,1731900296309,1731900296326,1731900296343,1731900296359,1731900296376,1731900296395,1731900296413,1731900296430,1731900296446,1731900296460,1731900296476,1731900296493,1731900296513,1731900296531,1731900296543,1731900296559,1731900296581,1731900296593,1731900296609,1731900296629,1731900296646,1731900296664,1731900296679,1731900296697,1731900296713,1731900296728,1731900296746,1731900296763,1731900296778,1731900296793,1731900296809,1731900296826,1731900296844,1731900296866,1731900296883,1731900296899,1731900296909,1731900296926,1731900296943,1731900296959,1731900296976,1731900296993,1731900297010,1731900297026,1731900297043,1731900297059,1731900297076,1731900297093,1731900297109,1731900297126,1731900297143,1731900297159,1731900297176,1731900297193,1731900297209,1731900297229,1731900297243,1731900297259,1731900297276,1731900297293,1731900297309,1731900297326,1731900297343,1731900297359,1731900297376,1731900297393,1731900297409,1731900297426,1731900297443,1731900297459,1731900297476,1731900297493,1731900297509,1731900297526,1731900297547,1731900297560,1731900297576,1731900297593,1731900297611,1731900297626,1731900297643,1731900297662,1731900297676,1731900297693,1731900297709,1731900297729,1731900297745,1731900297760,1731900297776,1731900297798,1731900297812,1731900297829,1731900297845,1731900297859,1731900297876,1731900297893,1731900297909,1731900297926,1731900297946,1731900297960,1731900297976,1731900297993,1731900298015,1731900298026,1731900298043,1731900298060,1731900298076,1731900298095,1731900298109,1731900298126,1731900298145,1731900298159,1731900298176,1731900298193,1731900298209,1731900298226,1731900298243,1731900298263,1731900298276,1731900298293,1731900298309,1731900298326,1731900298343,1731900298359,1731900298376,1731900298393,1731900298409,1731900298426,1731900298443,1731900298459,1731900298476,1731900298495,1731900298509,1731900298526,1731900298544,1731900298562,1731900298576,1731900298594,1731900298611,1731900298626,1731900298644,1731900298661,1731900298676,1731900298693,1731900298711,1731900298727,1731900298743,1731900298760,1731900298776,1731900298793,1731900298811,1731900298828,1731900298843,1731900298861,1731900298876,1731900298894,1731900298911,1731900298926,1731900298943,1731900298961,1731900298976,1731900298993,1731900299013,1731900299031,1731900299043,1731900299059,1731900299076,1731900299093,1731900299109,1731900299127]","[[920.6,426.6],[920.6,426.6],[904.8,428.6],[909.1,424.7],[919.8,423],[919.8,423],[914.5,421.5],[923.1,412.7],[925.6,392.6],[928.1,372.5],[922.8,356.8],[945.2,345.9],[967.4,339.5],[1008.7,332.9],[1006.7,325.3],[1004.7,317.7],[1012.8,304.3],[1017,296.8],[1035.8,299.8],[1045.5,316.4],[1048.3,326.7],[1024.2,334.2],[1002.4,338.7],[966.1,343.4],[956.9,348.7],[944,351.4],[931.1,354.1],[919.7,362.9],[926.9,354.7],[943.2,332.9],[941.9,312],[951.6,293.1],[951.6,293.1],[966.8,294.7],[985.2,285.4],[1000.9,278.6],[1024.1,279.1],[1024.1,279.1],[1047.3,279.6],[1047.3,279.6],[1064.3,285.4],[1064.3,285.4],[1052.4,308.3],[1053.9,334.4],[1047.3,353.7],[1069.7,383.7],[1070.3,400.4],[1090.2,426.8],[1110.1,453.2],[1080.2,467.7],[1050.3,482.2],[1013.8,481.7],[978.8,481],[928.4,465.1],[897.8,457.5],[835.9,448.5],[794,421.8],[720.8,400.6],[651.8,390.1],[618.5,387],[585.2,374.6],[552.6,359.6],[522.2,350.1],[517.4,358.9],[490.1,361.3],[474,363.1],[442.9,368.8],[425.3,363.6],[411.2,354.1],[413.2,354.1],[410.5,364.6],[419,363.7],[425.3,357.3],[380.5,327.2],[359.3,303.4],[336.4,276.4],[324.8,256],[330.7,237.6],[328.9,212.8],[387.2,207.4],[438.1,194.1],[511.4,202],[574.3,204],[664.7,223.4],[747.1,233.6],[822.3,238.3],[822.3,238.3],[908.9,256.2],[974.2,282.4],[1028.6,310.9],[1017.1,310.3],[1015,309.2],[992.6,296.9],[992.6,296.9],[990.1,312.3],[988.8,308.7],[993.9,304.2],[985.9,317.4],[976.8,317.4],[967.8,316],[967.8,316],[977.6,316.2],[979.5,309.9],[984.1,310.8],[984.1,310.8],[1021,316.1],[1021,316.1],[1044.1,299.1],[1044.1,299.1],[1056,321.7],[1056,321.7],[1064.7,344.8],[1064.7,344.8],[1074,355.1],[1074,355.1],[1073.5,367],[1073.7,382.5],[1066.4,393.7],[1067,411.4],[1079.5,415.1],[1060.6,436.9],[1034.8,459.7],[1011.9,463.8],[1009.7,480.6],[1014.6,481.4],[1020.1,470.3],[1026.1,478.7],[1031.7,487.5],[1053.8,491.3],[1064,509.1],[1054.6,512.5],[1056.4,515.4],[1060,508.3],[1050,505.6],[1048.7,509.4],[1046.3,523.5],[1042.6,515.9],[1047.2,503.8],[1035.3,496.7],[1014.4,486.7],[1014,474.1],[1017.2,464],[1025.7,462],[1026.9,466.1],[1024.8,474.8],[1042.6,477.4],[1060.4,480],[1065.1,461.7],[1079,452.3],[1075.9,450.9],[1089.9,437.4],[1090.2,420.6],[1090.2,420.6],[1093.3,399.1],[1093.3,399.1],[1094.3,403.1],[1074.7,396],[1038.6,396.1],[1004,401.6],[983.5,425.8],[945.7,460.2],[962.1,481.8],[961.4,515.5],[961.4,515.5],[931.1,542.5],[950.3,582.9],[968.1,580.4],[1017.9,609.1],[1064.3,636.7],[1096.8,646],[1107.2,664.3],[1135.8,667.9],[1136.2,679.2],[1144.8,689.1],[1208.4,707.4],[1203.6,721],[1227.3,734.3],[1225.9,726.9],[1214.2,725],[1225.2,735.1],[1229.9,745],[1221.7,743.8],[1217.1,724.8],[1205.9,737.7],[1177.6,736.4],[1168.7,735.7],[1148.7,737.6],[1138.7,752.8],[1148.5,756.8],[1143.8,763.9],[1162.7,760.2],[1162.7,760.2],[1182.8,774.1],[1188.5,809.7],[1192.6,814.8],[1204.9,816.1],[1213.9,812.8],[1206.3,793.1],[1206.3,793.1],[1206.8,781.3],[1216.1,793.8],[1229.6,804.1],[1234.1,812.6],[1220.5,800.6],[1246.4,805.3],[1272.3,810],[1297,819.3],[1319.7,832.5],[1350.1,863.6],[1372.4,860.2],[1376.4,838.2],[1375,826.8],[1375,826.8],[1381,831.7],[1381,831.7],[1419,852.5],[1431.6,850.1],[1420,854.4],[1420,854.4],[1408.1,866.2],[1393.9,865.1],[1400.4,868.9],[1399.5,874.9],[1398.6,880.9],[1398.6,880.9],[1403.5,888.1],[1403.5,888.1],[1406.4,857.9],[1406.4,857.9],[1385.6,844],[1385.6,844],[1372.8,808.4],[1372.8,808.4],[1386.6,782.5],[1386.6,782.5],[1407.5,759.8],[1436,761.7],[1436.9,759.1],[1440.7,734],[1436,736.7],[1426,741],[1418.9,768.4],[1409.3,775.3],[1397.6,817.3],[1376,832.9],[1376,832.9],[1342.4,850.3],[1302.1,856],[1302.1,856],[1274.9,852.3],[1265.3,880.9],[1255.1,884.6],[1236.4,876.5],[1213.9,876.9],[1211.7,870.5],[1204.2,864.2],[1204.2,867.9],[1191.5,869.7],[1178.8,851.8],[1161.9,853.5],[1135.6,857.1],[1121,858],[1119.8,857.3],[1114,854.7],[1101.8,856.8],[1101.8,856.8],[1096,833.8],[1096,833.8],[1079.5,805.3],[1086.3,768.3],[1096.5,747.1],[1096.5,747.1],[1112,722.5],[1112,722.5],[1129.8,699.5],[1129.8,699.5],[1143.1,688.4],[1170.7,663.9],[1189.4,631.5],[1216.2,607.4],[1232.7,597.5],[1250.6,609.9],[1271.4,610.5],[1288.7,607.8],[1298.7,597.9],[1298.1,612.8],[1299.4,615.6],[1296.5,638.8],[1307.1,671.8],[1307,665.5],[1309.4,681.8],[1310.2,666.8],[1297.5,674],[1309.8,685],[1320.4,707.8],[1339.3,704.2],[1335.8,706.9],[1335.8,706.9],[1319.6,704.6],[1329.3,683.8],[1328.1,703],[1311.9,708.9],[1323.8,718.8],[1335.7,728.7],[1320.1,739.4],[1312.5,728],[1287.4,728.4],[1283.6,726.4],[1287.8,717.8],[1256.3,735.6],[1242.4,737.4],[1239.9,715.8],[1226.8,705.7],[1226.8,705.7],[1177.1,688.3],[1140,673],[1110.2,667.9],[1118.3,643.4],[1124.1,609.8],[1104.8,576.2],[1105.5,508.1],[1090.8,465.4],[1090.8,465.4],[1072.2,448.3],[1051.5,422.5],[1068.5,422.4],[1076.9,381.4],[1091.2,343.8],[1085.1,313.8],[1072.1,292.4],[1068.7,275.2],[1058.7,318.9],[1062.1,322.5],[1076.6,330.3],[1076.6,330.3],[1092.6,330.1],[1092.6,330.1],[1095,314.3],[1104.8,331.1],[1091.3,348],[1082.1,353.9],[1085.3,356],[1085.3,356],[1065.3,370.8],[1065.3,370.8],[1084.7,356.7],[1084.7,356.7],[1077.8,371.8],[1069.3,352.5],[1069.3,352.5],[1049.6,349.9],[1049.6,349.9],[1042.7,342.3],[1042.7,342.3],[1034.5,342.5],[1034.5,342.5],[1033.8,328.4],[1030.6,331],[1021.3,341.8],[1043.8,331.7],[1023.3,316.2],[1029,288.4],[1016.8,283.5],[1006.1,263],[1009.3,242.9],[1004.3,234.6],[995.1,233.8],[988.4,220.4],[997.4,203.9],[1007.9,196],[1006,192.7],[1002.1,194.2],[1012.7,187.2],[1027.5,182.2],[1020.2,200.5],[1020.2,196.2],[1017.5,203.2],[1015.4,226.8],[1002.7,232.1],[989.5,263.4],[997.5,269],[1001.7,272.3],[1004.8,295.8],[1009.4,311.9],[1017.5,322.1],[1026.7,338.8],[1046.5,331.6],[1033.2,319],[1018.8,320],[1015.5,311.4],[1008.4,325.9],[1002,346.9],[1010.5,339.3],[1012.6,355.6],[1016,359.5],[1016,359.5],[1013.5,352.3],[1019.9,378.2],[1056.2,399.7],[1098,417.4],[1129.2,418.7]]","[-0.142,0.42599999999999993]","[0.142,0.42599999999999993]","[0.42599999999999993,0.42599999999999993]","[-0.42599999999999993,-0.142]","[-0.42599999999999993,-0.42599999999999993]","[-0.42599999999999993,0.142]","[-0.142,-0.142]","[0.142,-0.142]","[0.42599999999999993,-0.142]","[-0.142,-0.42599999999999993]","[0.142,-0.42599999999999993]","[0.42599999999999993,-0.42599999999999993]","[-0.142,0.142]","[0.142,0.142]","[0.42599999999999993,0.142]",0,0,0,0,1,4,Laptop,25,20,8,1,60,4,1,60,3
