inst1_resp.keys,inst1_resp.rt,calibrationMouse.x,calibrationMouse.y,calibrationMouse.leftButton,calibrationMouse.midButton,calibrationMouse.rightButton,calibrationClick.x,calibrationClick.y,calibrationClick.leftButton,calibrationClick.midButton,calibrationClick.rightButton,calibrationClick.clicked_name,trialsc.thisRepN,trialsc.thisTrialN,trialsc.thisN,trialsc.thisIndex,trialsc.ran,calibration_x,calibration_y,participant,session,date,expName,psychopyVersion,OS,frameRate,ScreenRes_pixels,Camera_pixels,mouse_2.x,mouse_2.y,mouse_2.leftButton,mouse_2.midButton,mouse_2.rightButton,mouse_2.time,mouse_2.clicked_name,mouse.x,mouse.y,mouse.leftButton,mouse.midButton,mouse.rightButton,mouse.time,mouse.clicked_name,Choice,Trial,TrialDuration,MOUSE_GAZE,ET_GAZE,ET_GAZE_x_T,time,unixTime,ET_GAZE_NF,Loc_Bus_label,Loc_Metro_label,Loc_RH_label,Loc_Cost_label,Loc_Travel_label,Loc_Comfort_label,Loc_Bus_cost,Loc_Metro_cost,Loc_RH_cost,Loc_Bus_travel,Loc_Metro_travel,Loc_RH_travel,Loc_Bus_comfort,Loc_Metro_comfort,Loc_RH_comfort,trials.thisRepN,trials.thisTrialN,trials.thisN,trials.thisIndex,trials.ran,Block,Device,RH_cost,RH_travel_time,RH_Comfort,metro_cost,metro_travel_time,metro_Comfort,Bus_cost,Bus_travel_time,Bus_Comfort
space,2.0254,-0.935416667,-0.644444444,1,0,0,-0.670833333,-0.672222222,1,0,0,calibration_square,0,0,0,0,1,-0.67,-0.67,21,001,2024-11-25_13h20.00.804,Attention_exp_legacy,2023.1.0,Win32,59.88023952,,,,,,,,,,,,,,,,,,,,,,,,,,,,,,,,,,,,,,,,,,,,,,,,,,,,,,,,
,,,,,,,0.329166667,-0.003703704,1,0,0,calibration_square,0,1,1,16,1,0.33,0,21,001,2024-11-25_13h20.00.804,Attention_exp_legacy,2023.1.0,Win32,59.88023952,,,,,,,,,,,,,,,,,,,,,,,,,,,,,,,,,,,,,,,,,,,,,,,,,,,,,,,,
,,,,,,,0.007291667,-0.014814815,1,0,0,,0,2,2,11,1,0,0,21,001,2024-11-25_13h20.00.804,Attention_exp_legacy,2023.1.0,Win32,59.88023952,,,,,,,,,,,,,,,,,,,,,,,,,,,,,,,,,,,,,,,,,,,,,,,,,,,,,,,,
,,,,,,,-0.314583333,-0.340740741,1,0,0,,0,3,3,5,1,-0.33,-0.33,21,001,2024-11-25_13h20.00.804,Attention_exp_legacy,2023.1.0,Win32,59.88023952,,,,,,,,,,,,,,,,,,,,,,,,,,,,,,,,,,,,,,,,,,,,,,,,,,,,,,,,
,,,,,,,-0.422916667,-0.840740741,1,0,0,,0,4,4,4,1,-0.33,-0.67,21,001,2024-11-25_13h20.00.804,Attention_exp_legacy,2023.1.0,Win32,59.88023952,,,,,,,,,,,,,,,,,,,,,,,,,,,,,,,,,,,,,,,,,,,,,,,,,,,,,,,,
,,,,,,,-0.7375,-0.555555556,1,0,0,,0,5,5,1,1,-0.67,-0.33,21,001,2024-11-25_13h20.00.804,Attention_exp_legacy,2023.1.0,Win32,59.88023952,,,,,,,,,,,,,,,,,,,,,,,,,,,,,,,,,,,,,,,,,,,,,,,,,,,,,,,,
,,,,,,,-0.298958333,0.709259259,1,0,0,,0,6,6,8,1,-0.33,0.67,21,001,2024-11-25_13h20.00.804,Attention_exp_legacy,2023.1.0,Win32,59.88023952,,,,,,,,,,,,,,,,,,,,,,,,,,,,,,,,,,,,,,,,,,,,,,,,,,,,,,,,
,,,,,,,-0.220833333,0.083333333,1,0,0,,0,7,7,6,1,-0.33,0,21,001,2024-11-25_13h20.00.804,Attention_exp_legacy,2023.1.0,Win32,59.88023952,,,,,,,,,,,,,,,,,,,,,,,,,,,,,,,,,,,,,,,,,,,,,,,,,,,,,,,,
,,,,,,,-0.40625,0.451851852,1,0,0,,0,8,8,7,1,-0.33,0.33,21,001,2024-11-25_13h20.00.804,Attention_exp_legacy,2023.1.0,Win32,59.88023952,,,,,,,,,,,,,,,,,,,,,,,,,,,,,,,,,,,,,,,,,,,,,,,,,,,,,,,,
,,,,,,,0.546875,-0.585185185,1,0,0,,0,9,9,20,1,0.67,-0.67,21,001,2024-11-25_13h20.00.804,Attention_exp_legacy,2023.1.0,Win32,59.88023952,,,,,,,,,,,,,,,,,,,,,,,,,,,,,,,,,,,,,,,,,,,,,,,,,,,,,,,,
,,,,,,,0.277083333,-0.792592593,1,0,0,,0,10,10,14,1,0.33,-0.67,21,001,2024-11-25_13h20.00.804,Attention_exp_legacy,2023.1.0,Win32,59.88023952,,,,,,,,,,,,,,,,,,,,,,,,,,,,,,,,,,,,,,,,,,,,,,,,,,,,,,,,
,,,,,,,0.34375,0.203703704,1,0,0,,0,11,11,17,1,0.33,0.33,21,001,2024-11-25_13h20.00.804,Attention_exp_legacy,2023.1.0,Win32,59.88023952,,,,,,,,,,,,,,,,,,,,,,,,,,,,,,,,,,,,,,,,,,,,,,,,,,,,,,,,
,,,,,,,0.291666667,0.65,1,0,0,,0,12,12,18,1,0.33,0.67,21,001,2024-11-25_13h20.00.804,Attention_exp_legacy,2023.1.0,Win32,59.88023952,,,,,,,,,,,,,,,,,,,,,,,,,,,,,,,,,,,,,,,,,,,,,,,,,,,,,,,,
,,,,,,,0.261458333,-0.333333333,1,0,0,,0,13,13,15,1,0.33,-0.33,21,001,2024-11-25_13h20.00.804,Attention_exp_legacy,2023.1.0,Win32,59.88023952,,,,,,,,,,,,,,,,,,,,,,,,,,,,,,,,,,,,,,,,,,,,,,,,,,,,,,,,
,,,,,,,-0.046875,0.227777778,1,0,0,,0,14,14,12,1,0,0.33,21,001,2024-11-25_13h20.00.804,Attention_exp_legacy,2023.1.0,Win32,59.88023952,,,,,,,,,,,,,,,,,,,,,,,,,,,,,,,,,,,,,,,,,,,,,,,,,,,,,,,,
,,,,,,,-0.446875,0.048148148,1,0,0,,0,15,15,2,1,-0.67,0,21,001,2024-11-25_13h20.00.804,Attention_exp_legacy,2023.1.0,Win32,59.88023952,,,,,,,,,,,,,,,,,,,,,,,,,,,,,,,,,,,,,,,,,,,,,,,,,,,,,,,,
,,,,,,,0.003125,-0.703703704,1,0,0,,0,16,16,9,1,0,-0.67,21,001,2024-11-25_13h20.00.804,Attention_exp_legacy,2023.1.0,Win32,59.88023952,,,,,,,,,,,,,,,,,,,,,,,,,,,,,,,,,,,,,,,,,,,,,,,,,,,,,,,,
,,,,,,,0.684375,0.65,1,0,0,,0,17,17,19,1,0.67,0.67,21,001,2024-11-25_13h20.00.804,Attention_exp_legacy,2023.1.0,Win32,59.88023952,,,,,,,,,,,,,,,,,,,,,,,,,,,,,,,,,,,,,,,,,,,,,,,,,,,,,,,,
,,,,,,,-0.635416667,0.246296296,1,0,0,,0,18,18,3,1,-0.67,0.33,21,001,2024-11-25_13h20.00.804,Attention_exp_legacy,2023.1.0,Win32,59.88023952,,,,,,,,,,,,,,,,,,,,,,,,,,,,,,,,,,,,,,,,,,,,,,,,,,,,,,,,
,,,,,,,0,-0.362962963,1,0,0,,0,19,19,10,1,0,-0.33,21,001,2024-11-25_13h20.00.804,Attention_exp_legacy,2023.1.0,Win32,59.88023952,,,,,,,,,,,,,,,,,,,,,,,,,,,,,,,,,,,,,,,,,,,,,,,,,,,,,,,,
,,,,,,,0.015625,0.581481481,1,0,0,,0,20,20,13,1,0,0.67,21,001,2024-11-25_13h20.00.804,Attention_exp_legacy,2023.1.0,Win32,59.88023952,,,,,,,,,,,,,,,,,,,,,,,,,,,,,,,,,,,,,,,,,,,,,,,,,,,,,,,,
,,,,,,,,,,,,,,,,,,,,21,001,2024-11-25_13h20.00.804,Attention_exp_legacy,2023.1.0,Win32,59.88023952,"[1920,1080]","[640,480]",[0.041666666666666664],[-0.4962962962962963],[1],[0],[0],[1.4314999999999998],"[""StartButton""]",[0.29375],[0.6425925925925926],[1],[0],[0],[5.664500000000004],"[""Metro_label""]",Metro_label,1,6.6913,"[[0.035416666666666666,-0.6611111111111111],[0.04583333333333333,-0.5425925925925926],[0.04583333333333333,-0.5277777777777778],[0.04583333333333333,-0.5037037037037037],[0.04583333333333333,-0.48333333333333334],[0.04583333333333333,-0.4666666666666667],[0.04583333333333333,-0.45185185185185184],[0.04583333333333333,-0.4388888888888889],[0.04583333333333333,-0.43148148148148147],[0.04479166666666667,-0.4203703703703704],[0.04479166666666667,-0.4148148148148148],[0.04375,-0.4111111111111111],[0.04375,-0.40925925925925927],[0.04375,-0.4074074074074074],[0.042708333333333334,-0.40555555555555556],[0.041666666666666664,-0.40185185185185185],[0.041666666666666664,-0.40185185185185185],[0.041666666666666664,-0.4],[0.041666666666666664,-0.3962962962962963],[0.041666666666666664,-0.3962962962962963],[0.041666666666666664,-0.39444444444444443],[0.040625,-0.3925925925925926],[0.040625,-0.3925925925925926],[0.040625,-0.3907407407407407],[0.040625,-0.3888888888888889],[0.040625,-0.387037037037037],[0.040625,-0.3851851851851852],[0.040625,-0.38333333333333336],[0.03958333333333333,-0.3814814814814815],[0.03854166666666667,-0.37592592592592594],[0.0375,-0.36666666666666664],[0.03333333333333333,-0.3425925925925926],[0.023958333333333335,-0.3037037037037037],[0.017708333333333333,-0.2759259259259259],[0.011458333333333333,-0.2518518518518518],[0,-0.21851851851851853],[-0.011458333333333333,-0.18333333333333332],[-0.021875,-0.14074074074074075],[-0.03229166666666667,-0.1],[-0.040625,-0.05925925925925926],[-0.04479166666666667,-0.024074074074074074],[-0.05,0.007407407407407408],[-0.05416666666666667,0.05185185185185185],[-0.05520833333333333,0.06296296296296296],[-0.05520833333333333,0.08148148148148149],[-0.05520833333333333,0.10925925925925926],[-0.05520833333333333,0.12037037037037036],[-0.05520833333333333,0.13333333333333333],[-0.05520833333333333,0.14629629629629629],[-0.05520833333333333,0.1537037037037037],[-0.05520833333333333,0.15925925925925927],[-0.05520833333333333,0.1648148148148148],[-0.05520833333333333,0.16666666666666666],[-0.05625,0.17037037037037037],[-0.05625,0.17037037037037037],[-0.05625,0.17037037037037037],[-0.05625,0.17037037037037037],[-0.05625,0.17037037037037037],[-0.05625,0.17037037037037037],[-0.05625,0.17037037037037037],[-0.05625,0.17037037037037037],[-0.05625,0.17037037037037037],[-0.05625,0.17037037037037037],[-0.05625,0.17037037037037037],[-0.05625,0.17037037037037037],[-0.05625,0.17037037037037037],[-0.05625,0.17037037037037037],[-0.05625,0.17037037037037037],[-0.05625,0.17037037037037037],[-0.05625,0.17037037037037037],[-0.05625,0.17037037037037037],[-0.05625,0.17037037037037037],[-0.05625,0.17037037037037037],[-0.05625,0.17037037037037037],[-0.05625,0.17037037037037037],[-0.05625,0.17037037037037037],[-0.05625,0.17037037037037037],[-0.05625,0.17037037037037037],[-0.05625,0.17037037037037037],[-0.05625,0.17037037037037037],[-0.05625,0.17037037037037037],[-0.05625,0.17037037037037037],[-0.05625,0.17037037037037037],[-0.05625,0.17037037037037037],[-0.05625,0.17037037037037037],[-0.05625,0.17037037037037037],[-0.05625,0.17037037037037037],[-0.05625,0.17037037037037037],[-0.05625,0.17037037037037037],[-0.05625,0.17037037037037037],[-0.05625,0.17037037037037037],[-0.05625,0.17037037037037037],[-0.05625,0.17037037037037037],[-0.05625,0.17037037037037037],[-0.05625,0.17037037037037037],[-0.05625,0.17037037037037037],[-0.05625,0.17037037037037037],[-0.05625,0.17037037037037037],[-0.05625,0.17037037037037037],[-0.05625,0.17037037037037037],[-0.05625,0.17037037037037037],[-0.05625,0.17037037037037037],[-0.05625,0.17037037037037037],[-0.05625,0.17037037037037037],[-0.05625,0.17037037037037037],[-0.05625,0.17037037037037037],[-0.05625,0.17037037037037037],[-0.05625,0.17037037037037037],[-0.05625,0.17037037037037037],[-0.05625,0.17037037037037037],[-0.05625,0.17037037037037037],[-0.05625,0.17037037037037037],[-0.05625,0.17037037037037037],[-0.05625,0.17037037037037037],[-0.05625,0.17037037037037037],[-0.05625,0.17037037037037037],[-0.05625,0.17037037037037037],[-0.05625,0.17037037037037037],[-0.05625,0.17037037037037037],[-0.05625,0.17037037037037037],[-0.05625,0.17037037037037037],[-0.05625,0.17037037037037037],[-0.05625,0.17037037037037037],[-0.05625,0.17037037037037037],[-0.05625,0.17037037037037037],[-0.05625,0.17037037037037037],[-0.05625,0.17037037037037037],[-0.05625,0.17037037037037037],[-0.05625,0.17037037037037037],[-0.05625,0.17037037037037037],[-0.05625,0.17037037037037037],[-0.05625,0.17037037037037037],[-0.05625,0.17037037037037037],[-0.05625,0.17037037037037037],[-0.05625,0.17222222222222222],[-0.04583333333333333,0.17777777777777778],[-0.025,0.18888888888888888],[0.0020833333333333333,0.2111111111111111],[0.03229166666666667,0.23148148148148148],[0.04583333333333333,0.2462962962962963],[0.08125,0.28888888888888886],[0.11770833333333333,0.3277777777777778],[0.14270833333333333,0.3592592592592593],[0.1625,0.387037037037037],[0.178125,0.4074074074074074],[0.19583333333333333,0.4351851851851852],[0.21458333333333332,0.4685185185185185],[0.234375,0.4981481481481482],[0.253125,0.5259259259259259],[0.271875,0.5537037037037037],[0.28854166666666664,0.5740740740740741],[0.30416666666666664,0.5907407407407408],[0.31875,0.6092592592592593],[0.340625,0.6296296296296297],[0.3489583333333333,0.6370370370370371],[0.3572916666666667,0.6444444444444445],[0.36666666666666664,0.6518518518518519],[0.3729166666666667,0.6555555555555556],[0.37604166666666666,0.6592592592592592],[0.378125,0.6592592592592592],[0.378125,0.6592592592592592],[0.378125,0.6592592592592592],[0.378125,0.6592592592592592],[0.378125,0.6592592592592592],[0.378125,0.6592592592592592],[0.378125,0.6592592592592592],[0.378125,0.6592592592592592],[0.378125,0.6592592592592592],[0.378125,0.6592592592592592],[0.378125,0.6592592592592592],[0.378125,0.6592592592592592],[0.378125,0.6592592592592592],[0.378125,0.6592592592592592],[0.378125,0.6592592592592592],[0.3770833333333333,0.6574074074074074],[0.37604166666666666,0.6555555555555556],[0.37604166666666666,0.6555555555555556],[0.375,0.6537037037037037],[0.375,0.6537037037037037],[0.37395833333333334,0.6518518518518519],[0.371875,0.6481481481481481],[0.371875,0.6481481481481481],[0.371875,0.6462962962962963],[0.371875,0.6462962962962963],[0.37083333333333335,0.6462962962962963],[0.37083333333333335,0.6462962962962963],[0.37083333333333335,0.6462962962962963],[0.3697916666666667,0.6462962962962963],[0.36875,0.6462962962962963],[0.36875,0.6462962962962963],[0.36875,0.6462962962962963],[0.36875,0.6462962962962963],[0.36875,0.6462962962962963],[0.36770833333333336,0.6444444444444445],[0.36770833333333336,0.6444444444444445],[0.36666666666666664,0.6444444444444445],[0.365625,0.6425925925925926],[0.365625,0.6425925925925926],[0.36354166666666665,0.6425925925925926],[0.3614583333333333,0.6407407407407407],[0.36041666666666666,0.6407407407407407],[0.3572916666666667,0.6407407407407407],[0.353125,0.6407407407407407],[0.3458333333333333,0.6425925925925926],[0.334375,0.6518518518518519],[0.31666666666666665,0.6666666666666666],[0.2947916666666667,0.6851851851851852],[0.271875,0.7055555555555556],[0.24895833333333334,0.7240740740740741],[0.22708333333333333,0.7388888888888889],[0.20833333333333334,0.7518518518518519],[0.190625,0.762962962962963],[0.17395833333333333,0.7703703703703704],[0.15520833333333334,0.7759259259259259],[0.14270833333333333,0.7814814814814814],[0.13645833333333332,0.7814814814814814],[0.13020833333333334,0.7814814814814814],[0.12708333333333333,0.7796296296296297],[0.12291666666666666,0.774074074074074],[0.11770833333333333,0.7648148148148148],[0.1125,0.75],[0.109375,0.7388888888888889],[0.10833333333333334,0.7296296296296296],[0.10729166666666666,0.7166666666666667],[0.10729166666666666,0.7111111111111111],[0.10729166666666666,0.7055555555555556],[0.10729166666666666,0.7018518518518518],[0.10729166666666666,0.6981481481481482],[0.10833333333333334,0.6907407407407408],[0.109375,0.687037037037037],[0.11354166666666667,0.6777777777777778],[0.11770833333333333,0.674074074074074],[0.12291666666666666,0.6685185185185185],[0.13229166666666667,0.6611111111111111],[0.14479166666666668,0.6518518518518519],[0.16666666666666666,0.6444444444444445],[0.18229166666666666,0.6407407407407407],[0.19791666666666666,0.6370370370370371],[0.21354166666666666,0.6351851851851852],[0.225,0.6351851851851852],[0.234375,0.6351851851851852],[0.23854166666666668,0.6351851851851852],[0.24270833333333333,0.6351851851851852],[0.24479166666666666,0.6351851851851852],[0.24479166666666666,0.6370370370370371],[0.24479166666666666,0.6370370370370371],[0.24479166666666666,0.6370370370370371],[0.24479166666666666,0.6370370370370371],[0.24479166666666666,0.6370370370370371],[0.24479166666666666,0.6370370370370371],[0.24479166666666666,0.6370370370370371],[0.24479166666666666,0.6370370370370371],[0.24479166666666666,0.6370370370370371],[0.24479166666666666,0.6370370370370371],[0.24479166666666666,0.6370370370370371],[0.24479166666666666,0.6370370370370371],[0.24479166666666666,0.6370370370370371],[0.24583333333333332,0.6370370370370371],[0.25625,0.6370370370370371],[0.26875,0.6370370370370371],[0.278125,0.6370370370370371],[0.30625,0.6370370370370371],[0.3260416666666667,0.6370370370370371],[0.34375,0.6370370370370371],[0.359375,0.6370370370370371],[0.3770833333333333,0.6370370370370371],[0.38958333333333334,0.6370370370370371],[0.40208333333333335,0.6370370370370371],[0.4166666666666667,0.6370370370370371],[0.42604166666666665,0.6370370370370371],[0.4354166666666667,0.6370370370370371],[0.4427083333333333,0.6370370370370371],[0.4479166666666667,0.6370370370370371],[0.45416666666666666,0.6370370370370371],[0.4583333333333333,0.6370370370370371],[0.46041666666666664,0.6370370370370371],[0.4635416666666667,0.6370370370370371],[0.4635416666666667,0.6370370370370371],[0.465625,0.6388888888888888],[0.465625,0.6388888888888888],[0.465625,0.6388888888888888],[0.465625,0.6388888888888888],[0.465625,0.6388888888888888],[0.465625,0.6388888888888888],[0.465625,0.6388888888888888],[0.465625,0.6388888888888888],[0.465625,0.6388888888888888],[0.465625,0.6388888888888888],[0.46458333333333335,0.6388888888888888],[0.4583333333333333,0.6388888888888888],[0.453125,0.6388888888888888],[0.44583333333333336,0.6388888888888888],[0.434375,0.6388888888888888],[0.42604166666666665,0.6388888888888888],[0.41875,0.6388888888888888],[0.41354166666666664,0.6388888888888888],[0.409375,0.6388888888888888],[0.40208333333333335,0.6388888888888888],[0.396875,0.6388888888888888],[0.3927083333333333,0.6388888888888888],[0.38645833333333335,0.6388888888888888],[0.3802083333333333,0.6388888888888888],[0.37395833333333334,0.6388888888888888],[0.36875,0.6388888888888888],[0.3625,0.6388888888888888],[0.35833333333333334,0.6388888888888888],[0.35208333333333336,0.6388888888888888],[0.346875,0.6388888888888888],[0.340625,0.6388888888888888],[0.33229166666666665,0.6388888888888888],[0.3260416666666667,0.6388888888888888],[0.32083333333333336,0.6388888888888888],[0.3177083333333333,0.6388888888888888],[0.3145833333333333,0.6388888888888888],[0.3125,0.6388888888888888],[0.3072916666666667,0.6388888888888888],[0.30625,0.6388888888888888],[0.303125,0.6388888888888888],[0.3020833333333333,0.6407407407407407],[0.2989583333333333,0.6407407407407407],[0.296875,0.6425925925925926],[0.29583333333333334,0.6425925925925926],[0.29583333333333334,0.6425925925925926],[0.29375,0.6425925925925926],[0.29375,0.6425925925925926],[0.29375,0.6425925925925926],[0.29375,0.6425925925925926],[0.29375,0.6425925925925926],[0.29375,0.6425925925925926],[0.29375,0.6425925925925926],[0.29375,0.6425925925925926],[0.29375,0.6425925925925926],[0.29375,0.6425925925925926],[0.29375,0.6425925925925926],[0.29375,0.6425925925925926],[0.29375,0.6425925925925926],[0.29375,0.6425925925925926],[0.29375,0.6425925925925926],[0.29375,0.6425925925925926],[0.29375,0.6425925925925926],[0.29375,0.6425925925925926],[0.29375,0.6425925925925926],[0.29375,0.6425925925925926],[0.29375,0.6425925925925926],[0.29375,0.6425925925925926],[0.29375,0.6425925925925926],[0.29375,0.6425925925925926],[0.29375,0.6425925925925926],[0.29375,0.6425925925925926],[0.29375,0.6425925925925926],[0.29375,0.6425925925925926],[0.29375,0.6425925925925926],[0.29375,0.6425925925925926],[0.29375,0.6425925925925926],[0.29375,0.6425925925925926],[0.29375,0.6425925925925926],[0.29375,0.6425925925925926],[0.29375,0.6425925925925926],[0.29375,0.6425925925925926],[0.29375,0.6425925925925926],[0.29375,0.6425925925925926],[0.29375,0.6425925925925926],[0.29375,0.6425925925925926],[0.29375,0.6425925925925926],[0.29375,0.6425925925925926],[0.29375,0.6425925925925926],[0.29375,0.6425925925925926],[0.29375,0.6425925925925926],[0.29375,0.6425925925925926],[0.29375,0.6425925925925926],[0.29375,0.6425925925925926],[0.29375,0.6425925925925926],[0.29375,0.6425925925925926],[0.29375,0.6425925925925926],[0.29375,0.6425925925925926],[0.29375,0.6425925925925926],[0.29375,0.6425925925925926],[0.29375,0.6425925925925926],[0.29375,0.6425925925925926],[0.29375,0.6425925925925926],[0.28958333333333336,0.6407407407407407],[0.28020833333333334,0.6333333333333333],[0.275,0.6277777777777778],[0.26875,0.6222222222222222],[0.265625,0.6185185185185185],[0.26458333333333334,0.6148148148148148],[0.2625,0.6129629629629629],[0.2625,0.6129629629629629],[0.2625,0.6129629629629629],[0.2625,0.6129629629629629],[0.2625,0.6129629629629629],[0.2625,0.6129629629629629],[0.2625,0.6129629629629629],[0.2625,0.6129629629629629],[0.2625,0.6129629629629629],[0.2625,0.6129629629629629],[0.2625,0.6129629629629629],[0.2625,0.6129629629629629],[0.2625,0.6129629629629629],[0.2625,0.6129629629629629],[0.2625,0.6129629629629629]]","[[-0.043333333333333356,0.6037037037037037],[-0.043333333333333356,0.6037037037037037],[-0.01895833333333338,0.5907407407407408],[-0.011354166666666643,0.5464814814814816],[-0.030208333333333334,0.4988888888888888],[-0.033645833333333285,0.427962962962963],[-0.027708333333333356,0.4388888888888889],[-0.005208333333333333,0.4300000000000001],[0.01729166666666669,0.42111111111111105],[0.016770833333333356,0.3381481481481482],[0.016250000000000025,0.2551851851851851],[0.036458333333333336,0.26907407407407397],[0.027395833333333286,0.24777777777777768],[0.04520833333333331,0.23462962962962972],[0.051250000000000046,0.17555555555555546],[0.06041666666666667,0.20500000000000007],[0.06437499999999995,0.2170370370370371],[0.06593749999999995,0.22037037037037038],[0.06593749999999995,0.16148148148148156],[0.0703125,0.23462962962962972],[0.0703125,0.23462962962962972],[0.06802083333333328,0.29555555555555557],[0.04031250000000005,0.3116666666666666],[0.04031250000000005,0.3116666666666666],[0.022395833333333334,0.3218518518518518],[0.000833333333333286,0.3520370370370371],[-0.006979166666666714,0.41],[-0.013750000000000047,0.38333333333333336],[-0.009687499999999953,0.36814814814814806],[-0.009687499999999953,0.36814814814814806],[-0.014374999999999952,0.3640740740740741],[-0.014687500000000023,0.3846296296296297],[-0.010520833333333358,0.39814814814814814],[-0.010520833333333358,0.39814814814814814],[0.004375000000000047,0.39888888888888885],[-0.004479166666666619,0.37759259259259254],[0.00791666666666669,0.3494444444444445],[0.0109375,0.34666666666666673],[0.013125000000000024,0.37703703703703706],[0.013125000000000024,0.37703703703703706],[0.008124999999999953,0.31592592592592594],[-0.013437499999999976,0.24000000000000005],[-0.024479166666666666,0.20018518518518522],[-0.036562500000000026,0.17814814814814822],[-0.041458333333333285,0.09462962962962967],[-0.050416666666666644,0.03611111111111111],[-0.02947916666666662,-0.017592592592592594],[-0.034895833333333334,-0.0514814814814814],[-0.03947916666666664,-0.09907407407407408],[-0.04520833333333331,-0.16166666666666668],[-0.049374999999999974,-0.14333333333333328],[-0.05354166666666664,-0.125],[-0.06156250000000003,-0.18759259259259262],[-0.06458333333333334,-0.20092592592592592],[-0.06229166666666662,-0.1794444444444444],[-0.051770833333333384,-0.1398148148148148],[-0.03739583333333331,-0.10555555555555556],[-0.024895833333333308,-0.13388888888888892],[-0.010312499999999976,-0.17074074074074072],[0.0048958333333333805,-0.19500000000000003],[0.025729166666666713,-0.20870370370370367],[0.049791666666666616,-0.18407407407407403],[0.07593750000000009,-0.1257407407407407],[0.11281249999999995,-0.03611111111111111],[0.13541666666666666,0.04407407407407399],[0.13541666666666666,0.04407407407407399],[0.1453125,0.08222222222222218],[0.15520833333333334,0.12037037037037036],[0.17822916666666658,0.225],[0.20125000000000004,0.3296296296296296],[0.21427083333333338,0.4214814814814815],[0.22729166666666673,0.5133333333333334],[0.24177083333333324,0.5487037037037036],[0.25625,0.5840740740740741],[0.26375000000000004,0.5835185185185185],[0.25812499999999994,0.5533333333333332],[0.2569791666666667,0.547037037037037],[0.26062500000000005,0.5398148148148149],[0.25968749999999996,0.5596296296296297],[0.30135416666666665,0.6057407407407408],[0.3523958333333333,0.6520370370370371],[0.37052083333333335,0.6001851851851853],[0.38395833333333323,0.57],[0.3966666666666666,0.5485185185185186],[0.4158333333333334,0.5429629629629631],[0.4617708333333333,0.5581481481481481],[0.5067708333333333,0.5640740740740741],[0.5067708333333333,0.5640740740740741],[0.5448958333333332,0.5953703703703703],[0.5677083333333334,0.518888888888889],[0.5436458333333334,0.39962962962962956],[0.5195833333333333,0.2803703703703703],[0.5415625000000001,0.3077777777777779],[0.5635416666666667,0.3316666666666667],[0.5993750000000001,0.34203703703703714],[0.6006249999999999,0.27314814814814814],[0.6006249999999999,0.27314814814814814],[0.5962500000000001,0.22888888888888892],[0.5861458333333334,0.19888888888888884],[0.5861458333333334,0.19888888888888884],[0.5782291666666666,0.14425925925925923],[0.5890625,0.16055555555555565],[0.6041666666666666,0.1933333333333333],[0.6307291666666667,0.22833333333333325],[0.6441666666666668,0.21481481481481482],[0.634375,0.21666666666666667],[0.6101041666666667,0.20981481481481473],[0.6192708333333333,0.24203703703703713],[0.6204166666666666,0.25851851851851854],[0.6190625,0.29499999999999993],[0.6176041666666667,0.3316666666666667],[0.615625,0.33000000000000007],[0.6136458333333332,0.32833333333333325],[0.6032291666666666,0.322037037037037],[0.5736458333333334,0.33611111111111114],[0.5672916666666665,0.33481481481481473],[0.5570833333333333,0.35351851851851845],[0.5310416666666666,0.37166666666666676],[0.5257291666666667,0.38000000000000006],[0.5257291666666667,0.38000000000000006],[0.5329166666666666,0.37537037037037047],[0.5329166666666666,0.37537037037037047],[0.5395833333333333,0.31444444444444436],[0.5354166666666667,0.26888888888888896],[0.5370833333333332,0.23592592592592587],[0.53625,0.2777777777777778],[0.5545833333333334,0.25018518518518523],[0.5673958333333334,0.19962962962962955],[0.5854166666666667,0.1425925925925926],[0.5854166666666667,0.1425925925925926],[0.6042708333333332,0.08740740740740749],[0.6069791666666667,0.049074074074074076],[0.6063541666666665,-0.0012962962962963806],[0.5915625000000001,-0.005185185185185101],[0.583125,0.006851851851851936],[0.583125,0.006851851851851936],[0.5530208333333334,0.02814814814814823],[0.5530208333333334,0.02814814814814823],[0.5223958333333333,-0.02296296296296292],[0.4640625,-0.0477777777777777],[0.42125000000000007,-0.01962962962962967],[0.42125000000000007,-0.01962962962962967],[0.36593749999999997,-0.03518518518518519],[0.3211458333333333,-0.04814814814814815],[0.24447916666666672,-0.07444444444444442],[0.1678124999999999,-0.1007407407407407],[0.10354166666666677,-0.10629629629629625],[0.10354166666666677,-0.10629629629629625],[0.03760416666666669,-0.11481481481481481],[-0.0296875,-0.16722222222222224],[-0.09697916666666669,-0.21962962962962967],[-0.14718749999999994,-0.27148148148148155],[-0.1898958333333333,-0.3542592592592593],[-0.21281249999999996,-0.36870370370370376],[-0.24708333333333338,-0.3875925925925926],[-0.2413541666666667,-0.4274074074074074],[-0.18760416666666668,-0.4705555555555556],[-0.22291666666666668,-0.5107407407407407],[-0.22552083333333334,-0.5650000000000001],[-0.18531249999999996,-0.577962962962963],[-0.14510416666666662,-0.590925925925926],[-0.09427083333333333,-0.5816666666666667],[-0.01854166666666662,-0.5544444444444444],[0.04989583333333331,-0.5518518518518518],[0.07020833333333343,-0.5944444444444444],[0.07781250000000005,-0.6098148148148148],[0.06583333333333338,-0.5675925925925925],[0.14520833333333344,-0.5392592592592592],[0.15416666666666667,-0.5583333333333333],[0.1375,-0.5966666666666667],[0.1375,-0.5966666666666667],[0.13270833333333343,-0.5570370370370371],[0.16208333333333325,-0.542037037037037],[0.12468750000000005,-0.5588888888888889],[0.08729166666666661,-0.5757407407407407],[0.08729166666666661,-0.5757407407407407],[0.08729166666666661,-0.5225925925925926],[0.10666666666666676,-0.4685185185185185],[0.11614583333333334,-0.505],[0.14718749999999994,-0.5418518518518519],[0.21760416666666677,-0.5142592592592592],[0.24489583333333323,-0.4696296296296297],[0.2504166666666668,-0.4348148148148148],[0.23947916666666677,-0.3731481481481482],[0.2529166666666666,-0.29666666666666663],[0.2796875,-0.30648148148148147],[0.32614583333333325,-0.22555555555555556],[0.3532291666666666,-0.1455555555555556],[0.35208333333333336,-0.03333333333333333],[0.35208333333333336,-0.03333333333333333],[0.3351041666666667,-0.007407407407407408],[0.3181250000000001,0.018518518518518517],[0.3185416666666666,0.030000000000000086],[0.3597916666666668,-0.05814814814814811],[0.3729166666666667,-0.14444444444444443],[0.3729166666666667,-0.14444444444444443],[0.3568749999999999,-0.19796296296296292],[0.36875,-0.22018518518518515],[0.37166666666666665,-0.357962962962963],[0.3629166666666668,-0.44537037037037036],[0.36385416666666665,-0.5287037037037037],[0.3490624999999999,-0.4655555555555555],[0.34270833333333334,-0.4898148148148148],[0.3889583333333334,-0.5237037037037037],[0.40427083333333325,-0.5261111111111112],[0.4109375,-0.5572222222222222],[0.4383333333333333,-0.587037037037037],[0.4383333333333333,-0.587037037037037],[0.42864583333333334,-0.6370370370370371],[0.45510416666666675,-0.6698148148148148],[0.45510416666666675,-0.6698148148148148],[0.4639583333333334,-0.8044444444444444],[0.4914583333333333,-0.9375925925925926],[0.48166666666666674,-1.0381481481481483],[0.48166666666666674,-1.0381481481481483],[0.45968749999999997,-1.082037037037037],[0.3980208333333332,-1.0709259259259258],[0.36916666666666675,-1.065],[0.35354166666666675,-1.012962962962963],[0.35354166666666675,-1.012962962962963],[0.35666666666666674,-1.000925925925926],[0.33739583333333345,-0.945925925925926],[0.2819791666666667,-0.9081481481481481],[0.24468750000000009,-0.7959259259259259],[0.19072916666666656,-0.6979629629629629],[0.20020833333333338,-0.6509259259259259],[0.21343750000000009,-0.5731481481481482],[0.21343750000000009,-0.5731481481481482],[0.2283333333333334,-0.6062962962962962],[0.19208333333333344,-0.6346296296296297],[0.15208333333333332,-0.6903703703703704],[0.15208333333333332,-0.6903703703703704],[0.15145833333333342,-0.7001851851851852],[0.16906249999999995,-0.6777777777777778],[0.1618750000000001,-0.662962962962963],[0.16937499999999991,-0.7090740740740741],[0.19145833333333329,-0.7283333333333334],[0.19739583333333333,-0.7890740740740741],[0.1915625000000001,-0.8196296296296297],[0.1915625000000001,-0.8196296296296297],[0.16708333333333342,-0.7964814814814816],[0.1609375,-0.772962962962963],[0.134375,-0.6911111111111111],[0.0671875,-0.642962962962963],[0,-0.5948148148148148],[0,-0.5948148148148148],[-0.044166666666666646,-0.5781481481481481],[-0.06635416666666671,-0.5387037037037037],[-0.10510416666666664,-0.5133333333333333],[-0.15135416666666662,-0.5048148148148148],[-0.18583333333333332,-0.5264814814814816],[-0.20416666666666666,-0.5411111111111111],[-0.22250000000000003,-0.5557407407407408],[-0.1977083333333333,-0.6092592592592593],[-0.18583333333333332,-0.6833333333333333],[-0.18583333333333332,-0.6833333333333333],[-0.1642708333333334,-0.7648148148148148],[-0.15416666666666667,-0.7905555555555556],[-0.109375,-0.7833333333333333],[-0.06458333333333334,-0.7761111111111112],[0.021249999999999977,-0.7185185185185186],[0.021249999999999977,-0.7185185185185186],[0.08250000000000005,-0.7024074074074075],[0.17677083333333338,-0.6183333333333333],[0.23729166666666662,-0.6016666666666666],[0.2846874999999999,-0.5985185185185184],[0.34177083333333325,-0.5811111111111111],[0.34177083333333325,-0.5811111111111111],[0.38645833333333335,-0.552962962962963],[0.4547916666666666,-0.5572222222222222],[0.45854166666666674,-0.5627777777777777],[0.45854166666666674,-0.5627777777777777],[0.42937500000000006,-0.575925925925926],[0.4109375,-0.6185185185185185],[0.4109375,-0.6185185185185185],[0.46062500000000006,-0.5859259259259259],[0.45906250000000004,-0.6727777777777778],[0.45906250000000004,-0.6727777777777778],[0.48020833333333335,-0.6868518518518518],[0.5135416666666667,-0.6751851851851852],[0.5410416666666668,-0.6635185185185185],[0.5712500000000001,-0.6551851851851852],[0.5712500000000001,-0.6438888888888888],[0.5756249999999999,-0.649074074074074],[0.6219791666666665,-0.6188888888888888],[0.6349999999999999,-0.5946296296296296],[0.5946875000000001,-0.6196296296296296],[0.5548958333333334,-0.5975925925925926],[0.5548958333333334,-0.5996296296296296],[0.5046875,-0.595],[0.4400000000000001,-0.5605555555555556],[0.40625,-0.534074074074074],[0.4037499999999999,-0.528888888888889],[0.3679166666666667,-0.5266666666666666],[0.32302083333333326,-0.5522222222222222],[0.28572916666666665,-0.5479629629629629],[0.28572916666666665,-0.5479629629629629],[0.2582291666666668,-0.5281481481481481],[0.240625,-0.5738888888888889],[0.240625,-0.5738888888888889],[0.20510416666666675,-0.4940740740740741],[0.1492708333333333,-0.5059259259259259],[0.1492708333333333,-0.5059259259259259],[0.20010416666666658,-0.5725925925925925],[0.17718749999999991,-0.5896296296296296],[0.17718749999999991,-0.5896296296296296],[0.15229166666666671,-0.6238888888888888],[0.15260416666666668,-0.6083333333333333],[0.13020833333333334,-0.5651851851851851],[0.09677083333333343,-0.5964814814814815],[0.05791666666666669,-0.6414814814814814],[0.03979166666666671,-0.6305555555555555],[0.02374999999999995,-0.6916666666666667],[0.04697916666666669,-0.6868518518518518],[-0.021979166666666692,-0.6570370370370371],[-0.042812500000000024,-0.6472222222222223],[-0.042812500000000024,-0.6472222222222223],[-0.03177083333333333,-0.6129629629629629],[-0.03177083333333333,-0.6129629629629629],[-0.021249999999999977,-0.654074074074074],[-0.043958333333333384,-0.7546296296296297],[-0.0953125,-0.7707407407407407],[-0.11947916666666672,-0.7648148148148148],[-0.14729166666666665,-0.7398148148148148],[-0.12104166666666671,-0.7388888888888889],[-0.12104166666666671,-0.7388888888888889],[-0.11052083333333336,-0.7798148148148148],[-0.11052083333333336,-0.7798148148148148],[-0.10416666666666667,-0.7968518518518519],[-0.103125,-0.8355555555555555],[-0.13156249999999994,-0.8233333333333334],[-0.15135416666666662,-0.7825925925925926],[-0.12625000000000006,-0.7225925925925926],[-0.08208333333333329,-0.7218518518518519],[-0.09510416666666661,-0.669074074074074],[-0.10375000000000002,-0.6190740740740741],[-0.12593749999999998,-0.5637037037037037],[-0.09989583333333331,-0.46814814814814815],[-0.043020833333333286,-0.43851851851851853],[0.02677083333333338,-0.39296296296296296],[0.08010416666666677,-0.3672222222222222],[0.13645833333333332,-0.3496296296296296],[0.20385416666666673,-0.3194444444444444],[0.20385416666666673,-0.3194444444444444],[0.275,-0.3290740740740741],[0.40614583333333343,-0.3640740740740741],[0.5372916666666666,-0.3990740740740741],[0.5754166666666668,-0.44814814814814813],[0.5945833333333332,-0.4816666666666667],[0.5875,-0.5349999999999999],[0.5675,-0.6042592592592593],[0.5616666666666668,-0.6374074074074074],[0.5432291666666667,-0.6592592592592592],[0.5432291666666667,-0.6592592592592592],[0.5247916666666667,-0.6811111111111111],[0.5407291666666666,-0.6746296296296297],[0.5079166666666666,-0.6548148148148148],[0.4857291666666666,-0.6718518518518519],[0.4743750000000001,-0.6507407407407407],[0.48770833333333335,-0.667962962962963],[0.4851041666666667,-0.6588888888888889],[0.49416666666666675,-0.640925925925926],[0.47781250000000003,-0.6498148148148147],[0.4828125,-0.6812962962962963],[0.5041666666666667,-0.6733333333333333],[0.4569791666666667,-0.6531481481481481],[0.4508333333333333,-0.6742592592592593],[0.41729166666666656,-0.6625925925925926],[0.4140625,-0.6712962962962963],[0.3993750000000001,-0.657962962962963],[0.4002083333333334,-0.609074074074074],[0.36875,-0.5794444444444444],[0.35187499999999994,-0.5792592592592593],[0.3111458333333334,-0.5512962962962963],[0.3107291666666666,-0.5172222222222222],[0.31229166666666663,-0.4577777777777778],[0.29416666666666674,-0.4692592592592592],[0.30625,-0.46166666666666667],[0.31270833333333337,-0.47907407407407404],[0.3296875,-0.4331481481481481],[0.3260416666666667,-0.46592592592592597],[0.33708333333333323,-0.4607407407407408],[0.36177083333333326,-0.4727777777777778],[0.39854166666666657,-0.49314814814814817],[0.35989583333333336,-0.5631481481481482],[0.35177083333333337,-0.637962962962963],[0.3519791666666668,-0.6275925925925926],[0.334375,-0.6396296296296295],[0.32364583333333335,-0.6196296296296296],[0.29031250000000003,-0.6635185185185185],[0.26291666666666674,-0.6190740740740741],[0.23187499999999991,-0.5755555555555556],[0.20052083333333334,-0.492037037037037],[0.15031249999999996,-0.35333333333333333],[0.12791666666666662,-0.19537037037037036],[0.08072916666666667,-0.03814814814814819],[0.035000000000000024,0.12018518518518514],[-0.0016666666666666904,0.26500000000000007],[-0.03895833333333331,0.37407407407407406],[-0.07364583333333338,0.5124074074074075],[-0.0936458333333333,0.6411111111111112]]","[[-0.043333333333333356,0.6037037037037037,0.0002999999970256795],[-0.043333333333333356,0.6037037037037037,0.05329999999702295],[-0.01895833333333338,0.5907407407407408,0.05820000000298364],[-0.011354166666666643,0.5464814814814816,0.07789999999106101],[-0.030208333333333334,0.4988888888888888,0.09379999999701738],[-0.033645833333333285,0.427962962962963,0.11070000000297853],[-0.027708333333333356,0.4388888888888889,0.1252000000029767],[-0.005208333333333333,0.4300000000000001,0.14170000000298444],[0.01729166666666669,0.42111111111111105,0.16079999999702466],[0.016770833333333356,0.3381481481481482,0.17779999999702056],[0.016250000000000025,0.2551851851851851,0.19249999999999545],[0.036458333333333336,0.26907407407407397,0.21070000000298705],[0.027395833333333286,0.24777777777777768,0.22499999999999432],[0.04520833333333331,0.23462962962962972,0.2415999999940368],[0.051250000000000046,0.17555555555555546,0.26079999999701897],[0.06041666666666667,0.20500000000000007,0.27550000000000807],[0.06437499999999995,0.2170370370370371,0.29139999999105726],[0.06593749999999995,0.22037037037037038,0.3082999999970184],[0.06593749999999995,0.16148148148148156,0.32750000000000057],[0.0703125,0.23462962962962972,0.34149999999999636],[0.0703125,0.23462962962962972,0.3582000000029808],[0.06802083333333328,0.29555555555555557,0.38029999999702113],[0.04031250000000005,0.3116666666666666,0.3942999999970169],[0.04031250000000005,0.3116666666666666,0.40829999999702693],[0.022395833333333334,0.3218518518518518,0.42499999999999716],[0.000833333333333286,0.3520370370370371,0.44370000000297694],[-0.006979166666666714,0.41,0.4582999999970241],[-0.013750000000000047,0.38333333333333336,0.4749999999999943],[-0.009687499999999953,0.36814814814814806,0.4948999999910626],[-0.009687499999999953,0.36814814814814806,0.5082999999970212],[-0.014374999999999952,0.3640740740740741,0.5250000000000057],[-0.014687500000000023,0.3846296296296297,0.5435999999940435],[-0.010520833333333358,0.39814814814814814,0.5593999999910579],[-0.010520833333333358,0.39814814814814814,0.5750000000000028],[0.004375000000000047,0.39888888888888885,0.5915999999940453],[-0.004479166666666619,0.37759259259259254,0.6117000000029833],[0.00791666666666669,0.3494444444444445,0.6283999999910606],[0.0109375,0.34666666666666673,0.6432999999970264],[0.013125000000000024,0.37703703703703706,0.6640000000000015],[0.013125000000000024,0.37703703703703706,0.6748999999910552],[0.008124999999999953,0.31592592592592594,0.6915999999940396],[-0.013437499999999976,0.24000000000000005,0.7082000000029751],[-0.024479166666666666,0.20018518518518522,0.7287999999970225],[-0.036562500000000026,0.17814814814814822,0.7422999999970159],[-0.041458333333333285,0.09462962962962967,0.7582000000029865],[-0.050416666666666644,0.03611111111111111,0.7755000000000081],[-0.02947916666666662,-0.017592592592592594,0.793899999991055],[-0.034895833333333334,-0.0514814814814814,0.8089999999999975],[-0.03947916666666664,-0.09907407407407408,0.8248999999910609],[-0.04520833333333331,-0.16166666666666668,0.8435000000000059],[-0.049374999999999974,-0.14333333333333328,0.8582999999970156],[-0.05354166666666664,-0.125,0.8760999999940395],[-0.06156250000000003,-0.18759259259259262,0.8940000000000055],[-0.06458333333333334,-0.20092592592592592,0.9085000000000036],[-0.06229166666666662,-0.1794444444444444,0.9247999999970204],[-0.051770833333333384,-0.1398148148148148,0.9432999999970235],[-0.03739583333333331,-0.10555555555555556,0.9580999999940474],[-0.024895833333333308,-0.13388888888888892,0.9750999999940433],[-0.010312499999999976,-0.17074074074074072,0.9939999999999998],[0.0048958333333333805,-0.19500000000000003,1.0095000000000027],[0.025729166666666713,-0.20870370370370367,1.0247999999970148],[0.049791666666666616,-0.18407407407407403,1.0417999999970249],[0.07593750000000009,-0.1257407407407407,1.0580999999940417],[0.11281249999999995,-0.03611111111111111,1.0750999999940376],[0.13541666666666666,0.04407407407407399,1.0997000000029828],[0.13541666666666666,0.04407407407407399,1.1082000000029808],[0.1453125,0.08222222222222218,1.1247999999970233],[0.15520833333333334,0.12037037037037036,1.1420999999940449],[0.17822916666666658,0.225,1.160499999999999],[0.20125000000000004,0.3296296296296296,1.1773999999910671],[0.21427083333333338,0.4214814814814815,1.1929999999999978],[0.22729166666666673,0.5133333333333334,1.2087000000029775],[0.24177083333333324,0.5487037037037036,1.2247999999970176],[0.25625,0.5840740740740741,1.24139999999106],[0.26375000000000004,0.5835185185185185,1.261599999994047],[0.25812499999999994,0.5533333333333332,1.2782000000029825],[0.2569791666666667,0.547037037037037,1.2922000000029783],[0.26062500000000005,0.5398148148148149,1.3098999999910603],[0.25968749999999996,0.5596296296296297,1.324899999991061],[0.30135416666666665,0.6057407407407408,1.3414999999999964],[0.3523958333333333,0.6520370370370371,1.3580999999940389],[0.37052083333333335,0.6001851851851853,1.3762000000029815],[0.38395833333333323,0.57,1.3938999999910635],[0.3966666666666666,0.5485185185185186,1.410499999999999],[0.4158333333333334,0.5429629629629631,1.4247999999970204],[0.4617708333333333,0.5581481481481481,1.441399999991063],[0.5067708333333333,0.5640740740740741,1.4642000000029753],[0.5067708333333333,0.5640740740740741,1.4747000000029828],[0.5448958333333332,0.5953703703703703,1.49139999999106],[0.5677083333333334,0.518888888888889,1.5095000000000027],[0.5436458333333334,0.39962962962962956,1.5270999999940358],[0.5195833333333333,0.2803703703703703,1.5414999999999992],[0.5415625000000001,0.3077777777777779,1.5582000000029836],[0.5635416666666667,0.3316666666666667,1.5787999999970168],[0.5993750000000001,0.34203703703703714,1.594099999994043],[0.6006249999999999,0.27314814814814814,1.6092000000029856],[0.6006249999999999,0.27314814814814814,1.6247999999970233],[0.5962500000000001,0.22888888888888892,1.6415000000000077],[0.5861458333333334,0.19888888888888884,1.658200000002978],[0.5861458333333334,0.19888888888888884,1.6747999999970204],[0.5782291666666666,0.14425925925925923,1.6915000000000049],[0.5890625,0.16055555555555565,1.7085999999940356],[0.6041666666666666,0.1933333333333333,1.7272000000029806],[0.6307291666666667,0.22833333333333325,1.7438999999910578],[0.6441666666666668,0.21481481481481482,1.7582000000029865],[0.634375,0.21666666666666667,1.7788999999910544],[0.6101041666666667,0.20981481481481473,1.7952000000029784],[0.6192708333333333,0.24203703703703713,1.8117000000029861],[0.6204166666666666,0.25851851851851854,1.8287999999970168],[0.6190625,0.29499999999999993,1.8443999999910545],[0.6176041666666667,0.3316666666666667,1.8585000000000065],[0.615625,0.33000000000000007,1.875700000002979],[0.6136458333333332,0.32833333333333325,1.8935999999940378],[0.6032291666666666,0.322037037037037,1.908099999994036],[0.5736458333333334,0.33611111111111114,1.9247999999970204],[0.5672916666666665,0.33481481481481473,1.9422999999970187],[0.5570833333333333,0.35351851851851845,1.9595999999940403],[0.5310416666666666,0.37166666666666676,1.9762000000029758],[0.5257291666666667,0.38000000000000006,1.993099999994044],[0.5257291666666667,0.38000000000000006,2.0130000000000052],[0.5329166666666666,0.37537037037037047,2.026899999991059],[0.5329166666666666,0.37537037037037047,2.041499999999999],[0.5395833333333333,0.31444444444444436,2.0580999999940417],[0.5354166666666667,0.26888888888888896,2.074799999997026],[0.5370833333333332,0.23592592592592587,2.0914999999999964],[0.53625,0.2777777777777778,2.1082999999970156],[0.5545833333333334,0.25018518518518523,2.1247999999970233],[0.5673958333333334,0.19962962962962955,2.1437999999970145],[0.5854166666666667,0.1425925925925926,2.158099999994036],[0.5854166666666667,0.1425925925925926,2.1747999999970204],[0.6042708333333332,0.08740740740740749,2.191500000000005],[0.6069791666666667,0.049074074074074076,2.208200000002975],[0.6063541666666665,-0.0012962962962963806,2.2247999999970176],[0.5915625000000001,-0.005185185185185101,2.24139999999106],[0.583125,0.006851851851851936,2.2635000000000076],[0.583125,0.006851851851851936,2.2748999999910637],[0.5530208333333334,0.02814814814814823,2.291599999994034],[0.5530208333333334,0.02814814814814823,2.3082999999970184],[0.5223958333333333,-0.02296296296296292,2.3273999999910586],[0.4640625,-0.0477777777777777,2.341799999997022],[0.42125000000000007,-0.01962962962962967,2.3637999999970276],[0.42125000000000007,-0.01962962962962967,2.374899999991058],[0.36593749999999997,-0.03518518518518519,2.3937999999970145],[0.3211458333333333,-0.04814814814814815,2.40979999999702],[0.24447916666666672,-0.07444444444444442,2.4265000000000043],[0.1678124999999999,-0.1007407407407407,2.4447999999970165],[0.10354166666666677,-0.10629629629629625,2.460599999994045],[0.10354166666666677,-0.10629629629629625,2.4750999999940433],[0.03760416666666669,-0.11481481481481481,2.494599999994037],[-0.0296875,-0.16722222222222224,2.508399999991056],[-0.09697916666666669,-0.21962962962962967,2.5247999999970148],[-0.14718749999999994,-0.27148148148148155,2.541700000002976],[-0.1898958333333333,-0.3542592592592593,2.560299999997028],[-0.21281249999999996,-0.36870370370370376,2.5755000000000052],[-0.24708333333333338,-0.3875925925925926,2.5915999999940453],[-0.2413541666666667,-0.4274074074074074,2.6105999999940366],[-0.18760416666666668,-0.4705555555555556,2.6253999999910604],[-0.22291666666666668,-0.5107407407407407,2.6415000000000077],[-0.22552083333333334,-0.5650000000000001,2.6602999999970223],[-0.18531249999999996,-0.577962962962963,2.677399999991067],[-0.14510416666666662,-0.590925925925926,2.691399999991063],[-0.09427083333333333,-0.5816666666666667,2.7079999999999984],[-0.01854166666666662,-0.5544444444444444,2.724700000002983],[0.04989583333333331,-0.5518518518518518,2.74139999999106],[0.07020833333333343,-0.5944444444444444,2.7580999999940445],[0.07781250000000005,-0.6098148148148148,2.7747999999970148],[0.06583333333333338,-0.5675925925925925,2.791799999997025],[0.14520833333333344,-0.5392592592592592,2.8080999999940417],[0.15416666666666667,-0.5583333333333333,2.824700000002977],[0.1375,-0.5966666666666667,2.8437999999970174],[0.1375,-0.5966666666666667,2.858099999994039],[0.13270833333333343,-0.5570370370370371,2.8747999999970233],[0.16208333333333325,-0.542037037037037,2.894500000000008],[0.12468750000000005,-0.5588888888888889,2.908099999994036],[0.08729166666666661,-0.5757407407407407,2.9272000000029834],[0.08729166666666661,-0.5757407407407407,2.9417000000029816],[0.08729166666666661,-0.5225925925925926,2.9579999999999984],[0.10666666666666676,-0.4685185185185185,2.976700000002978],[0.11614583333333334,-0.505,2.99139999999106],[0.14718749999999994,-0.5418518518518519,3.0082000000029865],[0.21760416666666677,-0.5142592592592592,3.0272999999970267],[0.24489583333333323,-0.4696296296296297,3.041700000002976],[0.2504166666666668,-0.4348148148148148,3.0582999999970184],[0.23947916666666677,-0.3731481481481482,3.074700000002977],[0.2529166666666666,-0.29666666666666663,3.0952999999970245],[0.2796875,-0.30648148148148147,3.110500000000002],[0.32614583333333325,-0.22555555555555556,3.1247999999970233],[0.3532291666666666,-0.1455555555555556,3.1415000000000077],[0.35208333333333336,-0.03333333333333333,3.1647000000029806],[0.35208333333333336,-0.03333333333333333,3.1747000000029857],[0.3351041666666667,-0.007407407407407408,3.191399999991063],[0.3181250000000001,0.018518518518518517,3.208500000000001],[0.3185416666666666,0.030000000000000086,3.227700000002983],[0.3597916666666668,-0.05814814814814811,3.2450000000000045],[0.3729166666666667,-0.14444444444444443,3.262099999994035],[0.3729166666666667,-0.14444444444444443,3.2748999999910637],[0.3568749999999999,-0.19796296296296292,3.291599999994034],[0.36875,-0.22018518518518515,3.3080999999940417],[0.37166666666666665,-0.357962962962963,3.3275999999940353],[0.3629166666666668,-0.44537037037037036,3.3430000000000035],[0.36385416666666665,-0.5287037037037037,3.36039999999106],[0.3490624999999999,-0.4655555555555555,3.380399999991056],[0.34270833333333334,-0.4898148148148148,3.394500000000008],[0.3889583333333334,-0.5237037037037037,3.408899999991064],[0.40427083333333325,-0.5261111111111112,3.425099999994046],[0.4109375,-0.5572222222222222,3.4454999999999956],[0.4383333333333333,-0.587037037037037,3.4609999999999985],[0.4383333333333333,-0.587037037037037,3.4747999999970176],[0.42864583333333334,-0.6370370370370371,3.491500000000002],[0.45510416666666675,-0.6698148148148148,3.511599999994047],[0.45510416666666675,-0.6698148148148148,3.5248999999910637],[0.4639583333333334,-0.8044444444444444,3.541599999994034],[0.4914583333333333,-0.9375925925925926,3.561599999994044],[0.48166666666666674,-1.0381481481481483,3.582599999994045],[0.48166666666666674,-1.0381481481481483,3.5914999999999964],[0.45968749999999997,-1.082037037037037,3.6082999999970156],[0.3980208333333332,-1.0709259259259258,3.6290999999940396],[0.36916666666666675,-1.065,3.6454999999999984],[0.35354166666666675,-1.012962962962963,3.6617000000029805],[0.35354166666666675,-1.012962962962963,3.674999999999997],[0.35666666666666674,-1.000925925925926,3.6950000000000074],[0.33739583333333345,-0.945925925925926,3.710399999991054],[0.2819791666666667,-0.9081481481481481,3.7248999999910666],[0.24468750000000009,-0.7959259259259259,3.745299999997016],[0.19072916666666656,-0.6979629629629629,3.7605999999940423],[0.20020833333333338,-0.6509259259259259,3.779299999997022],[0.21343750000000009,-0.5731481481481482,3.8012000000029786],[0.21343750000000009,-0.5731481481481482,3.808599999994044],[0.2283333333333334,-0.6062962962962962,3.825000000000003],[0.19208333333333344,-0.6346296296296297,3.8430000000000035],[0.15208333333333332,-0.6903703703703704,3.8630999999940343],[0.15208333333333332,-0.6903703703703704,3.875],[0.15145833333333342,-0.7001851851851852,3.8917000000029844],[0.16906249999999995,-0.6777777777777778,3.909099999994041],[0.1618750000000001,-0.662962962962963,3.929899999991065],[0.16937499999999991,-0.7090740740740741,3.946099999994047],[0.19145833333333329,-0.7283333333333334,3.9612000000029752],[0.19739583333333333,-0.7890740740740741,3.9797000000029783],[0.1915625000000001,-0.8196296296296297,3.9957000000029836],[0.1915625000000001,-0.8196296296296297,4.008299999997021],[0.16708333333333342,-0.7964814814814816,4.024899999991064],[0.1609375,-0.772962962962963,4.04489999999106],[0.134375,-0.6911111111111111,4.062099999994047],[0.0671875,-0.642962962962963,4.078700000002982],[0,-0.5948148148148148,4.096700000002983],[0,-0.5948148148148148,4.108099999994039],[-0.044166666666666646,-0.5781481481481481,4.1247000000029885],[-0.06635416666666671,-0.5387037037037037,4.141299999997017],[-0.10510416666666664,-0.5133333333333333,4.160299999997022],[-0.15135416666666662,-0.5048148148148148,4.1785],[-0.18583333333333332,-0.5264814814814816,4.194299999997014],[-0.20416666666666666,-0.5411111111111111,4.210599999994045],[-0.22250000000000003,-0.5557407407407408,4.227500000000006],[-0.1977083333333333,-0.6092592592592593,4.242799999997018],[-0.18583333333333332,-0.6833333333333333,4.260599999994042],[-0.18583333333333332,-0.6833333333333333,4.27470000000298],[-0.1642708333333334,-0.7648148148148148,4.291399999991057],[-0.15416666666666667,-0.7905555555555556,4.312399999991058],[-0.109375,-0.7833333333333333,4.328299999997014],[-0.06458333333333334,-0.7761111111111112,4.3443999999910545],[0.021249999999999977,-0.7185185185185186,4.361700000002983],[0.021249999999999977,-0.7185185185185186,4.374799999997023],[0.08250000000000005,-0.7024074074074075,4.3915999999940425],[0.17677083333333338,-0.6183333333333333,4.410799999997025],[0.23729166666666662,-0.6016666666666666,4.426700000002981],[0.2846874999999999,-0.5985185185185184,4.44159999999404],[0.34177083333333325,-0.5811111111111111,4.462000000000003],[0.34177083333333325,-0.5811111111111111,4.474899999991067],[0.38645833333333335,-0.552962962962963,4.491599999994037],[0.4547916666666666,-0.5572222222222222,4.510799999997019],[0.45854166666666674,-0.5627777777777777,4.526399999991057],[0.45854166666666674,-0.5627777777777777,4.541700000002976],[0.42937500000000006,-0.575925925925926,4.561799999997021],[0.4109375,-0.6185185185185185,4.581000000000003],[0.4109375,-0.6185185185185185,4.591499999999996],[0.46062500000000006,-0.5859259259259259,4.611200000002981],[0.45906250000000004,-0.6727777777777778,4.634799999997014],[0.45906250000000004,-0.6727777777777778,4.642200000002987],[0.48020833333333335,-0.6868518518518518,4.662000000000006],[0.5135416666666667,-0.6751851851851852,4.678799999997025],[0.5410416666666668,-0.6635185185185185,4.694399999991063],[0.5712500000000001,-0.6551851851851852,4.709899999991066],[0.5712500000000001,-0.6438888888888888,4.724700000002983],[0.5756249999999999,-0.649074074074074,4.744599999994037],[0.6219791666666665,-0.6188888888888888,4.759399999991061],[0.6349999999999999,-0.5946296296296296,4.775000000000006],[0.5946875000000001,-0.6196296296296296,4.794799999997025],[0.5548958333333334,-0.5975925925925926,4.808799999997021],[0.5548958333333334,-0.5996296296296296,4.827500000000001],[0.5046875,-0.595,4.844200000002985],[0.4400000000000001,-0.5605555555555556,4.860599999994037],[0.40625,-0.534074074074074,4.879799999997019],[0.4037499999999999,-0.528888888888889,4.894799999997019],[0.3679166666666667,-0.5266666666666666,4.911099999994036],[0.32302083333333326,-0.5522222222222222,4.930000000000007],[0.28572916666666665,-0.5479629629629629,4.94759999999404],[0.28572916666666665,-0.5479629629629629,4.9587000000029775],[0.2582291666666668,-0.5281481481481481,4.974999999999994],[0.240625,-0.5738888888888889,4.995399999991065],[0.240625,-0.5738888888888889,5.0082000000029865],[0.20510416666666675,-0.4940740740740741,5.025000000000006],[0.1492708333333333,-0.5059259259259259,5.044599999994034],[0.1492708333333333,-0.5059259259259259,5.058200000002984],[0.20010416666666658,-0.5725925925925925,5.075099999994038],[0.17718749999999991,-0.5896296296296296,5.0945999999940454],[0.17718749999999991,-0.5896296296296296,5.108200000002981],[0.15229166666666671,-0.6238888888888888,5.124899999991058],[0.15260416666666668,-0.6083333333333333,5.141500000000008],[0.13020833333333334,-0.5651851851851851,5.162200000002983],[0.09677083333333343,-0.5964814814814815,5.178299999997023],[0.05791666666666669,-0.6414814814814814,5.193399999991058],[0.03979166666666671,-0.6305555555555555,5.208599999994036],[0.02374999999999995,-0.6916666666666667,5.228899999991057],[0.04697916666666669,-0.6868518518518518,5.2442999999970255],[-0.021979166666666692,-0.6570370370370371,5.258599999994047],[-0.042812500000000024,-0.6472222222222223,5.281299999997017],[-0.042812500000000024,-0.6472222222222223,5.291499999999999],[-0.03177083333333333,-0.6129629629629629,5.308200000002984],[-0.03177083333333333,-0.6129629629629629,5.3252000000029796],[-0.021249999999999977,-0.654074074074074,5.344999999999999],[-0.043958333333333384,-0.7546296296296297,5.360200000002976],[-0.0953125,-0.7707407407407407,5.377799999997023],[-0.11947916666666672,-0.7648148148148148,5.391500000000008],[-0.14729166666666665,-0.7398148148148148,5.411200000002978],[-0.12104166666666671,-0.7388888888888889,5.427899999991055],[-0.12104166666666671,-0.7388888888888889,5.448399999991054],[-0.11052083333333336,-0.7798148148148148,5.465599999994041],[-0.11052083333333336,-0.7798148148148148,5.474799999997018],[-0.10416666666666667,-0.7968518518518519,5.49139999999106],[-0.103125,-0.8355555555555555,5.5080999999940445],[-0.13156249999999994,-0.8233333333333334,5.52470000000298],[-0.15135416666666662,-0.7825925925925926,5.541399999991057],[-0.12625000000000006,-0.7225925925925926,5.558000000000007],[-0.08208333333333329,-0.7218518518518519,5.574700000002977],[-0.09510416666666661,-0.669074074074074,5.592899999991062],[-0.10375000000000002,-0.6190740740740741,5.608099999994039],[-0.12593749999999998,-0.5637037037037037,5.6247000000029885],[-0.09989583333333331,-0.46814814814814815,5.641299999997017],[-0.043020833333333286,-0.43851851851851853,5.658000000000001],[0.02677083333333338,-0.39296296296296296,5.674700000002986],[0.08010416666666677,-0.3672222222222222,5.694399999991063],[0.13645833333333332,-0.3496296296296296,5.707999999999998],[0.20385416666666673,-0.3194444444444444,5.724599999994041],[0.20385416666666673,-0.3194444444444444,5.74139999999106],[0.275,-0.3290740740740741,5.7580999999940445],[0.40614583333333343,-0.3640740740740741,5.77470000000298],[0.5372916666666666,-0.3990740740740741,5.791399999991057],[0.5754166666666668,-0.44814814814814813,5.811000000000007],[0.5945833333333332,-0.4816666666666667,5.825000000000003],[0.5875,-0.5349999999999999,5.841799999997022],[0.5675,-0.6042592592592593,5.858099999994039],[0.5616666666666668,-0.6374074074074074,5.8747000000029885],[0.5432291666666667,-0.6592592592592592,5.891399999991066],[0.5432291666666667,-0.6592592592592592,5.908000000000001],[0.5247916666666667,-0.6811111111111111,5.924700000002986],[0.5407291666666666,-0.6746296296296297,5.941399999991063],[0.5079166666666666,-0.6548148148148148,5.958099999994047],[0.4857291666666666,-0.6718518518518519,5.974700000002983],[0.4743750000000001,-0.6507407407407407,5.99139999999106],[0.48770833333333335,-0.667962962962963,6.0080999999940445],[0.4851041666666667,-0.6588888888888889,6.02470000000298],[0.49416666666666675,-0.640925925925926,6.041599999994034],[0.47781250000000003,-0.6498148148148147,6.061799999997021],[0.4828125,-0.6812962962962963,6.077500000000001],[0.5041666666666667,-0.6733333333333333,6.091399999991054],[0.4569791666666667,-0.6531481481481481,6.108099999994039],[0.4508333333333333,-0.6742592592592593,6.1247000000029885],[0.41729166666666656,-0.6625925925925926,6.141500000000008],[0.4140625,-0.6712962962962963,6.158000000000001],[0.3993750000000001,-0.657962962962963,6.176299999997028],[0.4002083333333334,-0.609074074074074,6.191299999997028],[0.36875,-0.5794444444444444,6.208099999994047],[0.35187499999999994,-0.5792592592592593,6.224700000002983],[0.3111458333333334,-0.5512962962962963,6.24139999999106],[0.3107291666666666,-0.5172222222222222,6.2580999999940445],[0.31229166666666663,-0.4577777777777778,6.277500000000003],[0.29416666666666674,-0.4692592592592592,6.291399999991057],[0.30625,-0.46166666666666667,6.308099999994042],[0.31270833333333337,-0.47907407407407404,6.327599999994035],[0.3296875,-0.4331481481481481,6.34129999999702],[0.3260416666666667,-0.46592592592592597,6.360500000000002],[0.33708333333333323,-0.4607407407407408,6.377499999999998],[0.36177083333333326,-0.4727777777777778,6.3915999999940425],[0.39854166666666657,-0.49314814814814817,6.411899999991064],[0.35989583333333336,-0.5631481481481482,6.426200000002979],[0.35177083333333337,-0.637962962962963,6.441500000000005],[0.3519791666666668,-0.6275925925925926,6.458200000002975],[0.334375,-0.6396296296296295,6.474700000002983],[0.32364583333333335,-0.6196296296296296,6.49139999999106],[0.29031250000000003,-0.6635185185185185,6.5080999999940445],[0.26291666666666674,-0.6190740740740741,6.52470000000298],[0.23187499999999991,-0.5755555555555556,6.541499999999999],[0.20052083333333334,-0.492037037037037,6.557899999991065],[0.15031249999999996,-0.35333333333333333,6.574700000002977],[0.12791666666666662,-0.19537037037037036,6.5944999999999965],[0.08072916666666667,-0.03814814814814819,6.608200000002981],[0.035000000000000024,0.12018518518518514,6.6247000000029885],[-0.0016666666666666904,0.26500000000000007,6.644399999991066],[-0.03895833333333331,0.37407407407407406,6.658000000000001],[-0.07364583333333338,0.5124074074074075,6.674700000002986],[-0.0936458333333333,0.6411111111111112,6.691299999997028]]","[0.0002999999970256795,0.05329999999702295,0.05820000000298364,0.07789999999106101,0.09379999999701738,0.11070000000297853,0.1252000000029767,0.14170000000298444,0.16079999999702466,0.17779999999702056,0.19249999999999545,0.21070000000298705,0.22499999999999432,0.2415999999940368,0.26079999999701897,0.27550000000000807,0.29139999999105726,0.3082999999970184,0.32750000000000057,0.34149999999999636,0.3582000000029808,0.38029999999702113,0.3942999999970169,0.40829999999702693,0.42499999999999716,0.44370000000297694,0.4582999999970241,0.4749999999999943,0.4948999999910626,0.5082999999970212,0.5250000000000057,0.5435999999940435,0.5593999999910579,0.5750000000000028,0.5915999999940453,0.6117000000029833,0.6283999999910606,0.6432999999970264,0.6640000000000015,0.6748999999910552,0.6915999999940396,0.7082000000029751,0.7287999999970225,0.7422999999970159,0.7582000000029865,0.7755000000000081,0.793899999991055,0.8089999999999975,0.8248999999910609,0.8435000000000059,0.8582999999970156,0.8760999999940395,0.8940000000000055,0.9085000000000036,0.9247999999970204,0.9432999999970235,0.9580999999940474,0.9750999999940433,0.9939999999999998,1.0095000000000027,1.0247999999970148,1.0417999999970249,1.0580999999940417,1.0750999999940376,1.0997000000029828,1.1082000000029808,1.1247999999970233,1.1420999999940449,1.160499999999999,1.1773999999910671,1.1929999999999978,1.2087000000029775,1.2247999999970176,1.24139999999106,1.261599999994047,1.2782000000029825,1.2922000000029783,1.3098999999910603,1.324899999991061,1.3414999999999964,1.3580999999940389,1.3762000000029815,1.3938999999910635,1.410499999999999,1.4247999999970204,1.441399999991063,1.4642000000029753,1.4747000000029828,1.49139999999106,1.5095000000000027,1.5270999999940358,1.5414999999999992,1.5582000000029836,1.5787999999970168,1.594099999994043,1.6092000000029856,1.6247999999970233,1.6415000000000077,1.658200000002978,1.6747999999970204,1.6915000000000049,1.7085999999940356,1.7272000000029806,1.7438999999910578,1.7582000000029865,1.7788999999910544,1.7952000000029784,1.8117000000029861,1.8287999999970168,1.8443999999910545,1.8585000000000065,1.875700000002979,1.8935999999940378,1.908099999994036,1.9247999999970204,1.9422999999970187,1.9595999999940403,1.9762000000029758,1.993099999994044,2.0130000000000052,2.026899999991059,2.041499999999999,2.0580999999940417,2.074799999997026,2.0914999999999964,2.1082999999970156,2.1247999999970233,2.1437999999970145,2.158099999994036,2.1747999999970204,2.191500000000005,2.208200000002975,2.2247999999970176,2.24139999999106,2.2635000000000076,2.2748999999910637,2.291599999994034,2.3082999999970184,2.3273999999910586,2.341799999997022,2.3637999999970276,2.374899999991058,2.3937999999970145,2.40979999999702,2.4265000000000043,2.4447999999970165,2.460599999994045,2.4750999999940433,2.494599999994037,2.508399999991056,2.5247999999970148,2.541700000002976,2.560299999997028,2.5755000000000052,2.5915999999940453,2.6105999999940366,2.6253999999910604,2.6415000000000077,2.6602999999970223,2.677399999991067,2.691399999991063,2.7079999999999984,2.724700000002983,2.74139999999106,2.7580999999940445,2.7747999999970148,2.791799999997025,2.8080999999940417,2.824700000002977,2.8437999999970174,2.858099999994039,2.8747999999970233,2.894500000000008,2.908099999994036,2.9272000000029834,2.9417000000029816,2.9579999999999984,2.976700000002978,2.99139999999106,3.0082000000029865,3.0272999999970267,3.041700000002976,3.0582999999970184,3.074700000002977,3.0952999999970245,3.110500000000002,3.1247999999970233,3.1415000000000077,3.1647000000029806,3.1747000000029857,3.191399999991063,3.208500000000001,3.227700000002983,3.2450000000000045,3.262099999994035,3.2748999999910637,3.291599999994034,3.3080999999940417,3.3275999999940353,3.3430000000000035,3.36039999999106,3.380399999991056,3.394500000000008,3.408899999991064,3.425099999994046,3.4454999999999956,3.4609999999999985,3.4747999999970176,3.491500000000002,3.511599999994047,3.5248999999910637,3.541599999994034,3.561599999994044,3.582599999994045,3.5914999999999964,3.6082999999970156,3.6290999999940396,3.6454999999999984,3.6617000000029805,3.674999999999997,3.6950000000000074,3.710399999991054,3.7248999999910666,3.745299999997016,3.7605999999940423,3.779299999997022,3.8012000000029786,3.808599999994044,3.825000000000003,3.8430000000000035,3.8630999999940343,3.875,3.8917000000029844,3.909099999994041,3.929899999991065,3.946099999994047,3.9612000000029752,3.9797000000029783,3.9957000000029836,4.008299999997021,4.024899999991064,4.04489999999106,4.062099999994047,4.078700000002982,4.096700000002983,4.108099999994039,4.1247000000029885,4.141299999997017,4.160299999997022,4.1785,4.194299999997014,4.210599999994045,4.227500000000006,4.242799999997018,4.260599999994042,4.27470000000298,4.291399999991057,4.312399999991058,4.328299999997014,4.3443999999910545,4.361700000002983,4.374799999997023,4.3915999999940425,4.410799999997025,4.426700000002981,4.44159999999404,4.462000000000003,4.474899999991067,4.491599999994037,4.510799999997019,4.526399999991057,4.541700000002976,4.561799999997021,4.581000000000003,4.591499999999996,4.611200000002981,4.634799999997014,4.642200000002987,4.662000000000006,4.678799999997025,4.694399999991063,4.709899999991066,4.724700000002983,4.744599999994037,4.759399999991061,4.775000000000006,4.794799999997025,4.808799999997021,4.827500000000001,4.844200000002985,4.860599999994037,4.879799999997019,4.894799999997019,4.911099999994036,4.930000000000007,4.94759999999404,4.9587000000029775,4.974999999999994,4.995399999991065,5.0082000000029865,5.025000000000006,5.044599999994034,5.058200000002984,5.075099999994038,5.0945999999940454,5.108200000002981,5.124899999991058,5.141500000000008,5.162200000002983,5.178299999997023,5.193399999991058,5.208599999994036,5.228899999991057,5.2442999999970255,5.258599999994047,5.281299999997017,5.291499999999999,5.308200000002984,5.3252000000029796,5.344999999999999,5.360200000002976,5.377799999997023,5.391500000000008,5.411200000002978,5.427899999991055,5.448399999991054,5.465599999994041,5.474799999997018,5.49139999999106,5.5080999999940445,5.52470000000298,5.541399999991057,5.558000000000007,5.574700000002977,5.592899999991062,5.608099999994039,5.6247000000029885,5.641299999997017,5.658000000000001,5.674700000002986,5.694399999991063,5.707999999999998,5.724599999994041,5.74139999999106,5.7580999999940445,5.77470000000298,5.791399999991057,5.811000000000007,5.825000000000003,5.841799999997022,5.858099999994039,5.8747000000029885,5.891399999991066,5.908000000000001,5.924700000002986,5.941399999991063,5.958099999994047,5.974700000002983,5.99139999999106,6.0080999999940445,6.02470000000298,6.041599999994034,6.061799999997021,6.077500000000001,6.091399999991054,6.108099999994039,6.1247000000029885,6.141500000000008,6.158000000000001,6.176299999997028,6.191299999997028,6.208099999994047,6.224700000002983,6.24139999999106,6.2580999999940445,6.277500000000003,6.291399999991057,6.308099999994042,6.327599999994035,6.34129999999702,6.360500000000002,6.377499999999998,6.3915999999940425,6.411899999991064,6.426200000002979,6.441500000000005,6.458200000002975,6.474700000002983,6.49139999999106,6.5080999999940445,6.52470000000298,6.541499999999999,6.557899999991065,6.574700000002977,6.5944999999999965,6.608200000002981,6.6247000000029885,6.644399999991066,6.658000000000001,6.674700000002986,6.691299999997028]","[1732512035972,1732512036015,1732512036020,1732512036040,1732512036056,1732512036073,1732512036087,1732512036104,1732512036123,1732512036140,1732512036154,1732512036173,1732512036187,1732512036203,1732512036223,1732512036237,1732512036253,1732512036270,1732512036289,1732512036303,1732512036320,1732512036342,1732512036356,1732512036370,1732512036387,1732512036406,1732512036420,1732512036437,1732512036457,1732512036470,1732512036487,1732512036506,1732512036521,1732512036537,1732512036553,1732512036574,1732512036590,1732512036605,1732512036626,1732512036637,1732512036653,1732512036670,1732512036691,1732512036704,1732512036720,1732512036737,1732512036756,1732512036771,1732512036787,1732512036805,1732512036820,1732512036838,1732512036856,1732512036870,1732512036887,1732512036905,1732512036920,1732512036937,1732512036956,1732512036971,1732512036987,1732512037004,1732512037020,1732512037037,1732512037062,1732512037070,1732512037087,1732512037104,1732512037122,1732512037139,1732512037155,1732512037171,1732512037187,1732512037203,1732512037223,1732512037240,1732512037254,1732512037272,1732512037287,1732512037303,1732512037320,1732512037338,1732512037356,1732512037372,1732512037387,1732512037403,1732512037426,1732512037437,1732512037453,1732512037471,1732512037489,1732512037503,1732512037520,1732512037541,1732512037556,1732512037571,1732512037587,1732512037603,1732512037620,1732512037637,1732512037653,1732512037670,1732512037689,1732512037706,1732512037720,1732512037741,1732512037757,1732512037774,1732512037791,1732512037806,1732512037820,1732512037838,1732512037855,1732512037870,1732512037887,1732512037904,1732512037921,1732512037938,1732512037955,1732512037975,1732512037989,1732512038003,1732512038020,1732512038037,1732512038053,1732512038070,1732512038087,1732512038106,1732512038120,1732512038137,1732512038153,1732512038170,1732512038187,1732512038203,1732512038225,1732512038237,1732512038253,1732512038270,1732512038289,1732512038304,1732512038326,1732512038337,1732512038356,1732512038372,1732512038388,1732512038407,1732512038422,1732512038437,1732512038457,1732512038470,1732512038487,1732512038504,1732512038522,1732512038537,1732512038553,1732512038572,1732512038587,1732512038603,1732512038622,1732512038639,1732512038653,1732512038670,1732512038687,1732512038703,1732512038720,1732512038737,1732512038754,1732512038770,1732512038787,1732512038806,1732512038820,1732512038837,1732512038856,1732512038870,1732512038889,1732512038903,1732512038920,1732512038939,1732512038953,1732512038970,1732512038989,1732512039004,1732512039020,1732512039037,1732512039057,1732512039072,1732512039087,1732512039103,1732512039127,1732512039137,1732512039153,1732512039170,1732512039190,1732512039207,1732512039224,1732512039237,1732512039253,1732512039270,1732512039289,1732512039305,1732512039322,1732512039342,1732512039356,1732512039371,1732512039387,1732512039407,1732512039423,1732512039437,1732512039453,1732512039473,1732512039487,1732512039503,1732512039523,1732512039544,1732512039553,1732512039570,1732512039591,1732512039607,1732512039624,1732512039637,1732512039657,1732512039672,1732512039687,1732512039707,1732512039722,1732512039741,1732512039763,1732512039770,1732512039787,1732512039805,1732512039825,1732512039837,1732512039854,1732512039871,1732512039892,1732512039908,1732512039923,1732512039942,1732512039958,1732512039970,1732512039987,1732512040007,1732512040024,1732512040041,1732512040058,1732512040070,1732512040087,1732512040103,1732512040122,1732512040140,1732512040156,1732512040172,1732512040189,1732512040205,1732512040222,1732512040237,1732512040253,1732512040274,1732512040290,1732512040306,1732512040324,1732512040337,1732512040353,1732512040373,1732512040389,1732512040403,1732512040424,1732512040437,1732512040453,1732512040473,1732512040488,1732512040504,1732512040524,1732512040543,1732512040553,1732512040573,1732512040597,1732512040604,1732512040624,1732512040641,1732512040656,1732512040672,1732512040687,1732512040706,1732512040721,1732512040737,1732512040757,1732512040771,1732512040789,1732512040806,1732512040822,1732512040842,1732512040857,1732512040873,1732512040892,1732512040909,1732512040921,1732512040937,1732512040957,1732512040970,1732512040987,1732512041006,1732512041020,1732512041037,1732512041056,1732512041070,1732512041087,1732512041103,1732512041124,1732512041140,1732512041155,1732512041170,1732512041191,1732512041206,1732512041220,1732512041243,1732512041253,1732512041270,1732512041287,1732512041307,1732512041322,1732512041340,1732512041353,1732512041373,1732512041390,1732512041410,1732512041427,1732512041437,1732512041453,1732512041470,1732512041487,1732512041503,1732512041520,1732512041537,1732512041555,1732512041570,1732512041587,1732512041603,1732512041620,1732512041637,1732512041656,1732512041670,1732512041687,1732512041703,1732512041720,1732512041737,1732512041753,1732512041773,1732512041787,1732512041804,1732512041820,1732512041837,1732512041853,1732512041870,1732512041887,1732512041903,1732512041920,1732512041937,1732512041953,1732512041970,1732512041987,1732512042003,1732512042024,1732512042039,1732512042053,1732512042070,1732512042087,1732512042103,1732512042120,1732512042138,1732512042153,1732512042170,1732512042187,1732512042203,1732512042220,1732512042239,1732512042253,1732512042270,1732512042289,1732512042303,1732512042322,1732512042339,1732512042353,1732512042374,1732512042388,1732512042403,1732512042420,1732512042437,1732512042453,1732512042470,1732512042487,1732512042503,1732512042520,1732512042537,1732512042556,1732512042570,1732512042587,1732512042606,1732512042620,1732512042637,1732512042653]","[[918.4,866],[918.4,866],[941.8,859],[949.1,835.1],[931,809.4],[927.7,771.1],[933.4,777],[955,772.2],[976.6,767.4],[976.1,722.6],[975.6,677.8],[995,685.3],[986.3,673.8],[1003.4,666.7],[1009.2,634.8],[1018,650.7],[1021.8,657.2],[1023.3,659],[1023.3,627.2],[1027.5,666.7],[1027.5,666.7],[1025.3,699.6],[998.7,708.3],[998.7,708.3],[981.5,713.8],[960.8,730.1],[953.3,761.4],[946.8,747],[950.7,738.8],[950.7,738.8],[946.2,736.6],[945.9,747.7],[949.9,755],[949.9,755],[964.2,755.4],[955.7,743.9],[967.6,728.7],[970.5,727.2],[972.6,743.6],[972.6,743.6],[967.8,710.6],[947.1,669.6],[936.5,648.1],[924.9,636.2],[920.2,591.1],[911.6,559.5],[931.7,530.5],[926.5,512.2],[922.1,486.5],[916.6,452.7],[912.6,462.6],[908.6,472.5],[900.9,438.7],[898,431.5],[900.2,443.1],[910.3,464.5],[924.1,483],[936.1,467.7],[950.1,447.8],[964.7,434.7],[984.7,427.3],[1007.8,440.6],[1032.9,472.1],[1068.3,520.5],[1090,563.8],[1090,563.8],[1099.5,584.4],[1109,605],[1131.1,661.5],[1153.2,718],[1165.7,767.6],[1178.2,817.2],[1192.1,836.3],[1206,855.4],[1213.2,855.1],[1207.8,838.8],[1206.7,835.4],[1210.2,831.5],[1209.3,842.2],[1249.3,867.1],[1298.3,892.1],[1315.7,864.1],[1328.6,847.8],[1340.8,836.2],[1359.2,833.2],[1403.3,841.4],[1446.5,844.6],[1446.5,844.6],[1483.1,861.5],[1505,820.2],[1481.9,755.8],[1458.8,691.4],[1479.9,706.2],[1501,719.1],[1535.4,724.7],[1536.6,687.5],[1536.6,687.5],[1532.4,663.6],[1522.7,647.4],[1522.7,647.4],[1515.1,617.9],[1525.5,626.7],[1540,644.4],[1565.5,663.3],[1578.4,656],[1569,657],[1545.7,653.3],[1554.5,670.7],[1555.6,679.6],[1554.3,699.3],[1552.9,719.1],[1551,718.2],[1549.1,717.3],[1539.1,713.9],[1510.7,721.5],[1504.6,720.8],[1494.8,730.9],[1469.8,740.7],[1464.7,745.2],[1464.7,745.2],[1471.6,742.7],[1471.6,742.7],[1478,709.8],[1474,685.2],[1475.6,667.4],[1474.8,690],[1492.4,675.1],[1504.7,647.8],[1522,617],[1522,617],[1540.1,587.2],[1542.7,566.5],[1542.1,539.3],[1527.9,537.2],[1519.8,543.7],[1519.8,543.7],[1490.9,555.2],[1490.9,555.2],[1461.5,527.6],[1405.5,514.2],[1364.4,529.4],[1364.4,529.4],[1311.3,521],[1268.3,514],[1194.7,499.8],[1121.1,485.6],[1059.4,482.6],[1059.4,482.6],[996.1,478],[931.5,449.7],[866.9,421.4],[818.7,393.4],[777.7,348.7],[755.7,340.9],[722.8,330.7],[728.3,309.2],[779.9,285.9],[746,264.2],[743.5,234.9],[782.1,227.9],[820.7,220.9],[869.5,225.9],[942.2,240.6],[1007.9,242],[1027.4,219],[1034.7,210.7],[1023.2,233.5],[1099.4,248.8],[1108,238.5],[1092,217.8],[1092,217.8],[1087.4,239.2],[1115.6,247.3],[1079.7,238.2],[1043.8,229.1],[1043.8,229.1],[1043.8,257.8],[1062.4,287],[1071.5,267.3],[1101.3,247.4],[1168.9,262.3],[1195.1,286.4],[1200.4,305.2],[1189.9,338.5],[1202.8,379.8],[1228.5,374.5],[1273.1,418.2],[1299.1,461.4],[1298,522],[1298,522],[1281.7,536],[1265.4,550],[1265.8,556.2],[1305.4,508.6],[1318,462],[1318,462],[1302.6,433.1],[1314,421.1],[1316.8,346.7],[1308.4,299.5],[1309.3,254.5],[1295.1,288.6],[1289,275.5],[1333.4,257.2],[1348.1,255.9],[1354.5,239.1],[1380.8,223],[1380.8,223],[1371.5,196],[1396.9,178.3],[1396.9,178.3],[1405.4,105.6],[1431.8,33.7],[1422.4,-20.6],[1422.4,-20.6],[1401.3,-44.3],[1342.1,-38.3],[1314.4,-35.1],[1299.4,-7],[1299.4,-7],[1302.4,-0.5],[1283.9,29.2],[1230.7,49.6],[1194.9,110.2],[1143.1,163.1],[1152.2,188.5],[1164.9,230.5],[1164.9,230.5],[1179.2,212.6],[1144.4,197.3],[1106,167.2],[1106,167.2],[1105.4,161.9],[1122.3,174],[1115.4,182],[1122.6,157.1],[1143.8,146.7],[1149.5,113.9],[1143.9,97.4],[1143.9,97.4],[1120.4,109.9],[1114.5,122.6],[1089,166.8],[1024.5,192.8],[960,218.8],[960,218.8],[917.6,227.8],[896.3,249.1],[859.1,262.8],[814.7,267.4],[781.6,255.7],[764,247.8],[746.4,239.9],[770.2,211],[781.6,171],[781.6,171],[802.3,127],[812,113.1],[855,117],[898,120.9],[980.4,152],[980.4,152],[1039.2,160.7],[1129.7,206.1],[1187.8,215.1],[1233.3,216.8],[1288.1,226.2],[1288.1,226.2],[1331,241.4],[1396.6,239.1],[1400.2,236.1],[1400.2,236.1],[1372.2,229],[1354.5,206],[1354.5,206],[1402.2,223.6],[1400.7,176.7],[1400.7,176.7],[1421,169.1],[1453,175.4],[1479.4,181.7],[1508.4,186.2],[1508.4,192.3],[1512.6,189.5],[1557.1,205.8],[1569.6,218.9],[1530.9,205.4],[1492.7,217.3],[1492.7,216.2],[1444.5,218.7],[1382.4,237.3],[1350,251.6],[1347.6,254.4],[1313.2,255.6],[1270.1,241.8],[1234.3,244.1],[1234.3,244.1],[1207.9,254.8],[1191,230.1],[1191,230.1],[1156.9,273.2],[1103.3,266.8],[1103.3,266.8],[1152.1,230.8],[1130.1,221.6],[1130.1,221.6],[1106.2,203.1],[1106.5,211.5],[1085,234.8],[1052.9,217.9],[1015.6,193.6],[998.2,199.5],[982.8,166.5],[1005.1,169.1],[938.9,185.2],[918.9,190.5],[918.9,190.5],[929.5,209],[929.5,209],[939.6,186.8],[917.8,132.5],[868.5,123.8],[845.3,127],[818.6,140.5],[843.8,141],[843.8,141],[853.9,118.9],[853.9,118.9],[860,109.7],[861,88.8],[833.7,95.4],[814.7,117.4],[838.8,149.8],[881.2,150.2],[868.7,178.7],[860.4,205.7],[839.1,235.6],[864.1,287.2],[918.7,303.2],[985.7,327.8],[1036.9,341.7],[1091,351.2],[1155.7,367.5],[1155.7,367.5],[1224,362.3],[1349.9,343.4],[1475.8,324.5],[1512.4,298],[1530.8,279.9],[1524,251.1],[1504.8,213.7],[1499.2,195.8],[1481.5,184],[1481.5,184],[1463.8,172.2],[1479.1,175.7],[1447.6,186.4],[1426.3,177.2],[1415.4,188.6],[1428.2,179.3],[1425.7,184.2],[1434.4,193.9],[1418.7,189.1],[1423.5,172.1],[1444,176.4],[1398.7,187.3],[1392.8,175.9],[1360.6,182.2],[1357.5,177.5],[1343.4,184.7],[1344.2,211.1],[1314,227.1],[1297.8,227.2],[1258.7,242.3],[1258.3,260.7],[1259.8,292.8],[1242.4,286.6],[1254,290.7],[1260.2,281.3],[1276.5,306.1],[1273,288.4],[1283.6,291.2],[1307.3,284.7],[1342.6,273.7],[1305.5,235.9],[1297.7,195.5],[1297.9,201.1],[1281,194.6],[1270.7,205.4],[1238.7,181.7],[1212.4,205.7],[1182.6,229.2],[1152.5,274.3],[1104.3,349.2],[1082.8,434.5],[1037.5,519.4],[993.6,604.9],[958.4,683.1],[922.6,742],[889.3,816.7],[870.1,886.2]]","[-0.2,0.6000000000000001]","[0.2,0.6000000000000001]","[0.6000000000000001,0.6000000000000001]","[-0.6000000000000001,0.2]","[-0.6000000000000001,-0.2]","[-0.6000000000000001,-0.6000000000000001]","[-0.2,0.2]","[0.2,0.2]","[0.6000000000000001,0.2]","[-0.2,-0.2]","[0.2,-0.2]","[0.6000000000000001,-0.2]","[-0.2,-0.6000000000000001]","[0.2,-0.6000000000000001]","[0.6000000000000001,-0.6000000000000001]",0,0,0,0,1,4,Monitor,25,20,8,1,60,4,1,60,3
