inst1_resp.keys,inst1_resp.rt,calibrationMouse.x,calibrationMouse.y,calibrationMouse.leftButton,calibrationMouse.midButton,calibrationMouse.rightButton,calibrationClick.x,calibrationClick.y,calibrationClick.leftButton,calibrationClick.midButton,calibrationClick.rightButton,calibrationClick.clicked_name,trialsc.thisRepN,trialsc.thisTrialN,trialsc.thisN,trialsc.thisIndex,trialsc.ran,calibration_x,calibration_y,participant,session,date,expName,psychopyVersion,OS,frameRate,ScreenRes_pixels,Camera_pixels,mouse_2.x,mouse_2.y,mouse_2.leftButton,mouse_2.midButton,mouse_2.rightButton,mouse_2.time,mouse_2.clicked_name,mouse.x,mouse.y,mouse.leftButton,mouse.midButton,mouse.rightButton,mouse.time,mouse.clicked_name,Choice,Trial,TrialDuration,MOUSE_GAZE,ET_GAZE,ET_GAZE_x_T,time,unixTime,ET_GAZE_NF,Loc_Bus_label,Loc_Metro_label,Loc_RH_label,Loc_Cost_label,Loc_Travel_label,Loc_Comfort_label,Loc_Bus_cost,Loc_Metro_cost,Loc_RH_cost,Loc_Bus_travel,Loc_Metro_travel,Loc_RH_travel,Loc_Bus_comfort,Loc_Metro_comfort,Loc_RH_comfort,trials.thisRepN,trials.thisTrialN,trials.thisN,trials.thisIndex,trials.ran,Block,Device,RH_cost,RH_travel_time,RH_Comfort,metro_cost,metro_travel_time,metro_Comfort,Bus_cost,Bus_travel_time,Bus_Comfort
space,2.7821,-0.319791667,-0.553703704,1,0,0,-0.002083333,0.672222222,1,0,0,calibration_square,0,0,0,13,1,0,0.67,31,001,2024-11-18_11h03.17.292,Attention_exp_legacy,2023.1.0,Win32,60.24096386,,,,,,,,,,,,,,,,,,,,,,,,,,,,,,,,,,,,,,,,,,,,,,,,,,,,,,,,
,,,,,,,0.670833333,-0.677777778,1,0,0,calibration_square,0,1,1,20,1,0.67,-0.67,31,001,2024-11-18_11h03.17.292,Attention_exp_legacy,2023.1.0,Win32,60.24096386,,,,,,,,,,,,,,,,,,,,,,,,,,,,,,,,,,,,,,,,,,,,,,,,,,,,,,,,
,,,,,,,0.329166667,0.331481481,1,0,0,calibration_square,0,2,2,17,1,0.33,0.33,31,001,2024-11-18_11h03.17.292,Attention_exp_legacy,2023.1.0,Win32,60.24096386,,,,,,,,,,,,,,,,,,,,,,,,,,,,,,,,,,,,,,,,,,,,,,,,,,,,,,,,
,,,,,,,-0.330208333,-0.331481481,1,0,0,calibration_square,0,3,3,5,1,-0.33,-0.33,31,001,2024-11-18_11h03.17.292,Attention_exp_legacy,2023.1.0,Win32,60.24096386,,,,,,,,,,,,,,,,,,,,,,,,,,,,,,,,,,,,,,,,,,,,,,,,,,,,,,,,
,,,,,,,0.326041667,0.001851852,1,0,0,calibration_square,0,4,4,16,1,0.33,0,31,001,2024-11-18_11h03.17.292,Attention_exp_legacy,2023.1.0,Win32,60.24096386,,,,,,,,,,,,,,,,,,,,,,,,,,,,,,,,,,,,,,,,,,,,,,,,,,,,,,,,
,,,,,,,-0.326041667,0.661111111,1,0,0,calibration_square,0,5,5,8,1,-0.33,0.67,31,001,2024-11-18_11h03.17.292,Attention_exp_legacy,2023.1.0,Win32,60.24096386,,,,,,,,,,,,,,,,,,,,,,,,,,,,,,,,,,,,,,,,,,,,,,,,,,,,,,,,
,,,,,,,0.003125,-0.672222222,1,0,0,calibration_square,0,6,6,9,1,0,-0.67,31,001,2024-11-18_11h03.17.292,Attention_exp_legacy,2023.1.0,Win32,60.24096386,,,,,,,,,,,,,,,,,,,,,,,,,,,,,,,,,,,,,,,,,,,,,,,,,,,,,,,,
,,,,,,,0.333333333,-0.327777778,1,0,0,calibration_square,0,7,7,15,1,0.33,-0.33,31,001,2024-11-18_11h03.17.292,Attention_exp_legacy,2023.1.0,Win32,60.24096386,,,,,,,,,,,,,,,,,,,,,,,,,,,,,,,,,,,,,,,,,,,,,,,,,,,,,,,,
,,,,,,,0,-0.331481481,1,0,0,calibration_square,0,8,8,10,1,0,-0.33,31,001,2024-11-18_11h03.17.292,Attention_exp_legacy,2023.1.0,Win32,60.24096386,,,,,,,,,,,,,,,,,,,,,,,,,,,,,,,,,,,,,,,,,,,,,,,,,,,,,,,,
,,,,,,,-0.660416667,-0.67962963,1,0,0,calibration_square,0,9,9,0,1,-0.67,-0.67,31,001,2024-11-18_11h03.17.292,Attention_exp_legacy,2023.1.0,Win32,60.24096386,,,,,,,,,,,,,,,,,,,,,,,,,,,,,,,,,,,,,,,,,,,,,,,,,,,,,,,,
,,,,,,,-0.322916667,-0.672222222,1,0,0,calibration_square,0,10,10,4,1,-0.33,-0.67,31,001,2024-11-18_11h03.17.292,Attention_exp_legacy,2023.1.0,Win32,60.24096386,,,,,,,,,,,,,,,,,,,,,,,,,,,,,,,,,,,,,,,,,,,,,,,,,,,,,,,,
,,,,,,,-0.671875,-0.333333333,1,0,0,calibration_square,0,11,11,1,1,-0.67,-0.33,31,001,2024-11-18_11h03.17.292,Attention_exp_legacy,2023.1.0,Win32,60.24096386,,,,,,,,,,,,,,,,,,,,,,,,,,,,,,,,,,,,,,,,,,,,,,,,,,,,,,,,
,,,,,,,-0.333333333,0.005555556,1,0,0,calibration_square,0,12,12,6,1,-0.33,0,31,001,2024-11-18_11h03.17.292,Attention_exp_legacy,2023.1.0,Win32,60.24096386,,,,,,,,,,,,,,,,,,,,,,,,,,,,,,,,,,,,,,,,,,,,,,,,,,,,,,,,
,,,,,,,0.673958333,0.666666667,1,0,0,calibration_square,0,13,13,19,1,0.67,0.67,31,001,2024-11-18_11h03.17.292,Attention_exp_legacy,2023.1.0,Win32,60.24096386,,,,,,,,,,,,,,,,,,,,,,,,,,,,,,,,,,,,,,,,,,,,,,,,,,,,,,,,
,,,,,,,0.332291667,-0.674074074,1,0,0,calibration_square,0,14,14,14,1,0.33,-0.67,31,001,2024-11-18_11h03.17.292,Attention_exp_legacy,2023.1.0,Win32,60.24096386,,,,,,,,,,,,,,,,,,,,,,,,,,,,,,,,,,,,,,,,,,,,,,,,,,,,,,,,
,,,,,,,-0.663541667,-0.003703704,1,0,0,calibration_square,0,15,15,2,1,-0.67,0,31,001,2024-11-18_11h03.17.292,Attention_exp_legacy,2023.1.0,Win32,60.24096386,,,,,,,,,,,,,,,,,,,,,,,,,,,,,,,,,,,,,,,,,,,,,,,,,,,,,,,,
,,,,,,,-0.323958333,0.333333333,1,0,0,calibration_square,0,16,16,7,1,-0.33,0.33,31,001,2024-11-18_11h03.17.292,Attention_exp_legacy,2023.1.0,Win32,60.24096386,,,,,,,,,,,,,,,,,,,,,,,,,,,,,,,,,,,,,,,,,,,,,,,,,,,,,,,,
,,,,,,,0.335416667,0.662962963,1,0,0,calibration_square,0,17,17,18,1,0.33,0.67,31,001,2024-11-18_11h03.17.292,Attention_exp_legacy,2023.1.0,Win32,60.24096386,,,,,,,,,,,,,,,,,,,,,,,,,,,,,,,,,,,,,,,,,,,,,,,,,,,,,,,,
,,,,,,,0.009375,0,1,0,0,calibration_square,0,18,18,11,1,0,0,31,001,2024-11-18_11h03.17.292,Attention_exp_legacy,2023.1.0,Win32,60.24096386,,,,,,,,,,,,,,,,,,,,,,,,,,,,,,,,,,,,,,,,,,,,,,,,,,,,,,,,
,,,,,,,0,0.325925926,1,0,0,calibration_square,0,19,19,12,1,0,0.33,31,001,2024-11-18_11h03.17.292,Attention_exp_legacy,2023.1.0,Win32,60.24096386,,,,,,,,,,,,,,,,,,,,,,,,,,,,,,,,,,,,,,,,,,,,,,,,,,,,,,,,
,,,,,,,-0.680208333,0.32037037,1,0,0,,0,20,20,3,1,-0.67,0.33,31,001,2024-11-18_11h03.17.292,Attention_exp_legacy,2023.1.0,Win32,60.24096386,,,,,,,,,,,,,,,,,,,,,,,,,,,,,,,,,,,,,,,,,,,,,,,,,,,,,,,,
,,,,,,,,,,,,,,,,,,,,31,001,2024-11-18_11h03.17.292,Attention_exp_legacy,2023.1.0,Win32,60.24096386,"[1920,1080]","[640,480]",[-0.0010416666666666667],[-0.5074074074074074],[1],[0],[0],[21.416400000095372],"[""StartButton""]",[0.13125],[0.39814814814814814],[1],[0],[0],[6.548000000000002],"[""Metro_label""]",Metro_label,1,7.5604,"[[0.22604166666666667,0.018518518518518517],[0.22604166666666667,0.018518518518518517],[0.22604166666666667,0.018518518518518517],[0.22604166666666667,0.018518518518518517],[0.22604166666666667,0.018518518518518517],[0.22604166666666667,0.018518518518518517],[0.22604166666666667,0.018518518518518517],[0.22604166666666667,0.018518518518518517],[0.22604166666666667,0.018518518518518517],[0.22604166666666667,0.018518518518518517],[0.22604166666666667,0.018518518518518517],[0.22604166666666667,0.018518518518518517],[0.22604166666666667,0.018518518518518517],[0.22604166666666667,0.018518518518518517],[0.22604166666666667,0.018518518518518517],[0.22604166666666667,0.018518518518518517],[0.22604166666666667,0.018518518518518517],[0.22604166666666667,0.018518518518518517],[0.22604166666666667,0.018518518518518517],[0.22604166666666667,0.018518518518518517],[0.22604166666666667,0.018518518518518517],[0.22604166666666667,0.018518518518518517],[0.22604166666666667,0.018518518518518517],[0.22604166666666667,0.018518518518518517],[0.22604166666666667,0.018518518518518517],[0.22604166666666667,0.018518518518518517],[0.22604166666666667,0.018518518518518517],[0.22604166666666667,0.018518518518518517],[0.22604166666666667,0.018518518518518517],[0.22604166666666667,0.018518518518518517],[0.22604166666666667,0.018518518518518517],[0.22604166666666667,0.018518518518518517],[0.22604166666666667,0.018518518518518517],[0.22604166666666667,0.018518518518518517],[0.22604166666666667,0.018518518518518517],[0.22604166666666667,0.018518518518518517],[0.22604166666666667,0.018518518518518517],[0.22604166666666667,0.018518518518518517],[0.22604166666666667,0.018518518518518517],[0.22604166666666667,0.018518518518518517],[0.22604166666666667,0.018518518518518517],[0.22604166666666667,0.018518518518518517],[0.22604166666666667,0.018518518518518517],[0.22604166666666667,0.018518518518518517],[0.22604166666666667,0.018518518518518517],[0.22604166666666667,0.018518518518518517],[0.22604166666666667,0.018518518518518517],[0.22604166666666667,0.018518518518518517],[0.22604166666666667,0.018518518518518517],[0.22604166666666667,0.018518518518518517],[0.22604166666666667,0.018518518518518517],[0.22604166666666667,0.018518518518518517],[0.22604166666666667,0.018518518518518517],[0.22604166666666667,0.018518518518518517],[0.22604166666666667,0.018518518518518517],[0.22604166666666667,0.018518518518518517],[0.22604166666666667,0.018518518518518517],[0.22604166666666667,0.018518518518518517],[0.22604166666666667,0.018518518518518517],[0.22604166666666667,0.018518518518518517],[0.22604166666666667,0.018518518518518517],[0.22604166666666667,0.018518518518518517],[0.22604166666666667,0.018518518518518517],[0.22604166666666667,0.018518518518518517],[0.22604166666666667,0.018518518518518517],[0.22604166666666667,0.018518518518518517],[0.22604166666666667,0.018518518518518517],[0.22604166666666667,0.018518518518518517],[0.22604166666666667,0.018518518518518517],[0.22604166666666667,0.018518518518518517],[0.22604166666666667,0.018518518518518517],[0.22604166666666667,0.018518518518518517],[0.22604166666666667,0.018518518518518517],[0.22604166666666667,0.018518518518518517],[0.22604166666666667,0.018518518518518517],[0.22604166666666667,0.018518518518518517],[0.22604166666666667,0.018518518518518517],[0.22604166666666667,0.018518518518518517],[0.22604166666666667,0.018518518518518517],[0.22604166666666667,0.018518518518518517],[0.22604166666666667,0.018518518518518517],[0.22604166666666667,0.018518518518518517],[0.22604166666666667,0.018518518518518517],[0.22604166666666667,0.018518518518518517],[0.22604166666666667,0.018518518518518517],[0.22604166666666667,0.018518518518518517],[0.22604166666666667,0.018518518518518517],[0.22604166666666667,0.018518518518518517],[0.22604166666666667,0.018518518518518517],[0.22604166666666667,0.018518518518518517],[0.22604166666666667,0.018518518518518517],[0.22604166666666667,0.018518518518518517],[0.22604166666666667,0.018518518518518517],[0.22604166666666667,0.018518518518518517],[0.22604166666666667,0.018518518518518517],[0.22604166666666667,0.018518518518518517],[0.22604166666666667,0.018518518518518517],[0.22604166666666667,0.018518518518518517],[0.22604166666666667,0.018518518518518517],[0.22604166666666667,0.018518518518518517],[0.22604166666666667,0.018518518518518517],[0.22604166666666667,0.018518518518518517],[0.22604166666666667,0.018518518518518517],[0.22604166666666667,0.018518518518518517],[0.22604166666666667,0.018518518518518517],[0.22604166666666667,0.018518518518518517],[0.22604166666666667,0.018518518518518517],[0.22604166666666667,0.018518518518518517],[0.22604166666666667,0.018518518518518517],[0.22604166666666667,0.018518518518518517],[0.22604166666666667,0.018518518518518517],[0.22604166666666667,0.018518518518518517],[0.22604166666666667,0.018518518518518517],[0.22604166666666667,0.018518518518518517],[0.22604166666666667,0.018518518518518517],[0.22604166666666667,0.018518518518518517],[0.22604166666666667,0.018518518518518517],[0.22604166666666667,0.018518518518518517],[0.22604166666666667,0.018518518518518517],[0.22604166666666667,0.018518518518518517],[0.22604166666666667,0.018518518518518517],[0.22604166666666667,0.018518518518518517],[0.22604166666666667,0.018518518518518517],[0.22604166666666667,0.018518518518518517],[0.22604166666666667,0.018518518518518517],[0.22604166666666667,0.018518518518518517],[0.22604166666666667,0.018518518518518517],[0.22604166666666667,0.018518518518518517],[0.22604166666666667,0.018518518518518517],[0.22604166666666667,0.018518518518518517],[0.22604166666666667,0.018518518518518517],[0.22604166666666667,0.018518518518518517],[0.22604166666666667,0.018518518518518517],[0.22604166666666667,0.018518518518518517],[0.22604166666666667,0.018518518518518517],[0.22604166666666667,0.018518518518518517],[0.22604166666666667,0.018518518518518517],[0.22604166666666667,0.018518518518518517],[0.22604166666666667,0.018518518518518517],[0.22604166666666667,0.018518518518518517],[0.22604166666666667,0.018518518518518517],[0.22604166666666667,0.018518518518518517],[0.22604166666666667,0.018518518518518517],[0.22604166666666667,0.018518518518518517],[0.22604166666666667,0.018518518518518517],[0.22604166666666667,0.018518518518518517],[0.22604166666666667,0.018518518518518517],[0.22604166666666667,0.018518518518518517],[0.22604166666666667,0.018518518518518517],[0.22604166666666667,0.018518518518518517],[0.22604166666666667,0.018518518518518517],[0.22604166666666667,0.018518518518518517],[0.22604166666666667,0.018518518518518517],[0.22604166666666667,0.018518518518518517],[0.22604166666666667,0.018518518518518517],[0.22604166666666667,0.018518518518518517],[0.22604166666666667,0.018518518518518517],[0.22604166666666667,0.018518518518518517],[0.22604166666666667,0.018518518518518517],[0.22604166666666667,0.018518518518518517],[0.22604166666666667,0.018518518518518517],[0.22604166666666667,0.018518518518518517],[0.22604166666666667,0.018518518518518517],[0.22604166666666667,0.018518518518518517],[0.22604166666666667,0.018518518518518517],[0.22604166666666667,0.018518518518518517],[0.22604166666666667,0.018518518518518517],[0.22708333333333333,0.018518518518518517],[0.22708333333333333,0.018518518518518517],[0.22708333333333333,0.018518518518518517],[0.22708333333333333,0.018518518518518517],[0.22708333333333333,0.018518518518518517],[0.22708333333333333,0.018518518518518517],[0.22708333333333333,0.018518518518518517],[0.22708333333333333,0.018518518518518517],[0.22708333333333333,0.018518518518518517],[0.22708333333333333,0.018518518518518517],[0.22708333333333333,0.018518518518518517],[0.22708333333333333,0.018518518518518517],[0.22708333333333333,0.018518518518518517],[0.22708333333333333,0.018518518518518517],[0.22708333333333333,0.018518518518518517],[0.22708333333333333,0.018518518518518517],[0.22708333333333333,0.018518518518518517],[0.22708333333333333,0.018518518518518517],[0.22708333333333333,0.018518518518518517],[0.22708333333333333,0.018518518518518517],[0.22708333333333333,0.018518518518518517],[0.22708333333333333,0.018518518518518517],[0.22708333333333333,0.018518518518518517],[0.22708333333333333,0.018518518518518517],[0.22708333333333333,0.018518518518518517],[0.22708333333333333,0.018518518518518517],[0.22708333333333333,0.018518518518518517],[0.22708333333333333,0.018518518518518517],[0.22708333333333333,0.018518518518518517],[0.22708333333333333,0.018518518518518517],[0.22708333333333333,0.018518518518518517],[0.22708333333333333,0.018518518518518517],[0.22708333333333333,0.018518518518518517],[0.22708333333333333,0.018518518518518517],[0.22708333333333333,0.018518518518518517],[0.22708333333333333,0.018518518518518517],[0.22708333333333333,0.018518518518518517],[0.22708333333333333,0.018518518518518517],[0.22708333333333333,0.018518518518518517],[0.22708333333333333,0.018518518518518517],[0.22708333333333333,0.018518518518518517],[0.22708333333333333,0.018518518518518517],[0.22708333333333333,0.018518518518518517],[0.22708333333333333,0.018518518518518517],[0.22708333333333333,0.018518518518518517],[0.22708333333333333,0.018518518518518517],[0.22708333333333333,0.018518518518518517],[0.22708333333333333,0.018518518518518517],[0.22708333333333333,0.018518518518518517],[0.22708333333333333,0.018518518518518517],[0.22708333333333333,0.018518518518518517],[0.22708333333333333,0.018518518518518517],[0.22708333333333333,0.018518518518518517],[0.22708333333333333,0.018518518518518517],[0.22708333333333333,0.018518518518518517],[0.22708333333333333,0.018518518518518517],[0.22708333333333333,0.018518518518518517],[0.22708333333333333,0.018518518518518517],[0.22708333333333333,0.018518518518518517],[0.22708333333333333,0.018518518518518517],[0.22708333333333333,0.018518518518518517],[0.22708333333333333,0.018518518518518517],[0.22708333333333333,0.018518518518518517],[0.22708333333333333,0.018518518518518517],[0.22708333333333333,0.018518518518518517],[0.22708333333333333,0.018518518518518517],[0.22708333333333333,0.018518518518518517],[0.22708333333333333,0.018518518518518517],[0.22708333333333333,0.018518518518518517],[0.22708333333333333,0.018518518518518517],[0.22708333333333333,0.018518518518518517],[0.22708333333333333,0.018518518518518517],[0.22708333333333333,0.018518518518518517],[0.22708333333333333,0.018518518518518517],[0.22708333333333333,0.018518518518518517],[0.22708333333333333,0.018518518518518517],[0.22708333333333333,0.018518518518518517],[0.22708333333333333,0.018518518518518517],[0.22708333333333333,0.018518518518518517],[0.22708333333333333,0.018518518518518517],[0.22708333333333333,0.018518518518518517],[0.22708333333333333,0.018518518518518517],[0.22708333333333333,0.018518518518518517],[0.22708333333333333,0.018518518518518517],[0.22708333333333333,0.018518518518518517],[0.22708333333333333,0.018518518518518517],[0.22708333333333333,0.018518518518518517],[0.22708333333333333,0.018518518518518517],[0.22708333333333333,0.018518518518518517],[0.22708333333333333,0.018518518518518517],[0.22708333333333333,0.018518518518518517],[0.22708333333333333,0.018518518518518517],[0.22708333333333333,0.018518518518518517],[0.22708333333333333,0.018518518518518517],[0.22708333333333333,0.018518518518518517],[0.22708333333333333,0.018518518518518517],[0.22708333333333333,0.018518518518518517],[0.22708333333333333,0.018518518518518517],[0.22708333333333333,0.018518518518518517],[0.228125,0.018518518518518517],[0.228125,0.018518518518518517],[0.228125,0.018518518518518517],[0.228125,0.018518518518518517],[0.228125,0.018518518518518517],[0.228125,0.018518518518518517],[0.228125,0.018518518518518517],[0.228125,0.018518518518518517],[0.228125,0.018518518518518517],[0.228125,0.018518518518518517],[0.228125,0.018518518518518517],[0.228125,0.018518518518518517],[0.228125,0.018518518518518517],[0.228125,0.018518518518518517],[0.228125,0.018518518518518517],[0.228125,0.018518518518518517],[0.228125,0.018518518518518517],[0.228125,0.018518518518518517],[0.228125,0.018518518518518517],[0.228125,0.018518518518518517],[0.228125,0.018518518518518517],[0.228125,0.018518518518518517],[0.228125,0.018518518518518517],[0.228125,0.018518518518518517],[0.228125,0.018518518518518517],[0.228125,0.018518518518518517],[0.228125,0.018518518518518517],[0.228125,0.018518518518518517],[0.228125,0.018518518518518517],[0.228125,0.018518518518518517],[0.228125,0.018518518518518517],[0.228125,0.018518518518518517],[0.228125,0.018518518518518517],[0.228125,0.018518518518518517],[0.228125,0.018518518518518517],[0.228125,0.018518518518518517],[0.228125,0.018518518518518517],[0.228125,0.018518518518518517],[0.228125,0.018518518518518517],[0.228125,0.018518518518518517],[0.228125,0.018518518518518517],[0.228125,0.018518518518518517],[0.228125,0.018518518518518517],[0.228125,0.018518518518518517],[0.228125,0.018518518518518517],[0.228125,0.018518518518518517],[0.228125,0.018518518518518517],[0.228125,0.018518518518518517],[0.228125,0.018518518518518517],[0.228125,0.018518518518518517],[0.228125,0.018518518518518517],[0.228125,0.018518518518518517],[0.228125,0.018518518518518517],[0.228125,0.018518518518518517],[0.228125,0.018518518518518517],[0.228125,0.018518518518518517],[0.228125,0.018518518518518517],[0.228125,0.018518518518518517],[0.228125,0.018518518518518517],[0.228125,0.018518518518518517],[0.228125,0.018518518518518517],[0.228125,0.018518518518518517],[0.228125,0.018518518518518517],[0.228125,0.018518518518518517],[0.228125,0.018518518518518517],[0.228125,0.018518518518518517],[0.228125,0.018518518518518517],[0.228125,0.018518518518518517],[0.228125,0.018518518518518517],[0.228125,0.018518518518518517],[0.228125,0.018518518518518517],[0.228125,0.018518518518518517],[0.228125,0.018518518518518517],[0.228125,0.018518518518518517],[0.228125,0.018518518518518517],[0.228125,0.018518518518518517],[0.228125,0.018518518518518517],[0.228125,0.018518518518518517],[0.228125,0.018518518518518517],[0.228125,0.018518518518518517],[0.228125,0.018518518518518517],[0.228125,0.018518518518518517],[0.228125,0.018518518518518517],[0.228125,0.018518518518518517],[0.228125,0.018518518518518517],[0.228125,0.018518518518518517],[0.228125,0.018518518518518517],[0.228125,0.018518518518518517],[0.228125,0.018518518518518517],[0.228125,0.018518518518518517],[0.228125,0.018518518518518517],[0.228125,0.018518518518518517],[0.228125,0.018518518518518517],[0.228125,0.018518518518518517],[0.228125,0.018518518518518517],[0.228125,0.020370370370370372],[0.1875,0.1574074074074074],[0.14583333333333334,0.31296296296296294],[0.12708333333333333,0.36666666666666664],[0.1,0.4444444444444444],[0.09375,0.46296296296296297],[0.09375,0.4666666666666667],[0.09375,0.4666666666666667],[0.09375,0.4666666666666667],[0.09375,0.4685185185185185],[0.09375,0.4685185185185185],[0.09375,0.4685185185185185],[0.09375,0.4685185185185185],[0.09375,0.4685185185185185],[0.096875,0.4685185185185185],[0.10208333333333333,0.4648148148148148],[0.1125,0.45185185185185184],[0.11875,0.4444444444444444],[0.121875,0.4388888888888889],[0.125,0.43333333333333335],[0.128125,0.42592592592592593],[0.12916666666666668,0.4166666666666667],[0.13125,0.4074074074074074],[0.13125,0.4],[0.13125,0.4],[0.13125,0.39814814814814814],[0.13125,0.39814814814814814],[0.13125,0.39814814814814814],[0.13125,0.39814814814814814],[0.13125,0.39814814814814814],[0.13125,0.39814814814814814],[0.13125,0.39814814814814814],[0.13125,0.39814814814814814],[0.13125,0.39814814814814814],[0.13125,0.39814814814814814],[0.13125,0.39814814814814814],[0.13125,0.39814814814814814],[0.13125,0.39814814814814814],[0.13125,0.39814814814814814],[0.13125,0.39814814814814814],[0.13125,0.39814814814814814],[0.13125,0.39814814814814814],[0.13125,0.39814814814814814],[0.13125,0.39814814814814814],[0.13125,0.39814814814814814],[0.13125,0.39814814814814814],[0.13125,0.39814814814814814],[0.13125,0.39814814814814814],[0.13125,0.39814814814814814],[0.13125,0.39814814814814814],[0.13125,0.39814814814814814],[0.13125,0.39814814814814814],[0.13125,0.39814814814814814],[0.13125,0.39814814814814814],[0.13125,0.39814814814814814],[0.13125,0.39814814814814814],[0.13125,0.39814814814814814],[0.13125,0.39814814814814814],[0.13125,0.39814814814814814],[0.13125,0.39814814814814814],[0.13125,0.39814814814814814],[0.13125,0.39814814814814814],[0.13125,0.39814814814814814],[0.13125,0.39814814814814814],[0.13125,0.39814814814814814],[0.13125,0.39814814814814814],[0.13125,0.39814814814814814],[0.13125,0.39814814814814814],[0.13125,0.39814814814814814],[0.13125,0.39814814814814814],[0.13125,0.39814814814814814],[0.13125,0.39814814814814814],[0.13125,0.39814814814814814],[0.13125,0.39814814814814814],[0.13125,0.39814814814814814],[0.13125,0.39814814814814814],[0.13125,0.39814814814814814],[0.13125,0.39814814814814814],[0.13125,0.39814814814814814],[0.13125,0.39814814814814814],[0.13125,0.39814814814814814],[0.13125,0.39814814814814814],[0.13125,0.39814814814814814],[0.13125,0.39814814814814814],[0.13125,0.39814814814814814],[0.13125,0.39814814814814814],[0.13125,0.39814814814814814],[0.13125,0.39814814814814814],[0.13125,0.39814814814814814],[0.13125,0.39814814814814814],[0.13125,0.39814814814814814],[0.13125,0.39814814814814814]]","[[0.004375000000000047,-0.2462962962962963],[0.004375000000000047,-0.2462962962962963],[0.0005208333333333333,-0.28574074074074074],[0.01895833333333338,-0.2759259259259259],[0.02666666666666669,-0.25],[0.012916666666666642,-0.26425925925925925],[0.00916666666666662,-0.28277777777777774],[0.026145833333333358,-0.3609259259259259],[0.043124999999999976,-0.4390740740740741],[0.04020833333333336,-0.5183333333333333],[0.03729166666666662,-0.5975925925925926],[0.024895833333333308,-0.6381481481481482],[0.0453125,-0.6364814814814814],[0.0453125,-0.6364814814814814],[0.03854166666666667,-0.7016666666666667],[0.024270833333333287,-0.7653703703703704],[0.016875000000000046,-0.7683333333333333],[0.016875000000000046,-0.7683333333333333],[-0.0005208333333333333,-0.767037037037037],[-0.029999999999999954,-0.7464814814814815],[-0.05614583333333331,-0.7364814814814815],[-0.057395833333333354,-0.6998148148148148],[-0.057395833333333354,-0.6998148148148148],[-0.07145833333333336,-0.6533333333333333],[-0.044479166666666715,-0.6281481481481481],[-0.043229166666666666,-0.6081481481481481],[-0.041979166666666616,-0.5881481481481482],[-0.041979166666666616,-0.5881481481481482],[-0.03125,-0.575],[-0.03125,-0.575],[-0.03322916666666664,-0.5911111111111111],[-0.0453125,-0.6148148148148148],[-0.03802083333333333,-0.6487037037037037],[-0.027083333333333334,-0.6575925925925926],[-0.023958333333333335,-0.6890740740740741],[-0.008020833333333382,-0.7303703703703703],[-0.030729166666666665,-0.7501851851851852],[-0.030729166666666665,-0.7501851851851852],[-0.03864583333333336,-0.7574074074074074],[-0.03864583333333336,-0.7574074074074074],[-0.06177083333333329,-0.7822222222222222],[-0.07989583333333337,-0.8049999999999999],[-0.07989583333333337,-0.8049999999999999],[-0.0655208333333333,-0.7985185185185185],[-0.0655208333333333,-0.7985185185185185],[-0.05479166666666669,-0.7818518518518518],[-0.05479166666666669,-0.7818518518518518],[-0.03979166666666671,-0.7761111111111112],[-0.03979166666666671,-0.7761111111111112],[-0.002708333333333357,-0.7511111111111112],[-0.002708333333333357,-0.7511111111111112],[0.03843749999999998,-0.740925925925926],[0.03843749999999998,-0.740925925925926],[0.05697916666666671,-0.7375925925925926],[0.05697916666666671,-0.7375925925925926],[0.0834374999999999,-0.7229629629629629],[0.12895833333333329,-0.6885185185185185],[0.17374999999999996,-0.6555555555555556],[0.2115624999999999,-0.6192592592592592],[0.2415625000000001,-0.5794444444444444],[0.2790625000000001,-0.5387037037037037],[0.31229166666666663,-0.48703703703703705],[0.32062499999999994,-0.4690740740740741],[0.32489583333333344,-0.43629629629629635],[0.3484375,-0.3803703703703703],[0.3616666666666667,-0.3359259259259259],[0.37041666666666656,-0.31611111111111106],[0.37041666666666656,-0.31611111111111106],[0.39510416666666665,-0.2772222222222222],[0.41395833333333343,-0.25018518518518523],[0.4037499999999999,-0.23055555555555557],[0.42302083333333323,-0.2264814814814815],[0.4354166666666667,-0.2140740740740741],[0.4557291666666667,-0.20092592592592592],[0.47604166666666664,-0.18777777777777774],[0.49364583333333345,-0.19814814814814816],[0.51125,-0.20851851851851855],[0.5107291666666666,-0.1992592592592593],[0.5102083333333333,-0.19000000000000003],[0.5001041666666666,-0.19000000000000003],[0.5035416666666668,-0.2064814814814815],[0.49458333333333326,-0.1227777777777778],[0.5017708333333334,-0.10277777777777777],[0.48760416666666656,-0.02814814814814823],[0.47156250000000005,-0.03314814814814811],[0.46156249999999993,-0.03092592592592601],[0.4515625,-0.01962962962962967],[0.44510416666666663,-0.023148148148148147],[0.42843749999999997,-0.01648148148148144],[0.44500000000000006,0.01777777777777782],[0.45427083333333323,0.050370370370370454],[0.4527083333333332,-0.005185185185185101],[0.42916666666666664,-0.00592592592592601],[0.4148958333333333,-0.062037037037037036],[0.4044791666666666,-0.023148148148148147],[0.3940624999999999,0.01574074074074074],[0.3851041666666667,0.06351851851851843],[0.3714583333333332,0.058333333333333334],[0.3680208333333333,0.04296296296296305],[0.353125,0.03481481481481473],[0.353125,0.03481481481481473],[0.33572916666666663,0.0257407407407407],[0.32822916666666657,0.07074074074074083],[0.3195833333333333,0.08074074074074078],[0.3109375,0.09074074074074075],[0.28937499999999994,0.06814814814814807],[0.28718750000000004,0.03592592592592588],[0.26416666666666655,-0.004629629629629629],[0.2631249999999999,-0.02629629629629638],[0.25270833333333326,-0.05648148148148148],[0.23937499999999995,-0.08962962962962959],[0.23583333333333342,-0.12018518518518514],[0.2171875,-0.1911111111111111],[0.21239583333333342,-0.2264814814814815],[0.2111458333333334,-0.2683333333333333],[0.22083333333333333,-0.2929629629629629],[0.2211458333333333,-0.2975925925925926],[0.24083333333333337,-0.3118518518518518],[0.22489583333333343,-0.2890740740740741],[0.21833333333333324,-0.2577777777777778],[0.2205208333333334,-0.2207407407407407],[0.22062499999999996,-0.17074074074074072],[0.2259375000000001,-0.13444444444444448],[0.2319791666666667,-0.09425925925925922],[0.23447916666666657,-0.04759259259259268],[0.22645833333333343,-0.036481481481481566],[0.21197916666666666,0.002407407407407323],[0.209375,0.003703703703703704],[0.2224999999999999,-0.006481481481481481],[0.24093749999999994,-0.007962962962962878],[0.24718749999999995,-0.025925925925925925],[0.2555208333333333,-0.056851851851851834],[0.25927083333333345,-0.09648148148148153],[0.2616666666666667,-0.12907407407407406],[0.27677083333333335,-0.12185185185185188],[0.2947916666666667,-0.11703703703703702],[0.3160416666666668,-0.13703703703703704],[0.32541666666666674,-0.11944444444444445],[0.30010416666666656,-0.1242592592592593],[0.2694791666666667,-0.13777777777777775],[0.2163541666666667,-0.14425925925925923],[0.1632291666666667,-0.1507407407407407],[0.11989583333333324,-0.14611111111111108],[0.07718749999999991,-0.15240740740740744],[0.018020833333333285,-0.207962962962963],[-0.03302083333333338,-0.20722222222222217],[-0.09083333333333338,-0.2198148148148148],[-0.09083333333333338,-0.2198148148148148],[-0.13343750000000001,-0.23648148148148146],[-0.1373958333333333,-0.23425925925925925],[-0.14135416666666673,-0.23203703703703707],[-0.08885416666666662,-0.21592592592592597],[-0.036354166666666646,-0.19981481481481478],[0.020624999999999952,-0.19388888888888886],[0.07760416666666667,-0.18796296296296297],[0.13833333333333328,-0.17259259259259258],[0.20020833333333338,-0.14444444444444443],[0.25729166666666664,-0.11018518518518519],[0.3104166666666667,-0.08518518518518518],[0.3104166666666667,-0.08518518518518518],[0.3556250000000001,-0.044444444444444446],[0.4041666666666667,-0.03722222222222227],[0.41854166666666665,-0.02166666666666675],[0.41854166666666665,-0.02166666666666675],[0.43291666666666656,-0.006111111111111027],[0.43291666666666656,-0.006111111111111027],[0.44197916666666665,0.012592592592592508],[0.44197916666666665,0.012592592592592508],[0.42333333333333345,0.05462962962962963],[0.42333333333333345,0.05462962962962963],[0.4078125,0.06555555555555552],[0.4078125,0.06555555555555552],[0.3961458333333333,0.08722222222222227],[0.3961458333333333,0.08722222222222227],[0.3732291666666666,0.04277777777777782],[0.3732291666666666,0.04277777777777782],[0.3502083333333334,0.08425925925925926],[0.3453125,0.13296296296296287],[0.33708333333333323,0.21518518518518526],[0.3290625000000001,0.2681481481481481],[0.3259375000000001,0.3138888888888889],[0.31843750000000004,0.36425925925925934],[0.3289583333333333,0.4005555555555555],[0.32218749999999996,0.3979629629629629],[0.3338541666666667,0.3985185185185186],[0.3615624999999999,0.459074074074074],[0.36354166666666665,0.44462962962962965],[0.35395833333333326,0.4192592592592592],[0.3625,0.36648148148148146],[0.3619791666666667,0.2727777777777777],[0.3619791666666667,0.2727777777777777],[0.36864583333333345,0.24092592592592596],[0.38479166666666675,0.24611111111111106],[0.38479166666666675,0.24611111111111106],[0.40343749999999995,0.19185185185185188],[0.43739583333333343,0.19962962962962955],[0.43739583333333343,0.19962962962962955],[0.42864583333333334,0.12129629629629629],[0.43093750000000003,0.052962962962963],[0.4404166666666666,-0.01722222222222214],[0.44989583333333344,-0.08740740740740739],[0.44552083333333337,-0.1381481481481482],[0.4638541666666666,-0.10037037037037035],[0.4701041666666666,-0.11722222222222224],[0.4653125000000001,-0.1479629629629629],[0.46770833333333334,-0.12851851851851848],[0.44812500000000005,-0.10462962962962963],[0.44729166666666675,-0.039629629629629584],[0.41687500000000005,-0.04222222222222214],[0.39385416666666656,-0.04055555555555551],[0.3889583333333334,-0.04259259259259259],[0.3797916666666666,-0.036666666666666584],[0.3536458333333333,-0.07092592592592595],[0.3334374999999999,-0.07407407407407407],[0.3064583333333334,-0.0824074074074074],[0.26895833333333335,-0.10833333333333334],[0.2599999999999999,-0.09351851851851851],[0.24333333333333323,-0.11592592592592597],[0.2443749999999999,-0.08666666666666668],[0.2459374999999999,-0.06314814814814819],[0.2459374999999999,-0.06314814814814819],[0.22937500000000005,-0.03592592592592588],[0.22937500000000005,-0.03592592592592588],[0.21885416666666657,-0.007037037037036953],[0.20083333333333328,0.07185185185185176],[0.18499999999999991,0.06999999999999991],[0.1720833333333334,0.10407407407407415],[0.1696875000000001,0.1557407407407408],[0.1803124999999999,0.1331481481481481],[0.19864583333333338,0.1477777777777777],[0.23687500000000009,0.17555555555555546],[0.23687500000000009,0.17555555555555546],[0.27458333333333323,0.20907407407407402],[0.30666666666666675,0.22166666666666676],[0.3256249999999999,0.24462962962962967],[0.3554166666666667,0.2101851851851852],[0.38135416666666655,0.230925925925926],[0.4127083333333334,0.1977777777777777],[0.4439583333333334,0.16777777777777783],[0.4680208333333333,0.18037037037037032],[0.49208333333333343,0.19296296296296306],[0.4887500000000001,0.18870370370370365],[0.48541666666666666,0.1844444444444445],[0.48416666666666663,0.19499999999999992],[0.4900000000000001,0.1935185185185185],[0.4943749999999999,0.22296296296296292],[0.4944791666666667,0.24685185185185177],[0.4961458333333333,0.26222222222222225],[0.4979166666666667,0.27444444444444455],[0.49729166666666674,0.27314814814814814],[0.49666666666666665,0.2718518518518518],[0.504375,0.2801851851851851],[0.5058333333333332,0.3085185185185186],[0.5058333333333332,0.3085185185185186],[0.49270833333333336,0.3566666666666667],[0.5037499999999999,0.368888888888889],[0.5097916666666668,0.36277777777777775],[0.5158333333333334,0.3566666666666667],[0.49989583333333343,0.3824074074074074],[0.4839583333333332,0.4081481481481481],[0.45427083333333323,0.40777777777777785],[0.4154166666666666,0.4322222222222222],[0.3845833333333334,0.43425925925925923],[0.3845833333333334,0.43425925925925923],[0.35625,0.45259259259259255],[0.3519791666666668,0.45999999999999996],[0.32354166666666656,0.5033333333333333],[0.28760416666666655,0.42018518518518516],[0.28760416666666655,0.42018518518518516],[0.2516666666666666,0.337037037037037],[0.2484375,0.2566666666666667],[0.2319791666666667,0.19944444444444454],[0.20656249999999995,0.16740740740740737],[0.20656249999999995,0.16740740740740737],[0.1678124999999999,0.13055555555555556],[0.12625000000000006,0.09944444444444453],[0.07541666666666676,-0.010370370370370412],[0.027604166666666666,-0.07814814814814813],[-0.027291666666666714,-0.18037037037037032],[-0.06822916666666666,-0.16870370370370374],[-0.11145833333333334,-0.13351851851851856],[-0.11145833333333334,-0.13351851851851856],[-0.15750000000000006,-0.11888888888888886],[-0.15750000000000006,-0.11888888888888886],[-0.18374999999999997,-0.14629629629629629],[-0.18374999999999997,-0.14629629629629629],[-0.20906250000000004,-0.15092592592592594],[-0.20906250000000004,-0.18185185185185182],[-0.21427083333333338,-0.19611111111111107],[-0.21427083333333338,-0.19611111111111107],[-0.19281250000000003,-0.15796296296296297],[-0.18041666666666673,-0.1594444444444445],[-0.18041666666666673,-0.1594444444444445],[-0.1609375,-0.1264814814814815],[-0.1609375,-0.1264814814814815],[-0.14572916666666663,-0.09148148148148144],[-0.11802083333333328,-0.08333333333333333],[-0.09718749999999995,-0.07666666666666662],[-0.0829166666666667,-0.051111111111111156],[-0.05802083333333338,-0.03944444444444436],[-0.05802083333333338,-0.03944444444444436],[-0.04802083333333336,-0.01962962962962967],[-0.03447916666666669,-0.018888888888888972],[-0.03458333333333338,-0.02814814814814823],[0.00010416666666669035,-0.04592592592592584],[0.034791666666666644,-0.06370370370370367],[0.07989583333333337,-0.06925925925925921],[0.11479166666666671,-0.07148148148148152],[0.11479166666666671,-0.07148148148148152],[0.1493750000000001,-0.07333333333333338],[0.1881249999999999,-0.07537037037037035],[0.22687499999999997,-0.07740740740740742],[0.2873958333333334,-0.08611111111111111],[0.34375,-0.08851851851851854],[0.4001041666666666,-0.09092592592592597],[0.4147916666666667,-0.07018518518518514],[0.42947916666666663,-0.04944444444444453],[0.4214583333333332,-0.06888888888888887],[0.41343750000000007,-0.0883333333333333],[0.40822916666666675,-0.08074074074074078],[0.3988541666666668,-0.07296296296296292],[0.40437500000000004,-0.06555555555555552],[0.4002083333333334,-0.05333333333333336],[0.38958333333333334,-0.06314814814814819],[0.38552083333333326,-0.03814814814814819],[0.3884375000000001,-0.03296296296296288],[0.3811458333333334,-0.06629629629629631],[0.3940624999999999,-0.036481481481481566],[0.4119791666666667,-0.003703703703703704],[0.4247916666666666,-0.002407407407407323],[0.4423958333333334,0.014259259259259343],[0.44510416666666663,0.03129629629629625],[0.44385416666666655,0.06574074074074074],[0.4496875000000001,0.13499999999999995],[0.44989583333333344,0.14722222222222223],[0.4501041666666666,0.1594444444444445],[0.47020833333333345,0.2183333333333333],[0.4865624999999999,0.2492592592592593],[0.4835416666666667,0.2975925925925927],[0.4734375,0.3651851851851853],[0.45854166666666674,0.41740740740740734],[0.45968749999999997,0.4262962962962964],[0.4647916666666667,0.4177777777777778],[0.4647916666666667,0.4177777777777778],[0.46749999999999997,0.4027777777777778],[0.46864583333333343,0.42407407407407405],[0.4638541666666666,0.45129629629629636],[0.4493750000000001,0.4703703703703704],[0.4396874999999999,0.4699999999999999],[0.4443749999999999,0.4492592592592593],[0.4404166666666666,0.4107407407407407],[0.43645833333333334,0.37222222222222223],[0.4184375000000001,0.35462962962962963],[0.40041666666666675,0.337037037037037],[0.38406250000000003,0.32814814814814824],[0.3766666666666666,0.24685185185185177],[0.35822916666666677,0.27092592592592585],[0.3397916666666667,0.29499999999999993],[0.3163541666666667,0.32222222222222224],[0.2953125,0.3453703703703704],[0.28937499999999994,0.33555555555555566],[0.2955208333333334,0.32833333333333325],[0.28395833333333326,0.3651851851851853],[0.2865624999999999,0.3816666666666667],[0.2835416666666667,0.43703703703703706],[0.2768749999999999,0.5042592592592592],[0.2834374999999999,0.41759259259259257],[0.27447916666666666,0.31851851851851853],[0.28250000000000003,0.2572222222222222],[0.26979166666666665,0.17481481481481478],[0.25770833333333343,0.12388888888888884],[0.25770833333333343,0.12388888888888884],[0.23010416666666675,0.04666666666666675],[0.2181250000000001,-0.05277777777777778],[0.20979166666666677,-0.08518518518518518],[0.20322916666666657,-0.19185185185185188],[0.18427083333333344,-0.23703703703703705],[0.18427083333333344,-0.23703703703703705],[0.16541666666666663,-0.2572222222222222],[0.18229166666666666,-0.24111111111111108],[0.17635416666666662,-0.24296296296296294],[0.1716666666666666,-0.22777777777777777],[0.18562500000000004,-0.23018518518518521],[0.20302083333333343,-0.2088888888888889],[0.20635416666666656,-0.18555555555555553],[0.1951041666666666,-0.17037037037037037],[0.1884375000000001,-0.122037037037037],[0.1884375000000001,-0.122037037037037],[0.17197916666666657,-0.16888888888888887],[0.18562500000000004,-0.12740740740740744],[0.1790625000000001,-0.10981481481481484],[0.16531250000000006,-0.13777777777777775],[0.16864583333333344,-0.15759259259259265],[0.16281249999999994,-0.15481481481481485],[0.15697916666666673,-0.15203703703703708],[0.16531250000000006,-0.1507407407407407],[0.16916666666666677,-0.2044444444444444],[0.17302083333333323,-0.2581481481481481],[0.17843749999999994,-0.21722222222222223],[0.15499999999999994,-0.2485185185185185],[0.134375,-0.2935185185185185],[0.12708333333333333,-0.30574074074074076],[0.12708333333333333,-0.30574074074074076],[0.134375,-0.3118518518518518],[0.13229166666666667,-0.29074074074074074],[0.14520833333333344,-0.3025925925925925],[0.14520833333333344,-0.3025925925925925],[0.14635416666666667,-0.3455555555555556],[0.14635416666666667,-0.3455555555555556],[0.1330208333333334,-0.3351851851851852],[0.1330208333333334,-0.3351851851851852],[0.13572916666666662,-0.3081481481481481],[0.13572916666666662,-0.3081481481481481],[0.14031250000000003,-0.33555555555555555],[0.15208333333333332,-0.3490740740740741],[0.16833333333333325,-0.30407407407407405],[0.16770833333333332,-0.31148148148148147],[0.14812500000000003,-0.352962962962963],[0.12843749999999995,-0.42666666666666664],[0.10750000000000005,-0.42055555555555557],[0.1046875,-0.4137037037037037],[0.12781250000000005,-0.3785185185185185],[0.11489583333333328,-0.42481481481481476],[0.11489583333333328,-0.42481481481481476],[0.11604166666666677,-0.4311111111111111],[0.11395833333333343,-0.45111111111111113],[0.09656250000000005,-0.5227777777777778],[0.09604166666666672,-0.542037037037037],[0.10968749999999995,-0.5064814814814815],[0.10968749999999995,-0.5064814814814815],[0.109375,-0.5087037037037037],[0.09406249999999995,-0.5383333333333333],[0.07239583333333334,-0.5375925925925926],[0.03864583333333336,-0.6018518518518519],[0.024895833333333308,-0.6012962962962963],[0.01427083333333338,-0.5896296296296296],[0.008541666666666715,-0.5748148148148148],[0.016875000000000046,-0.5551851851851852],[0.02520833333333338,-0.5355555555555556],[0.021145833333333287,-0.5494444444444444],[0.03104166666666662,-0.5255555555555556],[0.06385416666666661,-0.44351851851851853],[0.08260416666666662,-0.42000000000000004],[0.10322916666666657,-0.39666666666666667],[0.13552083333333323,-0.3442592592592592],[0.165625,-0.302962962962963],[0.1779166666666666,-0.28129629629629627],[0.1779166666666666,-0.28129629629629627],[0.18416666666666662,-0.25759259259259265],[0.1970833333333334,-0.23703703703703705],[0.2009375000000001,-0.25407407407407406],[0.20479166666666657,-0.2711111111111111],[0.19833333333333342,-0.3537037037037037]]","[[0.004375000000000047,-0.2462962962962963,0.00030000019074805095],[0.004375000000000047,-0.2462962962962963,0.049300000190740434],[0.0005208333333333333,-0.28574074074074074,0.057700000286104114],[0.01895833333333338,-0.2759259259259259,0.07450000000000045],[0.02666666666666669,-0.25,0.09530000019074691],[0.012916666666666642,-0.26425925925925925,0.11090000009536993],[0.00916666666666662,-0.28277777777777774,0.12509999990463427],[0.026145833333333358,-0.3609259259259259,0.14109999990463962],[0.043124999999999976,-0.4390740740740741,0.15780000019074691],[0.04020833333333336,-0.5183333333333333,0.1744000000953747],[0.03729166666666662,-0.5975925925925926,0.19300000000001205],[0.024895833333333308,-0.6381481481481482,0.20970000028610514],[0.0453125,-0.6364814814814814,0.22490000009537425],[0.0453125,-0.6364814814814814,0.24120000028611344],[0.03854166666666667,-0.7016666666666667,0.25770000028610696],[0.024270833333333287,-0.7653703703703704,0.27600000000001046],[0.016875000000000046,-0.7683333333333333,0.29609999990464075],[0.016875000000000046,-0.7683333333333333,0.3078000001907384],[-0.0005208333333333333,-0.767037037037037,0.32459999990463473],[-0.029999999999999954,-0.7464814814814815,0.343900000095374],[-0.05614583333333331,-0.7364814814814815,0.3614000000953723],[-0.057395833333333354,-0.6998148148148148,0.3785999999046368],[-0.057395833333333354,-0.6998148148148148,0.3912000002861049],[-0.07145833333333336,-0.6533333333333333,0.407900000095367],[-0.044479166666666715,-0.6281481481481481,0.42500000000001137],[-0.043229166666666666,-0.6081481481481481,0.4435999999046345],[-0.041979166666666616,-0.5881481481481482,0.4577000002861098],[-0.041979166666666616,-0.5881481481481482,0.47440000009537187],[-0.03125,-0.575,0.49109999990463393],[-0.03125,-0.575,0.507700000286107],[-0.03322916666666664,-0.5911111111111111,0.5245000000000033],[-0.0453125,-0.6148148148148148,0.5413000001907449],[-0.03802083333333333,-0.6487037037037037,0.5578000001907384],[-0.027083333333333334,-0.6575925925925926,0.5764000000953757],[-0.023958333333333335,-0.6890740740740741,0.5917000002861101],[-0.008020833333333382,-0.7303703703703703,0.6083000001907379],[-0.030729166666666665,-0.7501851851851852,0.6273000001907434],[-0.030729166666666665,-0.7501851851851852,0.6429000000953806],[-0.03864583333333336,-0.7574074074074074,0.6577000002861126],[-0.03864583333333336,-0.7574074074074074,0.6745999999046433],[-0.06177083333333329,-0.7822222222222222,0.6914000000953706],[-0.07989583333333337,-0.8049999999999999,0.7115000000000009],[-0.07989583333333337,-0.8049999999999999,0.7244000000953719],[-0.0655208333333333,-0.7985185185185185,0.7413000001907477],[-0.0655208333333333,-0.7985185185185185,0.757700000286107],[-0.05479166666666669,-0.7818518518518518,0.774400000095369],[-0.05479166666666669,-0.7818518518518518,0.7910999999046453],[-0.03979166666666671,-0.7761111111111112,0.8078000001907384],[-0.03979166666666671,-0.7761111111111112,0.8244000000953804],[-0.002708333333333357,-0.7511111111111112,0.8410999999046425],[-0.002708333333333357,-0.7511111111111112,0.8580000000000041],[0.03843749999999998,-0.740925925925926,0.8745000000000118],[0.03843749999999998,-0.740925925925926,0.8910999999046396],[0.05697916666666671,-0.7375925925925926,0.9078000001907469],[0.05697916666666671,-0.7375925925925926,0.9244000000953747],[0.0834374999999999,-0.7229629629629629,0.9412000002861021],[0.12895833333333329,-0.6885185185185185,0.9577000002861098],[0.17374999999999996,-0.6555555555555556,0.9777000002861058],[0.2115624999999999,-0.6192592592592592,0.9939000000953797],[0.2415625000000001,-0.5794444444444444,1.0078000001907412],[0.2790625000000001,-0.5387037037037037,1.0243000001907347],[0.31229166666666663,-0.48703703703703705,1.0427000002861035],[0.32062499999999994,-0.4690740740740741,1.0577000002861041],[0.32489583333333344,-0.43629629629629635,1.0777000002861143],[0.3484375,-0.3803703703703703,1.0944000000953764],[0.3616666666666667,-0.3359259259259259,1.1084000000953722],[0.37041666666666656,-0.31611111111111106,1.1244000000953775],[0.37041666666666656,-0.31611111111111106,1.1410999999046396],[0.39510416666666665,-0.2772222222222222,1.1577000002861126],[0.41395833333333343,-0.25018518518518523,1.1744000000953747],[0.4037499999999999,-0.23055555555555557,1.1910999999046368],[0.42302083333333323,-0.2264814814814815,1.207800000190744],[0.4354166666666667,-0.2140740740740741,1.2244000000953719],[0.4557291666666667,-0.20092592592592592,1.2417000002861158],[0.47604166666666664,-0.18777777777777774,1.257700000286107],[0.49364583333333345,-0.19814814814814816,1.274400000095369],[0.51125,-0.20851851851851855,1.2933000001907402],[0.5107291666666666,-0.1992592592592593,1.3094999999999999],[0.5102083333333333,-0.19000000000000003,1.3243000001907461],[0.5001041666666666,-0.19000000000000003,1.3410000000000082],[0.5035416666666668,-0.2064814814814815,1.3608000001907357],[0.49458333333333326,-0.1227777777777778,1.3765999999046414],[0.5017708333333334,-0.10277777777777777,1.393500000000003],[0.48760416666666656,-0.02814814814814823,1.4105000000000132],[0.47156250000000005,-0.03314814814814811,1.4248000001907428],[0.46156249999999993,-0.03092592592592601,1.4410999999046368],[0.4515625,-0.01962962962962967,1.4600999999046422],[0.44510416666666663,-0.023148148148148147,1.4745000000000061],[0.42843749999999997,-0.01648148148148144,1.491099999904634],[0.44500000000000006,0.01777777777777782,1.5092000002861141],[0.45427083333333323,0.050370370370370454,1.524400000095369],[0.4527083333333332,-0.005185185185185101,1.541000000000011],[0.42916666666666664,-0.00592592592592601,1.5577000002861041],[0.4148958333333333,-0.062037037037037036,1.5745000000000005],[0.4044791666666666,-0.023148148148148147,1.592700000286115],[0.3940624999999999,0.01574074074074074,1.6100000000000136],[0.3851041666666667,0.06351851851851843,1.6243000001907433],[0.3714583333333332,0.058333333333333334,1.6410999999046396],[0.3680208333333333,0.04296296296296305,1.6620000000000061],[0.353125,0.03481481481481473,1.6790999999046363],[0.353125,0.03481481481481473,1.6915000000000049],[0.33572916666666663,0.0257407407407407,1.7079000000953783],[0.32822916666666657,0.07074074074074083,1.7289000000953791],[0.3195833333333333,0.08074074074074078,1.744099999904634],[0.3109375,0.09074074074074075,1.7593000001907484],[0.28937499999999994,0.06814814814814807,1.774400000095369],[0.28718750000000004,0.03592592592592588,1.7913000001907449],[0.26416666666666655,-0.004629629629629629,1.8122000002861114],[0.2631249999999999,-0.02629629629629638,1.8275000000000006],[0.25270833333333326,-0.05648148148148148,1.8433000001907374],[0.23937499999999995,-0.08962962962962959,1.8577000002861155],[0.23583333333333342,-0.12018518518518514,1.8765999999046414],[0.2171875,-0.1911111111111111,1.8910999999046396],[0.21239583333333342,-0.2264814814814815,1.9077000002861126],[0.2111458333333334,-0.2683333333333333,1.9244000000953747],[0.22083333333333333,-0.2929629629629629,1.9410000000000025],[0.2211458333333333,-0.2975925925925926,1.9577000002861098],[0.24083333333333337,-0.3118518518518518,1.9779000000953744],[0.22489583333333343,-0.2890740740740741,1.9930999999046435],[0.21833333333333324,-0.2577777777777778,2.007700000286107],[0.2205208333333334,-0.2207407407407407,2.024400000095369],[0.22062499999999996,-0.17074074074074072,2.041300000190745],[0.2259375000000001,-0.13444444444444448,2.057700000286104],[0.2319791666666667,-0.09425925925925922,2.0764000000953757],[0.23447916666666657,-0.04759259259259268,2.0938000001907398],[0.22645833333333343,-0.036481481481481566,2.109700000286111],[0.21197916666666666,0.002407407407407323,2.1247000002861114],[0.209375,0.003703703703703704,2.1410000000000053],[0.2224999999999999,-0.006481481481481481,2.1577000002861126],[0.24093749999999994,-0.007962962962962878,2.1744000000953747],[0.24718749999999995,-0.025925925925925925,2.1910999999046368],[0.2555208333333333,-0.056851851851851834,2.207800000190744],[0.25927083333333345,-0.09648148148148153,2.226300000190747],[0.2616666666666667,-0.12907407407407406,2.2409999999999997],[0.27677083333333335,-0.12185185185185188,2.257700000286107],[0.2947916666666667,-0.11703703703703702,2.277000000000001],[0.3160416666666668,-0.13703703703703704,2.2938000001907426],[0.32541666666666674,-0.11944444444444445,2.309599999904634],[0.30010416666666656,-0.1242592592592593,2.3244000000953804],[0.2694791666666667,-0.13777777777777775,2.341599999904645],[0.2163541666666667,-0.14425925925925923,2.3577000002861155],[0.1632291666666667,-0.1507407407407407,2.3762000002861043],[0.11989583333333324,-0.14611111111111108,2.3933000001907345],[0.07718749999999991,-0.15240740740740744,2.4080999999046355],[0.018020833333333285,-0.207962962962963,2.428599999904634],[-0.03302083333333338,-0.20722222222222217,2.4450000000000074],[-0.09083333333333338,-0.2198148148148148,2.463000000000008],[-0.09083333333333338,-0.2198148148148148,2.477000000000004],[-0.13343750000000001,-0.23648148148148146,2.491099999904634],[-0.1373958333333333,-0.23425925925925925,2.5078000001907412],[-0.14135416666666673,-0.23203703703703707,2.5245000000000033],[-0.08885416666666662,-0.21592592592592597,2.541000000000011],[-0.036354166666666646,-0.19981481481481478,2.557700000286104],[0.020624999999999952,-0.19388888888888886,2.5744000000953804],[0.07760416666666667,-0.18796296296296297,2.5914000000953763],[0.13833333333333328,-0.17259259259259258,2.6077000002861155],[0.20020833333333338,-0.14444444444444443,2.6244000000953775],[0.25729166666666664,-0.11018518518518519,2.6410999999046396],[0.3104166666666667,-0.08518518518518518,2.6577000002861126],[0.3104166666666667,-0.08518518518518518,2.674500000000009],[0.3556250000000001,-0.044444444444444446,2.6913000001907363],[0.4041666666666667,-0.03722222222222227,2.70770000028611],[0.41854166666666665,-0.02166666666666675,2.724400000095372],[0.41854166666666665,-0.02166666666666675,2.7409999999999997],[0.43291666666666656,-0.006111111111111027,2.7578000001907412],[0.43291666666666656,-0.006111111111111027,2.774400000095369],[0.44197916666666665,0.012592592592592508,2.7912000002861106],[0.44197916666666665,0.012592592592592508,2.811300000190741],[0.42333333333333345,0.05462962962962963,2.8244000000953804],[0.42333333333333345,0.05462962962962963,2.841000000000008],[0.4078125,0.06555555555555552,2.8578000001907355],[0.4078125,0.06555555555555552,2.8777000002861115],[0.3961458333333333,0.08722222222222227,2.8910999999046396],[0.3961458333333333,0.08722222222222227,2.907800000190747],[0.3732291666666666,0.04277777777777782,2.9244000000953747],[0.3732291666666666,0.04277777777777782,2.9410999999046368],[0.3502083333333334,0.08425925925925926,2.95770000028611],[0.3453125,0.13296296296296287,2.976200000286113],[0.33708333333333323,0.21518518518518526,2.9914000000953678],[0.3290625000000001,0.2681481481481481,3.008500000000012],[0.3259375000000001,0.3138888888888889,3.024800000190737],[0.31843750000000004,0.36425925925925934,3.0412000002861106],[0.3289583333333333,0.4005555555555555,3.057700000286104],[0.32218749999999996,0.3979629629629629,3.0763000001907415],[0.3338541666666667,0.3985185185185186,3.0910999999046425],[0.3615624999999999,0.459074074074074,3.1077000002861155],[0.36354166666666665,0.44462962962962965,3.1262000002861043],[0.35395833333333326,0.4192592592592592,3.1410999999046396],[0.3625,0.36648148148148146,3.1577000002861126],[0.3619791666666667,0.2727777777777777,3.174500000000009],[0.3619791666666667,0.2727777777777777,3.1910999999046368],[0.36864583333333345,0.24092592592592596,3.20770000028611],[0.38479166666666675,0.24611111111111106,3.2245999999046404],[0.38479166666666675,0.24611111111111106,3.241099999904634],[0.40343749999999995,0.19185185185185188,3.2578000001907412],[0.43739583333333343,0.19962962962962955,3.274400000095369],[0.43739583333333343,0.19962962962962955,3.2912000002861106],[0.42864583333333334,0.12129629629629629,3.3078000001907384],[0.43093750000000003,0.052962962962963,3.32650000000001],[0.4404166666666666,-0.01722222222222214,3.341000000000008],[0.44989583333333344,-0.08740740740740739,3.359800000190745],[0.44552083333333337,-0.1381481481481482,3.37490000009538],[0.4638541666666666,-0.10037037037037035,3.3910000000000053],[0.4701041666666666,-0.11722222222222224,3.407800000190747],[0.4653125000000001,-0.1479629629629629,3.424500000000009],[0.46770833333333334,-0.12851851851851848,3.4410000000000025],[0.44812500000000005,-0.10462962962962963,3.45770000028611],[0.44729166666666675,-0.039629629629629584,3.477000000000004],[0.41687500000000005,-0.04222222222222214,3.493000000000009],[0.39385416666666656,-0.04055555555555551,3.5115000000000123],[0.3889583333333334,-0.04259259259259259,3.527700000286103],[0.3797916666666666,-0.036666666666666584,3.5427000002861035],[0.3536458333333333,-0.07092592592592595,3.5582000002861065],[0.3334374999999999,-0.07407407407407407,3.575099999904637],[0.3064583333333334,-0.0824074074074074,3.594200000286108],[0.26895833333333335,-0.10833333333333334,3.609800000190745],[0.2599999999999999,-0.09351851851851851,3.6244000000953775],[0.24333333333333323,-0.11592592592592597,3.6410999999046396],[0.2443749999999999,-0.08666666666666668,3.6577000002861126],[0.2459374999999999,-0.06314814814814819,3.6773000001907405],[0.2459374999999999,-0.06314814814814819,3.6910999999046368],[0.22937500000000005,-0.03592592592592588,3.707800000190744],[0.22937500000000005,-0.03592592592592588,3.724400000095372],[0.21885416666666657,-0.007037037037036953,3.741099999904634],[0.20083333333333328,0.07185185185185176,3.757700000286107],[0.18499999999999991,0.06999999999999991,3.774800000190737],[0.1720833333333334,0.10407407407407415,3.7938000001907426],[0.1696875000000001,0.1557407407407408,3.8108000001907385],[0.1803124999999999,0.1331481481481481,3.8244000000953804],[0.19864583333333338,0.1477777777777777,3.8410999999046425],[0.23687500000000009,0.17555555555555546,3.858000000000004],[0.23687500000000009,0.17555555555555546,3.8744000000953775],[0.27458333333333323,0.20907407407407402,3.8910999999046396],[0.30666666666666675,0.22166666666666676,3.910099999904645],[0.3256249999999999,0.24462962962962967,3.9244000000953747],[0.3554166666666667,0.2101851851851852,3.9429000000953778],[0.38135416666666655,0.230925925925926,3.9598000001907394],[0.4127083333333334,0.1977777777777777,3.977000000000004],[0.4439583333333334,0.16777777777777783,3.9928000001907407],[0.4680208333333333,0.18037037037037032,4.011099999904644],[0.49208333333333343,0.19296296296296306,4.027099999904635],[0.4887500000000001,0.18870370370370365,4.042500000000004],[0.48541666666666666,0.1844444444444445,4.057700000286104],[0.48416666666666663,0.19499999999999992,4.07670000028611],[0.4900000000000001,0.1935185185185185,4.091599999904645],[0.4943749999999999,0.22296296296296292,4.108000000000004],[0.4944791666666667,0.24685185185185177,4.124800000190746],[0.4961458333333333,0.26222222222222225,4.141000000000005],[0.4979166666666667,0.27444444444444455,4.157599999904633],[0.49729166666666674,0.27314814814814814,4.174400000095375],[0.49666666666666665,0.2718518518518518,4.19250000000001],[0.504375,0.2801851851851851,4.208099999904633],[0.5058333333333332,0.3085185185185186,4.224700000286106],[0.5058333333333332,0.3085185185185186,4.241],[0.49270833333333336,0.3566666666666667,4.257700000286107],[0.5037499999999999,0.368888888888889,4.274500000000003],[0.5097916666666668,0.36277777777777775,4.292900000095372],[0.5158333333333334,0.3566666666666667,4.307700000286104],[0.49989583333333343,0.3824074074074074,4.3245000000000005],[0.4839583333333332,0.4081481481481481,4.342400000095381],[0.45427083333333323,0.40777777777777785,4.359700000286111],[0.4154166666666666,0.4322222222222222,4.374300000190743],[0.3845833333333334,0.43425925925925923,4.396500000000003],[0.3845833333333334,0.43425925925925923,4.412000000000006],[0.35625,0.45259259259259255,4.424500000000009],[0.3519791666666668,0.45999999999999996,4.441400000095371],[0.32354166666666656,0.5033333333333333,4.462200000286103],[0.28760416666666655,0.42018518518518516,4.478099999904643],[0.28760416666666655,0.42018518518518516,4.491099999904634],[0.2516666666666666,0.337037037037037,4.507800000190741],[0.2484375,0.2566666666666667,4.525700000286108],[0.2319791666666667,0.19944444444444454,4.542599999904638],[0.20656249999999995,0.16740740740740737,4.557700000286104],[0.20656249999999995,0.16740740740740737,4.5745000000000005],[0.1678124999999999,0.13055555555555556,4.591200000286108],[0.12625000000000006,0.09944444444444453,4.6077000002861155],[0.07541666666666676,-0.010370370370370412,4.6244000000953775],[0.027604166666666666,-0.07814814814814813,4.64109999990464],[-0.027291666666666714,-0.18037037037037032,4.657700000286113],[-0.06822916666666666,-0.16870370370370374,4.675200000286111],[-0.11145833333333334,-0.13351851851851856,4.695599999904644],[-0.11145833333333334,-0.13351851851851856,4.70770000028611],[-0.15750000000000006,-0.11888888888888886,4.724500000000006],[-0.15750000000000006,-0.11888888888888886,4.741],[-0.18374999999999997,-0.14629629629629629,4.757599999904642],[-0.18374999999999997,-0.14629629629629629,4.774400000095369],[-0.20906250000000004,-0.15092592592592594,4.791099999904645],[-0.20906250000000004,-0.18185185185185182,4.812800000190748],[-0.21427083333333338,-0.19611111111111107,4.830200000286112],[-0.21427083333333338,-0.19611111111111107,4.8410999999046425],[-0.19281250000000003,-0.15796296296296297,4.8577000002861155],[-0.18041666666666673,-0.1594444444444445,4.879400000095373],[-0.18041666666666673,-0.1594444444444445,4.89109999990464],[-0.1609375,-0.1264814814814815,4.907700000286113],[-0.1609375,-0.1264814814814815,4.92430000019074],[-0.14572916666666663,-0.09148148148148144,4.941099999904637],[-0.11802083333333328,-0.08333333333333333,4.959300000190737],[-0.09718749999999995,-0.07666666666666662,4.974400000095372],[-0.0829166666666667,-0.051111111111111156,4.992700000286106],[-0.05802083333333338,-0.03944444444444436,5.009300000190748],[-0.05802083333333338,-0.03944444444444436,5.025500000000008],[-0.04802083333333336,-0.01962962962962967,5.041099999904645],[-0.03447916666666669,-0.018888888888888972,5.057599999904639],[-0.03458333333333338,-0.02814814814814823,5.074300000190746],[0.00010416666666669035,-0.04592592592592584,5.091900000095379],[0.034791666666666644,-0.06370370370370367,5.1077000002861155],[0.07989583333333337,-0.06925925925925921,5.124300000190743],[0.11479166666666671,-0.07148148148148152,5.141000000000005],[0.11479166666666671,-0.07148148148148152,5.157700000286113],[0.1493750000000001,-0.07333333333333338,5.174400000095375],[0.1881249999999999,-0.07537037037037035,5.191900000095373],[0.22687499999999997,-0.07740740740740742,5.20770000028611],[0.2873958333333334,-0.08611111111111111,5.224400000095372],[0.34375,-0.08851851851851854,5.241],[0.4001041666666666,-0.09092592592592597,5.257700000286107],[0.4147916666666667,-0.07018518518518514,5.274700000286103],[0.42947916666666663,-0.04944444444444453,5.293099999904641],[0.4214583333333332,-0.06888888888888887,5.312599999904634],[0.41343750000000007,-0.0883333333333333,5.328300000190737],[0.40822916666666675,-0.08074074074074078,5.344200000286108],[0.3988541666666668,-0.07296296296296292,5.3603000001907475],[0.40437500000000004,-0.06555555555555552,5.375099999904634],[0.4002083333333334,-0.05333333333333336,5.393800000190737],[0.38958333333333334,-0.06314814814814819,5.409800000190742],[0.38552083333333326,-0.03814814814814819,5.425099999904646],[0.3884375000000001,-0.03296296296296288,5.441599999904639],[0.3811458333333334,-0.06629629629629631,5.457800000190744],[0.3940624999999999,-0.036481481481481566,5.474400000095372],[0.4119791666666667,-0.003703703703703704,5.494700000286116],[0.4247916666666666,-0.002407407407407323,5.5079000000953755],[0.4423958333333334,0.014259259259259343,5.524400000095369],[0.44510416666666663,0.03129629629629625,5.541000000000011],[0.44385416666666655,0.06574074074074074,5.557700000286104],[0.4496875000000001,0.13499999999999995,5.574300000190746],[0.44989583333333344,0.14722222222222223,5.591000000000008],[0.4501041666666666,0.1594444444444445,5.607599999904636],[0.47020833333333345,0.2183333333333333,5.6244000000953775],[0.4865624999999999,0.2492592592592593,5.646099999904635],[0.4835416666666667,0.2975925925925927,5.660800000190747],[0.4734375,0.3651851851851853,5.676800000190738],[0.45854166666666674,0.41740740740740734,5.695599999904644],[0.45968749999999997,0.4262962962962964,5.712000000000003],[0.4647916666666667,0.4177777777777778,5.728599999904645],[0.4647916666666667,0.4177777777777778,5.741099999904634],[0.46749999999999997,0.4027777777777778,5.757700000286107],[0.46864583333333343,0.42407407407407405,5.774300000190735],[0.4638541666666666,0.45129629629629636,5.791099999904645],[0.4493750000000001,0.4703703703703704,5.807700000286104],[0.4396874999999999,0.4699999999999999,5.824300000190746],[0.4443749999999999,0.4492592592592593,5.844200000286108],[0.4404166666666666,0.4107407407407407,5.8604000000953675],[0.43645833333333334,0.37222222222222223,5.8744000000953775],[0.4184375000000001,0.35462962962962963,5.89109999990464],[0.40041666666666675,0.337037037037037,5.907700000286113],[0.38406250000000003,0.32814814814814824,5.92430000019074],[0.3766666666666666,0.24685185185185177,5.9410000000000025],[0.35822916666666677,0.27092592592592585,5.957900000095378],[0.3397916666666667,0.29499999999999993,5.974500000000006],[0.3163541666666667,0.32222222222222224,5.992599999904641],[0.2953125,0.3453703703703704,6.009700000286102],[0.28937499999999994,0.33555555555555566,6.026099999904645],[0.2955208333333334,0.32833333333333325,6.044800000190747],[0.28395833333333326,0.3651851851851853,6.0600999999046365],[0.2865624999999999,0.3816666666666667,6.075900000095373],[0.2835416666666667,0.43703703703703706,6.091900000095379],[0.2768749999999999,0.5042592592592592,6.112700000286111],[0.2834374999999999,0.41759259259259257,6.127500000000012],[0.27447916666666666,0.31851851851851853,6.1432000002861145],[0.28250000000000003,0.2572222222222222,6.159000000000006],[0.26979166666666665,0.17481481481481478,6.174500000000009],[0.25770833333333343,0.12388888888888884,6.197099999904637],[0.25770833333333343,0.12388888888888884,6.211200000286112],[0.23010416666666675,0.04666666666666675,6.224300000190738],[0.2181250000000001,-0.05277777777777778,6.241],[0.20979166666666677,-0.08518518518518518,6.257599999904642],[0.20322916666666657,-0.19185185185185188,6.2760000000000105],[0.18427083333333344,-0.23703703703703705,6.291300000190745],[0.18427083333333344,-0.23703703703703705,6.307800000190738],[0.16541666666666663,-0.2572222222222222,6.327000000000012],[0.18229166666666666,-0.24111111111111108,6.341900000095379],[0.17635416666666662,-0.24296296296296294,6.35790000009537],[0.1716666666666666,-0.22777777777777777,6.376500000000007],[0.18562500000000004,-0.23018518518518521,6.391300000190739],[0.20302083333333343,-0.2088888888888889,6.407900000095367],[0.20635416666666656,-0.18555555555555553,6.427500000000009],[0.1951041666666666,-0.17037037037037037,6.442900000095378],[0.1884375000000001,-0.122037037037037,6.457900000095378],[0.1884375000000001,-0.122037037037037,6.474400000095372],[0.17197916666666657,-0.16888888888888887,6.491099999904634],[0.18562500000000004,-0.12740740740740744,6.509],[0.1790625000000001,-0.10981481481481484,6.524300000190735],[0.16531250000000006,-0.13777777777777775,6.541000000000011],[0.16864583333333344,-0.15759259259259265,6.557700000286104],[0.16281249999999994,-0.15481481481481485,6.574300000190746],[0.15697916666666673,-0.15203703703703708,6.5910999999046425],[0.16531250000000006,-0.1507407407407407,6.6077000002861155],[0.16916666666666677,-0.2044444444444444,6.624300000190743],[0.17302083333333323,-0.2581481481481481,6.640900000095371],[0.17843749999999994,-0.21722222222222223,6.657700000286113],[0.15499999999999994,-0.2485185185185185,6.67430000019074],[0.134375,-0.2935185185185185,6.693099999904632],[0.12708333333333333,-0.30574074074074076,6.709300000190737],[0.12708333333333333,-0.30574074074074076,6.724400000095372],[0.134375,-0.3118518518518518,6.741099999904634],[0.13229166666666667,-0.29074074074074074,6.761500000000012],[0.14520833333333344,-0.3025925925925925,6.781400000095374],[0.14520833333333344,-0.3025925925925925,6.791000000000011],[0.14635416666666667,-0.3455555555555556,6.807700000286104],[0.14635416666666667,-0.3455555555555556,6.824300000190746],[0.1330208333333334,-0.3351851851851852,6.841000000000008],[0.1330208333333334,-0.3351851851851852,6.8577000002861155],[0.13572916666666662,-0.3081481481481481,6.8744000000953775],[0.13572916666666662,-0.3081481481481481,6.891000000000005],[0.14031250000000003,-0.33555555555555555,6.907700000286113],[0.15208333333333332,-0.3490740740740741,6.928200000286111],[0.16833333333333325,-0.30407407407407405,6.944000000000003],[0.16770833333333332,-0.31148148148148147,6.9575999999046445],[0.14812500000000003,-0.352962962962963,6.974300000190738],[0.12843749999999995,-0.42666666666666664,6.991700000286116],[0.10750000000000005,-0.42055555555555557,7.007700000286107],[0.1046875,-0.4137037037037037,7.024700000286103],[0.12781250000000005,-0.3785185185185185,7.041700000286113],[0.11489583333333328,-0.42481481481481476,7.059599999904634],[0.11489583333333328,-0.42481481481481476,7.074300000190746],[0.11604166666666677,-0.4311111111111111,7.091000000000008],[0.11395833333333343,-0.45111111111111113,7.109300000190743],[0.09656250000000005,-0.5227777777777778,7.124300000190743],[0.09604166666666672,-0.542037037037037,7.141200000286105],[0.10968749999999995,-0.5064814814814815,7.168599999904643],[0.10968749999999995,-0.5064814814814815,7.175099999904646],[0.109375,-0.5087037037037037,7.191099999904637],[0.09406249999999995,-0.5383333333333333,7.209700000286105],[0.07239583333333334,-0.5375925925925926,7.224400000095372],[0.03864583333333336,-0.6018518518518519,7.241099999904634],[0.024895833333333308,-0.6012962962962963,7.2594000000953685],[0.01427083333333338,-0.5896296296296296,7.277300000190735],[0.008541666666666715,-0.5748148148148148,7.293200000286106],[0.016875000000000046,-0.5551851851851852,7.307599999904639],[0.02520833333333338,-0.5355555555555556,7.324300000190746],[0.021145833333333287,-0.5494444444444444,7.341000000000008],[0.03104166666666662,-0.5255555555555556,7.3577000002861155],[0.06385416666666661,-0.44351851851851853,7.376900000095375],[0.08260416666666662,-0.42000000000000004,7.393400000095369],[0.10322916666666657,-0.39666666666666667,7.40909999990464],[0.13552083333333323,-0.3442592592592592,7.424400000095375],[0.165625,-0.302962962962963,7.441200000286102],[0.1779166666666666,-0.28129629629629627,7.45770000028611],[0.1779166666666666,-0.28129629629629627,7.474500000000006],[0.18416666666666662,-0.25759259259259265,7.491099999904634],[0.1970833333333334,-0.23703703703703705,7.509800000190737],[0.2009375000000001,-0.25407407407407406,7.524300000190735],[0.20479166666666657,-0.2711111111111111,7.543599999904643],[0.19833333333333342,-0.3537037037037037,7.56040000009537]]","[0.00030000019074805095,0.049300000190740434,0.057700000286104114,0.07450000000000045,0.09530000019074691,0.11090000009536993,0.12509999990463427,0.14109999990463962,0.15780000019074691,0.1744000000953747,0.19300000000001205,0.20970000028610514,0.22490000009537425,0.24120000028611344,0.25770000028610696,0.27600000000001046,0.29609999990464075,0.3078000001907384,0.32459999990463473,0.343900000095374,0.3614000000953723,0.3785999999046368,0.3912000002861049,0.407900000095367,0.42500000000001137,0.4435999999046345,0.4577000002861098,0.47440000009537187,0.49109999990463393,0.507700000286107,0.5245000000000033,0.5413000001907449,0.5578000001907384,0.5764000000953757,0.5917000002861101,0.6083000001907379,0.6273000001907434,0.6429000000953806,0.6577000002861126,0.6745999999046433,0.6914000000953706,0.7115000000000009,0.7244000000953719,0.7413000001907477,0.757700000286107,0.774400000095369,0.7910999999046453,0.8078000001907384,0.8244000000953804,0.8410999999046425,0.8580000000000041,0.8745000000000118,0.8910999999046396,0.9078000001907469,0.9244000000953747,0.9412000002861021,0.9577000002861098,0.9777000002861058,0.9939000000953797,1.0078000001907412,1.0243000001907347,1.0427000002861035,1.0577000002861041,1.0777000002861143,1.0944000000953764,1.1084000000953722,1.1244000000953775,1.1410999999046396,1.1577000002861126,1.1744000000953747,1.1910999999046368,1.207800000190744,1.2244000000953719,1.2417000002861158,1.257700000286107,1.274400000095369,1.2933000001907402,1.3094999999999999,1.3243000001907461,1.3410000000000082,1.3608000001907357,1.3765999999046414,1.393500000000003,1.4105000000000132,1.4248000001907428,1.4410999999046368,1.4600999999046422,1.4745000000000061,1.491099999904634,1.5092000002861141,1.524400000095369,1.541000000000011,1.5577000002861041,1.5745000000000005,1.592700000286115,1.6100000000000136,1.6243000001907433,1.6410999999046396,1.6620000000000061,1.6790999999046363,1.6915000000000049,1.7079000000953783,1.7289000000953791,1.744099999904634,1.7593000001907484,1.774400000095369,1.7913000001907449,1.8122000002861114,1.8275000000000006,1.8433000001907374,1.8577000002861155,1.8765999999046414,1.8910999999046396,1.9077000002861126,1.9244000000953747,1.9410000000000025,1.9577000002861098,1.9779000000953744,1.9930999999046435,2.007700000286107,2.024400000095369,2.041300000190745,2.057700000286104,2.0764000000953757,2.0938000001907398,2.109700000286111,2.1247000002861114,2.1410000000000053,2.1577000002861126,2.1744000000953747,2.1910999999046368,2.207800000190744,2.226300000190747,2.2409999999999997,2.257700000286107,2.277000000000001,2.2938000001907426,2.309599999904634,2.3244000000953804,2.341599999904645,2.3577000002861155,2.3762000002861043,2.3933000001907345,2.4080999999046355,2.428599999904634,2.4450000000000074,2.463000000000008,2.477000000000004,2.491099999904634,2.5078000001907412,2.5245000000000033,2.541000000000011,2.557700000286104,2.5744000000953804,2.5914000000953763,2.6077000002861155,2.6244000000953775,2.6410999999046396,2.6577000002861126,2.674500000000009,2.6913000001907363,2.70770000028611,2.724400000095372,2.7409999999999997,2.7578000001907412,2.774400000095369,2.7912000002861106,2.811300000190741,2.8244000000953804,2.841000000000008,2.8578000001907355,2.8777000002861115,2.8910999999046396,2.907800000190747,2.9244000000953747,2.9410999999046368,2.95770000028611,2.976200000286113,2.9914000000953678,3.008500000000012,3.024800000190737,3.0412000002861106,3.057700000286104,3.0763000001907415,3.0910999999046425,3.1077000002861155,3.1262000002861043,3.1410999999046396,3.1577000002861126,3.174500000000009,3.1910999999046368,3.20770000028611,3.2245999999046404,3.241099999904634,3.2578000001907412,3.274400000095369,3.2912000002861106,3.3078000001907384,3.32650000000001,3.341000000000008,3.359800000190745,3.37490000009538,3.3910000000000053,3.407800000190747,3.424500000000009,3.4410000000000025,3.45770000028611,3.477000000000004,3.493000000000009,3.5115000000000123,3.527700000286103,3.5427000002861035,3.5582000002861065,3.575099999904637,3.594200000286108,3.609800000190745,3.6244000000953775,3.6410999999046396,3.6577000002861126,3.6773000001907405,3.6910999999046368,3.707800000190744,3.724400000095372,3.741099999904634,3.757700000286107,3.774800000190737,3.7938000001907426,3.8108000001907385,3.8244000000953804,3.8410999999046425,3.858000000000004,3.8744000000953775,3.8910999999046396,3.910099999904645,3.9244000000953747,3.9429000000953778,3.9598000001907394,3.977000000000004,3.9928000001907407,4.011099999904644,4.027099999904635,4.042500000000004,4.057700000286104,4.07670000028611,4.091599999904645,4.108000000000004,4.124800000190746,4.141000000000005,4.157599999904633,4.174400000095375,4.19250000000001,4.208099999904633,4.224700000286106,4.241,4.257700000286107,4.274500000000003,4.292900000095372,4.307700000286104,4.3245000000000005,4.342400000095381,4.359700000286111,4.374300000190743,4.396500000000003,4.412000000000006,4.424500000000009,4.441400000095371,4.462200000286103,4.478099999904643,4.491099999904634,4.507800000190741,4.525700000286108,4.542599999904638,4.557700000286104,4.5745000000000005,4.591200000286108,4.6077000002861155,4.6244000000953775,4.64109999990464,4.657700000286113,4.675200000286111,4.695599999904644,4.70770000028611,4.724500000000006,4.741,4.757599999904642,4.774400000095369,4.791099999904645,4.812800000190748,4.830200000286112,4.8410999999046425,4.8577000002861155,4.879400000095373,4.89109999990464,4.907700000286113,4.92430000019074,4.941099999904637,4.959300000190737,4.974400000095372,4.992700000286106,5.009300000190748,5.025500000000008,5.041099999904645,5.057599999904639,5.074300000190746,5.091900000095379,5.1077000002861155,5.124300000190743,5.141000000000005,5.157700000286113,5.174400000095375,5.191900000095373,5.20770000028611,5.224400000095372,5.241,5.257700000286107,5.274700000286103,5.293099999904641,5.312599999904634,5.328300000190737,5.344200000286108,5.3603000001907475,5.375099999904634,5.393800000190737,5.409800000190742,5.425099999904646,5.441599999904639,5.457800000190744,5.474400000095372,5.494700000286116,5.5079000000953755,5.524400000095369,5.541000000000011,5.557700000286104,5.574300000190746,5.591000000000008,5.607599999904636,5.6244000000953775,5.646099999904635,5.660800000190747,5.676800000190738,5.695599999904644,5.712000000000003,5.728599999904645,5.741099999904634,5.757700000286107,5.774300000190735,5.791099999904645,5.807700000286104,5.824300000190746,5.844200000286108,5.8604000000953675,5.8744000000953775,5.89109999990464,5.907700000286113,5.92430000019074,5.9410000000000025,5.957900000095378,5.974500000000006,5.992599999904641,6.009700000286102,6.026099999904645,6.044800000190747,6.0600999999046365,6.075900000095373,6.091900000095379,6.112700000286111,6.127500000000012,6.1432000002861145,6.159000000000006,6.174500000000009,6.197099999904637,6.211200000286112,6.224300000190738,6.241,6.257599999904642,6.2760000000000105,6.291300000190745,6.307800000190738,6.327000000000012,6.341900000095379,6.35790000009537,6.376500000000007,6.391300000190739,6.407900000095367,6.427500000000009,6.442900000095378,6.457900000095378,6.474400000095372,6.491099999904634,6.509,6.524300000190735,6.541000000000011,6.557700000286104,6.574300000190746,6.5910999999046425,6.6077000002861155,6.624300000190743,6.640900000095371,6.657700000286113,6.67430000019074,6.693099999904632,6.709300000190737,6.724400000095372,6.741099999904634,6.761500000000012,6.781400000095374,6.791000000000011,6.807700000286104,6.824300000190746,6.841000000000008,6.8577000002861155,6.8744000000953775,6.891000000000005,6.907700000286113,6.928200000286111,6.944000000000003,6.9575999999046445,6.974300000190738,6.991700000286116,7.007700000286107,7.024700000286103,7.041700000286113,7.059599999904634,7.074300000190746,7.091000000000008,7.109300000190743,7.124300000190743,7.141200000286105,7.168599999904643,7.175099999904646,7.191099999904637,7.209700000286105,7.224400000095372,7.241099999904634,7.2594000000953685,7.277300000190735,7.293200000286106,7.307599999904639,7.324300000190746,7.341000000000008,7.3577000002861155,7.376900000095375,7.393400000095369,7.40909999990464,7.424400000095375,7.441200000286102,7.45770000028611,7.474500000000006,7.491099999904634,7.509800000190737,7.524300000190735,7.543599999904643,7.56040000009537]","[1731899072627,1731899072666,1731899072675,1731899072692,1731899072712,1731899072728,1731899072742,1731899072758,1731899072775,1731899072792,1731899072810,1731899072827,1731899072842,1731899072858,1731899072875,1731899072893,1731899072913,1731899072925,1731899072942,1731899072961,1731899072979,1731899072996,1731899073008,1731899073025,1731899073042,1731899073061,1731899073075,1731899073092,1731899073108,1731899073125,1731899073142,1731899073158,1731899073175,1731899073194,1731899073209,1731899073225,1731899073244,1731899073260,1731899073275,1731899073292,1731899073309,1731899073329,1731899073342,1731899073358,1731899073375,1731899073392,1731899073408,1731899073425,1731899073442,1731899073458,1731899073475,1731899073492,1731899073508,1731899073525,1731899073542,1731899073558,1731899073575,1731899073595,1731899073611,1731899073625,1731899073642,1731899073660,1731899073675,1731899073695,1731899073712,1731899073726,1731899073742,1731899073758,1731899073775,1731899073792,1731899073808,1731899073825,1731899073842,1731899073859,1731899073875,1731899073892,1731899073910,1731899073927,1731899073942,1731899073958,1731899073978,1731899073994,1731899074011,1731899074028,1731899074042,1731899074058,1731899074077,1731899074092,1731899074108,1731899074126,1731899074142,1731899074158,1731899074175,1731899074192,1731899074210,1731899074227,1731899074242,1731899074258,1731899074279,1731899074296,1731899074309,1731899074325,1731899074346,1731899074361,1731899074376,1731899074392,1731899074408,1731899074429,1731899074445,1731899074460,1731899074475,1731899074494,1731899074508,1731899074525,1731899074542,1731899074558,1731899074575,1731899074595,1731899074610,1731899074625,1731899074642,1731899074659,1731899074675,1731899074694,1731899074711,1731899074727,1731899074742,1731899074758,1731899074775,1731899074792,1731899074808,1731899074825,1731899074844,1731899074858,1731899074875,1731899074894,1731899074911,1731899074927,1731899074942,1731899074959,1731899074975,1731899074993,1731899075011,1731899075025,1731899075046,1731899075062,1731899075080,1731899075094,1731899075108,1731899075125,1731899075142,1731899075158,1731899075175,1731899075192,1731899075209,1731899075225,1731899075242,1731899075258,1731899075275,1731899075292,1731899075309,1731899075325,1731899075342,1731899075358,1731899075375,1731899075392,1731899075408,1731899075429,1731899075442,1731899075458,1731899075475,1731899075495,1731899075508,1731899075525,1731899075542,1731899075558,1731899075575,1731899075593,1731899075609,1731899075626,1731899075642,1731899075658,1731899075675,1731899075694,1731899075708,1731899075725,1731899075743,1731899075758,1731899075775,1731899075792,1731899075808,1731899075825,1731899075842,1731899075858,1731899075875,1731899075892,1731899075908,1731899075925,1731899075944,1731899075958,1731899075977,1731899075992,1731899076008,1731899076025,1731899076042,1731899076058,1731899076075,1731899076094,1731899076110,1731899076129,1731899076145,1731899076160,1731899076175,1731899076192,1731899076211,1731899076227,1731899076242,1731899076258,1731899076275,1731899076295,1731899076308,1731899076325,1731899076342,1731899076358,1731899076375,1731899076392,1731899076411,1731899076428,1731899076442,1731899076458,1731899076475,1731899076492,1731899076508,1731899076527,1731899076542,1731899076560,1731899076577,1731899076594,1731899076610,1731899076628,1731899076644,1731899076660,1731899076675,1731899076694,1731899076709,1731899076725,1731899076742,1731899076758,1731899076775,1731899076792,1731899076810,1731899076825,1731899076842,1731899076858,1731899076875,1731899076892,1731899076910,1731899076925,1731899076942,1731899076960,1731899076977,1731899076992,1731899077014,1731899077029,1731899077042,1731899077059,1731899077079,1731899077095,1731899077108,1731899077125,1731899077143,1731899077160,1731899077175,1731899077192,1731899077208,1731899077225,1731899077242,1731899077258,1731899077275,1731899077292,1731899077313,1731899077325,1731899077342,1731899077358,1731899077375,1731899077392,1731899077408,1731899077430,1731899077447,1731899077458,1731899077475,1731899077497,1731899077508,1731899077525,1731899077542,1731899077558,1731899077577,1731899077592,1731899077610,1731899077626,1731899077643,1731899077658,1731899077675,1731899077692,1731899077709,1731899077725,1731899077742,1731899077758,1731899077775,1731899077792,1731899077809,1731899077825,1731899077841,1731899077858,1731899077875,1731899077892,1731899077910,1731899077930,1731899077945,1731899077961,1731899077978,1731899077992,1731899078011,1731899078027,1731899078042,1731899078059,1731899078075,1731899078092,1731899078112,1731899078125,1731899078142,1731899078158,1731899078175,1731899078192,1731899078208,1731899078225,1731899078242,1731899078263,1731899078278,1731899078294,1731899078313,1731899078329,1731899078346,1731899078358,1731899078375,1731899078392,1731899078408,1731899078425,1731899078442,1731899078461,1731899078478,1731899078492,1731899078508,1731899078525,1731899078541,1731899078558,1731899078575,1731899078592,1731899078610,1731899078627,1731899078643,1731899078662,1731899078677,1731899078693,1731899078709,1731899078730,1731899078745,1731899078760,1731899078776,1731899078792,1731899078814,1731899078828,1731899078842,1731899078858,1731899078875,1731899078893,1731899078909,1731899078925,1731899078944,1731899078959,1731899078975,1731899078994,1731899079009,1731899079025,1731899079045,1731899079060,1731899079075,1731899079092,1731899079108,1731899079126,1731899079141,1731899079158,1731899079175,1731899079192,1731899079208,1731899079225,1731899079242,1731899079258,1731899079275,1731899079292,1731899079310,1731899079326,1731899079342,1731899079358,1731899079379,1731899079399,1731899079408,1731899079425,1731899079442,1731899079458,1731899079475,1731899079492,1731899079508,1731899079525,1731899079545,1731899079561,1731899079575,1731899079591,1731899079609,1731899079625,1731899079642,1731899079659,1731899079677,1731899079692,1731899079708,1731899079727,1731899079741,1731899079758,1731899079786,1731899079792,1731899079808,1731899079827,1731899079842,1731899079858,1731899079877,1731899079895,1731899079910,1731899079925,1731899079941,1731899079958,1731899079975,1731899079994,1731899080011,1731899080026,1731899080042,1731899080058,1731899080075,1731899080092,1731899080108,1731899080127,1731899080141,1731899080161,1731899080178]","[[964.2,407],[964.2,407],[960.5,385.7],[978.2,391],[985.6,405],[972.4,397.3],[968.8,387.3],[985.1,345.1],[1001.4,302.9],[998.6,260.1],[995.8,217.3],[983.9,195.4],[1003.5,196.3],[1003.5,196.3],[997,161.1],[983.3,126.7],[976.2,125.1],[976.2,125.1],[959.5,125.8],[931.2,136.9],[906.1,142.3],[904.9,162.1],[904.9,162.1],[891.4,187.2],[917.3,200.8],[918.5,211.6],[919.7,222.4],[919.7,222.4],[930,229.5],[930,229.5],[928.1,220.8],[916.5,208],[923.5,189.7],[934,184.9],[937,167.9],[952.3,145.6],[930.5,134.9],[930.5,134.9],[922.9,131],[922.9,131],[900.7,117.6],[883.3,105.3],[883.3,105.3],[897.1,108.8],[897.1,108.8],[907.4,117.8],[907.4,117.8],[921.8,120.9],[921.8,120.9],[957.4,134.4],[957.4,134.4],[996.9,139.9],[996.9,139.9],[1014.7,141.7],[1014.7,141.7],[1040.1,149.6],[1083.8,168.2],[1126.8,186],[1163.1,205.6],[1191.9,227.1],[1227.9,249.1],[1259.8,277],[1267.8,286.7],[1271.9,304.4],[1294.5,334.6],[1307.2,358.6],[1315.6,369.3],[1315.6,369.3],[1339.3,390.3],[1357.4,404.9],[1347.6,415.5],[1366.1,417.7],[1378,424.4],[1397.5,431.5],[1417,438.6],[1433.9,433],[1450.8,427.4],[1450.3,432.4],[1449.8,437.4],[1440.1,437.4],[1443.4,428.5],[1434.8,473.7],[1441.7,484.5],[1428.1,524.8],[1412.7,522.1],[1403.1,523.3],[1393.5,529.4],[1387.3,527.5],[1371.3,531.1],[1387.2,549.6],[1396.1,567.2],[1394.6,537.2],[1372,536.8],[1358.3,506.5],[1348.3,527.5],[1338.3,548.5],[1329.7,574.3],[1316.6,571.5],[1313.3,563.2],[1299,558.8],[1299,558.8],[1282.3,553.9],[1275.1,578.2],[1266.8,583.6],[1258.5,589],[1237.8,576.8],[1235.7,559.4],[1213.6,537.5],[1212.6,525.8],[1202.6,509.5],[1189.8,491.6],[1186.4,475.1],[1168.5,436.8],[1163.9,417.7],[1162.7,395.1],[1172,381.8],[1172.3,379.3],[1191.2,371.6],[1175.9,383.9],[1169.6,400.8],[1171.7,420.8],[1171.8,447.8],[1176.9,467.4],[1182.7,489.1],[1185.1,514.3],[1177.4,520.3],[1163.5,541.3],[1161,542],[1173.6,536.5],[1191.3,535.7],[1197.3,526],[1205.3,509.3],[1208.9,487.9],[1211.2,470.3],[1225.7,474.2],[1243,476.8],[1263.4,466],[1272.4,475.5],[1248.1,472.9],[1218.7,465.6],[1167.7,462.1],[1116.7,458.6],[1075.1,461.1],[1034.1,457.7],[977.3,427.7],[928.3,428.1],[872.8,421.3],[872.8,421.3],[831.9,412.3],[828.1,413.5],[824.3,414.7],[874.7,423.4],[925.1,432.1],[979.8,435.3],[1034.5,438.5],[1092.8,446.8],[1152.2,462],[1207,480.5],[1258,494],[1258,494],[1301.4,516],[1348,519.9],[1361.8,528.3],[1361.8,528.3],[1375.6,536.7],[1375.6,536.7],[1384.3,546.8],[1384.3,546.8],[1366.4,569.5],[1366.4,569.5],[1351.5,575.4],[1351.5,575.4],[1340.3,587.1],[1340.3,587.1],[1318.3,563.1],[1318.3,563.1],[1296.2,585.5],[1291.5,611.8],[1283.6,656.2],[1275.9,684.8],[1272.9,709.5],[1265.7,736.7],[1275.8,756.3],[1269.3,754.9],[1280.5,755.2],[1307.1,787.9],[1309,780.1],[1299.8,766.4],[1308,737.9],[1307.5,687.3],[1307.5,687.3],[1313.9,670.1],[1329.4,672.9],[1329.4,672.9],[1347.3,643.6],[1379.9,647.8],[1379.9,647.8],[1371.5,605.5],[1373.7,568.6],[1382.8,530.7],[1391.9,492.8],[1387.7,465.4],[1405.3,485.8],[1411.3,476.7],[1406.7,460.1],[1409,470.6],[1390.2,483.5],[1389.4,518.6],[1360.2,517.2],[1338.1,518.1],[1333.4,517],[1324.6,520.2],[1299.5,501.7],[1280.1,500],[1254.2,495.5],[1218.2,481.5],[1209.6,489.5],[1193.6,477.4],[1194.6,493.2],[1196.1,505.9],[1196.1,505.9],[1180.2,520.6],[1180.2,520.6],[1170.1,536.2],[1152.8,578.8],[1137.6,577.8],[1125.2,596.2],[1122.9,624.1],[1133.1,611.9],[1150.7,619.8],[1187.4,634.8],[1187.4,634.8],[1223.6,652.9],[1254.4,659.7],[1272.6,672.1],[1301.2,653.5],[1326.1,664.7],[1356.2,646.8],[1386.2,630.6],[1409.3,637.4],[1432.4,644.2],[1429.2,641.9],[1426,639.6],[1424.8,645.3],[1430.4,644.5],[1434.6,660.4],[1434.7,673.3],[1436.3,681.6],[1438,688.2],[1437.4,687.5],[1436.8,686.8],[1444.2,691.3],[1445.6,706.6],[1445.6,706.6],[1433,732.6],[1443.6,739.2],[1449.4,735.9],[1455.2,732.6],[1439.9,746.5],[1424.6,760.4],[1396.1,760.2],[1358.8,773.4],[1329.2,774.5],[1329.2,774.5],[1302,784.4],[1297.9,788.4],[1270.6,811.8],[1236.1,766.9],[1236.1,766.9],[1201.6,722],[1198.5,678.6],[1182.7,647.7],[1158.3,630.4],[1158.3,630.4],[1121.1,610.5],[1081.2,593.7],[1032.4,534.4],[986.5,497.8],[933.8,442.6],[894.5,448.9],[853,467.9],[853,467.9],[808.8,475.8],[808.8,475.8],[783.6,461],[783.6,461],[759.3,458.5],[759.3,441.8],[754.3,434.1],[754.3,434.1],[774.9,454.7],[786.8,453.9],[786.8,453.9],[805.5,471.7],[805.5,471.7],[820.1,490.6],[846.7,495],[866.7,498.6],[880.4,512.4],[904.3,518.7],[904.3,518.7],[913.9,529.4],[926.9,529.8],[926.8,524.8],[960.1,515.2],[993.4,505.6],[1036.7,502.6],[1070.2,501.4],[1070.2,501.4],[1103.4,500.4],[1140.6,499.3],[1177.8,498.2],[1235.9,493.5],[1290,492.2],[1344.1,490.9],[1358.2,502.1],[1372.3,513.3],[1364.6,502.8],[1356.9,492.3],[1351.9,496.4],[1342.9,500.6],[1348.2,504.6],[1344.2,511.2],[1334,505.9],[1330.1,519.4],[1332.9,522.2],[1325.9,504.2],[1338.3,520.3],[1355.5,538],[1367.8,538.7],[1384.7,547.7],[1387.3,556.9],[1386.1,575.5],[1391.7,612.9],[1391.9,619.5],[1392.1,626.1],[1411.4,657.9],[1427.1,674.6],[1424.2,700.7],[1414.5,737.2],[1400.2,765.4],[1401.3,770.2],[1406.2,765.6],[1406.2,765.6],[1408.8,757.5],[1409.9,769],[1405.3,783.7],[1391.4,794],[1382.1,793.8],[1386.6,782.6],[1382.8,761.8],[1379,741],[1361.7,731.5],[1344.4,722],[1328.7,717.2],[1321.6,673.3],[1303.9,686.3],[1286.2,699.3],[1263.7,714],[1243.5,726.5],[1237.8,721.2],[1243.7,717.3],[1232.6,737.2],[1235.1,746.1],[1232.2,776],[1225.8,812.3],[1232.1,765.5],[1223.5,712],[1231.2,678.9],[1219,634.4],[1207.4,606.9],[1207.4,606.9],[1180.9,565.2],[1169.4,511.5],[1161.4,494],[1155.1,436.4],[1136.9,412],[1136.9,412],[1118.8,401.1],[1135,409.8],[1129.3,408.8],[1124.8,417],[1138.2,415.7],[1154.9,427.2],[1158.1,439.8],[1147.3,448],[1140.9,474.1],[1140.9,474.1],[1125.1,448.8],[1138.2,471.2],[1131.9,480.7],[1118.7,465.6],[1121.9,454.9],[1116.3,456.4],[1110.7,457.9],[1118.7,458.6],[1122.4,429.6],[1126.1,400.6],[1131.3,422.7],[1108.8,405.8],[1089,381.5],[1082,374.9],[1082,374.9],[1089,371.6],[1087,383],[1099.4,376.6],[1099.4,376.6],[1100.5,353.4],[1100.5,353.4],[1087.7,359],[1087.7,359],[1090.3,373.6],[1090.3,373.6],[1094.7,358.8],[1106,351.5],[1121.6,375.8],[1121,371.8],[1102.2,349.4],[1083.3,309.6],[1063.2,312.9],[1060.5,316.6],[1082.7,335.6],[1070.3,310.6],[1070.3,310.6],[1071.4,307.2],[1069.4,296.4],[1052.7,257.7],[1052.2,247.3],[1065.3,266.5],[1065.3,266.5],[1065,265.3],[1050.3,249.3],[1029.5,249.7],[997.1,215],[983.9,215.3],[973.7,221.6],[968.2,229.6],[976.2,240.2],[984.2,250.8],[980.3,243.3],[989.8,256.2],[1021.3,300.5],[1039.3,313.2],[1059.1,325.8],[1090.1,354.1],[1119,376.4],[1130.8,388.1],[1130.8,388.1],[1136.8,400.9],[1149.2,412],[1152.9,402.8],[1156.6,393.6],[1150.4,349]]","[-0.132282,0.39684600000000003]","[0.132282,0.39684600000000003]","[0.39684600000000003,0.39684600000000003]","[-0.39684600000000003,-0.39684600000000003]","[-0.39684600000000003,-0.132282]","[-0.39684600000000003,0.132282]","[-0.132282,-0.39684600000000003]","[0.132282,-0.39684600000000003]","[0.39684600000000003,-0.39684600000000003]","[-0.132282,-0.132282]","[0.132282,-0.132282]","[0.39684600000000003,-0.132282]","[-0.132282,0.132282]","[0.132282,0.132282]","[0.39684600000000003,0.132282]",0,0,0,0,1,3,Tablet,25,40,9,1,50,4,1,60,5
