inst1_resp.keys,inst1_resp.rt,calibrationMouse.x,calibrationMouse.y,calibrationMouse.leftButton,calibrationMouse.midButton,calibrationMouse.rightButton,calibrationClick.x,calibrationClick.y,calibrationClick.leftButton,calibrationClick.midButton,calibrationClick.rightButton,trialsc.thisRepN,trialsc.thisTrialN,trialsc.thisN,trialsc.thisIndex,trialsc.ran,calibration_x,calibration_y,participant,session,date,expName,psychopyVersion,OS,frameRate,calibrationClick.clicked_name,ScreenRes_pixels,Camera_pixels,mouse_2.x,mouse_2.y,mouse_2.leftButton,mouse_2.midButton,mouse_2.rightButton,mouse_2.time,mouse_2.clicked_name,mouse.x,mouse.y,mouse.leftButton,mouse.midButton,mouse.rightButton,mouse.time,mouse.clicked_name,Choice,Trial,TrialDuration,MOUSE_GAZE,ET_GAZE,ET_GAZE_x_T,time,unixTime,ET_GAZE_NF,Loc_Bus_label,Loc_Metro_label,Loc_RH_label,Loc_Cost_label,Loc_Travel_label,Loc_Comfort_label,Loc_Bus_cost,Loc_Metro_cost,Loc_RH_cost,Loc_Bus_travel,Loc_Metro_travel,Loc_RH_travel,Loc_Bus_comfort,Loc_Metro_comfort,Loc_RH_comfort,trials.thisRepN,trials.thisTrialN,trials.thisN,trials.thisIndex,trials.ran,Block,Device,RH_cost,RH_travel_time,RH_Comfort,metro_cost,metro_travel_time,metro_Comfort,Bus_cost,Bus_travel_time,Bus_Comfort
space,2.8823,-0.048958333,0.394444444,1,0,0,-0.677083333,-0.655555556,1,0,0,0,0,0,0,1,-0.67,-0.67,30,001,2024-11-26_10h12.04.550,Attention_exp_legacy,2023.1.0,Win32,60.24096386,,,,,,,,,,,,,,,,,,,,,,,,,,,,,,,,,,,,,,,,,,,,,,,,,,,,,,,,,
,,,,,,,0.319791667,-0.624074074,1,0,0,0,1,1,14,1,0.33,-0.67,30,001,2024-11-26_10h12.04.550,Attention_exp_legacy,2023.1.0,Win32,60.24096386,,,,,,,,,,,,,,,,,,,,,,,,,,,,,,,,,,,,,,,,,,,,,,,,,,,,,,,,,
,,,,,,,-0.003125,-0.677777778,1,0,0,0,2,2,9,1,0,-0.67,30,001,2024-11-26_10h12.04.550,Attention_exp_legacy,2023.1.0,Win32,60.24096386,calibration_square,,,,,,,,,,,,,,,,,,,,,,,,,,,,,,,,,,,,,,,,,,,,,,,,,,,,,,,,
,,,,,,,0.011458333,-0.005555556,1,0,0,0,3,3,11,1,0,0,30,001,2024-11-26_10h12.04.550,Attention_exp_legacy,2023.1.0,Win32,60.24096386,,,,,,,,,,,,,,,,,,,,,,,,,,,,,,,,,,,,,,,,,,,,,,,,,,,,,,,,,
,,,,,,,-0.329166667,-0.325925926,1,0,0,0,4,4,5,1,-0.33,-0.33,30,001,2024-11-26_10h12.04.550,Attention_exp_legacy,2023.1.0,Win32,60.24096386,calibration_square,,,,,,,,,,,,,,,,,,,,,,,,,,,,,,,,,,,,,,,,,,,,,,,,,,,,,,,,
,,,,,,,-0.666666667,0.337037037,1,0,0,0,5,5,3,1,-0.67,0.33,30,001,2024-11-26_10h12.04.550,Attention_exp_legacy,2023.1.0,Win32,60.24096386,calibration_square,,,,,,,,,,,,,,,,,,,,,,,,,,,,,,,,,,,,,,,,,,,,,,,,,,,,,,,,
,,,,,,,-0.3375,0.685185185,1,0,0,0,6,6,8,1,-0.33,0.67,30,001,2024-11-26_10h12.04.550,Attention_exp_legacy,2023.1.0,Win32,60.24096386,,,,,,,,,,,,,,,,,,,,,,,,,,,,,,,,,,,,,,,,,,,,,,,,,,,,,,,,,
,,,,,,,0.323958333,-0.314814815,1,0,0,0,7,7,15,1,0.33,-0.33,30,001,2024-11-26_10h12.04.550,Attention_exp_legacy,2023.1.0,Win32,60.24096386,,,,,,,,,,,,,,,,,,,,,,,,,,,,,,,,,,,,,,,,,,,,,,,,,,,,,,,,,
,,,,,,,0.327083333,0.342592593,1,0,0,0,8,8,17,1,0.33,0.33,30,001,2024-11-26_10h12.04.550,Attention_exp_legacy,2023.1.0,Win32,60.24096386,,,,,,,,,,,,,,,,,,,,,,,,,,,,,,,,,,,,,,,,,,,,,,,,,,,,,,,,,
,,,,,,,-0.338541667,-0.664814815,1,0,0,0,9,9,4,1,-0.33,-0.67,30,001,2024-11-26_10h12.04.550,Attention_exp_legacy,2023.1.0,Win32,60.24096386,calibration_square,,,,,,,,,,,,,,,,,,,,,,,,,,,,,,,,,,,,,,,,,,,,,,,,,,,,,,,,
,,,,,,,-0.33125,0.312962963,1,0,0,0,10,10,7,1,-0.33,0.33,30,001,2024-11-26_10h12.04.550,Attention_exp_legacy,2023.1.0,Win32,60.24096386,,,,,,,,,,,,,,,,,,,,,,,,,,,,,,,,,,,,,,,,,,,,,,,,,,,,,,,,,
,,,,,,,0.321875,0.011111111,1,0,0,0,11,11,16,1,0.33,0,30,001,2024-11-26_10h12.04.550,Attention_exp_legacy,2023.1.0,Win32,60.24096386,,,,,,,,,,,,,,,,,,,,,,,,,,,,,,,,,,,,,,,,,,,,,,,,,,,,,,,,,
,,,,,,,-0.005208333,0.666666667,1,0,0,0,12,12,13,1,0,0.67,30,001,2024-11-26_10h12.04.550,Attention_exp_legacy,2023.1.0,Win32,60.24096386,calibration_square,,,,,,,,,,,,,,,,,,,,,,,,,,,,,,,,,,,,,,,,,,,,,,,,,,,,,,,,
,,,,,,,-0.657291667,0.007407407,1,0,0,0,13,13,2,1,-0.67,0,30,001,2024-11-26_10h12.04.550,Attention_exp_legacy,2023.1.0,Win32,60.24096386,,,,,,,,,,,,,,,,,,,,,,,,,,,,,,,,,,,,,,,,,,,,,,,,,,,,,,,,,
,,,,,,,-0.669791667,-0.333333333,1,0,0,0,14,14,1,1,-0.67,-0.33,30,001,2024-11-26_10h12.04.550,Attention_exp_legacy,2023.1.0,Win32,60.24096386,calibration_square,,,,,,,,,,,,,,,,,,,,,,,,,,,,,,,,,,,,,,,,,,,,,,,,,,,,,,,,
,,,,,,,-0.009375,0.346296296,1,0,0,0,15,15,12,1,0,0.33,30,001,2024-11-26_10h12.04.550,Attention_exp_legacy,2023.1.0,Win32,60.24096386,,,,,,,,,,,,,,,,,,,,,,,,,,,,,,,,,,,,,,,,,,,,,,,,,,,,,,,,,
,,,,,,,0.327083333,0.683333333,1,0,0,0,16,16,18,1,0.33,0.67,30,001,2024-11-26_10h12.04.550,Attention_exp_legacy,2023.1.0,Win32,60.24096386,,,,,,,,,,,,,,,,,,,,,,,,,,,,,,,,,,,,,,,,,,,,,,,,,,,,,,,,,
,,,,,,,-0.002083333,-0.331481481,1,0,0,0,17,17,10,1,0,-0.33,30,001,2024-11-26_10h12.04.550,Attention_exp_legacy,2023.1.0,Win32,60.24096386,calibration_square,,,,,,,,,,,,,,,,,,,,,,,,,,,,,,,,,,,,,,,,,,,,,,,,,,,,,,,,
,,,,,,,0.665625,-0.661111111,1,0,0,0,18,18,20,1,0.67,-0.67,30,001,2024-11-26_10h12.04.550,Attention_exp_legacy,2023.1.0,Win32,60.24096386,calibration_square,,,,,,,,,,,,,,,,,,,,,,,,,,,,,,,,,,,,,,,,,,,,,,,,,,,,,,,,
,,,,,,,0.659375,0.677777778,1,0,0,0,19,19,19,1,0.67,0.67,30,001,2024-11-26_10h12.04.550,Attention_exp_legacy,2023.1.0,Win32,60.24096386,,,,,,,,,,,,,,,,,,,,,,,,,,,,,,,,,,,,,,,,,,,,,,,,,,,,,,,,,
,,,,,,,-0.319791667,0.001851852,1,0,0,0,20,20,6,1,-0.33,0,30,001,2024-11-26_10h12.04.550,Attention_exp_legacy,2023.1.0,Win32,60.24096386,,,,,,,,,,,,,,,,,,,,,,,,,,,,,,,,,,,,,,,,,,,,,,,,,,,,,,,,,
,,,,,,,,,,,,,,,,,,,30,001,2024-11-26_10h12.04.550,Attention_exp_legacy,2023.1.0,Win32,60.24096386,,"[1920,1080]","[640,480]",[-0.06458333333333334],[-0.5],[1],[0],[0],[6.6122000000029715],"[""StartButton""]",[-0.06770833333333333],[0.18333333333333332],[1],[0],[0],[5.682400000005956],"[""Bus_label""]",Bus_label,1,6.6942,"[[-0.06458333333333334,-0.5],[-0.06458333333333334,-0.5],[-0.06458333333333334,-0.5],[-0.06458333333333334,-0.5],[-0.065625,-0.5018518518518519],[-0.06666666666666667,-0.5018518518518519],[-0.06666666666666667,-0.5018518518518519],[-0.06666666666666667,-0.5018518518518519],[-0.06666666666666667,-0.5018518518518519],[-0.06666666666666667,-0.5018518518518519],[-0.06666666666666667,-0.5018518518518519],[-0.06666666666666667,-0.5018518518518519],[-0.06666666666666667,-0.5018518518518519],[-0.06666666666666667,-0.5018518518518519],[-0.06666666666666667,-0.5018518518518519],[-0.06666666666666667,-0.5018518518518519],[-0.06666666666666667,-0.5018518518518519],[-0.06666666666666667,-0.5018518518518519],[-0.06666666666666667,-0.5018518518518519],[-0.06666666666666667,-0.5018518518518519],[-0.06666666666666667,-0.5018518518518519],[-0.06666666666666667,-0.5018518518518519],[-0.06666666666666667,-0.5018518518518519],[-0.06666666666666667,-0.5018518518518519],[-0.06666666666666667,-0.5018518518518519],[-0.06666666666666667,-0.5018518518518519],[-0.06666666666666667,-0.5018518518518519],[-0.06666666666666667,-0.5018518518518519],[-0.06666666666666667,-0.5018518518518519],[-0.06666666666666667,-0.5018518518518519],[-0.06666666666666667,-0.5018518518518519],[-0.06666666666666667,-0.5018518518518519],[-0.06666666666666667,-0.5018518518518519],[-0.06666666666666667,-0.5018518518518519],[-0.06666666666666667,-0.5018518518518519],[-0.06666666666666667,-0.5018518518518519],[-0.06666666666666667,-0.5018518518518519],[-0.06666666666666667,-0.5018518518518519],[-0.06666666666666667,-0.5018518518518519],[-0.06666666666666667,-0.5018518518518519],[-0.06666666666666667,-0.5018518518518519],[-0.06666666666666667,-0.5018518518518519],[-0.06666666666666667,-0.5018518518518519],[-0.06666666666666667,-0.5018518518518519],[-0.06666666666666667,-0.5018518518518519],[-0.06666666666666667,-0.5018518518518519],[-0.06666666666666667,-0.5018518518518519],[-0.06666666666666667,-0.5018518518518519],[-0.06666666666666667,-0.5018518518518519],[-0.06666666666666667,-0.5018518518518519],[-0.06666666666666667,-0.5018518518518519],[-0.06666666666666667,-0.5018518518518519],[-0.06666666666666667,-0.5018518518518519],[-0.06666666666666667,-0.5018518518518519],[-0.06666666666666667,-0.5018518518518519],[-0.06666666666666667,-0.5018518518518519],[-0.06666666666666667,-0.5018518518518519],[-0.06666666666666667,-0.5018518518518519],[-0.06666666666666667,-0.5018518518518519],[-0.06666666666666667,-0.5018518518518519],[-0.06666666666666667,-0.5018518518518519],[-0.06666666666666667,-0.5018518518518519],[-0.06666666666666667,-0.5018518518518519],[-0.06666666666666667,-0.5018518518518519],[-0.06666666666666667,-0.5018518518518519],[-0.06666666666666667,-0.5018518518518519],[-0.06666666666666667,-0.4962962962962963],[-0.065625,-0.4925925925925926],[-0.06354166666666666,-0.48703703703703705],[-0.0625,-0.48333333333333334],[-0.06145833333333333,-0.4777777777777778],[-0.059375,-0.4703703703703704],[-0.058333333333333334,-0.4648148148148148],[-0.058333333333333334,-0.45925925925925926],[-0.057291666666666664,-0.4537037037037037],[-0.057291666666666664,-0.44814814814814813],[-0.05625,-0.4444444444444444],[-0.05520833333333333,-0.44074074074074077],[-0.05520833333333333,-0.43703703703703706],[-0.05520833333333333,-0.4351851851851852],[-0.05520833333333333,-0.43148148148148147],[-0.05520833333333333,-0.42962962962962964],[-0.05416666666666667,-0.42592592592592593],[-0.052083333333333336,-0.4185185185185185],[-0.051041666666666666,-0.412962962962963],[-0.04895833333333333,-0.40555555555555556],[-0.04791666666666667,-0.3925925925925926],[-0.046875,-0.3907407407407407],[-0.04375,-0.38333333333333336],[-0.040625,-0.3685185185185185],[-0.03854166666666667,-0.3537037037037037],[-0.034375,-0.3388888888888889],[-0.03125,-0.32407407407407407],[-0.029166666666666667,-0.3074074074074074],[-0.027083333333333334,-0.29074074074074074],[-0.025,-0.2722222222222222],[-0.022916666666666665,-0.2537037037037037],[-0.021875,-0.23333333333333334],[-0.019791666666666666,-0.21481481481481482],[-0.01875,-0.2037037037037037],[-0.017708333333333333,-0.2],[-0.016666666666666666,-0.1962962962962963],[-0.016666666666666666,-0.19444444444444445],[-0.016666666666666666,-0.19444444444444445],[-0.016666666666666666,-0.19444444444444445],[-0.016666666666666666,-0.19444444444444445],[-0.016666666666666666,-0.19444444444444445],[-0.016666666666666666,-0.19444444444444445],[-0.016666666666666666,-0.19444444444444445],[-0.016666666666666666,-0.19444444444444445],[-0.017708333333333333,-0.19074074074074074],[-0.019791666666666666,-0.19074074074074074],[-0.021875,-0.19074074074074074],[-0.027083333333333334,-0.19074074074074074],[-0.03125,-0.19074074074074074],[-0.034375,-0.19074074074074074],[-0.035416666666666666,-0.19074074074074074],[-0.03854166666666667,-0.19074074074074074],[-0.040625,-0.19074074074074074],[-0.041666666666666664,-0.19074074074074074],[-0.04479166666666667,-0.1925925925925926],[-0.04479166666666667,-0.1925925925925926],[-0.04479166666666667,-0.1925925925925926],[-0.04479166666666667,-0.1925925925925926],[-0.04479166666666667,-0.1925925925925926],[-0.04479166666666667,-0.1925925925925926],[-0.04479166666666667,-0.1925925925925926],[-0.04479166666666667,-0.1925925925925926],[-0.04479166666666667,-0.1925925925925926],[-0.04479166666666667,-0.1925925925925926],[-0.04479166666666667,-0.1925925925925926],[-0.04479166666666667,-0.1925925925925926],[-0.041666666666666664,-0.1925925925925926],[-0.0375,-0.18518518518518517],[-0.036458333333333336,-0.1814814814814815],[-0.03333333333333333,-0.16666666666666666],[-0.03333333333333333,-0.15925925925925927],[-0.03333333333333333,-0.14074074074074075],[-0.03333333333333333,-0.13333333333333333],[-0.03333333333333333,-0.12407407407407407],[-0.03333333333333333,-0.11851851851851852],[-0.034375,-0.11296296296296296],[-0.034375,-0.10925925925925926],[-0.036458333333333336,-0.1037037037037037],[-0.0375,-0.10185185185185185],[-0.0375,-0.09814814814814815],[-0.0375,-0.0962962962962963],[-0.03958333333333333,-0.08888888888888889],[-0.041666666666666664,-0.07962962962962963],[-0.04583333333333333,-0.06851851851851852],[-0.04791666666666667,-0.05740740740740741],[-0.05,-0.05],[-0.052083333333333336,-0.046296296296296294],[-0.053125,-0.04259259259259259],[-0.053125,-0.04259259259259259],[-0.053125,-0.03888888888888889],[-0.053125,-0.03888888888888889],[-0.05520833333333333,-0.03518518518518519],[-0.05520833333333333,-0.03333333333333333],[-0.05520833333333333,-0.02962962962962963],[-0.05520833333333333,-0.027777777777777776],[-0.05520833333333333,-0.020370370370370372],[-0.057291666666666664,-0.014814814814814815],[-0.057291666666666664,-0.009259259259259259],[-0.057291666666666664,-0.001851851851851852],[-0.058333333333333334,0.001851851851851852],[-0.059375,0.009259259259259259],[-0.059375,0.012962962962962963],[-0.06041666666666667,0.016666666666666666],[-0.06145833333333333,0.022222222222222223],[-0.0625,0.025925925925925925],[-0.0625,0.02962962962962963],[-0.06354166666666666,0.03518518518518519],[-0.065625,0.04259259259259259],[-0.06666666666666667,0.04259259259259259],[-0.06666666666666667,0.046296296296296294],[-0.06666666666666667,0.04814814814814815],[-0.06666666666666667,0.04814814814814815],[-0.06666666666666667,0.04814814814814815],[-0.06666666666666667,0.04814814814814815],[-0.06666666666666667,0.04814814814814815],[-0.06666666666666667,0.04814814814814815],[-0.06666666666666667,0.04814814814814815],[-0.06666666666666667,0.04814814814814815],[-0.06666666666666667,0.04814814814814815],[-0.06666666666666667,0.04814814814814815],[-0.06666666666666667,0.04814814814814815],[-0.06666666666666667,0.04814814814814815],[-0.06666666666666667,0.04814814814814815],[-0.06666666666666667,0.05185185185185185],[-0.06354166666666666,0.05555555555555555],[-0.058333333333333334,0.06111111111111111],[-0.052083333333333336,0.06111111111111111],[-0.04375,0.06666666666666667],[-0.03958333333333333,0.06851851851851852],[-0.036458333333333336,0.06851851851851852],[-0.034375,0.07037037037037037],[-0.034375,0.07037037037037037],[-0.03125,0.07222222222222222],[-0.027083333333333334,0.07407407407407407],[-0.021875,0.07592592592592592],[-0.014583333333333334,0.07777777777777778],[-0.00625,0.07962962962962963],[0.003125,0.08148148148148149],[0.010416666666666666,0.08518518518518518],[0.016666666666666666,0.08888888888888889],[0.023958333333333335,0.09259259259259259],[0.026041666666666668,0.09444444444444444],[0.027083333333333334,0.0962962962962963],[0.030208333333333334,0.09814814814814815],[0.03229166666666667,0.09814814814814815],[0.034375,0.10185185185185185],[0.034375,0.10185185185185185],[0.035416666666666666,0.10185185185185185],[0.0375,0.1037037037037037],[0.0375,0.1037037037037037],[0.0375,0.1037037037037037],[0.0375,0.1037037037037037],[0.0375,0.1037037037037037],[0.0375,0.1037037037037037],[0.0375,0.1037037037037037],[0.0375,0.1037037037037037],[0.0375,0.1037037037037037],[0.0375,0.1037037037037037],[0.0375,0.1037037037037037],[0.0375,0.1037037037037037],[0.0375,0.1037037037037037],[0.0375,0.10185185185185185],[0.0375,0.1],[0.0375,0.09814814814814815],[0.0375,0.0962962962962963],[0.03854166666666667,0.09444444444444444],[0.03854166666666667,0.09444444444444444],[0.03958333333333333,0.09259259259259259],[0.040625,0.09074074074074075],[0.040625,0.09074074074074075],[0.041666666666666664,0.09074074074074075],[0.04375,0.09074074074074075],[0.04479166666666667,0.09074074074074075],[0.04791666666666667,0.08888888888888889],[0.04791666666666667,0.08888888888888889],[0.04791666666666667,0.08703703703703704],[0.04895833333333333,0.08703703703703704],[0.051041666666666666,0.08518518518518518],[0.051041666666666666,0.08518518518518518],[0.052083333333333336,0.08333333333333333],[0.053125,0.07777777777777778],[0.053125,0.07037037037037037],[0.053125,0.05925925925925926],[0.053125,0.05185185185185185],[0.053125,0.03888888888888889],[0.053125,0.03333333333333333],[0.053125,0.027777777777777776],[0.053125,0.024074074074074074],[0.053125,0.020370370370370372],[0.052083333333333336,0.016666666666666666],[0.052083333333333336,0.012962962962962963],[0.052083333333333336,0.009259259259259259],[0.052083333333333336,0.005555555555555556],[0.052083333333333336,0.003703703703703704],[0.051041666666666666,0.001851851851851852],[0.051041666666666666,0],[0.05,-0.001851851851851852],[0.04895833333333333,-0.005555555555555556],[0.04895833333333333,-0.005555555555555556],[0.04895833333333333,-0.007407407407407408],[0.04895833333333333,-0.007407407407407408],[0.04791666666666667,-0.011111111111111112],[0.04791666666666667,-0.012962962962962963],[0.04791666666666667,-0.012962962962962963],[0.04791666666666667,-0.014814814814814815],[0.04791666666666667,-0.016666666666666666],[0.04791666666666667,-0.018518518518518517],[0.04791666666666667,-0.018518518518518517],[0.04791666666666667,-0.018518518518518517],[0.04791666666666667,-0.020370370370370372],[0.04791666666666667,-0.022222222222222223],[0.04791666666666667,-0.022222222222222223],[0.04791666666666667,-0.022222222222222223],[0.04791666666666667,-0.022222222222222223],[0.04791666666666667,-0.022222222222222223],[0.04791666666666667,-0.022222222222222223],[0.04791666666666667,-0.022222222222222223],[0.04791666666666667,-0.022222222222222223],[0.04791666666666667,-0.024074074074074074],[0.04895833333333333,-0.024074074074074074],[0.04895833333333333,-0.009259259259259259],[0.04895833333333333,0.007407407407407408],[0.04583333333333333,0.02962962962962963],[0.0375,0.053703703703703705],[0.029166666666666667,0.07592592592592592],[0.016666666666666666,0.1],[0.005208333333333333,0.1111111111111111],[-0.014583333333333334,0.13703703703703704],[-0.026041666666666668,0.14814814814814814],[-0.03854166666666667,0.16296296296296298],[-0.042708333333333334,0.17037037037037037],[-0.04479166666666667,0.17037037037037037],[-0.046875,0.17407407407407408],[-0.04895833333333333,0.17592592592592593],[-0.051041666666666666,0.17592592592592593],[-0.05416666666666667,0.1814814814814815],[-0.05416666666666667,0.1814814814814815],[-0.05625,0.18333333333333332],[-0.057291666666666664,0.18333333333333332],[-0.059375,0.18333333333333332],[-0.06041666666666667,0.18333333333333332],[-0.06354166666666666,0.18333333333333332],[-0.06458333333333334,0.18333333333333332],[-0.065625,0.18333333333333332],[-0.06770833333333333,0.18333333333333332],[-0.06770833333333333,0.18333333333333332],[-0.06770833333333333,0.18333333333333332],[-0.06770833333333333,0.18333333333333332],[-0.06770833333333333,0.18333333333333332],[-0.06770833333333333,0.18333333333333332],[-0.06770833333333333,0.18333333333333332],[-0.06770833333333333,0.18333333333333332],[-0.06770833333333333,0.18333333333333332],[-0.06770833333333333,0.18333333333333332],[-0.06770833333333333,0.18333333333333332],[-0.06770833333333333,0.18333333333333332],[-0.06770833333333333,0.18333333333333332],[-0.06770833333333333,0.18333333333333332],[-0.06770833333333333,0.18333333333333332],[-0.06770833333333333,0.18333333333333332],[-0.06770833333333333,0.18333333333333332],[-0.06770833333333333,0.18333333333333332],[-0.06770833333333333,0.18333333333333332],[-0.06770833333333333,0.18333333333333332],[-0.06770833333333333,0.18333333333333332],[-0.06770833333333333,0.18333333333333332],[-0.06770833333333333,0.18333333333333332],[-0.06770833333333333,0.18333333333333332],[-0.06770833333333333,0.18333333333333332],[-0.06770833333333333,0.18333333333333332],[-0.06770833333333333,0.18333333333333332],[-0.06770833333333333,0.18333333333333332],[-0.06770833333333333,0.18333333333333332],[-0.06770833333333333,0.18333333333333332],[-0.06770833333333333,0.18333333333333332],[-0.06770833333333333,0.18333333333333332],[-0.06770833333333333,0.18333333333333332],[-0.06770833333333333,0.18333333333333332],[-0.06770833333333333,0.18333333333333332],[-0.06770833333333333,0.18333333333333332],[-0.06770833333333333,0.18333333333333332],[-0.06770833333333333,0.18333333333333332],[-0.06770833333333333,0.18333333333333332],[-0.06770833333333333,0.18333333333333332],[-0.06770833333333333,0.18333333333333332],[-0.06770833333333333,0.18333333333333332],[-0.06770833333333333,0.18333333333333332],[-0.06770833333333333,0.18333333333333332],[-0.06770833333333333,0.18333333333333332],[-0.06770833333333333,0.18333333333333332],[-0.06770833333333333,0.18333333333333332],[-0.06770833333333333,0.18333333333333332],[-0.06770833333333333,0.18333333333333332],[-0.06770833333333333,0.18333333333333332],[-0.06770833333333333,0.18333333333333332],[-0.06770833333333333,0.18333333333333332],[-0.06770833333333333,0.18333333333333332],[-0.06770833333333333,0.18333333333333332],[-0.06770833333333333,0.18333333333333332],[-0.06770833333333333,0.18333333333333332],[-0.06770833333333333,0.18333333333333332],[-0.06770833333333333,0.18333333333333332],[-0.06770833333333333,0.18333333333333332],[-0.06770833333333333,0.18333333333333332],[-0.06770833333333333,0.18333333333333332],[-0.06979166666666667,0.1814814814814815],[-0.06979166666666667,0.17407407407407408],[-0.07083333333333333,0.16666666666666666],[-0.07083333333333333,0.1648148148148148],[-0.07083333333333333,0.15925925925925927],[-0.07083333333333333,0.15555555555555556],[-0.07083333333333333,0.15555555555555556],[-0.07083333333333333,0.1537037037037037],[-0.07083333333333333,0.1537037037037037],[-0.07083333333333333,0.1537037037037037],[-0.07083333333333333,0.1537037037037037],[-0.07083333333333333,0.1537037037037037],[-0.07083333333333333,0.1537037037037037],[-0.07083333333333333,0.1537037037037037],[-0.07083333333333333,0.1537037037037037],[-0.07083333333333333,0.1537037037037037],[-0.07083333333333333,0.1537037037037037],[-0.07083333333333333,0.1537037037037037],[-0.07083333333333333,0.1537037037037037],[-0.07083333333333333,0.1537037037037037],[-0.07083333333333333,0.1537037037037037],[-0.07083333333333333,0.1537037037037037],[-0.07083333333333333,0.1537037037037037],[-0.07083333333333333,0.1537037037037037],[-0.071875,0.1537037037037037],[-0.071875,0.15555555555555556],[-0.07291666666666667,0.16111111111111112],[-0.07291666666666667,0.16111111111111112],[-0.07395833333333333,0.16296296296296298],[-0.07395833333333333,0.16296296296296298]]","[[-0.07364583333333338,-0.14018518518518516],[-0.07364583333333338,-0.14018518518518516],[-0.06749999999999995,-0.12185185185185188],[-0.10406249999999997,-0.127962962962963],[-0.140625,-0.13407407407407404],[-0.12541666666666665,-0.0801851851851852],[-0.12541666666666665,-0.0801851851851852],[-0.11583333333333339,-0.017592592592592594],[-0.125,0.011296296296296339],[-0.1203125,0.04740740740740745],[-0.10593750000000005,0.08351851851851856],[-0.07916666666666666,0.11574074074074074],[-0.07749999999999997,0.15240740740740732],[-0.08239583333333336,0.17814814814814822],[-0.06739583333333338,0.19462962962962968],[-0.05239583333333329,0.2111111111111111],[-0.05239583333333329,0.2111111111111111],[-0.059062500000000046,0.18333333333333332],[-0.057500000000000044,0.14074074074074075],[-0.058958333333333356,0.0955555555555556],[-0.06072916666666662,0.057037037037036956],[-0.050833333333333286,0.018148148148148063],[-0.057083333333333285,0.020555555555555598],[-0.06802083333333328,0.03037037037037033],[-0.07895833333333328,0.04018518518518527],[-0.08135416666666669,0.05537037037037033],[-0.0626041666666667,0.0514814814814814],[-0.05010416666666669,0.06944444444444445],[-0.06322916666666671,0.10500000000000008],[-0.07374999999999995,0.12148148148148152],[-0.08427083333333331,0.13796296296296295],[-0.11572916666666669,0.1727777777777777],[-0.12239583333333333,0.16407407407407412],[-0.10864583333333329,0.14518518518518514],[-0.09291666666666672,0.14129629629629623],[-0.07062499999999995,0.11851851851851852],[-0.10302083333333331,0.13481481481481472],[-0.13708333333333336,0.14000000000000004],[-0.12114583333333329,0.1088888888888888],[-0.12541666666666665,0.11314814814814819],[-0.1430208333333333,0.11722222222222214],[-0.13645833333333332,0.07370370370370362],[-0.15635416666666668,0.0698148148148149],[-0.14677083333333332,0.06018518518518518],[-0.1616666666666667,0.069074074074074],[-0.20802083333333338,0.08888888888888889],[-0.20802083333333338,0.08888888888888889],[-0.22083333333333333,0.08870370370370366],[-0.24031250000000004,0.1088888888888888],[-0.26625000000000004,0.122037037037037],[-0.28854166666666664,0.13629629629629633],[-0.2397916666666667,0.130925925925926],[-0.23604166666666668,0.16537037037037028],[-0.19260416666666663,0.14666666666666675],[-0.17864583333333334,0.1337037037037038],[-0.1532291666666667,0.12481481481481477],[-0.11760416666666665,0.13870370370370366],[-0.07958333333333331,0.16203703703703703],[-0.030624999999999975,0.1648148148148148],[0.015416666666666618,0.16370370370370366],[0.015416666666666618,0.16370370370370366],[0.07447916666666667,0.15314814814814823],[0.0578125,0.14870370370370362],[0.06895833333333339,0.12537037037037047],[0.057291666666666664,0.1824074074074074],[0.041666666666666664,0.19240740740740736],[0.041666666666666664,0.19240740740740736],[0.03583333333333331,0.21351851851851844],[0.03781249999999995,0.23574074074074067],[0.04072916666666669,0.23499999999999996],[0.04072916666666669,0.23499999999999996],[0.00635416666666669,0.2124074074074075],[-0.0046875,0.23462962962962972],[-0.018333333333333358,0.2338888888888888],[-0.02302083333333336,0.2800000000000001],[-0.02645833333333331,0.33259259259259266],[-0.022187499999999954,0.32833333333333325],[-0.040625,0.38351851851851854],[-0.0578125,0.39000000000000007],[-0.06520833333333335,0.36796296296296305],[-0.07625000000000005,0.3522222222222223],[-0.04677083333333331,0.3853703703703704],[-0.07895833333333328,0.41],[-0.09156249999999998,0.41759259259259257],[-0.09864583333333338,0.4222222222222222],[-0.11437499999999995,0.42907407407407416],[-0.1452083333333333,0.444074074074074],[-0.1452083333333333,0.444074074074074],[-0.12625000000000006,0.42740740740740735],[-0.10697916666666671,0.3907407407407407],[-0.10531250000000002,0.3814814814814815],[-0.08479166666666664,0.40111111111111114],[-0.07177083333333331,0.39388888888888896],[-0.05395833333333329,0.40037037037037043],[-0.05395833333333329,0.40037037037037043],[-0.04093749999999995,0.40666666666666673],[-0.02052083333333338,0.39444444444444443],[-0.00927083333333331,0.3755555555555555],[0.016562499999999977,0.34037037037037027],[0.017812500000000023,0.33481481481481473],[0.017812500000000023,0.33481481481481473],[0.02052083333333338,0.33555555555555566],[0.025625000000000023,0.35462962962962963],[0.004999999999999952,0.352962962962963],[-0.028854166666666715,0.3257407407407407],[-0.021562500000000047,0.2959259259259258],[-0.022500000000000023,0.30092592592592593],[-0.04354166666666662,0.2757407407407407],[-0.058333333333333334,0.2892592592592593],[-0.07999999999999995,0.28592592592592586],[-0.08229166666666667,0.31500000000000006],[-0.08229166666666667,0.3140740740740741],[-0.09437500000000003,0.30055555555555546],[-0.08833333333333329,0.30055555555555546],[-0.08833333333333329,0.30055555555555546],[-0.08104166666666662,0.2977777777777777],[-0.08104166666666662,0.2977777777777777],[-0.08260416666666662,0.26592592592592595],[-0.09156249999999998,0.23592592592592587],[-0.0953125,0.2170370370370371],[-0.10968749999999995,0.1824074074074074],[-0.08052083333333329,0.1698148148148149],[-0.07739583333333329,0.12148148148148152],[-0.08729166666666661,0.09888888888888885],[-0.08791666666666664,0.09740740740740746],[-0.10739583333333336,0.06296296296296296],[-0.09208333333333331,0.0742592592592593],[-0.09208333333333331,0.0742592592592593],[-0.09052083333333331,0.09685185185185177],[-0.07999999999999995,0.1088888888888888],[-0.058437500000000024,0.12833333333333324],[-0.03989583333333328,0.12740740740740733],[-0.05572916666666667,0.11999999999999991],[-0.07093750000000003,0.10907407407407403],[-0.04739583333333333,0.1485185185185186],[-0.014999999999999977,0.12444444444444452],[0.010520833333333358,0.12462962962962955],[0.008437500000000023,0.15018518518518523],[0.00635416666666669,0.1757407407407407],[0.001979166666666643,0.18925925925925935],[-0.02333333333333331,0.19648148148148153],[-0.03729166666666662,0.1714814814814815],[-0.05302083333333331,0.15592592592592602],[-0.05354166666666664,0.15500000000000008],[-0.07729166666666672,0.14055555555555552],[-0.10052083333333334,0.1698148148148149],[-0.11312500000000002,0.18888888888888888],[-0.13020833333333334,0.15129629629629637],[-0.14729166666666665,0.11370370370370367],[-0.17468750000000005,0.07222222222222222],[-0.1632291666666667,0.05092592592592592],[-0.1594791666666667,0.0477777777777777],[-0.1594791666666667,0.0477777777777777],[-0.13052083333333328,0.10722222222222218],[-0.11302083333333333,0.08648148148148156],[-0.11781250000000003,0.08037037037037033],[-0.14958333333333335,0.03518518518518519],[-0.14093749999999997,0.03148148148148148],[-0.12989583333333338,0.014074074074074116],[-0.11885416666666669,-0.003333333333333249],[-0.11666666666666667,0.027777777777777776],[-0.14020833333333335,0.0022222222222223064],[-0.1430208333333333,0.03759259259259251],[-0.15562499999999999,0.022592592592592678],[-0.15583333333333335,0.046296296296296294],[-0.14833333333333332,0.014259259259259343],[-0.12281249999999998,0.014259259259259343],[-0.12281249999999998,0.014259259259259343],[-0.12604166666666666,0.004444444444444402],[-0.12072916666666664,0.02962962962962963],[-0.11343749999999998,0.03314814814814811],[-0.11343749999999998,0.03314814814814811],[-0.09635416666666667,0.009814814814814731],[-0.053125,0.02444444444444453],[-0.053125,0.02444444444444453],[-0.016979166666666618,0.03296296296296288],[0.0037500000000000237,0.029259259259259176],[0.0015625,0.03481481481481473],[0.009375,0.06777777777777783],[0.001145833333333357,0.09814814814814815],[0.0026041666666666665,0.11092592592592589],[0.002395833333333286,0.11629629629629622],[-0.0018749999999999527,0.14518518518518514],[0.003958333333333286,0.17703703703703708],[0.007083333333333286,0.2257407407407407],[0.00947916666666669,0.23777777777777773],[0.011874999999999976,0.24981481481481477],[0.011874999999999976,0.24981481481481477],[-0.00010416666666669035,0.24814814814814815],[0.0125,0.2448148148148149],[0.0125,0.2448148148148149],[0.02333333333333331,0.22592592592592592],[0.023958333333333335,0.19944444444444454],[0.040625,0.19092592592592597],[0.03864583333333336,0.15907407407407403],[0.044375000000000026,0.1316666666666667],[0.03447916666666669,0.09222222222222214],[0.03447916666666669,0.09222222222222214],[0.017812500000000023,0.03351851851851856],[0.004375000000000047,-0.01444444444444436],[0.00604166666666662,-0.05499999999999998],[0.00458333333333331,-0.05333333333333336],[0.005520833333333286,-0.07111111111111107],[0.0005208333333333333,-0.07666666666666662],[-0.00947916666666669,-0.07777777777777778],[0.0012500000000000473,-0.05740740740740741],[-0.0015625,-0.060555555555555536],[-0.0015625,-0.060555555555555536],[-0.002499999999999976,-0.06759259259259259],[-0.019895833333333356,-0.05055555555555547],[-0.03447916666666669,-0.03259259259259263],[-0.04354166666666662,-0.009074074074074031],[-0.08218749999999998,-0.036666666666666584],[-0.071875,-0.01629629629629621],[-0.06375000000000004,-0.01777777777777782],[-0.05322916666666669,-0.0025925925925925505],[-0.042708333333333334,0.012592592592592508],[-0.049270833333333285,0.04740740740740745],[-0.057500000000000044,0.08722222222222227],[-0.024895833333333308,0.13333333333333333],[0.00010416666666669035,0.1668518518518519],[0.024166666666666715,0.19092592592592597],[0.05437500000000005,0.22037037037037038],[0.049374999999999974,0.23166666666666672],[0.04812500000000005,0.25018518518518523],[0.04906250000000002,0.2490740740740741],[0.03927083333333338,0.244074074074074],[0.05239583333333329,0.23851851851851844],[0.07781250000000005,0.2479629629629629],[0.0671875,0.2074074074074074],[0.07666666666666658,0.20333333333333325],[0.09395833333333338,0.1933333333333333],[0.09156250000000009,0.202962962962963],[0.08072916666666667,0.2],[0.07739583333333329,0.21777777777777782],[0.06895833333333339,0.20574074074074078],[0.06614583333333333,0.19574074074074083],[0.06614583333333333,0.19574074074074083],[0.08510416666666672,0.22314814814814815],[0.05583333333333336,0.18425925925925926],[0.05583333333333336,0.18425925925925926],[0.0853125000000001,0.2161111111111112],[0.09083333333333338,0.24685185185185177],[0.0703125,0.26703703703703713],[0.07645833333333343,0.2324074074074074],[0.07645833333333343,0.2324074074074074],[0.10739583333333323,0.2490740740740741],[0.10739583333333323,0.2490740740740741],[0.12229166666666676,0.2168518518518519],[0.11729166666666657,0.21222222222222226],[0.1099999999999999,0.19740740740740745],[0.08093750000000005,0.14518518518518514],[0.07802083333333343,0.12925925925925918],[0.07802083333333343,0.12925925925925918],[0.05260416666666667,0.0933333333333333],[0.024583333333333356,0.019999999999999917],[0.024583333333333356,0.019999999999999917],[0.03187500000000002,-0.0007407407407406986],[0.030312500000000023,0.004629629629629629],[0.01739583333333338,-0.020555555555555598],[0.01739583333333338,-0.020555555555555598],[0.008854166666666666,-0.015000000000000043],[0.016875000000000046,-0.04296296296296305],[0.034375,-0.02629629629629638],[0.034375,-0.02629629629629638],[0.049687500000000044,-0.020740740740740823],[0.07083333333333333,-0.013333333333333417],[0.09072916666666657,0.005740740740740783],[0.11437499999999995,0.02759259259259255],[0.12989583333333338,0.03759259259259251],[0.15333333333333338,0.05259259259259255],[0.15135416666666662,0.05685185185185194],[0.14968750000000006,0.027962962962963005],[0.1408333333333334,0.015370370370370286],[0.14677083333333343,-0.004814814814814857],[0.15489583333333337,-0.013888888888888888],[0.16447916666666676,-0.02111111111111107],[0.15750000000000006,-0.05185185185185185],[0.1365624999999999,-0.06574074074074074],[0.115625,-0.07962962962962963],[0.12208333333333338,-0.08370370370370368],[0.12208333333333338,-0.08370370370370368],[0.1326041666666666,-0.07240740740740745],[0.1678124999999999,-0.03629629629629634],[0.18354166666666671,-0.02166666666666675],[0.17229166666666676,-0.02111111111111107],[0.16104166666666658,-0.020555555555555598],[0.14395833333333338,-0.009629629629629714],[0.14395833333333338,-0.009629629629629714],[0.1306250000000001,0.004074074074074159],[0.16833333333333325,0.004814814814814857],[0.15958333333333338,-0.01574074074074074],[0.12781250000000005,-0.03370370370370379],[0.12708333333333333,-0.06111111111111111],[0.10291666666666661,-0.0824074074074074],[0.10291666666666661,-0.0824074074074074],[0.07145833333333323,-0.0816666666666667],[0.07145833333333323,-0.0816666666666667],[0.06437499999999995,-0.07703703703703708],[0.04604166666666672,-0.12629629629629627],[0.022395833333333334,-0.17240740740740745],[0.03197916666666671,-0.19907407407407407],[0.03197916666666671,-0.19907407407407407],[0.003541666666666643,-0.22037037037037038],[-0.012083333333333357,-0.2088888888888889],[-0.044166666666666646,-0.22722222222222221],[-0.044166666666666646,-0.22722222222222221],[-0.07072916666666665,-0.21537037037037038],[-0.08812500000000002,-0.21055555555555552],[-0.09645833333333335,-0.21055555555555552],[-0.09645833333333335,-0.21055555555555552],[-0.0985416666666667,-0.23055555555555557],[-0.08031250000000002,-0.17814814814814814],[-0.0907291666666667,-0.16722222222222224],[-0.0921875,-0.15907407407407403],[-0.1375,-0.18740740740740738],[-0.1078125,-0.20407407407407405],[-0.11458333333333333,-0.22777777777777777],[-0.08479166666666664,-0.2081481481481481],[-0.11645833333333329,-0.2388888888888889],[-0.07916666666666666,-0.24129629629629631],[-0.10416666666666667,-0.2651851851851852],[-0.08843749999999997,-0.2614814814814815],[-0.08999999999999998,-0.267037037037037],[-0.09729166666666664,-0.28277777777777774],[-0.0953125,-0.29240740740740734],[-0.09895833333333333,-0.2851851851851852],[-0.07218749999999995,-0.2862962962962963],[-0.09249999999999996,-0.31666666666666665],[-0.06052083333333336,-0.28962962962962957],[-0.08270833333333331,-0.2772222222222222],[-0.07697916666666664,-0.2324074074074074],[-0.11479166666666671,-0.27314814814814814],[-0.103125,-0.2479629629629629],[-0.13166666666666665,-0.23203703703703707],[-0.13562500000000005,-0.20277777777777778],[-0.15052083333333333,-0.19444444444444445],[-0.16541666666666663,-0.16629629629629633],[-0.16739583333333338,-0.1685185185185185],[-0.18083333333333335,-0.15018518518518523],[-0.18781249999999997,-0.15999999999999995],[-0.19500000000000003,-0.16888888888888887],[-0.20843750000000003,-0.1383333333333333],[-0.20958333333333337,-0.125],[-0.20093749999999996,-0.09833333333333337],[-0.16666666666666666,-0.08962962962962959],[-0.1827083333333333,-0.08888888888888889],[-0.19114583333333332,-0.0977777777777778],[-0.19750000000000004,-0.10240740740740743],[-0.19239583333333338,-0.12759259259259256],[-0.1866666666666667,-0.13481481481481483],[-0.16687500000000005,-0.14870370370370373],[-0.14718749999999994,-0.1455555555555556],[-0.13479166666666664,-0.17481481481481478],[-0.13218749999999999,-0.21740740740740735],[-0.13677083333333329,-0.2205555555555556],[-0.13677083333333329,-0.2205555555555556],[-0.11583333333333339,-0.23481481481481484],[-0.09906250000000003,-0.24018518518518517],[-0.0938541666666667,-0.22537037037037036],[-0.08864583333333335,-0.21055555555555552],[-0.0921875,-0.2044444444444444],[-0.09437500000000003,-0.1977777777777778],[-0.08979166666666671,-0.19074074074074074],[-0.08770833333333337,-0.16166666666666668],[-0.0907291666666667,-0.1235185185185185],[-0.0907291666666667,-0.1235185185185185],[-0.10031249999999996,-0.1051851851851852],[-0.0936458333333333,-0.07592592592592592],[-0.08999999999999998,-0.0507407407407407],[-0.0984375,-0.05240740740740743],[-0.11197916666666667,-0.060370370370370414],[-0.10666666666666665,-0.053703703703703705],[-0.10270833333333336,-0.04759259259259268],[-0.11260416666666669,-0.06296296296296296],[-0.11822916666666666,-0.07370370370370373],[-0.11552083333333331,-0.09018518518518516],[-0.1094791666666667,-0.10037037037037035],[-0.11968749999999997,-0.12148148148148152],[-0.11083333333333331,-0.11259259259259262],[-0.09979166666666663,-0.10129629629629627],[-0.09166666666666666,-0.10129629629629627],[-0.09781249999999998,-0.10648148148148148],[-0.09208333333333331,-0.08481481481481483],[-0.07916666666666666,-0.05907407407407403],[-0.07583333333333328,-0.04129629629629621],[-0.06968749999999997,-0.04351851851851852],[-0.07000000000000005,-0.019444444444444445],[-0.08197916666666671,-0.01574074074074074],[-0.04770833333333328,0.0001851851851852273],[-0.058333333333333334,-0.0005555555555554713],[-0.052083333333333336,-0.002407407407407323],[-0.06479166666666672,0.06296296296296296],[-0.08833333333333329,0.11351851851851844],[-0.11343749999999998,0.2168518518518519],[-0.12166666666666662,0.31851851851851853],[-0.11822916666666666,0.39351851851851855],[-0.10375000000000002,0.42888888888888893],[-0.08062499999999997,0.48814814814814816],[-0.10895833333333335,0.4925925925925926],[-0.10989583333333333,0.4925925925925926]]","[[-0.07364583333333338,-0.14018518518518516,0.00030000000447216735],[-0.07364583333333338,-0.14018518518518516,0.05170000000298103],[-0.06749999999999995,-0.12185185185185188,0.06040000000595569],[-0.10406249999999997,-0.127962962962963,0.07710000000147943],[-0.140625,-0.13407407407407404,0.0956000000014825],[-0.12541666666666665,-0.0801851851851852,0.11760000000148807],[-0.12541666666666665,-0.0801851851851852,0.13240000000595842],[-0.11583333333333339,-0.017592592592592594,0.14390000000595649],[-0.125,0.011296296296296339,0.16049999999999898],[-0.1203125,0.04740740740740745,0.17730000000446466],[-0.10593750000000005,0.08351851851851856,0.1938000000044724],[-0.07916666666666666,0.11574074074074074,0.21390000000594966],[-0.07749999999999997,0.15240740740740732,0.22730000000446182],[-0.08239583333333336,0.17814814814814822,0.24590000000596035],[-0.06739583333333338,0.19462962962962968,0.26040000000595853],[-0.05239583333333329,0.2111111111111111,0.27720000000297773],[-0.05239583333333329,0.2111111111111111,0.2938000000044667],[-0.059062500000000046,0.18333333333333332,0.31049999999999045],[-0.057500000000000044,0.14074074074074075,0.32710000000147943],[-0.058958333333333356,0.0955555555555556,0.3447000000029732],[-0.06072916666666662,0.057037037037036956,0.3605000000000018],[-0.050833333333333286,0.018148148148148063,0.38020000000297216],[-0.057083333333333285,0.020555555555555598,0.393800000004461],[-0.06802083333333328,0.03037037037037033,0.410499999999999],[-0.07895833333333328,0.04018518518518527,0.42730000000446466],[-0.08135416666666669,0.05537037037037033,0.4438000000044724],[-0.0626041666666667,0.0514814814814814,0.4636000000014917],[-0.05010416666666669,0.06944444444444445,0.4774000000059573],[-0.06322916666666671,0.10500000000000008,0.49380000000446955],[-0.07374999999999995,0.12148148148148152,0.5114999999999981],[-0.08427083333333331,0.13796296296296295,0.5271000000014823],[-0.11572916666666669,0.1727777777777777,0.5472000000029738],[-0.12239583333333333,0.16407407407407412,0.5607000000029814],[-0.10864583333333329,0.14518518518518514,0.5772000000029749],[-0.09291666666666672,0.14129629629629623,0.5939999999999941],[-0.07062499999999995,0.11851851851851852,0.6105000000000018],[-0.10302083333333331,0.13481481481481472,0.6281000000014814],[-0.13708333333333336,0.14000000000000004,0.643800000004461],[-0.12114583333333329,0.1088888888888888,0.66040000000595],[-0.12541666666666665,0.11314814814814819,0.6777000000029716],[-0.1430208333333333,0.11722222222222214,0.6938000000044724],[-0.13645833333333332,0.07370370370370362,0.7106000000014916],[-0.15635416666666668,0.0698148148148149,0.7271000000014851],[-0.14677083333333332,0.06018518518518518,0.7472000000029766],[-0.1616666666666667,0.069074074074074,0.7624999999999886],[-0.20802083333333338,0.08888888888888889,0.778100000001487],[-0.20802083333333338,0.08888888888888889,0.7937000000029713],[-0.22083333333333333,0.08870370370370366,0.8104999999999905],[-0.24031250000000004,0.1088888888888888,0.8272000000029749],[-0.26625000000000004,0.122037037037037,0.8441000000014895],[-0.28854166666666664,0.13629629629629633,0.8605000000000018],[-0.2397916666666667,0.130925925925926,0.8801000000014909],[-0.23604166666666668,0.16537037037037028,0.893800000004461],[-0.19260416666666663,0.14666666666666675,0.912700000002971],[-0.17864583333333334,0.1337037037037038,0.9272000000029692],[-0.1532291666666667,0.12481481481481477,0.9438000000044724],[-0.11760416666666665,0.13870370370370366,0.9604000000059614],[-0.07958333333333331,0.16203703703703703,0.9771000000014851],[-0.030624999999999975,0.1648148148148148,0.9974000000059533],[0.015416666666666618,0.16370370370370366,1.0138000000044656],[0.015416666666666618,0.16370370370370366,1.0271000000014823],[0.07447916666666667,0.15314814814814823,1.0438000000044667],[0.0578125,0.14870370370370362,1.0604999999999905],[0.06895833333333339,0.12537037037037047,1.0772000000029749],[0.057291666666666664,0.1824074074074074,1.0939000000059593],[0.041666666666666664,0.19240740740740736,1.1144000000059577],[0.041666666666666664,0.19240740740740736,1.130400000005963],[0.03583333333333331,0.21351851851851844,1.1439999999999912],[0.03781249999999995,0.23574074074074067,1.1606000000014802],[0.04072916666666669,0.23499999999999996,1.1799999999999926],[0.04072916666666669,0.23499999999999996,1.1939000000059536],[0.00635416666666669,0.2124074074074075,1.2112000000029752],[-0.0046875,0.23462962962962972,1.2273000000044618],[-0.018333333333333358,0.2338888888888888,1.2472000000029766],[-0.02302083333333336,0.2800000000000001,1.2616000000014793],[-0.02645833333333331,0.33259259259259266,1.277300000004459],[-0.022187499999999954,0.32833333333333325,1.2961000000014877],[-0.040625,0.38351851851851854,1.3119000000059629],[-0.0578125,0.39000000000000007,1.330600000001482],[-0.06520833333333335,0.36796296296296305,1.3488000000044593],[-0.07625000000000005,0.3522222222222223,1.36399999999999],[-0.04677083333333331,0.3853703703703704,1.3799000000059607],[-0.07895833333333328,0.41,1.3942000000029822],[-0.09156249999999998,0.41759259259259257,1.4141000000014827],[-0.09864583333333338,0.4222222222222222,1.4287000000029764],[-0.11437499999999995,0.42907407407407416,1.4439000000059536],[-0.1452083333333333,0.444074074074074,1.4653000000044614],[-0.1452083333333333,0.444074074074074,1.477499999999992],[-0.12625000000000006,0.42740740740740735,1.4944000000059532],[-0.10697916666666671,0.3907407407407407,1.5118000000044702],[-0.10531250000000002,0.3814814814814815,1.5293000000044685],[-0.08479166666666664,0.40111111111111114,1.544300000004469],[-0.07177083333333331,0.39388888888888896,1.560600000001486],[-0.05395833333333329,0.40037037037037043,1.5773000000044703],[-0.05395833333333329,0.40037037037037043,1.5959000000059547],[-0.04093749999999995,0.40666666666666673,1.6108000000044598],[-0.02052083333333338,0.39444444444444443,1.6273000000044675],[-0.00927083333333331,0.3755555555555555,1.6484999999999985],[0.016562499999999977,0.34037037037037027,1.6637000000029758],[0.017812500000000023,0.33481481481481473,1.6791000000014833],[0.017812500000000023,0.33481481481481473,1.695900000005949],[0.02052083333333338,0.33555555555555566,1.7109000000059496],[0.025625000000000023,0.35462962962962963,1.7273000000044618],[0.004999999999999952,0.352962962962963,1.7438000000044696],[-0.028854166666666715,0.3257407407407407,1.7604000000059585],[-0.021562500000000047,0.2959259259259258,1.7771000000014823],[-0.022500000000000023,0.30092592592592593,1.7937000000029713],[-0.04354166666666662,0.2757407407407407,1.8104999999999905],[-0.058333333333333334,0.2892592592592593,1.8271000000014794],[-0.07999999999999995,0.28592592592592586,1.8442000000029708],[-0.08229166666666667,0.31500000000000006,1.8627000000029739],[-0.08229166666666667,0.3140740740740741,1.8773000000044675],[-0.09437500000000003,0.30055555555555546,1.8939999999999912],[-0.08833333333333329,0.30055555555555546,1.9153000000044642],[-0.08833333333333329,0.30055555555555546,1.9272000000029692],[-0.08104166666666662,0.2977777777777777,1.9440000000000026],[-0.08104166666666662,0.2977777777777777,1.9606000000014916],[-0.08260416666666662,0.26592592592592595,1.9817000000029736],[-0.09156249999999998,0.23592592592592587,1.9969999999999999],[-0.0953125,0.2170370370370371,2.0118000000044702],[-0.10968749999999995,0.1824074074074074,2.0293000000044685],[-0.08052083333333329,0.1698148148148149,2.0437000000029713],[-0.07739583333333329,0.12148148148148152,2.0604000000059557],[-0.08729166666666661,0.09888888888888885,2.0771000000014794],[-0.08791666666666664,0.09740740740740746,2.0937000000029826],[-0.10739583333333336,0.06296296296296296,2.114600000001488],[-0.09208333333333331,0.0742592592592593,2.130400000005963],[-0.09208333333333331,0.0742592592592593,2.1439000000059565],[-0.09052083333333331,0.09685185185185177,2.160499999999999],[-0.07999999999999995,0.1088888888888888,2.177100000001488],[-0.058437500000000024,0.12833333333333324,2.1938000000044724],[-0.03989583333333328,0.12740740740740733,2.2134999999999962],[-0.05572916666666667,0.11999999999999991,2.2291000000014805],[-0.07093750000000003,0.10907407407407403,2.2476000000014835],[-0.04739583333333333,0.1485185185185186,2.26070000000297],[-0.014999999999999977,0.12444444444444452,2.2806000000014848],[0.010520833333333358,0.12462962962962955,2.293999999999997],[0.008437500000000023,0.15018518518518523,2.3130000000000024],[0.00635416666666669,0.1757407407407407,2.331300000004461],[0.001979166666666643,0.18925925925925935,2.3466000000014873],[-0.02333333333333331,0.19648148148148153,2.360600000001483],[-0.03729166666666662,0.1714814814814815,2.3799000000059607],[-0.05302083333333331,0.15592592592592602,2.395300000004468],[-0.05354166666666664,0.15500000000000008,2.4140000000000015],[-0.07729166666666672,0.14055555555555552,2.4273000000044647],[-0.10052083333333334,0.1698148148148149,2.4465000000000003],[-0.11312500000000002,0.18888888888888888,2.4609999999999985],[-0.13020833333333334,0.15129629629629637,2.4772000000029806],[-0.14729166666666665,0.11370370370370367,2.4979000000059557],[-0.17468750000000005,0.07222222222222222,2.5131000000014865],[-0.1632291666666667,0.05092592592592592,2.5272000000029777],[-0.1594791666666667,0.0477777777777777,2.54849999999999],[-0.1594791666666667,0.0477777777777777,2.5604999999999905],[-0.13052083333333328,0.10722222222222218,2.5774000000059516],[-0.11302083333333333,0.08648148148148156,2.5937000000029826],[-0.11781250000000003,0.08037037037037033,2.6129999999999995],[-0.14958333333333335,0.03518518518518519,2.6273000000044675],[-0.14093749999999997,0.03148148148148148,2.6439000000059565],[-0.12989583333333338,0.014074074074074116,2.6606000000014802],[-0.11885416666666669,-0.003333333333333249,2.67930000000446],[-0.11666666666666667,0.027777777777777776,2.6939000000059536],[-0.14020833333333335,0.0022222222222223064,2.7131000000014893],[-0.1430208333333333,0.03759259259259251,2.7274000000059573],[-0.15562499999999999,0.022592592592592678,2.747],[-0.15583333333333335,0.046296296296296294,2.7604999999999933],[-0.14833333333333332,0.014259259259259343,2.777300000004459],[-0.12281249999999998,0.014259259259259343,2.798700000002981],[-0.12281249999999998,0.014259259259259343,2.811300000004465],[-0.12604166666666666,0.004444444444444402,2.8273000000044703],[-0.12072916666666664,0.02962962962962963,2.844200000002971],[-0.11343749999999998,0.03314814814814811,2.8639000000059553],[-0.11343749999999998,0.03314814814814811,2.877200000002972],[-0.09635416666666667,0.009814814814814731,2.8941000000014867],[-0.053125,0.02444444444444453,2.9164000000059502],[-0.053125,0.02444444444444453,2.927200000002969],[-0.016979166666666618,0.03296296296296288,2.9440000000000026],[0.0037500000000000237,0.029259259259259176,2.9606000000014916],[0.0015625,0.03481481481481473,2.977100000001485],[0.009375,0.06777777777777783,2.993700000002974],[0.001145833333333357,0.09814814814814815,3.012400000005954],[0.0026041666666666665,0.11092592592592589,3.0282000000029825],[0.002395833333333286,0.11629629629629622,3.043900000005962],[-0.0018749999999999527,0.14518518518518514,3.0604999999999905],[0.003958333333333286,0.17703703703703708,3.0771000000014794],[0.007083333333333286,0.2257407407407407,3.0939000000059593],[0.00947916666666669,0.23777777777777773,3.11099999999999],[0.011874999999999976,0.24981481481481477,3.1310000000000002],[0.011874999999999976,0.24981481481481477,3.1437000000029798],[-0.00010416666666669035,0.24814814814814815,3.16040000000595],[0.0125,0.2448148148148149,3.17930000000446],[0.0125,0.2448148148148149,3.1939000000059536],[0.02333333333333331,0.22592592592592592,3.2109000000059496],[0.023958333333333335,0.19944444444444454,3.2272000000029806],[0.040625,0.19092592592592597,3.247],[0.03864583333333336,0.15907407407407403,3.2608000000044655],[0.044375000000000026,0.1316666666666667,3.277300000004459],[0.03447916666666669,0.09222222222222214,3.2989999999999924],[0.03447916666666669,0.09222222222222214,3.310600000001486],[0.017812500000000023,0.03351851851851856,3.327200000002975],[0.004375000000000047,-0.01444444444444436,3.3444000000059617],[0.00604166666666662,-0.05499999999999998,3.3637000000029786],[0.00458333333333331,-0.05333333333333336,3.379300000004463],[0.005520833333333286,-0.07111111111111107,3.3939000000059565],[0.0005208333333333333,-0.07666666666666662,3.4139000000059525],[-0.00947916666666669,-0.07777777777777778,3.4284000000059507],[0.0012500000000000473,-0.05740740740740741,3.4439000000059536],[-0.0015625,-0.060555555555555536,3.465600000001487],[-0.0015625,-0.060555555555555536,3.4772000000029806],[-0.002499999999999976,-0.06759259259259259,3.493900000005951],[-0.019895833333333356,-0.05055555555555547,3.512800000004461],[-0.03447916666666669,-0.03259259259259263,3.5308000000044615],[-0.04354166666666662,-0.009074074074074031,3.5459999999999923],[-0.08218749999999998,-0.036666666666666584,3.560999999999993],[-0.071875,-0.01629629629629621,3.582300000004466],[-0.06375000000000004,-0.01777777777777782,3.597200000002971],[-0.05322916666666669,-0.0025925925925925505,3.6141000000014856],[-0.042708333333333334,0.012592592592592508,3.6281000000014814],[-0.049270833333333285,0.04740740740740745,3.643800000004461],[-0.057500000000000044,0.08722222222222227,3.66040000000595],[-0.024895833333333308,0.13333333333333333,3.67740000000596],[0.00010416666666669035,0.1668518518518519,3.693700000002977],[0.024166666666666715,0.19092592592592597,3.7128000000044636],[0.05437500000000005,0.22037037037037038,3.7269999999999897],[0.049374999999999974,0.23166666666666672,3.7438000000044696],[0.04812500000000005,0.25018518518518523,3.7604000000059585],[0.04906250000000002,0.2490740740740741,3.7771000000014823],[0.03927083333333338,0.244074074074074,3.7937000000029713],[0.05239583333333329,0.23851851851851844,3.8149999999999977],[0.07781250000000005,0.2479629629629629,3.831300000004461],[0.0671875,0.2074074074074074,3.845300000004471],[0.07666666666666658,0.20333333333333325,3.860600000001483],[0.09395833333333338,0.1933333333333333,3.8803000000044676],[0.09156250000000009,0.202962962962963,3.8939000000059565],[0.08072916666666667,0.2,3.9106000000014802],[0.07739583333333329,0.21777777777777782,3.927499999999995],[0.06895833333333339,0.20574074074074078,3.9438000000044724],[0.06614583333333333,0.19574074074074083,3.964999999999989],[0.06614583333333333,0.19574074074074083,3.9774000000059573],[0.08510416666666672,0.22314814814814815,3.9939999999999998],[0.05583333333333336,0.18425925925925926,4.018100000001482],[0.05583333333333336,0.18425925925925926,4.027100000001482],[0.0853125000000001,0.2161111111111112,4.043999999999997],[0.09083333333333338,0.24685185185185177,4.0604999999999905],[0.0703125,0.26703703703703713,4.080800000004473],[0.07645833333333343,0.2324074074074074,4.094999999999999],[0.07645833333333343,0.2324074074074074,4.114600000001488],[0.10739583333333323,0.2490740740740741,4.13080000000447],[0.10739583333333323,0.2490740740740741,4.1439000000059565],[0.12229166666666676,0.2168518518518519,4.160499999999999],[0.11729166666666657,0.21222222222222226,4.180700000002972],[0.1099999999999999,0.19740740740740745,4.1965],[0.08093750000000005,0.14518518518518514,4.213499999999996],[0.07802083333333343,0.12925925925925918,4.23280000000446],[0.07802083333333343,0.12925925925925918,4.244],[0.05260416666666667,0.0933333333333333,4.260600000001489],[0.024583333333333356,0.019999999999999917,4.277200000002978],[0.024583333333333356,0.019999999999999917,4.296499999999995],[0.03187500000000002,-0.0007407407407406986,4.310700000002981],[0.030312500000000023,0.004629629629629629,4.327200000002975],[0.01739583333333338,-0.020555555555555598,4.34710000000149],[0.01739583333333338,-0.020555555555555598,4.360500000000002],[0.008854166666666666,-0.015000000000000043,4.377200000002972],[0.016875000000000046,-0.04296296296296305,4.3939000000059565],[0.034375,-0.02629629629629638,4.4166000000014805],[0.034375,-0.02629629629629638,4.427100000001488],[0.049687500000000044,-0.020740740740740823,4.444000000000003],[0.07083333333333333,-0.013333333333333417,4.460400000005961],[0.09072916666666657,0.005740740740740783,4.481700000002974],[0.11437499999999995,0.02759259259259255,4.4976000000014835],[0.12989583333333338,0.03759259259259251,4.513800000004466],[0.15333333333333338,0.05259259259259255,4.531200000002983],[0.15135416666666662,0.05685185185185194,4.546200000002969],[0.14968750000000006,0.027962962962963005,4.561499999999995],[0.1408333333333334,0.015370370370370286,4.577100000001479],[0.14677083333333343,-0.004814814814814857,4.5941000000014895],[0.15489583333333337,-0.013888888888888888,4.61380000000446],[0.16447916666666676,-0.02111111111111107,4.628100000001481],[0.15750000000000006,-0.05185185185185185,4.64370000000298],[0.1365624999999999,-0.06574074074074074,4.66040000000595],[0.115625,-0.07962962962962963,4.677499999999995],[0.12208333333333338,-0.08370370370370368,4.693800000004472],[0.12208333333333338,-0.08370370370370368,4.710400000005961],[0.1326041666666666,-0.07240740740740745,4.72699999999999],[0.1678124999999999,-0.03629629629629634,4.747100000001481],[0.18354166666666671,-0.02166666666666675,4.763999999999996],[0.17229166666666676,-0.02111111111111107,4.780999999999992],[0.16104166666666658,-0.020555555555555598,4.795800000004462],[0.14395833333333338,-0.009629629629629714,4.8160000000000025],[0.14395833333333338,-0.009629629629629714,4.827100000001479],[0.1306250000000001,0.004074074074074159,4.843999999999994],[0.16833333333333325,0.004814814814814857,4.860600000001483],[0.15958333333333338,-0.01574074074074074,4.8799999999999955],[0.12781250000000005,-0.03370370370370379,4.894400000005959],[0.12708333333333333,-0.06111111111111111,4.910700000002976],[0.10291666666666661,-0.0824074074074074,4.93230000000446],[0.10291666666666661,-0.0824074074074074,4.952999999999989],[0.07145833333333323,-0.0816666666666667,4.969600000001492],[0.07145833333333323,-0.0816666666666667,4.977200000002981],[0.06437499999999995,-0.07703703703703708,4.996600000001479],[0.04604166666666672,-0.12629629629629627,5.01180000000447],[0.022395833333333334,-0.17240740740740745,5.027200000002978],[0.03197916666666671,-0.19907407407407407,5.048100000001483],[0.03197916666666671,-0.19907407407407407,5.060400000005956],[0.003541666666666643,-0.22037037037037038,5.07730000000447],[-0.012083333333333357,-0.2088888888888889,5.093800000004464],[-0.044166666666666646,-0.22722222222222221,5.116600000001483],[-0.044166666666666646,-0.22722222222222221,5.1273000000044675],[-0.07072916666666665,-0.21537037037037038,5.143999999999991],[-0.08812500000000002,-0.21055555555555552,5.160499999999999],[-0.09645833333333335,-0.21055555555555552,5.179100000001483],[-0.09645833333333335,-0.21055555555555552,5.193800000004472],[-0.0985416666666667,-0.23055555555555557,5.210499999999996],[-0.08031250000000002,-0.17814814814814814,5.22699999999999],[-0.0907291666666667,-0.16722222222222224,5.2438000000044696],[-0.0921875,-0.15907407407407403,5.2604000000059585],[-0.1375,-0.18740740740740738,5.277100000001482],[-0.1078125,-0.20407407407407405,5.293700000002971],[-0.11458333333333333,-0.22777777777777777,5.310400000005956],[-0.08479166666666664,-0.2081481481481481,5.326999999999998],[-0.11645833333333329,-0.2388888888888889,5.3441000000014895],[-0.07916666666666666,-0.24129629629629631,5.360400000005953],[-0.10416666666666667,-0.2651851851851852,5.380400000005963],[-0.08843749999999997,-0.2614814814814815,5.393800000004461],[-0.08999999999999998,-0.267037037037037,5.410499999999999],[-0.09729166666666664,-0.28277777777777774,5.427499999999995],[-0.0953125,-0.29240740740740734,5.443700000002977],[-0.09895833333333333,-0.2851851851851852,5.460400000005961],[-0.07218749999999995,-0.2862962962962963,5.477100000001485],[-0.09249999999999996,-0.31666666666666665,5.493700000002974],[-0.06052083333333336,-0.28962962962962957,5.51070000000297],[-0.08270833333333331,-0.2772222222222222,5.527000000000001],[-0.07697916666666664,-0.2324074074074074,5.546499999999995],[-0.11479166666666671,-0.27314814814814814,5.560400000005956],[-0.103125,-0.2479629629629629,5.577100000001479],[-0.13166666666666665,-0.23203703703703707,5.593700000002983],[-0.13562500000000005,-0.20277777777777778,5.610500000000002],[-0.15052083333333333,-0.19444444444444445,5.627100000001491],[-0.16541666666666663,-0.16629629629629633,5.643800000004461],[-0.16739583333333338,-0.1685185185185185,5.660499999999999],[-0.18083333333333335,-0.15018518518518523,5.67740000000596],[-0.18781249999999997,-0.15999999999999995,5.693700000002977],[-0.19500000000000003,-0.16888888888888887,5.710499999999996],[-0.20843750000000003,-0.1383333333333333,5.72699999999999],[-0.20958333333333337,-0.125,5.7438000000044696],[-0.20093749999999996,-0.09833333333333337,5.7604000000059585],[-0.16666666666666666,-0.08962962962962959,5.777000000000001],[-0.1827083333333333,-0.08888888888888889,5.793700000002971],[-0.19114583333333332,-0.0977777777777778,5.8104999999999905],[-0.19750000000000004,-0.10240740740740743,5.827200000002975],[-0.19239583333333338,-0.12759259259259256,5.843800000004464],[-0.1866666666666667,-0.13481481481481483,5.860400000005953],[-0.16687500000000005,-0.14870370370370373,5.876999999999995],[-0.14718749999999994,-0.1455555555555556,5.893600000001484],[-0.13479166666666664,-0.17481481481481478,5.913800000004471],[-0.13218749999999999,-0.21740740740740735,5.929700000002981],[-0.13677083333333329,-0.2205555555555556,5.943700000002977],[-0.13677083333333329,-0.2205555555555556,5.960400000005961],[-0.11583333333333339,-0.23481481481481484,5.977100000001485],[-0.09906250000000003,-0.24018518518518517,5.99590000000596],[-0.0938541666666667,-0.22537037037037036,6.010600000001489],[-0.08864583333333335,-0.21055555555555552,6.027000000000001],[-0.0921875,-0.2044444444444444,6.043700000002971],[-0.09437500000000003,-0.1977777777777778,6.06030000000446],[-0.08979166666666671,-0.19074074074074074,6.077100000001479],[-0.08770833333333337,-0.16166666666666668,6.093700000002983],[-0.0907291666666667,-0.1235185185185185,6.1111000000014855],[-0.0907291666666667,-0.1235185185185185,6.127100000001491],[-0.10031249999999996,-0.1051851851851852,6.1439000000059565],[-0.0936458333333333,-0.07592592592592592,6.16040000000595],[-0.08999999999999998,-0.0507407407407407,6.177200000002969],[-0.0984375,-0.05240740740740743,6.193700000002977],[-0.11197916666666667,-0.060370370370370414,6.214300000004471],[-0.10666666666666665,-0.053703703703703705,6.2298000000044595],[-0.10270833333333336,-0.04759259259259268,6.24680000000447],[-0.11260416666666669,-0.06296296296296296,6.260600000001489],[-0.11822916666666666,-0.07370370370370373,6.2793000000044685],[-0.11552083333333331,-0.09018518518518516,6.293800000004467],[-0.1094791666666667,-0.10037037037037035,6.310400000005956],[-0.11968749999999997,-0.12148148148148152,6.329900000005949],[-0.11083333333333331,-0.11259259259259262,6.344700000002973],[-0.09979166666666663,-0.10129629629629627,6.360400000005953],[-0.09166666666666666,-0.10129629629629627,6.376999999999995],[-0.09781249999999998,-0.10648148148148148,6.39370000000298],[-0.09208333333333331,-0.08481481481481483,6.413700000002976],[-0.07916666666666666,-0.05907407407407403,6.429100000001483],[-0.07583333333333328,-0.04129629629629621,6.443700000002977],[-0.06968749999999997,-0.04351851851851852,6.460300000004466],[-0.07000000000000005,-0.019444444444444445,6.47699999999999],[-0.08197916666666671,-0.01574074074074074,6.493700000002974],[-0.04770833333333328,0.0001851851851852273,6.511600000001479],[-0.058333333333333334,-0.0005555555555554713,6.527000000000001],[-0.052083333333333336,-0.002407407407407323,6.546700000002971],[-0.06479166666666672,0.06296296296296296,6.56030000000446],[-0.08833333333333329,0.11351851851851844,6.577100000001479],[-0.11343749999999998,0.2168518518518519,6.5941000000014895],[-0.12166666666666662,0.31851851851851853,6.613500000000002],[-0.11822916666666666,0.39351851851851855,6.627400000005963],[-0.10375000000000002,0.42888888888888893,6.64860000000148],[-0.08062499999999997,0.48814814814814816,6.6639000000059525],[-0.10895833333333335,0.4925925925925926,6.679800000004462],[-0.10989583333333333,0.4925925925925926,6.694200000002979]]","[0.00030000000447216735,0.05170000000298103,0.06040000000595569,0.07710000000147943,0.0956000000014825,0.11760000000148807,0.13240000000595842,0.14390000000595649,0.16049999999999898,0.17730000000446466,0.1938000000044724,0.21390000000594966,0.22730000000446182,0.24590000000596035,0.26040000000595853,0.27720000000297773,0.2938000000044667,0.31049999999999045,0.32710000000147943,0.3447000000029732,0.3605000000000018,0.38020000000297216,0.393800000004461,0.410499999999999,0.42730000000446466,0.4438000000044724,0.4636000000014917,0.4774000000059573,0.49380000000446955,0.5114999999999981,0.5271000000014823,0.5472000000029738,0.5607000000029814,0.5772000000029749,0.5939999999999941,0.6105000000000018,0.6281000000014814,0.643800000004461,0.66040000000595,0.6777000000029716,0.6938000000044724,0.7106000000014916,0.7271000000014851,0.7472000000029766,0.7624999999999886,0.778100000001487,0.7937000000029713,0.8104999999999905,0.8272000000029749,0.8441000000014895,0.8605000000000018,0.8801000000014909,0.893800000004461,0.912700000002971,0.9272000000029692,0.9438000000044724,0.9604000000059614,0.9771000000014851,0.9974000000059533,1.0138000000044656,1.0271000000014823,1.0438000000044667,1.0604999999999905,1.0772000000029749,1.0939000000059593,1.1144000000059577,1.130400000005963,1.1439999999999912,1.1606000000014802,1.1799999999999926,1.1939000000059536,1.2112000000029752,1.2273000000044618,1.2472000000029766,1.2616000000014793,1.277300000004459,1.2961000000014877,1.3119000000059629,1.330600000001482,1.3488000000044593,1.36399999999999,1.3799000000059607,1.3942000000029822,1.4141000000014827,1.4287000000029764,1.4439000000059536,1.4653000000044614,1.477499999999992,1.4944000000059532,1.5118000000044702,1.5293000000044685,1.544300000004469,1.560600000001486,1.5773000000044703,1.5959000000059547,1.6108000000044598,1.6273000000044675,1.6484999999999985,1.6637000000029758,1.6791000000014833,1.695900000005949,1.7109000000059496,1.7273000000044618,1.7438000000044696,1.7604000000059585,1.7771000000014823,1.7937000000029713,1.8104999999999905,1.8271000000014794,1.8442000000029708,1.8627000000029739,1.8773000000044675,1.8939999999999912,1.9153000000044642,1.9272000000029692,1.9440000000000026,1.9606000000014916,1.9817000000029736,1.9969999999999999,2.0118000000044702,2.0293000000044685,2.0437000000029713,2.0604000000059557,2.0771000000014794,2.0937000000029826,2.114600000001488,2.130400000005963,2.1439000000059565,2.160499999999999,2.177100000001488,2.1938000000044724,2.2134999999999962,2.2291000000014805,2.2476000000014835,2.26070000000297,2.2806000000014848,2.293999999999997,2.3130000000000024,2.331300000004461,2.3466000000014873,2.360600000001483,2.3799000000059607,2.395300000004468,2.4140000000000015,2.4273000000044647,2.4465000000000003,2.4609999999999985,2.4772000000029806,2.4979000000059557,2.5131000000014865,2.5272000000029777,2.54849999999999,2.5604999999999905,2.5774000000059516,2.5937000000029826,2.6129999999999995,2.6273000000044675,2.6439000000059565,2.6606000000014802,2.67930000000446,2.6939000000059536,2.7131000000014893,2.7274000000059573,2.747,2.7604999999999933,2.777300000004459,2.798700000002981,2.811300000004465,2.8273000000044703,2.844200000002971,2.8639000000059553,2.877200000002972,2.8941000000014867,2.9164000000059502,2.927200000002969,2.9440000000000026,2.9606000000014916,2.977100000001485,2.993700000002974,3.012400000005954,3.0282000000029825,3.043900000005962,3.0604999999999905,3.0771000000014794,3.0939000000059593,3.11099999999999,3.1310000000000002,3.1437000000029798,3.16040000000595,3.17930000000446,3.1939000000059536,3.2109000000059496,3.2272000000029806,3.247,3.2608000000044655,3.277300000004459,3.2989999999999924,3.310600000001486,3.327200000002975,3.3444000000059617,3.3637000000029786,3.379300000004463,3.3939000000059565,3.4139000000059525,3.4284000000059507,3.4439000000059536,3.465600000001487,3.4772000000029806,3.493900000005951,3.512800000004461,3.5308000000044615,3.5459999999999923,3.560999999999993,3.582300000004466,3.597200000002971,3.6141000000014856,3.6281000000014814,3.643800000004461,3.66040000000595,3.67740000000596,3.693700000002977,3.7128000000044636,3.7269999999999897,3.7438000000044696,3.7604000000059585,3.7771000000014823,3.7937000000029713,3.8149999999999977,3.831300000004461,3.845300000004471,3.860600000001483,3.8803000000044676,3.8939000000059565,3.9106000000014802,3.927499999999995,3.9438000000044724,3.964999999999989,3.9774000000059573,3.9939999999999998,4.018100000001482,4.027100000001482,4.043999999999997,4.0604999999999905,4.080800000004473,4.094999999999999,4.114600000001488,4.13080000000447,4.1439000000059565,4.160499999999999,4.180700000002972,4.1965,4.213499999999996,4.23280000000446,4.244,4.260600000001489,4.277200000002978,4.296499999999995,4.310700000002981,4.327200000002975,4.34710000000149,4.360500000000002,4.377200000002972,4.3939000000059565,4.4166000000014805,4.427100000001488,4.444000000000003,4.460400000005961,4.481700000002974,4.4976000000014835,4.513800000004466,4.531200000002983,4.546200000002969,4.561499999999995,4.577100000001479,4.5941000000014895,4.61380000000446,4.628100000001481,4.64370000000298,4.66040000000595,4.677499999999995,4.693800000004472,4.710400000005961,4.72699999999999,4.747100000001481,4.763999999999996,4.780999999999992,4.795800000004462,4.8160000000000025,4.827100000001479,4.843999999999994,4.860600000001483,4.8799999999999955,4.894400000005959,4.910700000002976,4.93230000000446,4.952999999999989,4.969600000001492,4.977200000002981,4.996600000001479,5.01180000000447,5.027200000002978,5.048100000001483,5.060400000005956,5.07730000000447,5.093800000004464,5.116600000001483,5.1273000000044675,5.143999999999991,5.160499999999999,5.179100000001483,5.193800000004472,5.210499999999996,5.22699999999999,5.2438000000044696,5.2604000000059585,5.277100000001482,5.293700000002971,5.310400000005956,5.326999999999998,5.3441000000014895,5.360400000005953,5.380400000005963,5.393800000004461,5.410499999999999,5.427499999999995,5.443700000002977,5.460400000005961,5.477100000001485,5.493700000002974,5.51070000000297,5.527000000000001,5.546499999999995,5.560400000005956,5.577100000001479,5.593700000002983,5.610500000000002,5.627100000001491,5.643800000004461,5.660499999999999,5.67740000000596,5.693700000002977,5.710499999999996,5.72699999999999,5.7438000000044696,5.7604000000059585,5.777000000000001,5.793700000002971,5.8104999999999905,5.827200000002975,5.843800000004464,5.860400000005953,5.876999999999995,5.893600000001484,5.913800000004471,5.929700000002981,5.943700000002977,5.960400000005961,5.977100000001485,5.99590000000596,6.010600000001489,6.027000000000001,6.043700000002971,6.06030000000446,6.077100000001479,6.093700000002983,6.1111000000014855,6.127100000001491,6.1439000000059565,6.16040000000595,6.177200000002969,6.193700000002977,6.214300000004471,6.2298000000044595,6.24680000000447,6.260600000001489,6.2793000000044685,6.293800000004467,6.310400000005956,6.329900000005949,6.344700000002973,6.360400000005953,6.376999999999995,6.39370000000298,6.413700000002976,6.429100000001483,6.443700000002977,6.460300000004466,6.47699999999999,6.493700000002974,6.511600000001479,6.527000000000001,6.546700000002971,6.56030000000446,6.577100000001479,6.5941000000014895,6.613500000000002,6.627400000005963,6.64860000000148,6.6639000000059525,6.679800000004462,6.694200000002979]","[1732587182634,1732587182674,1732587182683,1732587182699,1732587182718,1732587182740,1732587182755,1732587182766,1732587182783,1732587182800,1732587182816,1732587182836,1732587182850,1732587182868,1732587182883,1732587182899,1732587182916,1732587182933,1732587182949,1732587182967,1732587182983,1732587183002,1732587183016,1732587183033,1732587183050,1732587183066,1732587183086,1732587183100,1732587183116,1732587183134,1732587183149,1732587183170,1732587183183,1732587183199,1732587183216,1732587183233,1732587183250,1732587183266,1732587183283,1732587183300,1732587183316,1732587183333,1732587183349,1732587183370,1732587183385,1732587183400,1732587183416,1732587183433,1732587183449,1732587183466,1732587183483,1732587183502,1732587183516,1732587183535,1732587183549,1732587183566,1732587183583,1732587183599,1732587183620,1732587183636,1732587183649,1732587183666,1732587183683,1732587183699,1732587183716,1732587183737,1732587183753,1732587183766,1732587183783,1732587183802,1732587183816,1732587183833,1732587183850,1732587183869,1732587183884,1732587183900,1732587183918,1732587183934,1732587183953,1732587183971,1732587183986,1732587184002,1732587184016,1732587184036,1732587184051,1732587184066,1732587184088,1732587184100,1732587184117,1732587184134,1732587184152,1732587184167,1732587184183,1732587184199,1732587184218,1732587184233,1732587184250,1732587184271,1732587184286,1732587184301,1732587184318,1732587184333,1732587184350,1732587184366,1732587184383,1732587184399,1732587184416,1732587184433,1732587184449,1732587184466,1732587184485,1732587184499,1732587184516,1732587184538,1732587184550,1732587184566,1732587184583,1732587184604,1732587184619,1732587184634,1732587184652,1732587184666,1732587184683,1732587184699,1732587184716,1732587184737,1732587184753,1732587184766,1732587184783,1732587184799,1732587184816,1732587184836,1732587184851,1732587184870,1732587184883,1732587184903,1732587184916,1732587184935,1732587184954,1732587184969,1732587184983,1732587185002,1732587185018,1732587185036,1732587185050,1732587185069,1732587185083,1732587185099,1732587185120,1732587185135,1732587185149,1732587185171,1732587185183,1732587185200,1732587185216,1732587185235,1732587185249,1732587185266,1732587185283,1732587185302,1732587185316,1732587185335,1732587185350,1732587185369,1732587185383,1732587185399,1732587185421,1732587185434,1732587185450,1732587185466,1732587185486,1732587185499,1732587185516,1732587185539,1732587185549,1732587185566,1732587185583,1732587185599,1732587185616,1732587185635,1732587185650,1732587185666,1732587185683,1732587185699,1732587185716,1732587185733,1732587185753,1732587185766,1732587185783,1732587185801,1732587185816,1732587185833,1732587185849,1732587185869,1732587185883,1732587185899,1732587185921,1732587185933,1732587185949,1732587185967,1732587185986,1732587186002,1732587186016,1732587186036,1732587186051,1732587186066,1732587186088,1732587186099,1732587186116,1732587186135,1732587186153,1732587186168,1732587186183,1732587186205,1732587186219,1732587186236,1732587186250,1732587186266,1732587186283,1732587186300,1732587186316,1732587186335,1732587186349,1732587186366,1732587186383,1732587186399,1732587186416,1732587186437,1732587186454,1732587186467,1732587186483,1732587186503,1732587186516,1732587186533,1732587186550,1732587186566,1732587186587,1732587186600,1732587186616,1732587186640,1732587186649,1732587186666,1732587186683,1732587186703,1732587186717,1732587186737,1732587186753,1732587186766,1732587186783,1732587186803,1732587186819,1732587186836,1732587186855,1732587186866,1732587186883,1732587186900,1732587186919,1732587186933,1732587186949,1732587186969,1732587186983,1732587186999,1732587187016,1732587187039,1732587187049,1732587187066,1732587187083,1732587187104,1732587187120,1732587187136,1732587187153,1732587187168,1732587187184,1732587187199,1732587187216,1732587187236,1732587187250,1732587187266,1732587187283,1732587187300,1732587187316,1732587187333,1732587187349,1732587187369,1732587187386,1732587187403,1732587187418,1732587187438,1732587187449,1732587187466,1732587187483,1732587187502,1732587187517,1732587187533,1732587187555,1732587187575,1732587187592,1732587187599,1732587187619,1732587187634,1732587187649,1732587187670,1732587187683,1732587187700,1732587187716,1732587187739,1732587187750,1732587187766,1732587187783,1732587187801,1732587187816,1732587187833,1732587187849,1732587187866,1732587187883,1732587187899,1732587187916,1732587187933,1732587187949,1732587187966,1732587187983,1732587188003,1732587188016,1732587188033,1732587188050,1732587188066,1732587188083,1732587188099,1732587188116,1732587188133,1732587188149,1732587188169,1732587188183,1732587188199,1732587188216,1732587188233,1732587188249,1732587188266,1732587188283,1732587188300,1732587188316,1732587188333,1732587188349,1732587188366,1732587188383,1732587188399,1732587188416,1732587188433,1732587188449,1732587188466,1732587188483,1732587188499,1732587188516,1732587188536,1732587188552,1732587188566,1732587188583,1732587188599,1732587188618,1732587188633,1732587188649,1732587188666,1732587188683,1732587188699,1732587188716,1732587188733,1732587188749,1732587188766,1732587188783,1732587188799,1732587188816,1732587188837,1732587188852,1732587188869,1732587188883,1732587188902,1732587188916,1732587188933,1732587188952,1732587188967,1732587188983,1732587188999,1732587189016,1732587189036,1732587189051,1732587189066,1732587189083,1732587189099,1732587189116,1732587189134,1732587189149,1732587189169,1732587189183,1732587189199,1732587189216,1732587189236,1732587189250,1732587189271,1732587189286,1732587189302,1732587189316]","[[889.3,464.3],[889.3,464.3],[895.2,474.2],[860.1,470.9],[825,467.6],[839.6,496.7],[839.6,496.7],[848.8,530.5],[840,546.1],[844.5,565.6],[858.3,585.1],[884,602.5],[885.6,622.3],[880.9,636.2],[895.3,645.1],[909.7,654],[909.7,654],[903.3,639],[904.8,616],[903.4,591.6],[901.7,570.8],[911.2,549.8],[905.2,551.1],[894.7,556.4],[884.2,561.7],[881.9,569.9],[899.9,567.8],[911.9,577.5],[899.3,596.7],[889.2,605.6],[879.1,614.5],[848.9,633.3],[842.5,628.6],[855.7,618.4],[870.8,616.3],[892.2,604],[861.1,612.8],[828.4,615.6],[843.7,598.8],[839.6,601.1],[822.7,603.3],[829,579.8],[809.9,577.7],[819.1,572.5],[804.8,577.3],[760.3,588],[760.3,588],[748,587.9],[729.3,598.8],[704.4,605.9],[683,613.6],[729.8,610.7],[733.4,629.3],[775.1,619.2],[788.5,612.2],[812.9,607.4],[847.1,614.9],[883.6,627.5],[930.6,629],[974.8,628.4],[974.8,628.4],[1031.5,622.7],[1015.5,620.3],[1026.2,607.7],[1015,638.5],[1000,643.9],[1000,643.9],[994.4,655.3],[996.3,667.3],[999.1,666.9],[999.1,666.9],[966.1,654.7],[955.5,666.7],[942.4,666.3],[937.9,691.2],[934.6,719.6],[938.7,717.3],[921,747.1],[904.5,750.6],[897.4,738.7],[886.8,730.2],[915.1,748.1],[884.2,761.4],[872.1,765.5],[865.3,768],[850.2,771.7],[820.6,779.8],[820.6,779.8],[838.8,770.8],[857.3,751],[858.9,746],[878.6,756.6],[891.1,752.7],[908.2,756.2],[908.2,756.2],[920.7,759.6],[940.3,753],[951.1,742.8],[975.9,723.8],[977.1,720.8],[977.1,720.8],[979.7,721.2],[984.6,731.5],[964.8,730.6],[932.3,715.9],[939.3,699.8],[938.4,702.5],[918.2,688.9],[904,696.2],[883.2,694.4],[881,710.1],[881,709.6],[869.4,702.3],[875.2,702.3],[875.2,702.3],[882.2,700.8],[882.2,700.8],[880.7,683.6],[872.1,667.4],[868.5,657.2],[854.7,638.5],[882.7,631.7],[885.7,605.6],[876.2,593.4],[875.6,592.6],[856.9,574],[871.6,580.1],[871.6,580.1],[873.1,592.3],[883.2,598.8],[903.9,609.3],[921.7,608.8],[906.5,604.8],[891.9,598.9],[914.5,620.2],[945.6,607.2],[970.1,607.3],[968.1,621.1],[966.1,634.9],[961.9,642.2],[937.6,646.1],[924.2,632.6],[909.1,624.2],[908.6,623.7],[885.8,615.9],[863.5,631.7],[851.4,642],[835,621.7],[818.6,601.4],[792.3,579],[803.3,567.5],[806.9,565.8],[806.9,565.8],[834.7,597.9],[851.5,586.7],[846.9,583.4],[816.4,559],[824.7,557],[835.3,547.6],[845.9,538.2],[848,555],[825.4,541.2],[822.7,560.3],[810.6,552.2],[810.4,565],[817.6,547.7],[842.1,547.7],[842.1,547.7],[839,542.4],[844.1,556],[851.1,557.9],[851.1,557.9],[867.5,545.3],[909,553.2],[909,553.2],[943.7,557.8],[963.6,555.8],[961.5,558.8],[969,576.6],[961.1,593],[962.5,599.9],[962.3,602.8],[958.2,618.4],[963.8,635.6],[966.8,661.9],[969.1,668.4],[971.4,674.9],[971.4,674.9],[959.9,674],[972,672.2],[972,672.2],[982.4,662],[983,647.7],[999,643.1],[997.1,625.9],[1002.6,611.1],[993.1,589.8],[993.1,589.8],[977.1,558.1],[964.2,532.2],[965.8,510.3],[964.4,511.2],[965.3,501.6],[960.5,498.6],[950.9,498],[961.2,509],[958.5,507.3],[958.5,507.3],[957.6,503.5],[940.9,512.7],[926.9,522.4],[918.2,535.1],[881.1,520.2],[891,531.2],[898.8,530.4],[908.9,538.6],[919,546.8],[912.7,565.6],[904.8,587.1],[936.1,612],[960.1,630.1],[983.2,643.1],[1012.2,659],[1007.4,665.1],[1006.2,675.1],[1007.1,674.5],[997.7,671.8],[1010.3,668.8],[1034.7,673.9],[1024.5,652],[1033.6,649.8],[1050.2,644.4],[1047.9,649.6],[1037.5,648],[1034.3,657.6],[1026.2,651.1],[1023.5,645.7],[1023.5,645.7],[1041.7,660.5],[1013.6,639.5],[1013.6,639.5],[1041.9,656.7],[1047.2,673.3],[1027.5,684.2],[1033.4,665.5],[1033.4,665.5],[1063.1,674.5],[1063.1,674.5],[1077.4,657.1],[1072.6,654.6],[1065.6,646.6],[1037.7,618.4],[1034.9,609.8],[1034.9,609.8],[1010.5,590.4],[983.6,550.8],[983.6,550.8],[990.6,539.6],[989.1,542.5],[976.7,528.9],[976.7,528.9],[968.5,531.9],[976.2,516.8],[993,525.8],[993,525.8],[1007.7,528.8],[1028,532.8],[1047.1,543.1],[1069.8,554.9],[1084.7,560.3],[1107.2,568.4],[1105.3,570.7],[1103.7,555.1],[1095.2,548.3],[1100.9,537.4],[1108.7,532.5],[1117.9,528.6],[1111.2,512],[1091.1,504.5],[1071,497],[1077.2,494.8],[1077.2,494.8],[1087.3,500.9],[1121.1,520.4],[1136.2,528.3],[1125.4,528.6],[1114.6,528.9],[1098.2,534.8],[1098.2,534.8],[1085.4,542.2],[1121.6,542.6],[1113.2,531.5],[1082.7,521.8],[1082,507],[1058.8,495.5],[1058.8,495.5],[1028.6,495.9],[1028.6,495.9],[1021.8,498.4],[1004.2,471.8],[981.5,446.9],[990.7,432.5],[990.7,432.5],[963.4,421],[948.4,427.2],[917.6,417.3],[917.6,417.3],[892.1,423.7],[875.4,426.3],[867.4,426.3],[867.4,426.3],[865.4,415.5],[882.9,443.8],[872.9,449.7],[871.5,454.1],[828,438.8],[856.5,429.8],[850,417],[878.6,427.6],[848.2,411],[884,409.7],[860,396.8],[875.1,398.8],[873.6,395.8],[866.6,387.3],[868.5,382.1],[865,386],[890.7,385.4],[871.2,369],[901.9,383.6],[880.6,390.3],[886.1,414.5],[849.8,392.5],[861,406.1],[833.6,414.7],[829.8,430.5],[815.5,435],[801.2,450.2],[799.3,449],[786.4,458.9],[779.7,453.6],[772.8,448.8],[759.9,465.3],[758.8,472.5],[767.1,486.9],[800,491.6],[784.6,492],[776.5,487.2],[770.4,484.7],[775.3,471.1],[780.8,467.2],[799.8,459.7],[818.7,461.4],[830.6,445.6],[833.1,422.6],[828.7,420.9],[828.7,420.9],[848.8,413.2],[864.9,410.3],[869.9,418.3],[874.9,426.3],[871.5,429.6],[869.4,433.2],[873.8,437],[875.8,452.7],[872.9,473.3],[872.9,473.3],[863.7,483.2],[870.1,499],[873.6,512.6],[865.5,511.7],[852.5,507.4],[857.6,511],[861.4,514.3],[851.9,506],[846.5,500.2],[849.1,491.3],[854.9,485.8],[845.1,474.4],[853.6,479.2],[864.2,485.3],[872,485.3],[866.1,482.5],[871.6,494.2],[884,508.1],[887.2,517.7],[893.1,516.5],[892.8,529.5],[881.3,531.5],[914.2,540.1],[904,539.7],[910,538.7],[897.8,574],[875.2,601.3],[851.1,657.1],[843.2,712],[846.5,752.5],[860.4,771.6],[882.6,803.6],[855.4,806],[854.5,806]]","[-0.056692,0.170076]","[0.056692,0.170076]","[0.170076,0.170076]","[-0.170076,0.056692]","[-0.170076,-0.170076]","[-0.170076,-0.056692]","[-0.056692,0.056692]","[0.056692,0.056692]","[0.170076,0.056692]","[-0.056692,-0.170076]","[0.056692,-0.170076]","[0.170076,-0.170076]","[-0.056692,-0.056692]","[0.056692,-0.056692]","[0.170076,-0.056692]",0,0,0,0,1,2,Smartphone,15,20,8,3,70,4,3,60,4
