inst1_resp.keys,inst1_resp.rt,calibrationMouse.x,calibrationMouse.y,calibrationMouse.leftButton,calibrationMouse.midButton,calibrationMouse.rightButton,calibrationClick.x,calibrationClick.y,calibrationClick.leftButton,calibrationClick.midButton,calibrationClick.rightButton,trialsc.thisRepN,trialsc.thisTrialN,trialsc.thisN,trialsc.thisIndex,trialsc.ran,calibration_x,calibration_y,participant,session,date,expName,psychopyVersion,OS,frameRate,calibrationClick.clicked_name,ScreenRes_pixels,Camera_pixels,mouse_2.x,mouse_2.y,mouse_2.leftButton,mouse_2.midButton,mouse_2.rightButton,mouse_2.time,mouse_2.clicked_name,mouse.x,mouse.y,mouse.leftButton,mouse.midButton,mouse.rightButton,mouse.time,mouse.clicked_name,Choice,Trial,TrialDuration,MOUSE_GAZE,ET_GAZE,ET_GAZE_x_T,time,unixTime,ET_GAZE_NF,Loc_Bus_label,Loc_Metro_label,Loc_RH_label,Loc_Cost_label,Loc_Travel_label,Loc_Comfort_label,Loc_Bus_cost,Loc_Metro_cost,Loc_RH_cost,Loc_Bus_travel,Loc_Metro_travel,Loc_RH_travel,Loc_Bus_comfort,Loc_Metro_comfort,Loc_RH_comfort,trials.thisRepN,trials.thisTrialN,trials.thisN,trials.thisIndex,trials.ran,Block,Device,RH_cost,RH_travel_time,RH_Comfort,metro_cost,metro_travel_time,metro_Comfort,Bus_cost,Bus_travel_time,Bus_Comfort
space,1.9824,0.089583333,-0.259259259,1,0,0,-0.304166667,0.648148148,0,0,0,0,0,0,8,1,-0.33,0.67,14,001,2024-11-21_11h04.33.430,Attention_exp_legacy,2023.1.0,Win32,59.88023952,,,,,,,,,,,,,,,,,,,,,,,,,,,,,,,,,,,,,,,,,,,,,,,,,,,,,,,,,
,,,,,,,-0.666666667,-0.007407407,1,0,0,0,1,1,2,1,-0.67,0,14,001,2024-11-21_11h04.33.430,Attention_exp_legacy,2023.1.0,Win32,59.88023952,calibration_square,,,,,,,,,,,,,,,,,,,,,,,,,,,,,,,,,,,,,,,,,,,,,,,,,,,,,,,,
,,,,,,,0.319791667,-0.67037037,1,0,0,0,2,2,14,1,0.33,-0.67,14,001,2024-11-21_11h04.33.430,Attention_exp_legacy,2023.1.0,Win32,59.88023952,,,,,,,,,,,,,,,,,,,,,,,,,,,,,,,,,,,,,,,,,,,,,,,,,,,,,,,,,
,,,,,,,0.326041667,0.007407407,1,0,0,0,3,3,16,1,0.33,0,14,001,2024-11-21_11h04.33.430,Attention_exp_legacy,2023.1.0,Win32,59.88023952,calibration_square,,,,,,,,,,,,,,,,,,,,,,,,,,,,,,,,,,,,,,,,,,,,,,,,,,,,,,,,
,,,,,,,0.679166667,-0.681481481,1,0,0,0,4,4,20,1,0.67,-0.67,14,001,2024-11-21_11h04.33.430,Attention_exp_legacy,2023.1.0,Win32,59.88023952,,,,,,,,,,,,,,,,,,,,,,,,,,,,,,,,,,,,,,,,,,,,,,,,,,,,,,,,,
,,,,,,,0.325,-0.335185185,1,0,0,0,5,5,15,1,0.33,-0.33,14,001,2024-11-21_11h04.33.430,Attention_exp_legacy,2023.1.0,Win32,59.88023952,calibration_square,,,,,,,,,,,,,,,,,,,,,,,,,,,,,,,,,,,,,,,,,,,,,,,,,,,,,,,,
,,,,,,,-0.664583333,-0.677777778,1,0,0,0,6,6,0,1,-0.67,-0.67,14,001,2024-11-21_11h04.33.430,Attention_exp_legacy,2023.1.0,Win32,59.88023952,calibration_square,,,,,,,,,,,,,,,,,,,,,,,,,,,,,,,,,,,,,,,,,,,,,,,,,,,,,,,,
,,,,,,,-0.335416667,-0.662962963,1,0,0,0,7,7,4,1,-0.33,-0.67,14,001,2024-11-21_11h04.33.430,Attention_exp_legacy,2023.1.0,Win32,59.88023952,calibration_square,,,,,,,,,,,,,,,,,,,,,,,,,,,,,,,,,,,,,,,,,,,,,,,,,,,,,,,,
,,,,,,,-0.345833333,-0.331481481,1,0,0,0,8,8,5,1,-0.33,-0.33,14,001,2024-11-21_11h04.33.430,Attention_exp_legacy,2023.1.0,Win32,59.88023952,,,,,,,,,,,,,,,,,,,,,,,,,,,,,,,,,,,,,,,,,,,,,,,,,,,,,,,,,
,,,,,,,-0.666666667,-0.344444444,1,0,0,0,9,9,1,1,-0.67,-0.33,14,001,2024-11-21_11h04.33.430,Attention_exp_legacy,2023.1.0,Win32,59.88023952,,,,,,,,,,,,,,,,,,,,,,,,,,,,,,,,,,,,,,,,,,,,,,,,,,,,,,,,,
,,,,,,,0.002083333,-0.677777778,1,0,0,0,10,10,9,1,0,-0.67,14,001,2024-11-21_11h04.33.430,Attention_exp_legacy,2023.1.0,Win32,59.88023952,calibration_square,,,,,,,,,,,,,,,,,,,,,,,,,,,,,,,,,,,,,,,,,,,,,,,,,,,,,,,,
,,,,,,,-0.33125,0.32962963,1,0,0,0,11,11,7,1,-0.33,0.33,14,001,2024-11-21_11h04.33.430,Attention_exp_legacy,2023.1.0,Win32,59.88023952,calibration_square,,,,,,,,,,,,,,,,,,,,,,,,,,,,,,,,,,,,,,,,,,,,,,,,,,,,,,,,
,,,,,,,0,0.014814815,1,0,0,0,12,12,11,1,0,0,14,001,2024-11-21_11h04.33.430,Attention_exp_legacy,2023.1.0,Win32,59.88023952,,,,,,,,,,,,,,,,,,,,,,,,,,,,,,,,,,,,,,,,,,,,,,,,,,,,,,,,,
,,,,,,,-0.666666667,0.325925926,1,0,0,0,13,13,3,1,-0.67,0.33,14,001,2024-11-21_11h04.33.430,Attention_exp_legacy,2023.1.0,Win32,59.88023952,calibration_square,,,,,,,,,,,,,,,,,,,,,,,,,,,,,,,,,,,,,,,,,,,,,,,,,,,,,,,,
,,,,,,,0.004166667,-0.325925926,1,0,0,0,14,14,10,1,0,-0.33,14,001,2024-11-21_11h04.33.430,Attention_exp_legacy,2023.1.0,Win32,59.88023952,calibration_square,,,,,,,,,,,,,,,,,,,,,,,,,,,,,,,,,,,,,,,,,,,,,,,,,,,,,,,,
,,,,,,,0.334375,0.338888889,1,0,0,0,15,15,17,1,0.33,0.33,14,001,2024-11-21_11h04.33.430,Attention_exp_legacy,2023.1.0,Win32,59.88023952,calibration_square,,,,,,,,,,,,,,,,,,,,,,,,,,,,,,,,,,,,,,,,,,,,,,,,,,,,,,,,
,,,,,,,0.002083333,0.668518519,1,0,0,0,16,16,13,1,0,0.67,14,001,2024-11-21_11h04.33.430,Attention_exp_legacy,2023.1.0,Win32,59.88023952,calibration_square,,,,,,,,,,,,,,,,,,,,,,,,,,,,,,,,,,,,,,,,,,,,,,,,,,,,,,,,
,,,,,,,-0.342708333,0.001851852,1,0,0,0,17,17,6,1,-0.33,0,14,001,2024-11-21_11h04.33.430,Attention_exp_legacy,2023.1.0,Win32,59.88023952,,,,,,,,,,,,,,,,,,,,,,,,,,,,,,,,,,,,,,,,,,,,,,,,,,,,,,,,,
,,,,,,,0.325,0.681481481,1,0,0,0,18,18,18,1,0.33,0.67,14,001,2024-11-21_11h04.33.430,Attention_exp_legacy,2023.1.0,Win32,59.88023952,,,,,,,,,,,,,,,,,,,,,,,,,,,,,,,,,,,,,,,,,,,,,,,,,,,,,,,,,
,,,,,,,0.010416667,0.325925926,1,0,0,0,19,19,12,1,0,0.33,14,001,2024-11-21_11h04.33.430,Attention_exp_legacy,2023.1.0,Win32,59.88023952,,,,,,,,,,,,,,,,,,,,,,,,,,,,,,,,,,,,,,,,,,,,,,,,,,,,,,,,,
,,,,,,,0.670833333,0.677777778,1,0,0,0,20,20,19,1,0.67,0.67,14,001,2024-11-21_11h04.33.430,Attention_exp_legacy,2023.1.0,Win32,59.88023952,calibration_square,,,,,,,,,,,,,,,,,,,,,,,,,,,,,,,,,,,,,,,,,,,,,,,,,,,,,,,,
,,,,,,,,,,,,,,,,,,,14,001,2024-11-21_11h04.33.430,Attention_exp_legacy,2023.1.0,Win32,59.88023952,,"[1920,1080]","[640,480]",[0.01875],[-0.5333333333333333],[1],[0],[0],[1.146499999999996],"[""StartButton""]",[0.05520833333333333],[0.17777777777777778],[1],[0],[0],[4.967699999809263],"[""Metro_label""]",Metro_label,1,6.0047,"[[0.06979166666666667,-0.34074074074074073],[0.06979166666666667,-0.34074074074074073],[0.06979166666666667,-0.34074074074074073],[0.06979166666666667,-0.34074074074074073],[0.06979166666666667,-0.34074074074074073],[0.06979166666666667,-0.34074074074074073],[0.06979166666666667,-0.34074074074074073],[0.06979166666666667,-0.34074074074074073],[0.06979166666666667,-0.34074074074074073],[0.06979166666666667,-0.34074074074074073],[0.06979166666666667,-0.34074074074074073],[0.06979166666666667,-0.34074074074074073],[0.06979166666666667,-0.34074074074074073],[0.06979166666666667,-0.34074074074074073],[0.06979166666666667,-0.34074074074074073],[0.06979166666666667,-0.34074074074074073],[0.06979166666666667,-0.34074074074074073],[0.06979166666666667,-0.34074074074074073],[0.06979166666666667,-0.34074074074074073],[0.06979166666666667,-0.34074074074074073],[0.06979166666666667,-0.34074074074074073],[0.06979166666666667,-0.34074074074074073],[0.06979166666666667,-0.34074074074074073],[0.06979166666666667,-0.34074074074074073],[0.06979166666666667,-0.34074074074074073],[0.06979166666666667,-0.34074074074074073],[0.06979166666666667,-0.34074074074074073],[0.06979166666666667,-0.34074074074074073],[0.06979166666666667,-0.34074074074074073],[0.06979166666666667,-0.34074074074074073],[0.06979166666666667,-0.34074074074074073],[0.06979166666666667,-0.34074074074074073],[0.06979166666666667,-0.34074074074074073],[0.06979166666666667,-0.34074074074074073],[0.06979166666666667,-0.34074074074074073],[0.06979166666666667,-0.34074074074074073],[0.06979166666666667,-0.34074074074074073],[0.06979166666666667,-0.34074074074074073],[0.06979166666666667,-0.34074074074074073],[0.06979166666666667,-0.34074074074074073],[0.06979166666666667,-0.34074074074074073],[0.06979166666666667,-0.34074074074074073],[0.06979166666666667,-0.34074074074074073],[0.06979166666666667,-0.34074074074074073],[0.06979166666666667,-0.34074074074074073],[0.06979166666666667,-0.34074074074074073],[0.06979166666666667,-0.34074074074074073],[0.06979166666666667,-0.34074074074074073],[0.06979166666666667,-0.34074074074074073],[0.06979166666666667,-0.34074074074074073],[0.06979166666666667,-0.34074074074074073],[0.06979166666666667,-0.34074074074074073],[0.06979166666666667,-0.34074074074074073],[0.06979166666666667,-0.34074074074074073],[0.06979166666666667,-0.34074074074074073],[0.06979166666666667,-0.34074074074074073],[0.06979166666666667,-0.34074074074074073],[0.06979166666666667,-0.34074074074074073],[0.06979166666666667,-0.34074074074074073],[0.06979166666666667,-0.34074074074074073],[0.06979166666666667,-0.34074074074074073],[0.06979166666666667,-0.34074074074074073],[0.06979166666666667,-0.34074074074074073],[0.06979166666666667,-0.34074074074074073],[0.06979166666666667,-0.34074074074074073],[0.06979166666666667,-0.34074074074074073],[0.06979166666666667,-0.34074074074074073],[0.06979166666666667,-0.34074074074074073],[0.06979166666666667,-0.34074074074074073],[0.06979166666666667,-0.34074074074074073],[0.06979166666666667,-0.34074074074074073],[0.06979166666666667,-0.34074074074074073],[0.06979166666666667,-0.34074074074074073],[0.06979166666666667,-0.34074074074074073],[0.06979166666666667,-0.34074074074074073],[0.06979166666666667,-0.34074074074074073],[0.06979166666666667,-0.34074074074074073],[0.06979166666666667,-0.34074074074074073],[0.06979166666666667,-0.34074074074074073],[0.06979166666666667,-0.34074074074074073],[0.06979166666666667,-0.34074074074074073],[0.06979166666666667,-0.34074074074074073],[0.06979166666666667,-0.34074074074074073],[0.06979166666666667,-0.34074074074074073],[0.06979166666666667,-0.34074074074074073],[0.06979166666666667,-0.34074074074074073],[0.06979166666666667,-0.34074074074074073],[0.06979166666666667,-0.34074074074074073],[0.06979166666666667,-0.34074074074074073],[0.06979166666666667,-0.34074074074074073],[0.06979166666666667,-0.34074074074074073],[0.06979166666666667,-0.34074074074074073],[0.06979166666666667,-0.34074074074074073],[0.06979166666666667,-0.34074074074074073],[0.06979166666666667,-0.34074074074074073],[0.06979166666666667,-0.34074074074074073],[0.06979166666666667,-0.34074074074074073],[0.06979166666666667,-0.34074074074074073],[0.06979166666666667,-0.34074074074074073],[0.06979166666666667,-0.34074074074074073],[0.06979166666666667,-0.34074074074074073],[0.06979166666666667,-0.34074074074074073],[0.06979166666666667,-0.34074074074074073],[0.06979166666666667,-0.34074074074074073],[0.06979166666666667,-0.34074074074074073],[0.06979166666666667,-0.34074074074074073],[0.06979166666666667,-0.34074074074074073],[0.06979166666666667,-0.34074074074074073],[0.06979166666666667,-0.34074074074074073],[0.06979166666666667,-0.34074074074074073],[0.06979166666666667,-0.34074074074074073],[0.06979166666666667,-0.34074074074074073],[0.06979166666666667,-0.34074074074074073],[0.06979166666666667,-0.34074074074074073],[0.06979166666666667,-0.34074074074074073],[0.06979166666666667,-0.34074074074074073],[0.06979166666666667,-0.34074074074074073],[0.06979166666666667,-0.34074074074074073],[0.06979166666666667,-0.34074074074074073],[0.06979166666666667,-0.34074074074074073],[0.06979166666666667,-0.34074074074074073],[0.06979166666666667,-0.34074074074074073],[0.06979166666666667,-0.34074074074074073],[0.06979166666666667,-0.34074074074074073],[0.06979166666666667,-0.34074074074074073],[0.06979166666666667,-0.34074074074074073],[0.06979166666666667,-0.34074074074074073],[0.06979166666666667,-0.34074074074074073],[0.06979166666666667,-0.34074074074074073],[0.06979166666666667,-0.34074074074074073],[0.06979166666666667,-0.34074074074074073],[0.06979166666666667,-0.34074074074074073],[0.06979166666666667,-0.34074074074074073],[0.06979166666666667,-0.34074074074074073],[0.06979166666666667,-0.34074074074074073],[0.06979166666666667,-0.34074074074074073],[0.06979166666666667,-0.34074074074074073],[0.06979166666666667,-0.34074074074074073],[0.06979166666666667,-0.34074074074074073],[0.06979166666666667,-0.34074074074074073],[0.06979166666666667,-0.34074074074074073],[0.06979166666666667,-0.34074074074074073],[0.06979166666666667,-0.34074074074074073],[0.06979166666666667,-0.34074074074074073],[0.06979166666666667,-0.34074074074074073],[0.06979166666666667,-0.34074074074074073],[0.06979166666666667,-0.34074074074074073],[0.06979166666666667,-0.34074074074074073],[0.06979166666666667,-0.34074074074074073],[0.06979166666666667,-0.34074074074074073],[0.06979166666666667,-0.34074074074074073],[0.06979166666666667,-0.34074074074074073],[0.06979166666666667,-0.34074074074074073],[0.06979166666666667,-0.34074074074074073],[0.06979166666666667,-0.34074074074074073],[0.06979166666666667,-0.34074074074074073],[0.06979166666666667,-0.34074074074074073],[0.06979166666666667,-0.34074074074074073],[0.06979166666666667,-0.34074074074074073],[0.06979166666666667,-0.34074074074074073],[0.06979166666666667,-0.34074074074074073],[0.06979166666666667,-0.34074074074074073],[0.06979166666666667,-0.34074074074074073],[0.06979166666666667,-0.34074074074074073],[0.06979166666666667,-0.34074074074074073],[0.06979166666666667,-0.34074074074074073],[0.06979166666666667,-0.34074074074074073],[0.06979166666666667,-0.34074074074074073],[0.06979166666666667,-0.34074074074074073],[0.06979166666666667,-0.34074074074074073],[0.06979166666666667,-0.34074074074074073],[0.06979166666666667,-0.34074074074074073],[0.06979166666666667,-0.34074074074074073],[0.06979166666666667,-0.34074074074074073],[0.06979166666666667,-0.34074074074074073],[0.06979166666666667,-0.34074074074074073],[0.06979166666666667,-0.34074074074074073],[0.06979166666666667,-0.34074074074074073],[0.06979166666666667,-0.34074074074074073],[0.06979166666666667,-0.34074074074074073],[0.06979166666666667,-0.34074074074074073],[0.06979166666666667,-0.34074074074074073],[0.06979166666666667,-0.34074074074074073],[0.06979166666666667,-0.34074074074074073],[0.06979166666666667,-0.34074074074074073],[0.06979166666666667,-0.34074074074074073],[0.06979166666666667,-0.34074074074074073],[0.06979166666666667,-0.34074074074074073],[0.06979166666666667,-0.34074074074074073],[0.06979166666666667,-0.34074074074074073],[0.06979166666666667,-0.34074074074074073],[0.06979166666666667,-0.34074074074074073],[0.06979166666666667,-0.34074074074074073],[0.06979166666666667,-0.34074074074074073],[0.071875,-0.3388888888888889],[0.07604166666666666,-0.32222222222222224],[0.08125,-0.3],[0.08645833333333333,-0.2759259259259259],[0.09270833333333334,-0.24444444444444444],[0.10104166666666667,-0.2111111111111111],[0.10729166666666666,-0.17777777777777778],[0.11145833333333334,-0.1425925925925926],[0.11770833333333333,-0.11296296296296296],[0.12395833333333334,-0.07962962962962963],[0.128125,-0.044444444444444446],[0.13645833333333332,0.018518518518518517],[0.1375,0.040740740740740744],[0.14270833333333333,0.09444444444444444],[0.146875,0.12777777777777777],[0.15104166666666666,0.16111111111111112],[0.15104166666666666,0.17962962962962964],[0.15104166666666666,0.18703703703703703],[0.15,0.1925925925925926],[0.146875,0.1925925925925926],[0.14479166666666668,0.1925925925925926],[0.14479166666666668,0.1925925925925926],[0.14479166666666668,0.1925925925925926],[0.14479166666666668,0.1925925925925926],[0.14479166666666668,0.1925925925925926],[0.14479166666666668,0.1925925925925926],[0.14479166666666668,0.1925925925925926],[0.14479166666666668,0.1925925925925926],[0.14479166666666668,0.1925925925925926],[0.14479166666666668,0.1925925925925926],[0.14479166666666668,0.1925925925925926],[0.14479166666666668,0.1925925925925926],[0.14375,0.1925925925925926],[0.14166666666666666,0.18888888888888888],[0.14166666666666666,0.18333333333333332],[0.14166666666666666,0.18333333333333332],[0.14166666666666666,0.18333333333333332],[0.14166666666666666,0.18333333333333332],[0.14166666666666666,0.18333333333333332],[0.14166666666666666,0.18333333333333332],[0.14166666666666666,0.18333333333333332],[0.14166666666666666,0.18333333333333332],[0.14166666666666666,0.18333333333333332],[0.14166666666666666,0.18333333333333332],[0.14166666666666666,0.18333333333333332],[0.14166666666666666,0.18333333333333332],[0.14166666666666666,0.18333333333333332],[0.14166666666666666,0.1814814814814815],[0.13854166666666667,0.1814814814814815],[0.13333333333333333,0.1814814814814815],[0.12708333333333333,0.18333333333333332],[0.12291666666666666,0.18518518518518517],[0.11458333333333333,0.18888888888888888],[0.10520833333333333,0.18888888888888888],[0.09479166666666666,0.18888888888888888],[0.07916666666666666,0.18888888888888888],[0.075,0.18888888888888888],[0.06979166666666667,0.18888888888888888],[0.06354166666666666,0.18888888888888888],[0.0625,0.18888888888888888],[0.06041666666666667,0.18888888888888888],[0.05625,0.1814814814814815],[0.05520833333333333,0.17777777777777778],[0.053125,0.17222222222222222],[0.052083333333333336,0.16666666666666666],[0.052083333333333336,0.1648148148148148],[0.052083333333333336,0.1648148148148148],[0.052083333333333336,0.1648148148148148],[0.052083333333333336,0.1648148148148148],[0.052083333333333336,0.1648148148148148],[0.052083333333333336,0.1648148148148148],[0.052083333333333336,0.1648148148148148],[0.052083333333333336,0.16296296296296298],[0.052083333333333336,0.16296296296296298],[0.053125,0.1648148148148148],[0.053125,0.1685185185185185],[0.053125,0.17037037037037037],[0.05416666666666667,0.17407407407407408],[0.05416666666666667,0.17407407407407408],[0.05520833333333333,0.17407407407407408],[0.05520833333333333,0.17407407407407408],[0.05520833333333333,0.17407407407407408],[0.05520833333333333,0.17407407407407408],[0.05520833333333333,0.17407407407407408],[0.05520833333333333,0.17407407407407408],[0.05520833333333333,0.17407407407407408],[0.05520833333333333,0.17407407407407408],[0.05520833333333333,0.17407407407407408],[0.05520833333333333,0.17407407407407408],[0.05520833333333333,0.17407407407407408],[0.05520833333333333,0.17407407407407408],[0.05520833333333333,0.17407407407407408],[0.05520833333333333,0.17407407407407408],[0.05520833333333333,0.17407407407407408],[0.05520833333333333,0.17407407407407408],[0.05520833333333333,0.17592592592592593],[0.05520833333333333,0.17592592592592593],[0.05520833333333333,0.17777777777777778],[0.05520833333333333,0.17777777777777778],[0.05520833333333333,0.17777777777777778],[0.05520833333333333,0.17777777777777778],[0.05520833333333333,0.17777777777777778],[0.05520833333333333,0.17777777777777778],[0.05520833333333333,0.17777777777777778],[0.05520833333333333,0.17777777777777778],[0.05520833333333333,0.17777777777777778],[0.05520833333333333,0.17777777777777778],[0.05520833333333333,0.17777777777777778],[0.05520833333333333,0.17777777777777778],[0.05520833333333333,0.17777777777777778],[0.05520833333333333,0.17777777777777778],[0.05520833333333333,0.17777777777777778],[0.05520833333333333,0.17777777777777778],[0.05520833333333333,0.17777777777777778],[0.05520833333333333,0.17777777777777778],[0.05520833333333333,0.17777777777777778],[0.05520833333333333,0.17777777777777778],[0.05520833333333333,0.17777777777777778],[0.05520833333333333,0.17777777777777778],[0.05520833333333333,0.17777777777777778],[0.05520833333333333,0.17777777777777778],[0.05520833333333333,0.17777777777777778],[0.05520833333333333,0.17777777777777778],[0.05520833333333333,0.17777777777777778],[0.05520833333333333,0.17777777777777778],[0.05520833333333333,0.17777777777777778],[0.05520833333333333,0.17777777777777778],[0.05520833333333333,0.17777777777777778],[0.05520833333333333,0.17777777777777778],[0.05520833333333333,0.17777777777777778],[0.05520833333333333,0.17777777777777778],[0.05520833333333333,0.17777777777777778],[0.05520833333333333,0.17777777777777778],[0.05520833333333333,0.17777777777777778],[0.05520833333333333,0.17777777777777778],[0.05520833333333333,0.17777777777777778],[0.05520833333333333,0.17777777777777778],[0.05520833333333333,0.17777777777777778],[0.05520833333333333,0.17777777777777778],[0.05520833333333333,0.17777777777777778],[0.05520833333333333,0.17777777777777778],[0.05520833333333333,0.17777777777777778],[0.05520833333333333,0.17777777777777778],[0.05520833333333333,0.17777777777777778],[0.05520833333333333,0.17777777777777778],[0.05520833333333333,0.17777777777777778],[0.05520833333333333,0.17777777777777778],[0.05520833333333333,0.17777777777777778],[0.05520833333333333,0.17777777777777778],[0.05520833333333333,0.17777777777777778],[0.05520833333333333,0.17777777777777778],[0.05520833333333333,0.17777777777777778],[0.05520833333333333,0.17777777777777778],[0.05520833333333333,0.17777777777777778],[0.05520833333333333,0.17777777777777778],[0.05520833333333333,0.17777777777777778],[0.05520833333333333,0.17777777777777778],[0.05520833333333333,0.17777777777777778],[0.05520833333333333,0.17777777777777778],[0.05520833333333333,0.17777777777777778],[0.05520833333333333,0.17777777777777778],[0.05520833333333333,0.17777777777777778],[0.05520833333333333,0.17777777777777778],[0.05520833333333333,0.17777777777777778],[0.05520833333333333,0.17777777777777778]]","[[0.0234375,0.4977777777777777],[0.0234375,0.4977777777777777],[0.002916666666666619,0.4977777777777777],[-0.013020833333333334,0.49240740740740735],[-0.028958333333333287,0.48703703703703705],[-0.04010416666666667,0.48648148148148157],[-0.051250000000000046,0.4859259259259259],[-0.05947916666666669,0.4705555555555556],[-0.059583333333333384,0.4411111111111112],[-0.050729166666666714,0.42296296296296293],[-0.02302083333333336,0.4207407407407408],[-0.007291666666666667,0.4225925925925927],[0.018020833333333285,0.4353703703703704],[0.03875000000000005,0.4535185185185185],[0.05947916666666669,0.47166666666666673],[0.07635416666666663,0.4762962962962964],[0.09322916666666667,0.48092592592592603],[0.1009375000000001,0.4896296296296296],[0.10062499999999991,0.5064814814814815],[0.11906249999999995,0.5253703703703705],[0.11864583333333342,0.5283333333333332],[0.12083333333333333,0.5383333333333334],[0.13385416666666666,0.5370370370370371],[0.13385416666666666,0.5370370370370371],[0.14739583333333334,0.5261111111111112],[0.15791666666666657,0.5227777777777777],[0.15791666666666657,0.5227777777777777],[0.18020833333333333,0.5161111111111112],[0.19562499999999997,0.45129629629629636],[0.2178124999999999,0.45314814814814824],[0.23885416666666662,0.4505555555555555],[0.22322916666666662,0.4414814814814814],[0.23958333333333334,0.45500000000000007],[0.2337500000000001,0.4587037037037038],[0.2109375,0.4403703703703703],[0.18760416666666657,0.4316666666666667],[0.16906249999999995,0.3338888888888888],[0.14572916666666677,0.24314814814814806],[0.12927083333333325,0.21055555555555563],[0.11135416666666677,0.21648148148148144],[0.09343750000000005,0.22240740740740744],[0.07729166666666672,0.19703703703703698],[0.029166666666666667,0.14907407407407408],[0.01885416666666669,0.14518518518518514],[0.030624999999999975,0.130925925925926],[0.03093750000000005,0.1051851851851851],[0.01416666666666669,0.18129629629629626],[0.011770833333333286,0.27518518518518525],[0.011770833333333286,0.27518518518518525],[0.007083333333333286,0.3544444444444444],[0.010000000000000024,0.33129629629629626],[0.008749999999999977,0.3199999999999999],[0.02364583333333338,0.34444444444444444],[0.02364583333333338,0.34444444444444444],[0.041562499999999974,0.377962962962963],[0.04031250000000005,0.35703703703703693],[0.03843749999999998,0.34981481481481475],[0.03843749999999998,0.34981481481481475],[0.04802083333333336,0.35407407407407415],[0.04802083333333336,0.35407407407407415],[0.059375,0.3514814814814814],[0.06041666666666667,0.3277777777777778],[0.058541666666666714,0.327962962962963],[0.058541666666666714,0.327962962962963],[0.05354166666666664,0.3425925925925926],[0.05791666666666669,0.3464814814814815],[0.06229166666666662,0.35037037037037044],[0.07510416666666657,0.3362962962962963],[0.0796875,0.33055555555555555],[0.05291666666666662,0.3025925925925925],[0.026145833333333358,0.27462962962962956],[0.029062499999999977,0.2687037037037037],[0.02791666666666662,0.2661111111111112],[0.020729166666666642,0.26648148148148143],[0.00625,0.26074074074074066],[0.004062499999999977,0.19370370370370374],[0.0018749999999999527,0.12666666666666662],[-0.008854166666666666,0.13055555555555556],[-0.010416666666666666,0.13925925925925933],[0.02687499999999995,0.20462962962962963],[0.02687499999999995,0.20462962962962963],[0.06416666666666669,0.2699999999999999],[0.06145833333333333,0.272037037037037],[0.06989583333333324,0.29907407407407405],[0.0943749999999999,0.26851851851851855],[0.13083333333333325,0.23425925925925925],[0.13781249999999995,0.2638888888888889],[0.1560416666666666,0.2844444444444445],[0.1560416666666666,0.2844444444444445],[0.17135416666666667,0.24296296296296305],[0.17135416666666667,0.24296296296296305],[0.17374999999999996,0.2657407407407407],[0.16458333333333333,0.2540740740740742],[0.13552083333333323,0.2368518518518518],[0.13031249999999991,0.24740740740740744],[0.13208333333333327,0.2322222222222222],[0.1290625000000001,0.2624074074074075],[0.1319791666666667,0.3396296296296296],[0.146875,0.4131481481481482],[0.18979166666666672,0.5037037037037037],[0.228125,0.6085185185185186],[0.31197916666666664,0.643148148148148],[0.33656249999999993,0.6644444444444444],[0.4046875,0.6861111111111111],[0.4046875,0.6861111111111111],[0.4527083333333332,0.702962962962963],[0.4678124999999999,0.7777777777777778],[0.49406249999999996,0.8074074074074075],[0.4878124999999999,0.8150000000000001],[0.48718750000000005,0.8270370370370371],[0.48718750000000005,0.8270370370370371],[0.44729166666666675,0.831111111111111],[0.40739583333333323,0.8303703703703703],[0.33354166666666674,0.8150000000000001],[0.3394791666666668,0.8085185185185185],[0.3394791666666668,0.8085185185185185],[0.2924999999999999,0.8111111111111111],[0.2924999999999999,0.8111111111111111],[0.28760416666666655,0.8229629629629629],[0.28760416666666655,0.8229629629629629],[0.2919791666666666,0.7240740740740741],[0.2930208333333333,0.662962962962963],[0.30968749999999995,0.587037037037037],[0.3310416666666666,0.5238888888888888],[0.35104166666666664,0.4474074074074075],[0.3696875000000001,0.36018518518518516],[0.3696875000000001,0.36018518518518516],[0.4039583333333333,0.29499999999999993],[0.4039583333333333,0.29499999999999993],[0.4066666666666668,0.26944444444444443],[0.4066666666666668,0.26944444444444443],[0.44343750000000004,0.2140740740740741],[0.44343750000000004,0.2140740740740741],[0.4631249999999999,0.1596296296296297],[0.4631249999999999,0.1596296296296297],[0.4883333333333333,0.1587037037037038],[0.4883333333333333,0.1587037037037038],[0.5085416666666667,0.15],[0.509375,0.13796296296296295],[0.509375,0.13796296296296295],[0.49729166666666674,0.11685185185185189],[0.49552083333333335,0.09296296296296305],[0.4951041666666666,0.060370370370370414],[0.4861458333333334,0.03481481481481473],[0.4896874999999999,-0.007962962962962878],[0.5004166666666667,-0.01629629629629621],[0.5086458333333332,-0.0338888888888888],[0.5086458333333332,-0.0338888888888888],[0.49020833333333325,-0.04018518518518527],[0.4726041666666667,-0.048333333333333374],[0.47333333333333344,-0.05962962962962961],[0.48708333333333326,-0.08055555555555556],[0.48895833333333344,-0.10092592592592593],[0.49541666666666656,-0.11129629629629634],[0.49541666666666656,-0.11129629629629634],[0.5012500000000001,-0.12777777777777777],[0.4969791666666666,-0.15314814814814812],[0.48072916666666665,-0.18703703703703703],[0.46208333333333323,-0.21703703703703703],[0.47718749999999993,-0.25833333333333336],[0.4900000000000001,-0.2862962962962963],[0.4943749999999999,-0.3101851851851852],[0.4883333333333333,-0.33259259259259266],[0.4883333333333333,-0.33259259259259266],[0.49375,-0.32759259259259255],[0.5027083333333332,-0.3322222222222222],[0.5065624999999999,-0.33925925925925926],[0.5221874999999999,-0.3059259259259259],[0.5221874999999999,-0.3059259259259259],[0.5378124999999999,-0.27259259259259255],[0.5430208333333333,-0.275],[0.5430208333333333,-0.275],[0.5407291666666666,-0.24870370370370373],[0.5395833333333333,-0.225],[0.551875,-0.20555555555555555],[0.5590625,-0.1905555555555555],[0.553125,-0.1925925925925926],[0.5431250000000001,-0.19222222222222224],[0.5341666666666666,-0.1801851851851852],[0.5341666666666666,-0.1801851851851852],[0.5216666666666666,-0.19888888888888884],[0.4984375,-0.22518518518518524],[0.48562500000000003,-0.21574074074074073],[0.4484375,-0.22981481481481486],[0.43510416666666674,-0.23203703703703707],[0.40822916666666675,-0.24296296296296294],[0.3881249999999999,-0.24833333333333338],[0.3754166666666668,-0.2479629629629629],[0.3632291666666667,-0.2403703703703704],[0.33322916666666674,-0.2531481481481481],[0.31437499999999996,-0.2607407407407408],[0.31906249999999997,-0.2442592592592592],[0.32052083333333337,-0.23555555555555555],[0.3515625,-0.23259259259259263],[0.35989583333333336,-0.2337037037037037],[0.33604166666666657,-0.18833333333333332],[0.3145833333333333,-0.11629629629629631],[0.2872916666666666,-0.03888888888888889],[0.2599999999999999,0.03851851851851843],[0.2599999999999999,0.03851851851851843],[0.24500000000000005,0.07537037037037045],[0.2039583333333333,0.12685185185185185],[0.1788541666666667,0.13481481481481472],[0.15697916666666673,0.15055555555555547],[0.12791666666666662,0.18407407407407403],[0.10364583333333334,0.19685185185185178],[0.10906250000000005,0.1824074074074074],[0.10645833333333338,0.1448148148148149],[0.1068749999999999,0.10129629629629638],[0.12406249999999991,0.020555555555555598],[0.14187500000000006,0.027777777777777776],[0.17416666666666672,0.00592592592592601],[0.17197916666666657,0.00592592592592601],[0.16833333333333325,0.01055555555555564],[0.165625,-0.012037037037037037],[0.165625,-0.012037037037037037],[0.15239583333333329,-0.024629629629629547],[0.16260416666666658,-0.03944444444444436],[0.17708333333333334,-0.05407407407407405],[0.17979166666666657,-0.07259259259259257],[0.17770833333333325,-0.04222222222222214],[0.16447916666666676,-0.06851851851851852],[0.15166666666666656,-0.08555555555555554],[0.13572916666666662,-0.07851851851851847],[0.13208333333333327,-0.10981481481481484],[0.12989583333333338,-0.13111111111111112],[0.13177083333333334,-0.11425925925925924],[0.12302083333333323,-0.12314814814814815],[0.11895833333333337,-0.1551851851851852],[0.12666666666666657,-0.18333333333333332],[0.12666666666666657,-0.18333333333333332],[0.12239583333333333,-0.22314814814814815],[0.13322916666666676,-0.22851851851851848],[0.13322916666666676,-0.22851851851851848],[0.1493750000000001,-0.2511111111111112],[0.17510416666666656,-0.2675925925925926],[0.19000000000000009,-0.25037037037037035],[0.20281250000000003,-0.23555555555555555],[0.20281250000000003,-0.23555555555555555],[0.21906249999999997,-0.2479629629629629],[0.23583333333333342,-0.22740740740740742],[0.22906250000000009,-0.18981481481481483],[0.22385416666666677,-0.17037037037037037],[0.22604166666666667,-0.15648148148148147],[0.228125,-0.15907407407407403],[0.23708333333333323,-0.10925925925925926],[0.23708333333333323,-0.10925925925925926],[0.22885416666666672,-0.08796296296296297],[0.21624999999999991,-0.053703703703703705],[0.20385416666666673,-0.05648148148148148],[0.20385416666666673,-0.05648148148148148],[0.18072916666666666,-0.06129629629629634],[0.16156249999999991,-0.09240740740740737],[0.16156249999999991,-0.09240740740740737],[0.16927083333333334,-0.10703703703703706],[0.1728125000000001,-0.0992592592592593],[0.16895833333333338,-0.08592592592592588],[0.14260416666666675,-0.09129629629629632],[0.14260416666666675,-0.09129629629629632],[0.1040625000000001,-0.13185185185185183],[0.07645833333333343,-0.15962962962962962],[0.07645833333333343,-0.15962962962962962],[0.05927083333333331,-0.22111111111111106],[0.049270833333333285,-0.22777777777777777],[0.04458333333333329,-0.23407407407407405],[0.03895833333333331,-0.22851851851851848],[0.016666666666666666,-0.2309259259259259],[0.016666666666666666,-0.2309259259259259],[0.029166666666666667,-0.2205555555555556],[0.06062500000000005,-0.1853703703703704],[0.11864583333333342,-0.13333333333333333],[0.11864583333333342,-0.13333333333333333],[0.14093749999999997,-0.10592592592592591],[0.16802083333333329,-0.10833333333333334],[0.2085416666666667,-0.052222222222222205],[0.2085416666666667,-0.052222222222222205],[0.22947916666666662,-0.022777777777777692],[0.25,-0.004814814814814857],[0.25,-0.004814814814814857],[0.24489583333333323,-0.007777777777777862],[0.24489583333333323,-0.007777777777777862],[0.2421875,-0.018333333333333292],[0.2421875,-0.018333333333333292],[0.22312500000000005,-0.01907407407407399],[0.16260416666666658,-0.04055555555555551],[0.08125,-0.05759259259259263],[0.06114583333333338,-0.025185185185185227],[0.008645833333333287,0.006851851851851936],[0.008645833333333287,0.006851851851851936],[-0.06416666666666669,-0.0031481481481482323],[-0.078125,-0.0003703703703704546],[-0.1,0.011666666666666582],[-0.10614583333333331,0.028518518518518478],[-0.10104166666666667,0.04944444444444453],[-0.11177083333333329,0.04351851851851852],[-0.11177083333333329,0.04351851851851852],[-0.09177083333333336,0.024814814814814772],[-0.09177083333333336,0.024814814814814772],[-0.05947916666666669,0.03314814814814811],[-0.05947916666666669,0.03314814814814811],[-0.041458333333333285,0],[0.0026041666666666665,-0.01907407407407399],[0.04718749999999995,-0.034074074074074034],[0.02666666666666669,-0.056851851851851834],[0.014479166666666644,-0.07740740740740742],[0.025625000000000023,-0.059814814814814835],[0.025625000000000023,-0.059814814814814835],[0.029375000000000047,-0.06740740740740736],[0.029375000000000047,-0.06740740740740736],[0.03604166666666669,-0.05907407407407403],[0.03604166666666669,-0.05907407407407403],[0.042708333333333334,-0.022222222222222223],[0.042708333333333334,-0.022222222222222223],[0.041979166666666616,-0.032407407407407406],[0.041979166666666616,-0.032407407407407406],[0.03114583333333331,-0.06740740740740736],[0.03114583333333331,-0.06740740740740736],[0.042499999999999954,-0.07703703703703708],[0.06572916666666669,-0.07296296296296292],[0.10499999999999995,-0.07685185185185185],[0.13395833333333323,-0.07999999999999997],[0.14416666666666675,-0.10611111111111113],[0.14416666666666675,-0.10611111111111113],[0.1632291666666667,-0.11407407407407412],[0.1662499999999999,-0.15962962962962962],[0.16104166666666658,-0.225],[0.16770833333333332,-0.2729629629629629],[0.1703125,-0.2507407407407407],[0.1578125,-0.247037037037037],[0.16104166666666658,-0.28703703703703703],[0.16875,-0.3127777777777777],[0.22979166666666656,-0.3296296296296296],[0.2908333333333334,-0.3464814814814815],[0.3229166666666667,-0.3803703703703703],[0.3681250000000001,-0.3925925925925926],[0.4196875000000001,-0.384074074074074],[0.478125,-0.3824074074074074],[0.5463541666666667,-0.4075925925925926],[0.6010416666666667,-0.44592592592592595],[0.6159374999999999,-0.44222222222222224],[0.6494791666666667,-0.42388888888888887],[0.6314583333333333,-0.43444444444444447],[0.6134375000000001,-0.445],[0.6226041666666667,-0.4316666666666667],[0.6352083333333333,-0.4209259259259259],[0.6414583333333332,-0.4309259259259259],[0.6314583333333333,-0.4646296296296296],[0.6145833333333334,-0.5001851851851852],[0.603125,-0.5268518518518519],[0.6041666666666666,-0.5653703703703704],[0.5801041666666668,-0.6183333333333333],[0.5479166666666667,-0.6455555555555555],[0.5157291666666666,-0.6727777777777778],[0.4859375,-0.6988888888888889],[0.4527083333333332,-0.7224074074074075],[0.42197916666666657,-0.7737037037037037],[0.42197916666666657,-0.7737037037037037],[0.3914583333333333,-0.8096296296296296],[0.38291666666666657,-0.7983333333333333]]","[[0.0234375,0.4977777777777777,0.00040000009536811376],[0.0234375,0.4977777777777777,0.0634000000953705],[0.002916666666666619,0.4977777777777777,0.06929999971389833],[-0.013020833333333334,0.49240740740740735,0.0860999999046328],[-0.028958333333333287,0.48703703703703705,0.1026999998092677],[-0.04010416666666667,0.48648148148148157,0.12019999980926599],[-0.051250000000000046,0.4859259259259259,0.13969999980926673],[-0.05947916666666669,0.4705555555555556,0.15609999990463308],[-0.059583333333333384,0.4411111111111112,0.17029999971389742],[-0.050729166666666714,0.42296296296296293,0.18609999990463422],[-0.02302083333333336,0.4207407407407408,0.20609999990463734],[-0.007291666666666667,0.4225925925925927,0.22009999990463314],[0.018020833333333285,0.4353703703703704,0.23609999990463848],[0.03875000000000005,0.4535185185185185,0.2526999998092663],[0.05947916666666669,0.47166666666666673,0.26940000009537357],[0.07635416666666663,0.4762962962962964,0.28600000000000136],[0.09322916666666667,0.48092592592592603,0.3032999997139001],[0.1009375000000001,0.4896296296296296,0.3204000000953684],[0.10062499999999991,0.5064814814814815,0.33890000009537147],[0.11906249999999995,0.5253703703703705,0.3579000000953698],[0.11864583333333342,0.5283333333333332,0.37390000009536806],[0.12083333333333333,0.5383333333333334,0.3911999998092668],[0.13385416666666666,0.5370370370370371,0.40919999980926747],[0.13385416666666666,0.5370370370370371,0.4195000000000064],[0.14739583333333334,0.5261111111111112,0.4360999999046342],[0.15791666666666657,0.5227777777777777,0.45729999971390356],[0.15791666666666657,0.5227777777777777,0.4771999998092653],[0.18020833333333333,0.5161111111111112,0.4860000000000042],[0.19562499999999997,0.45129629629629636,0.5031999998092687],[0.2178124999999999,0.45314814814814824,0.5201999998092646],[0.23885416666666662,0.4505555555555555,0.5387999997139019],[0.22322916666666662,0.4414814814814814,0.5569000000953679],[0.23958333333333334,0.45500000000000007,0.573199999809269],[0.2337500000000001,0.4587037037037038,0.5906999998092672],[0.2109375,0.4403703703703703,0.6069000000953721],[0.18760416666666657,0.4316666666666667,0.6229000000953704],[0.16906249999999995,0.3338888888888888,0.6390999999046372],[0.14572916666666677,0.24314814814814806,0.6561999998092674],[0.12927083333333325,0.21055555555555563,0.670099999904636],[0.11135416666666677,0.21648148148148144,0.6884000000953705],[0.09343750000000005,0.22240740740740744,0.7035999999046325],[0.07729166666666672,0.19703703703703698,0.7235999999046356],[0.029166666666666667,0.14907407407407408,0.7405999999046387],[0.01885416666666669,0.14518518518518514,0.7569000000953707],[0.030624999999999975,0.130925925925926,0.7727999997139037],[0.03093750000000005,0.1051851851851851,0.7870000000000061],[0.01416666666666669,0.18129629629629626,0.8026999998092705],[0.011770833333333286,0.27518518518518525,0.8192999997138983],[0.011770833333333286,0.27518518518518525,0.8379000000953738],[0.007083333333333286,0.3544444444444444,0.8530000000000015],[0.010000000000000024,0.33129629629629626,0.8700000000000045],[0.008749999999999977,0.3199999999999999,0.8860000000000028],[0.02364583333333338,0.34444444444444444,0.9026999998092649],[0.02364583333333338,0.34444444444444444,0.9194000000953721],[0.041562499999999974,0.377962962962963,0.9362999997139028],[0.04031250000000005,0.35703703703703693,0.9560999999046373],[0.03843749999999998,0.34981481481481475,0.9730000000000061],[0.03843749999999998,0.34981481481481475,0.9860999999046385],[0.04802083333333336,0.35407407407407415,1.0027999997139005],[0.04802083333333336,0.35407407407407415,1.0194000000953736],[0.059375,0.3514814814814814,1.0360999999046356],[0.06041666666666667,0.3277777777777778,1.0525999999046363],[0.058541666666666714,0.327962962962963,1.0692999997138983],[0.058541666666666714,0.327962962962963,1.0860999999046328],[0.05354166666666664,0.3425925925925926,1.102799999713902],[0.05791666666666669,0.3464814814814815,1.1197999997138979],[0.06229166666666662,0.35037037037037044,1.1360000000000028],[0.07510416666666657,0.3362962962962963,1.1565000000000012],[0.0796875,0.33055555555555555,1.1739000000953723],[0.05291666666666662,0.3025925925925925,1.1887999997139005],[0.026145833333333358,0.27462962962962956,1.2029000000953687],[0.029062499999999977,0.2687037037037037,1.219299999713904],[0.02791666666666662,0.2661111111111112,1.2399000000953677],[0.020729166666666642,0.26648148148148143,1.2565999999046369],[0.00625,0.26074074074074066,1.2735999999046328],[0.004062499999999977,0.19370370370370374,1.2867999997138995],[0.0018749999999999527,0.12666666666666662,1.3027999997138977],[-0.008854166666666666,0.13055555555555556,1.3194000000953707],[-0.010416666666666666,0.13925925925925933,1.3360000000000056],[0.02687499999999995,0.20462962962962963,1.3526999998092677],[0.02687499999999995,0.20462962962962963,1.3694000000953679],[0.06416666666666669,0.2699999999999999,1.3860000000000028],[0.06145833333333333,0.272037037037037,1.4029000000953715],[0.06989583333333324,0.29907407407407405,1.4195999999046336],[0.0943749999999999,0.26851851851851855,1.4386999998092662],[0.13083333333333325,0.23425925925925925,1.4556999998092692],[0.13781249999999995,0.2638888888888889,1.4745000000000061],[0.1560416666666666,0.2844444444444445,1.4901999998092705],[0.1560416666666666,0.2844444444444445,1.5027999997139005],[0.17135416666666667,0.24296296296296305,1.5192999997139012],[0.17135416666666667,0.24296296296296305,1.5360000000000014],[0.17374999999999996,0.2657407407407407,1.5526999998092705],[0.16458333333333333,0.2540740740740742,1.5701999998092688],[0.13552083333333323,0.2368518518518518,1.590599999904633],[0.13031249999999991,0.24740740740740744,1.6064000000953698],[0.13208333333333327,0.2322222222222222,1.6221999998092684],[0.1290625000000001,0.2624074074074075,1.6360000000000028],[0.1319791666666667,0.3396296296296296,1.6527999997138991],[0.146875,0.4131481481481482,1.6697999997139021],[0.18979166666666672,0.5037037037037037,1.6861999998092685],[0.228125,0.6085185185185186,1.7050999999046326],[0.31197916666666664,0.643148148148148,1.7224000000953694],[0.33656249999999993,0.6644444444444444,1.7400999999046363],[0.4046875,0.6861111111111111,1.7754000000953738],[0.4046875,0.6861111111111111,1.782900000095367],[0.4527083333333332,0.702962962962963,1.79069999980927],[0.4678124999999999,0.7777777777777778,1.8066999998092683],[0.49406249999999996,0.8074074074074075,1.8237999997138985],[0.4878124999999999,0.8150000000000001,1.8410999999046354],[0.48718750000000005,0.8270370370370371,1.8569000000953721],[0.48718750000000005,0.8270370370370371,1.8692999997139026],[0.44729166666666675,0.831111111111111,1.8860000000000028],[0.40739583333333323,0.8303703703703703,1.907199999809265],[0.33354166666666674,0.8150000000000001,1.9244000000953676],[0.3394791666666668,0.8085185185185185,1.9430999999046321],[0.3394791666666668,0.8085185185185185,1.9526999998092691],[0.2924999999999999,0.8111111111111111,1.969299999713904],[0.2924999999999999,0.8111111111111111,1.9860999999046385],[0.28760416666666655,0.8229629629629629,2.0026999998092663],[0.28760416666666655,0.8229629629629629,2.0194000000953736],[0.2919791666666666,0.7240740740740741,2.0360000000000014],[0.2930208333333333,0.662962962962963,2.057000000000002],[0.30968749999999995,0.587037037037037,2.073900000095371],[0.3310416666666666,0.5238888888888888,2.091299999713904],[0.35104166666666664,0.4474074074074075,2.10790000009537],[0.3696875000000001,0.36018518518518516,2.1240999999046366],[0.3696875000000001,0.36018518518518516,2.136000000000003],[0.4039583333333333,0.29499999999999993,2.1566999998092697],[0.4039583333333333,0.29499999999999993,2.169400000095372],[0.4066666666666668,0.26944444444444443,2.186099999904634],[0.4066666666666668,0.26944444444444443,2.2071999998092693],[0.44343750000000004,0.2140740740740741,2.225299999713897],[0.44343750000000004,0.2140740740740741,2.236000000000004],[0.4631249999999999,0.1596296296296297,2.2527999997139005],[0.4631249999999999,0.1596296296296297,2.2694000000953736],[0.4883333333333333,0.1587037037037038,2.2860000000000014],[0.4883333333333333,0.1587037037037038,2.3026999998092705],[0.5085416666666667,0.15,2.3194000000953707],[0.509375,0.13796296296296295,2.3415999999046377],[0.509375,0.13796296296296295,2.3526999998092677],[0.49729166666666674,0.11685185185185189,2.3692999997139026],[0.49552083333333335,0.09296296296296305,2.387199999809269],[0.4951041666666666,0.060370370370370414,2.402699999809265],[0.4861458333333334,0.03481481481481473,2.419400000095372],[0.4896874999999999,-0.007962962962962878,2.436],[0.5004166666666667,-0.01629629629629621,2.4530999999046372],[0.5086458333333332,-0.0338888888888888,2.4695000000000036],[0.5086458333333332,-0.0338888888888888,2.486000000000004],[0.49020833333333325,-0.04018518518518527,2.5027999997139005],[0.4726041666666667,-0.048333333333333374,2.519900000095369],[0.47333333333333344,-0.05962962962962961,2.5364000000953695],[0.48708333333333326,-0.08055555555555556,2.55290000009537],[0.48895833333333344,-0.10092592592592593,2.5725999999046323],[0.49541666666666656,-0.11129629629629634,2.5892999997139015],[0.49541666666666656,-0.11129629629629634,2.6026999998092677],[0.5012500000000001,-0.12777777777777777,2.619400000095368],[0.4969791666666666,-0.15314814814814812,2.636099999904637],[0.48072916666666665,-0.18703703703703703,2.655000000000001],[0.46208333333333323,-0.21703703703703703,2.6725999999046337],[0.47718749999999993,-0.25833333333333336,2.6891999998092686],[0.4900000000000001,-0.2862962962962963,2.7060999999046373],[0.4943749999999999,-0.3101851851851852,2.723000000000006],[0.4883333333333333,-0.33259259259259266,2.7394999999999996],[0.4883333333333333,-0.33259259259259266,2.7526999998092663],[0.49375,-0.32759259259259255,2.7695000000000007],[0.5027083333333332,-0.3322222222222222,2.786299999713897],[0.5065624999999999,-0.33925925925925926,2.8026999998092705],[0.5221874999999999,-0.3059259259259259,2.822400000095371],[0.5221874999999999,-0.3059259259259259,2.836099999904633],[0.5378124999999999,-0.27259259259259255,2.852799999713902],[0.5430208333333333,-0.275,2.8734000000953728],[0.5430208333333333,-0.275,2.8876999998092714],[0.5407291666666666,-0.24870370370370373,2.9029000000953715],[0.5395833333333333,-0.225,2.9195999999046336],[0.551875,-0.20555555555555555,2.936],[0.5590625,-0.1905555555555555,2.952699999809269],[0.553125,-0.1925925925925926,2.969299999713904],[0.5431250000000001,-0.19222222222222224,2.9897999997139024],[0.5341666666666666,-0.1801851851851852,3.006699999809271],[0.5341666666666666,-0.1801851851851852,3.0194000000953736],[0.5216666666666666,-0.19888888888888884,3.0360000000000014],[0.4984375,-0.22518518518518524,3.0525999999046363],[0.48562500000000003,-0.21574074074074073,3.0692999997138983],[0.4484375,-0.22981481481481486,3.0860000000000056],[0.43510416666666674,-0.23203703703703707,3.1026999998092677],[0.40822916666666675,-0.24296296296296294,3.1192999997139026],[0.3881249999999999,-0.24833333333333338,3.136000000000003],[0.3754166666666668,-0.2479629629629629,3.154900000095367],[0.3632291666666667,-0.2403703703703704,3.174500000000002],[0.33322916666666674,-0.2531481481481481,3.188299999713898],[0.31437499999999996,-0.2607407407407408,3.2029000000953687],[0.31906249999999997,-0.2442592592592592,3.219299999713904],[0.32052083333333337,-0.23555555555555555,3.236000000000004],[0.3515625,-0.23259259259259263,3.2526999998092663],[0.35989583333333336,-0.2337037037037037,3.274000000000001],[0.33604166666666657,-0.18833333333333332,3.2890999999046358],[0.3145833333333333,-0.11629629629629631,3.305799999713898],[0.2872916666666666,-0.03888888888888889,3.3200999999046346],[0.2599999999999999,0.03851851851851843,3.338799999713899],[0.2599999999999999,0.03851851851851843,3.3529000000953673],[0.24500000000000005,0.07537037037037045,3.3695999999046364],[0.2039583333333333,0.12685185185185185,3.3899000000953734],[0.1788541666666667,0.13481481481481472,3.404900000095367],[0.15697916666666673,0.15055555555555547,3.4195000000000064],[0.12791666666666662,0.18407407407407403,3.438699999809266],[0.10364583333333334,0.19685185185185178,3.4557999997139035],[0.10906250000000005,0.1824074074074074,3.4695000000000036],[0.10645833333333338,0.1448148148148149,3.4861999998092656],[0.1068749999999999,0.10129629629629638,3.5052999997138983],[0.12406249999999991,0.020555555555555598,3.5196999998092693],[0.14187500000000006,0.027777777777777776,3.53619999980927],[0.17416666666666672,0.00592592592592601,3.556900000095368],[0.17197916666666657,0.00592592592592601,3.5720000000000027],[0.16833333333333325,0.01055555555555564,3.587299999713899],[0.165625,-0.012037037037037037,3.6099000000953723],[0.165625,-0.012037037037037037,3.619400000095368],[0.15239583333333329,-0.024629629629629547,3.636000000000003],[0.16260416666666658,-0.03944444444444436,3.656000000000006],[0.17708333333333334,-0.05407407407407405,3.6695000000000064],[0.17979166666666657,-0.07259259259259257,3.686],[0.17770833333333325,-0.04222222222222214,3.702699999809269],[0.16447916666666676,-0.06851851851851852,3.719299999713904],[0.15166666666666656,-0.08555555555555554,3.7362999997139],[0.13572916666666662,-0.07851851851851847,3.7560000000000002],[0.13208333333333327,-0.10981481481481484,3.7712999997139036],[0.12989583333333338,-0.13111111111111112,3.7860000000000014],[0.13177083333333334,-0.11425925925925924,3.806199999809266],[0.12302083333333323,-0.12314814814814815,3.8230000000000004],[0.11895833333333337,-0.1551851851851852,3.8395999999046353],[0.12666666666666657,-0.18333333333333332,3.8562999997138974],[0.12666666666666657,-0.18333333333333332,3.8692999997139026],[0.12239583333333333,-0.22314814814814815,3.886000000000003],[0.13322916666666676,-0.22851851851851848,3.902699999809265],[0.13322916666666676,-0.22851851851851848,3.927500000000002],[0.1493750000000001,-0.2511111111111112,3.9395999999046367],[0.17510416666666656,-0.2675925925925926,3.9560999999046373],[0.19000000000000009,-0.25037037037037035,3.9701999998092674],[0.20281250000000003,-0.23555555555555555,3.9899000000953677],[0.20281250000000003,-0.23555555555555555,4.002699999809266],[0.21906249999999997,-0.2479629629629629,4.019400000095374],[0.23583333333333342,-0.22740740740740742,4.035900000095367],[0.22906250000000009,-0.18981481481481483,4.056199999809266],[0.22385416666666677,-0.17037037037037037,4.070400000095368],[0.22604166666666667,-0.15648148148148147,4.086099999904633],[0.228125,-0.15907407407407403,4.1081999998092655],[0.23708333333333323,-0.10925925925925926,4.123799999713903],[0.23708333333333323,-0.10925925925925926,4.136099999904637],[0.22885416666666672,-0.08796296296296297,4.153000000000006],[0.21624999999999991,-0.053703703703703705,4.1754999999999995],[0.20385416666666673,-0.05648148148148148,4.191599999904632],[0.20385416666666673,-0.05648148148148148,4.202900000095369],[0.18072916666666666,-0.06129629629629634,4.219599999904638],[0.16156249999999991,-0.09240740740740737,4.241599999904636],[0.16156249999999991,-0.09240740740740737,4.2527999997139005],[0.16927083333333334,-0.10703703703703706,4.269599999904635],[0.1728125000000001,-0.0992592592592593,4.287099999904633],[0.16895833333333338,-0.08592592592592588,4.308400000095368],[0.14260416666666675,-0.09129629629629632,4.324400000095373],[0.14260416666666675,-0.09129629629629632,4.336199999809267],[0.1040625000000001,-0.13185185185185183,4.3530000000000015],[0.07645833333333343,-0.15962962962962962,4.381400000095368],[0.07645833333333343,-0.15962962962962962,4.388299999713901],[0.05927083333333331,-0.22111111111111106,4.402599999904638],[0.049270833333333285,-0.22777777777777777,4.420099999904636],[0.04458333333333329,-0.23407407407407405,4.439199999809269],[0.03895833333333331,-0.22851851851851848,4.456699999809267],[0.016666666666666666,-0.2309259259259259,4.476199999809268],[0.016666666666666666,-0.2309259259259259,4.486000000000004],[0.029166666666666667,-0.2205555555555556,4.502900000095373],[0.06062500000000005,-0.1853703703703704,4.519500000000001],[0.11864583333333342,-0.13333333333333333,4.544900000095367],[0.11864583333333342,-0.13333333333333333,4.55290000009537],[0.14093749999999997,-0.10592592592592591,4.569299999713898],[0.16802083333333329,-0.10833333333333334,4.590299999713899],[0.2085416666666667,-0.052222222222222205,4.608599999904634],[0.2085416666666667,-0.052222222222222205,4.619299999713903],[0.22947916666666662,-0.022777777777777692,4.636099999904637],[0.25,-0.004814814814814857,4.658299999713904],[0.25,-0.004814814814814857,4.672499999999999],[0.24489583333333323,-0.007777777777777862,4.691799999713901],[0.24489583333333323,-0.007777777777777862,4.702699999809269],[0.2421875,-0.018333333333333292,4.719400000095369],[0.2421875,-0.018333333333333292,4.736199999809266],[0.22312500000000005,-0.01907407407407399,4.752699999809266],[0.16260416666666658,-0.04055555555555551,4.773000000000003],[0.08125,-0.05759259259259263,4.788900000095367],[0.06114583333333338,-0.025185185185185227,4.802799999713898],[0.008645833333333287,0.006851851851851936,4.828400000095371],[0.008645833333333287,0.006851851851851936,4.836099999904633],[-0.06416666666666669,-0.0031481481481482323,4.855500000000006],[-0.078125,-0.0003703703703704546,4.869299999713903],[-0.1,0.011666666666666582,4.886099999904637],[-0.10614583333333331,0.028518518518518478,4.902699999809265],[-0.10104166666666667,0.04944444444444453,4.919400000095372],[-0.11177083333333329,0.04351851851851852,4.937199999809266],[-0.11177083333333329,0.04351851851851852,4.952699999809269],[-0.09177083333333336,0.024814814814814772,4.969299999713904],[-0.09177083333333336,0.024814814814814772,4.986199999809266],[-0.05947916666666669,0.03314814814814811,5.0027999997139005],[-0.05947916666666669,0.03314814814814811,5.019299999713901],[-0.041458333333333285,0,5.036000000000001],[0.0026041666666666665,-0.01907407407407399,5.0526999998092705],[0.04718749999999995,-0.034074074074074034,5.07],[0.02666666666666669,-0.056851851851851834,5.086000000000006],[0.014479166666666644,-0.07740740740740742,5.102699999809268],[0.025625000000000023,-0.059814814814814835,5.11990000009537],[0.025625000000000023,-0.059814814814814835,5.136000000000003],[0.029375000000000047,-0.06740740740740736,5.152799999713899],[0.029375000000000047,-0.06740740740740736,5.169400000095372],[0.03604166666666669,-0.05907407407407403,5.186],[0.03604166666666669,-0.05907407407407403,5.202599999904635],[0.042708333333333334,-0.022222222222222223,5.219299999713904],[0.042708333333333334,-0.022222222222222223,5.236000000000004],[0.041979166666666616,-0.032407407407407406,5.252599999904632],[0.041979166666666616,-0.032407407407407406,5.269400000095374],[0.03114583333333331,-0.06740740740740736,5.286000000000001],[0.03114583333333331,-0.06740740740740736,5.3026999998092705],[0.042499999999999954,-0.07703703703703708,5.319299999713898],[0.06572916666666669,-0.07296296296296292,5.339500000000001],[0.10499999999999995,-0.07685185185185185,5.355900000095367],[0.13395833333333323,-0.07999999999999997,5.372699999809271],[0.14416666666666675,-0.10611111111111113,5.388699999809269],[0.14416666666666675,-0.10611111111111113,5.402699999809265],[0.1632291666666667,-0.11407407407407412,5.419400000095372],[0.1662499999999999,-0.15962962962962962,5.438099999904637],[0.16104166666666658,-0.225,5.452599999904635],[0.16770833333333332,-0.2729629629629629,5.469400000095369],[0.1703125,-0.2507407407407407,5.4860999999046385],[0.1578125,-0.247037037037037,5.503799999713898],[0.16104166666666658,-0.28703703703703703,5.519299999713901],[0.16875,-0.3127777777777777,5.535900000095367],[0.22979166666666656,-0.3296296296296296,5.55290000009537],[0.2908333333333334,-0.3464814814814815,5.573199999809269],[0.3229166666666667,-0.3803703703703703,5.589599999904635],[0.3681250000000001,-0.3925925925925926,5.605500000000006],[0.4196875000000001,-0.384074074074074,5.622500000000002],[0.478125,-0.3824074074074074,5.638699999809269],[0.5463541666666667,-0.4075925925925926,5.656099999904633],[0.6010416666666667,-0.44592592592592595,5.67019999980927],[0.6159374999999999,-0.44222222222222224,5.685900000095373],[0.6494791666666667,-0.42388888888888887,5.702699999809269],[0.6314583333333333,-0.43444444444444447,5.719299999713904],[0.6134375000000001,-0.445,5.736000000000004],[0.6226041666666667,-0.4316666666666667,5.754000000000005],[0.6352083333333333,-0.4209259259259259,5.769699999809269],[0.6414583333333332,-0.4309259259259259,5.787000000000006],[0.6314583333333333,-0.4646296296296296,5.8037999997139025],[0.6145833333333334,-0.5001851851851852,5.820099999904635],[0.603125,-0.5268518518518519,5.839099999904633],[0.6041666666666666,-0.5653703703703704,5.857000000000006],[0.5801041666666668,-0.6183333333333333,5.873099999904639],[0.5479166666666667,-0.6455555555555555,5.888400000095373],[0.5157291666666666,-0.6727777777777778,5.902799999713899],[0.4859375,-0.6988888888888889,5.919500000000006],[0.4527083333333332,-0.7224074074074075,5.9369000000953704],[0.42197916666666657,-0.7737037037037037,5.957099999904635],[0.42197916666666657,-0.7737037037037037,5.969400000095369],[0.3914583333333333,-0.8096296296296296,5.986000000000004],[0.38291666666666657,-0.7983333333333333,6.004699999809269]]","[0.00040000009536811376,0.0634000000953705,0.06929999971389833,0.0860999999046328,0.1026999998092677,0.12019999980926599,0.13969999980926673,0.15609999990463308,0.17029999971389742,0.18609999990463422,0.20609999990463734,0.22009999990463314,0.23609999990463848,0.2526999998092663,0.26940000009537357,0.28600000000000136,0.3032999997139001,0.3204000000953684,0.33890000009537147,0.3579000000953698,0.37390000009536806,0.3911999998092668,0.40919999980926747,0.4195000000000064,0.4360999999046342,0.45729999971390356,0.4771999998092653,0.4860000000000042,0.5031999998092687,0.5201999998092646,0.5387999997139019,0.5569000000953679,0.573199999809269,0.5906999998092672,0.6069000000953721,0.6229000000953704,0.6390999999046372,0.6561999998092674,0.670099999904636,0.6884000000953705,0.7035999999046325,0.7235999999046356,0.7405999999046387,0.7569000000953707,0.7727999997139037,0.7870000000000061,0.8026999998092705,0.8192999997138983,0.8379000000953738,0.8530000000000015,0.8700000000000045,0.8860000000000028,0.9026999998092649,0.9194000000953721,0.9362999997139028,0.9560999999046373,0.9730000000000061,0.9860999999046385,1.0027999997139005,1.0194000000953736,1.0360999999046356,1.0525999999046363,1.0692999997138983,1.0860999999046328,1.102799999713902,1.1197999997138979,1.1360000000000028,1.1565000000000012,1.1739000000953723,1.1887999997139005,1.2029000000953687,1.219299999713904,1.2399000000953677,1.2565999999046369,1.2735999999046328,1.2867999997138995,1.3027999997138977,1.3194000000953707,1.3360000000000056,1.3526999998092677,1.3694000000953679,1.3860000000000028,1.4029000000953715,1.4195999999046336,1.4386999998092662,1.4556999998092692,1.4745000000000061,1.4901999998092705,1.5027999997139005,1.5192999997139012,1.5360000000000014,1.5526999998092705,1.5701999998092688,1.590599999904633,1.6064000000953698,1.6221999998092684,1.6360000000000028,1.6527999997138991,1.6697999997139021,1.6861999998092685,1.7050999999046326,1.7224000000953694,1.7400999999046363,1.7754000000953738,1.782900000095367,1.79069999980927,1.8066999998092683,1.8237999997138985,1.8410999999046354,1.8569000000953721,1.8692999997139026,1.8860000000000028,1.907199999809265,1.9244000000953676,1.9430999999046321,1.9526999998092691,1.969299999713904,1.9860999999046385,2.0026999998092663,2.0194000000953736,2.0360000000000014,2.057000000000002,2.073900000095371,2.091299999713904,2.10790000009537,2.1240999999046366,2.136000000000003,2.1566999998092697,2.169400000095372,2.186099999904634,2.2071999998092693,2.225299999713897,2.236000000000004,2.2527999997139005,2.2694000000953736,2.2860000000000014,2.3026999998092705,2.3194000000953707,2.3415999999046377,2.3526999998092677,2.3692999997139026,2.387199999809269,2.402699999809265,2.419400000095372,2.436,2.4530999999046372,2.4695000000000036,2.486000000000004,2.5027999997139005,2.519900000095369,2.5364000000953695,2.55290000009537,2.5725999999046323,2.5892999997139015,2.6026999998092677,2.619400000095368,2.636099999904637,2.655000000000001,2.6725999999046337,2.6891999998092686,2.7060999999046373,2.723000000000006,2.7394999999999996,2.7526999998092663,2.7695000000000007,2.786299999713897,2.8026999998092705,2.822400000095371,2.836099999904633,2.852799999713902,2.8734000000953728,2.8876999998092714,2.9029000000953715,2.9195999999046336,2.936,2.952699999809269,2.969299999713904,2.9897999997139024,3.006699999809271,3.0194000000953736,3.0360000000000014,3.0525999999046363,3.0692999997138983,3.0860000000000056,3.1026999998092677,3.1192999997139026,3.136000000000003,3.154900000095367,3.174500000000002,3.188299999713898,3.2029000000953687,3.219299999713904,3.236000000000004,3.2526999998092663,3.274000000000001,3.2890999999046358,3.305799999713898,3.3200999999046346,3.338799999713899,3.3529000000953673,3.3695999999046364,3.3899000000953734,3.404900000095367,3.4195000000000064,3.438699999809266,3.4557999997139035,3.4695000000000036,3.4861999998092656,3.5052999997138983,3.5196999998092693,3.53619999980927,3.556900000095368,3.5720000000000027,3.587299999713899,3.6099000000953723,3.619400000095368,3.636000000000003,3.656000000000006,3.6695000000000064,3.686,3.702699999809269,3.719299999713904,3.7362999997139,3.7560000000000002,3.7712999997139036,3.7860000000000014,3.806199999809266,3.8230000000000004,3.8395999999046353,3.8562999997138974,3.8692999997139026,3.886000000000003,3.902699999809265,3.927500000000002,3.9395999999046367,3.9560999999046373,3.9701999998092674,3.9899000000953677,4.002699999809266,4.019400000095374,4.035900000095367,4.056199999809266,4.070400000095368,4.086099999904633,4.1081999998092655,4.123799999713903,4.136099999904637,4.153000000000006,4.1754999999999995,4.191599999904632,4.202900000095369,4.219599999904638,4.241599999904636,4.2527999997139005,4.269599999904635,4.287099999904633,4.308400000095368,4.324400000095373,4.336199999809267,4.3530000000000015,4.381400000095368,4.388299999713901,4.402599999904638,4.420099999904636,4.439199999809269,4.456699999809267,4.476199999809268,4.486000000000004,4.502900000095373,4.519500000000001,4.544900000095367,4.55290000009537,4.569299999713898,4.590299999713899,4.608599999904634,4.619299999713903,4.636099999904637,4.658299999713904,4.672499999999999,4.691799999713901,4.702699999809269,4.719400000095369,4.736199999809266,4.752699999809266,4.773000000000003,4.788900000095367,4.802799999713898,4.828400000095371,4.836099999904633,4.855500000000006,4.869299999713903,4.886099999904637,4.902699999809265,4.919400000095372,4.937199999809266,4.952699999809269,4.969299999713904,4.986199999809266,5.0027999997139005,5.019299999713901,5.036000000000001,5.0526999998092705,5.07,5.086000000000006,5.102699999809268,5.11990000009537,5.136000000000003,5.152799999713899,5.169400000095372,5.186,5.202599999904635,5.219299999713904,5.236000000000004,5.252599999904632,5.269400000095374,5.286000000000001,5.3026999998092705,5.319299999713898,5.339500000000001,5.355900000095367,5.372699999809271,5.388699999809269,5.402699999809265,5.419400000095372,5.438099999904637,5.452599999904635,5.469400000095369,5.4860999999046385,5.503799999713898,5.519299999713901,5.535900000095367,5.55290000009537,5.573199999809269,5.589599999904635,5.605500000000006,5.622500000000002,5.638699999809269,5.656099999904633,5.67019999980927,5.685900000095373,5.702699999809269,5.719299999713904,5.736000000000004,5.754000000000005,5.769699999809269,5.787000000000006,5.8037999997139025,5.820099999904635,5.839099999904633,5.857000000000006,5.873099999904639,5.888400000095373,5.902799999713899,5.919500000000006,5.9369000000953704,5.957099999904635,5.969400000095369,5.986000000000004,6.004699999809269]","[1732158313145,1732158313189,1732158313195,1732158313212,1732158313229,1732158313246,1732158313266,1732158313282,1732158313296,1732158313312,1732158313332,1732158313346,1732158313362,1732158313379,1732158313395,1732158313412,1732158313429,1732158313446,1732158313465,1732158313484,1732158313500,1732158313517,1732158313535,1732158313545,1732158313562,1732158313583,1732158313603,1732158313612,1732158313629,1732158313646,1732158313665,1732158313683,1732158313699,1732158313717,1732158313733,1732158313749,1732158313765,1732158313782,1732158313796,1732158313814,1732158313829,1732158313849,1732158313866,1732158313883,1732158313899,1732158313913,1732158313929,1732158313945,1732158313964,1732158313979,1732158313996,1732158314012,1732158314029,1732158314045,1732158314062,1732158314082,1732158314099,1732158314112,1732158314129,1732158314145,1732158314162,1732158314178,1732158314195,1732158314212,1732158314229,1732158314246,1732158314262,1732158314282,1732158314300,1732158314315,1732158314329,1732158314345,1732158314366,1732158314382,1732158314399,1732158314413,1732158314429,1732158314445,1732158314462,1732158314479,1732158314495,1732158314512,1732158314529,1732158314545,1732158314565,1732158314582,1732158314600,1732158314616,1732158314629,1732158314645,1732158314662,1732158314679,1732158314696,1732158314716,1732158314732,1732158314748,1732158314762,1732158314779,1732158314796,1732158314812,1732158314831,1732158314848,1732158314866,1732158314901,1732158314909,1732158314917,1732158314933,1732158314950,1732158314967,1732158314983,1732158314995,1732158315012,1732158315033,1732158315050,1732158315069,1732158315079,1732158315095,1732158315112,1732158315129,1732158315145,1732158315162,1732158315183,1732158315200,1732158315217,1732158315234,1732158315250,1732158315262,1732158315283,1732158315295,1732158315312,1732158315333,1732158315351,1732158315362,1732158315379,1732158315395,1732158315412,1732158315429,1732158315445,1732158315467,1732158315478,1732158315495,1732158315513,1732158315528,1732158315545,1732158315562,1732158315579,1732158315595,1732158315612,1732158315629,1732158315646,1732158315662,1732158315679,1732158315698,1732158315715,1732158315729,1732158315745,1732158315762,1732158315781,1732158315798,1732158315815,1732158315832,1732158315849,1732158315865,1732158315879,1732158315895,1732158315912,1732158315928,1732158315948,1732158315962,1732158315979,1732158315999,1732158316014,1732158316029,1732158316045,1732158316062,1732158316079,1732158316095,1732158316116,1732158316133,1732158316145,1732158316162,1732158316178,1732158316195,1732158316212,1732158316228,1732158316245,1732158316262,1732158316281,1732158316300,1732158316314,1732158316329,1732158316345,1732158316362,1732158316379,1732158316400,1732158316415,1732158316432,1732158316446,1732158316465,1732158316479,1732158316495,1732158316516,1732158316531,1732158316545,1732158316565,1732158316582,1732158316595,1732158316612,1732158316631,1732158316645,1732158316662,1732158316683,1732158316698,1732158316713,1732158316736,1732158316745,1732158316762,1732158316782,1732158316795,1732158316812,1732158316829,1732158316848,1732158316865,1732158316884,1732158316900,1732158316914,1732158316935,1732158316951,1732158316968,1732158316985,1732158316998,1732158317014,1732158317031,1732158317056,1732158317068,1732158317084,1732158317098,1732158317118,1732158317131,1732158317148,1732158317164,1732158317185,1732158317199,1732158317214,1732158317236,1732158317252,1732158317264,1732158317281,1732158317304,1732158317320,1732158317331,1732158317348,1732158317370,1732158317381,1732158317398,1732158317415,1732158317437,1732158317453,1732158317464,1732158317481,1732158317510,1732158317517,1732158317531,1732158317548,1732158317568,1732158317585,1732158317605,1732158317614,1732158317631,1732158317648,1732158317673,1732158317681,1732158317698,1732158317719,1732158317737,1732158317748,1732158317764,1732158317787,1732158317801,1732158317820,1732158317831,1732158317848,1732158317864,1732158317881,1732158317901,1732158317917,1732158317931,1732158317957,1732158317964,1732158317984,1732158317998,1732158318014,1732158318031,1732158318048,1732158318066,1732158318081,1732158318098,1732158318115,1732158318131,1732158318148,1732158318164,1732158318181,1732158318198,1732158318214,1732158318231,1732158318248,1732158318264,1732158318281,1732158318298,1732158318314,1732158318331,1732158318348,1732158318364,1732158318381,1732158318398,1732158318414,1732158318431,1732158318448,1732158318468,1732158318484,1732158318501,1732158318517,1732158318531,1732158318548,1732158318566,1732158318581,1732158318598,1732158318614,1732158318632,1732158318648,1732158318664,1732158318681,1732158318702,1732158318718,1732158318734,1732158318751,1732158318767,1732158318784,1732158318799,1732158318814,1732158318831,1732158318848,1732158318864,1732158318882,1732158318898,1732158318915,1732158318932,1732158318948,1732158318967,1732158318985,1732158319001,1732158319017,1732158319031,1732158319048,1732158319065,1732158319085,1732158319098,1732158319114,1732158319133]","[[982.5,808.8],[982.5,808.8],[962.8,808.8],[947.5,805.9],[932.2,803],[921.5,802.7],[910.8,802.4],[902.9,794.1],[902.8,778.2],[911.3,768.4],[937.9,767.2],[953,768.2],[977.3,775.1],[997.2,784.9],[1017.1,794.7],[1033.3,797.2],[1049.5,799.7],[1056.9,804.4],[1056.6,813.5],[1074.3,823.7],[1073.9,825.3],[1076,830.7],[1088.5,830],[1088.5,830],[1101.5,824.1],[1111.6,822.3],[1111.6,822.3],[1133,818.7],[1147.8,783.7],[1169.1,784.7],[1189.3,783.3],[1174.3,778.4],[1190,785.7],[1184.4,787.7],[1162.5,777.8],[1140.1,773.1],[1122.3,720.3],[1099.9,671.3],[1084.1,653.7],[1066.9,656.9],[1049.7,660.1],[1034.2,646.4],[988,620.5],[978.1,618.4],[989.4,610.7],[989.7,596.8],[973.6,637.9],[971.3,688.6],[971.3,688.6],[966.8,731.4],[969.6,718.9],[968.4,712.8],[982.7,726],[982.7,726],[999.9,744.1],[998.7,732.8],[996.9,728.9],[996.9,728.9],[1006.1,731.2],[1006.1,731.2],[1017,729.8],[1018,717],[1016.2,717.1],[1016.2,717.1],[1011.4,725],[1015.6,727.1],[1019.8,729.2],[1032.1,721.6],[1036.5,718.5],[1010.8,703.4],[985.1,688.3],[987.9,685.1],[986.8,683.7],[979.9,683.9],[966,680.8],[963.9,644.6],[961.8,608.4],[951.5,610.5],[950,615.2],[985.8,650.5],[985.8,650.5],[1021.6,685.8],[1019,686.9],[1027.1,701.5],[1050.6,685],[1085.6,666.5],[1092.3,682.5],[1109.8,693.6],[1109.8,693.6],[1124.5,671.2],[1124.5,671.2],[1126.8,683.5],[1118,677.2],[1090.1,667.9],[1085.1,673.6],[1086.8,665.4],[1083.9,681.7],[1086.7,723.4],[1101,763.1],[1142.2,812],[1179,868.6],[1259.5,887.3],[1283.1,898.8],[1348.5,910.5],[1348.5,910.5],[1394.6,919.6],[1409.1,960],[1434.3,976],[1428.3,980.1],[1427.7,986.6],[1427.7,986.6],[1389.4,988.8],[1351.1,988.4],[1280.2,980.1],[1285.9,976.6],[1285.9,976.6],[1240.8,978],[1240.8,978],[1236.1,984.4],[1236.1,984.4],[1240.3,931],[1241.3,898],[1257.3,857],[1277.8,822.9],[1297,781.6],[1314.9,734.5],[1314.9,734.5],[1347.8,699.3],[1347.8,699.3],[1350.4,685.5],[1350.4,685.5],[1385.7,655.6],[1385.7,655.6],[1404.6,626.2],[1404.6,626.2],[1428.8,625.7],[1428.8,625.7],[1448.2,621],[1449,614.5],[1449,614.5],[1437.4,603.1],[1435.7,590.2],[1435.3,572.6],[1426.7,558.8],[1430.1,535.7],[1440.4,531.2],[1448.3,521.7],[1448.3,521.7],[1430.6,518.3],[1413.7,513.9],[1414.4,507.8],[1427.6,496.5],[1429.4,485.5],[1435.6,479.9],[1435.6,479.9],[1441.2,471],[1437.1,457.3],[1421.5,439],[1403.6,422.8],[1418.1,400.5],[1430.4,385.4],[1434.6,372.5],[1428.8,360.4],[1428.8,360.4],[1434,363.1],[1442.6,360.6],[1446.3,356.8],[1461.3,374.8],[1461.3,374.8],[1476.3,392.8],[1481.3,391.5],[1481.3,391.5],[1479.1,405.7],[1478,418.5],[1489.8,429],[1496.7,437.1],[1491,436],[1481.4,436.2],[1472.8,442.7],[1472.8,442.7],[1460.8,432.6],[1438.5,418.4],[1426.2,423.5],[1390.5,415.9],[1377.7,414.7],[1351.9,408.8],[1332.6,405.9],[1320.4,406.1],[1308.7,410.2],[1279.9,403.3],[1261.8,399.2],[1266.3,408.1],[1267.7,412.8],[1297.5,414.4],[1305.5,413.8],[1282.6,438.3],[1262,477.2],[1235.8,519],[1209.6,560.8],[1209.6,560.8],[1195.2,580.7],[1155.8,608.5],[1131.7,612.8],[1110.7,621.3],[1082.8,639.4],[1059.5,646.3],[1064.7,638.5],[1062.2,618.2],[1062.6,594.7],[1079.1,551.1],[1096.2,555],[1127.2,543.2],[1125.1,543.2],[1121.6,545.7],[1119,533.5],[1119,533.5],[1106.3,526.7],[1116.1,518.7],[1130,510.8],[1132.6,500.8],[1130.6,517.2],[1117.9,503],[1105.6,493.8],[1090.3,497.6],[1086.8,480.7],[1084.7,469.2],[1086.5,478.3],[1078.1,473.5],[1074.2,456.2],[1081.6,441],[1081.6,441],[1077.5,419.5],[1087.9,416.6],[1087.9,416.6],[1103.4,404.4],[1128.1,395.5],[1142.4,404.8],[1154.7,412.8],[1154.7,412.8],[1170.3,406.1],[1186.4,417.2],[1179.9,437.5],[1174.9,448],[1177,455.5],[1179,454.1],[1187.6,481],[1187.6,481],[1179.7,492.5],[1167.6,511],[1155.7,509.5],[1155.7,509.5],[1133.5,506.9],[1115.1,490.1],[1115.1,490.1],[1122.5,482.2],[1125.9,486.4],[1122.2,493.6],[1096.9,490.7],[1096.9,490.7],[1059.9,468.8],[1033.4,453.8],[1033.4,453.8],[1016.9,420.6],[1007.3,417],[1002.8,413.6],[997.4,416.6],[976,415.3],[976,415.3],[988,420.9],[1018.2,439.9],[1073.9,468],[1073.9,468],[1095.3,482.8],[1121.3,481.5],[1160.2,511.8],[1160.2,511.8],[1180.3,527.7],[1200,537.4],[1200,537.4],[1195.1,535.8],[1195.1,535.8],[1192.5,530.1],[1192.5,530.1],[1174.2,529.7],[1116.1,518.1],[1038,508.9],[1018.7,526.4],[968.3,543.7],[968.3,543.7],[898.4,538.3],[885,539.8],[864,546.3],[858.1,555.4],[863,566.7],[852.7,563.5],[852.7,563.5],[871.9,553.4],[871.9,553.4],[902.9,557.9],[902.9,557.9],[920.2,540],[962.5,529.7],[1005.3,521.6],[985.6,509.3],[973.9,498.2],[984.6,507.7],[984.6,507.7],[988.2,503.6],[988.2,503.6],[994.6,508.1],[994.6,508.1],[1001,528],[1001,528],[1000.3,522.5],[1000.3,522.5],[989.9,503.6],[989.9,503.6],[1000.8,498.4],[1023.1,500.6],[1060.8,498.5],[1088.6,496.8],[1098.4,482.7],[1098.4,482.7],[1116.7,478.4],[1119.6,453.8],[1114.6,418.5],[1121,392.6],[1123.5,404.6],[1111.5,406.6],[1114.6,385],[1122,371.1],[1180.6,362],[1239.2,352.9],[1270,334.6],[1313.4,328],[1362.9,332.6],[1419,333.5],[1484.5,319.9],[1537,299.2],[1551.3,301.2],[1583.5,311.1],[1566.2,305.4],[1548.9,299.7],[1557.7,306.9],[1569.8,312.7],[1575.8,307.3],[1566.2,289.1],[1550,269.9],[1539,255.5],[1540,234.7],[1516.9,206.1],[1486,191.4],[1455.1,176.7],[1426.5,162.6],[1394.6,149.9],[1365.1,122.2],[1365.1,122.2],[1335.8,102.8],[1327.6,108.9]]","[-0.056692,0.170076]","[0.056692,0.170076]","[0.170076,0.170076]","[-0.170076,-0.170076]","[-0.170076,0.056692]","[-0.170076,-0.056692]","[-0.056692,-0.170076]","[0.056692,-0.170076]","[0.170076,-0.170076]","[-0.056692,0.056692]","[0.056692,0.056692]","[0.170076,0.056692]","[-0.056692,-0.056692]","[0.056692,-0.056692]","[0.170076,-0.056692]",0,0,0,0,1,2,Smartphone,15,20,8,3,70,4,3,60,4
