inst1_resp.keys,inst1_resp.rt,calibrationMouse.x,calibrationMouse.y,calibrationMouse.leftButton,calibrationMouse.midButton,calibrationMouse.rightButton,calibrationClick.x,calibrationClick.y,calibrationClick.leftButton,calibrationClick.midButton,calibrationClick.rightButton,trialsc.thisRepN,trialsc.thisTrialN,trialsc.thisN,trialsc.thisIndex,trialsc.ran,calibration_x,calibration_y,participant,session,date,expName,psychopyVersion,OS,frameRate,calibrationClick.clicked_name,ScreenRes_pixels,mouse_2.x,mouse_2.y,mouse_2.leftButton,mouse_2.midButton,mouse_2.rightButton,mouse_2.time,mouse_2.clicked_name,Camera_pixels,mouse.x,mouse.y,mouse.leftButton,mouse.midButton,mouse.rightButton,mouse.time,mouse.clicked_name,Choice,Trial,TrialDuration,MOUSE_GAZE,ET_GAZE,ET_GAZE_x_T,time,unixTime,ET_GAZE_NF,Loc_Bus_label,Loc_Metro_label,Loc_RH_label,Loc_Cost_label,Loc_Travel_label,Loc_Comfort_label,Loc_Bus_cost,Loc_Metro_cost,Loc_RH_cost,Loc_Bus_travel,Loc_Metro_travel,Loc_RH_travel,Loc_Bus_comfort,Loc_Metro_comfort,Loc_RH_comfort,trials.thisRepN,trials.thisTrialN,trials.thisN,trials.thisIndex,trials.ran,Block,Device,RH_cost,RH_travel_time,RH_Comfort,metro_cost,metro_travel_time,metro_Comfort,Bus_cost,Bus_travel_time,Bus_Comfort
space,1.2039,0.194791667,-0.087037037,1,0,0,0.157291667,-0.107407407,0,0,0,0,0,0,20,1,0.67,-0.67,43,001,2024-11-21_11h57.31.034,Attention_exp_legacy,2023.1.0,Win32,59.88023952,,,,,,,,,,,,,,,,,,,,,,,,,,,,,,,,,,,,,,,,,,,,,,,,,,,,,,,,,
,,,,,,,-0.33125,0.355555556,1,0,0,0,1,1,7,1,-0.33,0.33,43,001,2024-11-21_11h57.31.034,Attention_exp_legacy,2023.1.0,Win32,59.88023952,,,,,,,,,,,,,,,,,,,,,,,,,,,,,,,,,,,,,,,,,,,,,,,,,,,,,,,,,
,,,,,,,-0.665625,0.331481481,1,0,0,0,2,2,3,1,-0.67,0.33,43,001,2024-11-21_11h57.31.034,Attention_exp_legacy,2023.1.0,Win32,59.88023952,calibration_square,,,,,,,,,,,,,,,,,,,,,,,,,,,,,,,,,,,,,,,,,,,,,,,,,,,,,,,,
,,,,,,,-0.335416667,0.664814815,1,0,0,0,3,3,8,1,-0.33,0.67,43,001,2024-11-21_11h57.31.034,Attention_exp_legacy,2023.1.0,Win32,59.88023952,calibration_square,,,,,,,,,,,,,,,,,,,,,,,,,,,,,,,,,,,,,,,,,,,,,,,,,,,,,,,,
,,,,,,,0.002083333,-0.681481481,1,0,0,0,4,4,9,1,0,-0.67,43,001,2024-11-21_11h57.31.034,Attention_exp_legacy,2023.1.0,Win32,59.88023952,,,,,,,,,,,,,,,,,,,,,,,,,,,,,,,,,,,,,,,,,,,,,,,,,,,,,,,,,
,,,,,,,0.002083333,-0.324074074,1,0,0,0,5,5,10,1,0,-0.33,43,001,2024-11-21_11h57.31.034,Attention_exp_legacy,2023.1.0,Win32,59.88023952,calibration_square,,,,,,,,,,,,,,,,,,,,,,,,,,,,,,,,,,,,,,,,,,,,,,,,,,,,,,,,
,,,,,,,-0.0125,-0.011111111,1,0,0,0,6,6,11,1,0,0,43,001,2024-11-21_11h57.31.034,Attention_exp_legacy,2023.1.0,Win32,59.88023952,,,,,,,,,,,,,,,,,,,,,,,,,,,,,,,,,,,,,,,,,,,,,,,,,,,,,,,,,
,,,,,,,0.314583333,0.668518519,1,0,0,0,7,7,18,1,0.33,0.67,43,001,2024-11-21_11h57.31.034,Attention_exp_legacy,2023.1.0,Win32,59.88023952,,,,,,,,,,,,,,,,,,,,,,,,,,,,,,,,,,,,,,,,,,,,,,,,,,,,,,,,,
,,,,,,,-0.339583333,0.001851852,1,0,0,0,8,8,6,1,-0.33,0,43,001,2024-11-21_11h57.31.034,Attention_exp_legacy,2023.1.0,Win32,59.88023952,calibration_square,,,,,,,,,,,,,,,,,,,,,,,,,,,,,,,,,,,,,,,,,,,,,,,,,,,,,,,,
,,,,,,,-0.671875,0.011111111,1,0,0,0,9,9,2,1,-0.67,0,43,001,2024-11-21_11h57.31.034,Attention_exp_legacy,2023.1.0,Win32,59.88023952,,,,,,,,,,,,,,,,,,,,,,,,,,,,,,,,,,,,,,,,,,,,,,,,,,,,,,,,,
,,,,,,,0.663541667,0.675925926,1,0,0,0,10,10,19,1,0.67,0.67,43,001,2024-11-21_11h57.31.034,Attention_exp_legacy,2023.1.0,Win32,59.88023952,calibration_square,,,,,,,,,,,,,,,,,,,,,,,,,,,,,,,,,,,,,,,,,,,,,,,,,,,,,,,,
,,,,,,,-0.330208333,-0.340740741,1,0,0,0,11,11,5,1,-0.33,-0.33,43,001,2024-11-21_11h57.31.034,Attention_exp_legacy,2023.1.0,Win32,59.88023952,,,,,,,,,,,,,,,,,,,,,,,,,,,,,,,,,,,,,,,,,,,,,,,,,,,,,,,,,
,,,,,,,0.334375,0.335185185,1,0,0,0,12,12,17,1,0.33,0.33,43,001,2024-11-21_11h57.31.034,Attention_exp_legacy,2023.1.0,Win32,59.88023952,calibration_square,,,,,,,,,,,,,,,,,,,,,,,,,,,,,,,,,,,,,,,,,,,,,,,,,,,,,,,,
,,,,,,,-0.008333333,0.342592593,1,0,0,0,13,13,12,1,0,0.33,43,001,2024-11-21_11h57.31.034,Attention_exp_legacy,2023.1.0,Win32,59.88023952,,,,,,,,,,,,,,,,,,,,,,,,,,,,,,,,,,,,,,,,,,,,,,,,,,,,,,,,,
,,,,,,,0.338541667,-0.655555556,1,0,0,0,14,14,14,1,0.33,-0.67,43,001,2024-11-21_11h57.31.034,Attention_exp_legacy,2023.1.0,Win32,59.88023952,,,,,,,,,,,,,,,,,,,,,,,,,,,,,,,,,,,,,,,,,,,,,,,,,,,,,,,,,
,,,,,,,-0.665625,-0.351851852,1,0,0,0,15,15,1,1,-0.67,-0.33,43,001,2024-11-21_11h57.31.034,Attention_exp_legacy,2023.1.0,Win32,59.88023952,,,,,,,,,,,,,,,,,,,,,,,,,,,,,,,,,,,,,,,,,,,,,,,,,,,,,,,,,
,,,,,,,-0.673958333,-0.655555556,1,0,0,0,16,16,0,1,-0.67,-0.67,43,001,2024-11-21_11h57.31.034,Attention_exp_legacy,2023.1.0,Win32,59.88023952,,,,,,,,,,,,,,,,,,,,,,,,,,,,,,,,,,,,,,,,,,,,,,,,,,,,,,,,,
,,,,,,,-0.005208333,0.674074074,1,0,0,0,17,17,13,1,0,0.67,43,001,2024-11-21_11h57.31.034,Attention_exp_legacy,2023.1.0,Win32,59.88023952,calibration_square,,,,,,,,,,,,,,,,,,,,,,,,,,,,,,,,,,,,,,,,,,,,,,,,,,,,,,,,
,,,,,,,0.329166667,-0.005555556,1,0,0,0,18,18,16,1,0.33,0,43,001,2024-11-21_11h57.31.034,Attention_exp_legacy,2023.1.0,Win32,59.88023952,calibration_square,,,,,,,,,,,,,,,,,,,,,,,,,,,,,,,,,,,,,,,,,,,,,,,,,,,,,,,,
,,,,,,,-0.341666667,-0.712962963,1,0,0,0,19,19,4,1,-0.33,-0.67,43,001,2024-11-21_11h57.31.034,Attention_exp_legacy,2023.1.0,Win32,59.88023952,,,,,,,,,,,,,,,,,,,,,,,,,,,,,,,,,,,,,,,,,,,,,,,,,,,,,,,,,
,,,,,,,0.334375,-0.333333333,1,0,0,0,20,20,15,1,0.33,-0.33,43,001,2024-11-21_11h57.31.034,Attention_exp_legacy,2023.1.0,Win32,59.88023952,calibration_square,,,,,,,,,,,,,,,,,,,,,,,,,,,,,,,,,,,,,,,,,,,,,,,,,,,,,,,,
,,,,,,,,,,,,,,,,,,,43,001,2024-11-21_11h57.31.034,Attention_exp_legacy,2023.1.0,Win32,59.88023952,,"[1920,1080]",[0.08020833333333334],[-0.48333333333333334],[1],[0],[0],[0.7604000000953661],"[""StartButton""]","[640,480]",[0.16354166666666667],[0.3648148148148148],[1],[0],[0],[5.650299999713894],"[""Metro_label""]",Metro_label,1,6.6633,"[[0.265625,-0.25555555555555554],[0.265625,-0.25555555555555554],[0.265625,-0.25555555555555554],[0.265625,-0.25555555555555554],[0.265625,-0.25555555555555554],[0.265625,-0.25555555555555554],[0.265625,-0.25555555555555554],[0.265625,-0.25555555555555554],[0.265625,-0.25555555555555554],[0.265625,-0.25555555555555554],[0.265625,-0.25555555555555554],[0.265625,-0.25555555555555554],[0.265625,-0.25555555555555554],[0.265625,-0.25555555555555554],[0.265625,-0.25555555555555554],[0.265625,-0.25555555555555554],[0.265625,-0.25555555555555554],[0.265625,-0.25555555555555554],[0.265625,-0.25555555555555554],[0.265625,-0.25555555555555554],[0.265625,-0.25555555555555554],[0.265625,-0.25555555555555554],[0.265625,-0.25555555555555554],[0.265625,-0.25555555555555554],[0.26145833333333335,-0.2537037037037037],[0.25729166666666664,-0.25],[0.2552083333333333,-0.25],[0.2552083333333333,-0.25],[0.2552083333333333,-0.25],[0.25416666666666665,-0.25],[0.253125,-0.25],[0.253125,-0.25],[0.253125,-0.25],[0.253125,-0.25],[0.253125,-0.25],[0.253125,-0.25],[0.253125,-0.25],[0.253125,-0.25],[0.253125,-0.25],[0.253125,-0.25],[0.253125,-0.25],[0.253125,-0.25],[0.253125,-0.25],[0.253125,-0.25],[0.253125,-0.25],[0.253125,-0.25],[0.253125,-0.25],[0.253125,-0.25],[0.253125,-0.25],[0.253125,-0.25],[0.253125,-0.25],[0.253125,-0.25],[0.253125,-0.25],[0.253125,-0.25],[0.253125,-0.25],[0.253125,-0.25],[0.253125,-0.25],[0.253125,-0.25],[0.253125,-0.25],[0.253125,-0.25],[0.253125,-0.25],[0.253125,-0.25],[0.253125,-0.25],[0.253125,-0.25],[0.253125,-0.25],[0.253125,-0.25],[0.253125,-0.25],[0.253125,-0.25],[0.253125,-0.25],[0.253125,-0.25],[0.253125,-0.25],[0.253125,-0.25],[0.253125,-0.25],[0.253125,-0.25],[0.253125,-0.25],[0.253125,-0.25],[0.253125,-0.25],[0.253125,-0.25],[0.253125,-0.25],[0.253125,-0.25],[0.253125,-0.25],[0.253125,-0.25],[0.253125,-0.25],[0.253125,-0.25],[0.253125,-0.25],[0.253125,-0.25],[0.253125,-0.25],[0.253125,-0.25],[0.253125,-0.25],[0.253125,-0.25],[0.253125,-0.25],[0.253125,-0.25],[0.253125,-0.25],[0.253125,-0.25],[0.253125,-0.25],[0.253125,-0.25],[0.253125,-0.25],[0.253125,-0.25],[0.253125,-0.25],[0.253125,-0.25],[0.253125,-0.25],[0.253125,-0.25],[0.253125,-0.25],[0.253125,-0.25],[0.253125,-0.25],[0.253125,-0.25],[0.253125,-0.25],[0.253125,-0.25],[0.253125,-0.25],[0.253125,-0.25],[0.253125,-0.25],[0.253125,-0.25],[0.253125,-0.25],[0.253125,-0.25],[0.253125,-0.25],[0.253125,-0.25],[0.253125,-0.25],[0.253125,-0.25],[0.253125,-0.25],[0.253125,-0.25],[0.253125,-0.25],[0.253125,-0.25],[0.253125,-0.25],[0.253125,-0.25],[0.253125,-0.25],[0.253125,-0.25],[0.253125,-0.25],[0.253125,-0.25],[0.253125,-0.25],[0.253125,-0.25],[0.253125,-0.25],[0.253125,-0.25],[0.253125,-0.25],[0.253125,-0.25],[0.253125,-0.25],[0.253125,-0.25],[0.253125,-0.25],[0.253125,-0.25],[0.253125,-0.25],[0.253125,-0.25],[0.253125,-0.25],[0.253125,-0.25],[0.253125,-0.25],[0.253125,-0.25],[0.253125,-0.25],[0.253125,-0.25],[0.253125,-0.25],[0.253125,-0.25],[0.253125,-0.25],[0.253125,-0.25],[0.253125,-0.25],[0.253125,-0.25],[0.253125,-0.25],[0.253125,-0.25],[0.253125,-0.25],[0.253125,-0.25],[0.253125,-0.25],[0.253125,-0.25],[0.253125,-0.25],[0.253125,-0.25],[0.253125,-0.25],[0.253125,-0.25],[0.253125,-0.25],[0.253125,-0.25],[0.253125,-0.25],[0.253125,-0.25],[0.253125,-0.25],[0.253125,-0.25],[0.253125,-0.25],[0.253125,-0.25],[0.253125,-0.25],[0.253125,-0.25],[0.253125,-0.25],[0.253125,-0.25],[0.253125,-0.25],[0.253125,-0.25],[0.253125,-0.25],[0.253125,-0.25],[0.253125,-0.25],[0.253125,-0.25],[0.253125,-0.25],[0.253125,-0.25],[0.253125,-0.25],[0.253125,-0.25],[0.253125,-0.25],[0.253125,-0.25],[0.253125,-0.25],[0.253125,-0.25],[0.253125,-0.25],[0.253125,-0.25],[0.253125,-0.25],[0.253125,-0.25],[0.253125,-0.25],[0.253125,-0.25],[0.253125,-0.25],[0.253125,-0.25],[0.253125,-0.25],[0.253125,-0.25],[0.253125,-0.25],[0.253125,-0.25],[0.253125,-0.25],[0.253125,-0.25],[0.253125,-0.25],[0.253125,-0.25],[0.253125,-0.25],[0.253125,-0.25],[0.253125,-0.25],[0.253125,-0.25],[0.253125,-0.25],[0.253125,-0.25],[0.253125,-0.25],[0.253125,-0.25],[0.253125,-0.25],[0.253125,-0.25],[0.253125,-0.25],[0.253125,-0.25],[0.253125,-0.25],[0.253125,-0.25],[0.253125,-0.25],[0.253125,-0.25],[0.253125,-0.25],[0.253125,-0.25],[0.253125,-0.25],[0.253125,-0.25],[0.253125,-0.25],[0.253125,-0.25],[0.253125,-0.25],[0.253125,-0.25],[0.253125,-0.25],[0.253125,-0.25],[0.253125,-0.25],[0.253125,-0.25],[0.253125,-0.25],[0.253125,-0.25],[0.253125,-0.25],[0.253125,-0.25],[0.253125,-0.25],[0.253125,-0.25],[0.253125,-0.25],[0.253125,-0.25],[0.253125,-0.25],[0.253125,-0.25],[0.253125,-0.25],[0.253125,-0.25],[0.253125,-0.25],[0.253125,-0.25],[0.253125,-0.25],[0.253125,-0.25],[0.253125,-0.25],[0.253125,-0.25],[0.253125,-0.25],[0.253125,-0.25],[0.253125,-0.25],[0.253125,-0.25],[0.253125,-0.25],[0.253125,-0.25],[0.253125,-0.25],[0.253125,-0.25],[0.253125,-0.25],[0.253125,-0.25],[0.253125,-0.25],[0.253125,-0.25],[0.253125,-0.25],[0.253125,-0.25],[0.253125,-0.25],[0.253125,-0.25],[0.253125,-0.25],[0.253125,-0.25],[0.253125,-0.25],[0.253125,-0.25],[0.253125,-0.25],[0.253125,-0.25],[0.253125,-0.25],[0.253125,-0.25],[0.253125,-0.25],[0.253125,-0.25],[0.253125,-0.25],[0.253125,-0.25],[0.253125,-0.25],[0.2520833333333333,-0.25],[0.25,-0.25],[0.24583333333333332,-0.25],[0.240625,-0.25],[0.23854166666666668,-0.25],[0.23333333333333334,-0.24814814814814815],[0.22916666666666666,-0.24074074074074073],[0.21979166666666666,-0.22777777777777777],[0.21041666666666667,-0.1648148148148148],[0.203125,-0.08333333333333333],[0.20208333333333334,-0.02962962962962963],[0.20208333333333334,0.011111111111111112],[0.2,0.05],[0.19583333333333333,0.09259259259259259],[0.19166666666666668,0.14814814814814814],[0.190625,0.17037037037037037],[0.190625,0.2074074074074074],[0.190625,0.2388888888888889],[0.190625,0.24444444444444444],[0.18958333333333333,0.25],[0.18854166666666666,0.2537037037037037],[0.1875,0.25555555555555554],[0.18645833333333334,0.2574074074074074],[0.184375,0.26481481481481484],[0.18229166666666666,0.26851851851851855],[0.17916666666666667,0.2759259259259259],[0.17604166666666668,0.2833333333333333],[0.171875,0.29444444444444445],[0.16875,0.3037037037037037],[0.165625,0.3111111111111111],[0.16458333333333333,0.3148148148148148],[0.1625,0.31851851851851853],[0.1625,0.32037037037037036],[0.16145833333333334,0.32222222222222224],[0.16041666666666668,0.32407407407407407],[0.16041666666666668,0.32407407407407407],[0.16041666666666668,0.32407407407407407],[0.16041666666666668,0.32407407407407407],[0.16041666666666668,0.32407407407407407],[0.16041666666666668,0.32407407407407407],[0.16041666666666668,0.32407407407407407],[0.16041666666666668,0.32407407407407407],[0.16041666666666668,0.32407407407407407],[0.16041666666666668,0.32407407407407407],[0.16041666666666668,0.32407407407407407],[0.16041666666666668,0.32407407407407407],[0.159375,0.3277777777777778],[0.159375,0.3333333333333333],[0.159375,0.34074074074074073],[0.159375,0.35185185185185186],[0.1625,0.362962962962963],[0.16354166666666667,0.3648148148148148],[0.16354166666666667,0.3648148148148148],[0.16354166666666667,0.3648148148148148],[0.16354166666666667,0.3648148148148148],[0.16354166666666667,0.3648148148148148],[0.16354166666666667,0.3648148148148148],[0.16354166666666667,0.3648148148148148],[0.16354166666666667,0.3648148148148148],[0.16354166666666667,0.3648148148148148],[0.16354166666666667,0.3648148148148148],[0.16354166666666667,0.3648148148148148],[0.16354166666666667,0.3648148148148148],[0.16354166666666667,0.3648148148148148],[0.16354166666666667,0.3648148148148148],[0.16354166666666667,0.3648148148148148],[0.16354166666666667,0.3648148148148148],[0.16354166666666667,0.3648148148148148],[0.16354166666666667,0.3648148148148148],[0.16354166666666667,0.3648148148148148],[0.16354166666666667,0.3648148148148148],[0.16354166666666667,0.3648148148148148],[0.16354166666666667,0.3648148148148148],[0.16354166666666667,0.3648148148148148],[0.16354166666666667,0.3648148148148148],[0.16354166666666667,0.3648148148148148],[0.16354166666666667,0.3648148148148148],[0.16354166666666667,0.3648148148148148],[0.16354166666666667,0.3648148148148148],[0.16354166666666667,0.3648148148148148],[0.16354166666666667,0.3648148148148148],[0.16354166666666667,0.3648148148148148],[0.16354166666666667,0.3648148148148148],[0.16354166666666667,0.3648148148148148],[0.16354166666666667,0.3648148148148148],[0.16354166666666667,0.3648148148148148],[0.16354166666666667,0.3648148148148148],[0.16354166666666667,0.3648148148148148],[0.16354166666666667,0.3648148148148148],[0.16354166666666667,0.3648148148148148],[0.16354166666666667,0.3648148148148148],[0.16354166666666667,0.3648148148148148],[0.16354166666666667,0.3648148148148148],[0.16354166666666667,0.3648148148148148],[0.16354166666666667,0.3648148148148148],[0.16354166666666667,0.3648148148148148],[0.16354166666666667,0.3648148148148148],[0.16354166666666667,0.3648148148148148],[0.16354166666666667,0.3648148148148148],[0.16354166666666667,0.3648148148148148],[0.16354166666666667,0.3648148148148148],[0.16354166666666667,0.3648148148148148],[0.16354166666666667,0.3648148148148148],[0.16354166666666667,0.3648148148148148],[0.16354166666666667,0.3648148148148148],[0.16354166666666667,0.3648148148148148],[0.16354166666666667,0.3648148148148148],[0.16354166666666667,0.3648148148148148],[0.16354166666666667,0.3648148148148148],[0.16354166666666667,0.3648148148148148],[0.16354166666666667,0.3648148148148148],[0.16354166666666667,0.3648148148148148],[0.16354166666666667,0.3648148148148148],[0.16354166666666667,0.3648148148148148],[0.16354166666666667,0.3648148148148148],[0.16354166666666667,0.3648148148148148]]","[[-0.09406249999999995,0.696111111111111],[-0.09406249999999995,0.696111111111111],[-0.058854166666666666,0.6924074074074074],[-0.058854166666666666,0.6924074074074074],[-0.05562499999999997,0.6614814814814816],[-0.05562499999999997,0.6614814814814816],[-0.07374999999999995,0.5881481481481482],[-0.07374999999999995,0.5881481481481482],[-0.07989583333333337,0.5185185185185185],[-0.07989583333333337,0.5185185185185185],[-0.06427083333333337,0.41574074074074074],[-0.06427083333333337,0.41574074074074074],[-0.03791666666666664,0.32407407407407407],[-0.03791666666666664,0.32407407407407407],[-0.027395833333333286,0.2733333333333334],[-0.027395833333333286,0.2733333333333334],[-0.011979166666666667,0.21518518518518526],[-0.011979166666666667,0.21518518518518526],[0.016458333333333287,0.2012962962962964],[0.04822916666666662,0.230925925925926],[0.04822916666666662,0.230925925925926],[0.057604166666666616,0.2198148148148149],[0.057604166666666616,0.2198148148148149],[0.09635416666666667,0.22925925925925916],[0.09635416666666667,0.22925925925925916],[0.14708333333333337,0.24462962962962967],[0.14708333333333337,0.24462962962962967],[0.18218750000000009,0.24870370370370362],[0.18218750000000009,0.24870370370370362],[0.19583333333333333,0.27259259259259266],[0.19583333333333333,0.27259259259259266],[0.2133333333333333,0.285],[0.21437499999999995,0.23499999999999996],[0.20645833333333338,0.20666666666666672],[0.21197916666666666,0.17907407407407416],[0.2007291666666667,0.10444444444444441],[0.2071875000000001,0.054259259259259174],[0.2033333333333334,0],[0.21281249999999996,-0.01592592592592597],[0.20583333333333323,0.0014814814814813973],[0.20583333333333323,0.0014814814814813973],[0.18395833333333325,-0.02833333333333325],[0.17489583333333342,-0.025185185185185227],[0.1701041666666666,0.008888888888888804],[0.16052083333333325,0.03092592592592601],[0.14375,0.04592592592592584],[0.12427083333333329,0.057962962962962876],[0.09937500000000009,0.05611111111111103],[0.0609375,0.052962962962963],[0.05510416666666664,0.08499999999999996],[0.04052083333333331,0.08148148148148149],[0.025937499999999978,0.14018518518518527],[-0.000833333333333286,0.2024074074074073],[-0.000833333333333286,0.2024074074074073],[-0.00916666666666662,0.24592592592592585],[-0.033958333333333354,0.29796296296296293],[-0.058749999999999976,0.35],[-0.09041666666666662,0.3977777777777777],[-0.12208333333333338,0.4455555555555556],[-0.14229166666666668,0.4885185185185184],[-0.17895833333333327,0.5411111111111112],[-0.18479166666666663,0.5953703703703703],[-0.15760416666666663,0.6381481481481482],[-0.14281250000000004,0.6824074074074075],[-0.14281250000000004,0.6824074074074075],[-0.1514583333333333,0.677962962962963],[-0.12593749999999998,0.6857407407407407],[-0.11447916666666665,0.7337037037037037],[-0.11447916666666665,0.7337037037037037],[-0.09947916666666666,0.7987037037037036],[-0.09947916666666666,0.7987037037037036],[-0.05572916666666667,0.8396296296296296],[-0.012083333333333357,0.867962962962963],[0.012812499999999952,0.8616666666666666],[0.026041666666666668,0.8357407407407407],[0.027499999999999976,0.8062962962962963],[0.03927083333333338,0.769074074074074],[0.03927083333333338,0.769074074074074],[0.08291666666666657,0.7472222222222222],[0.08291666666666657,0.7472222222222222],[0.13624999999999995,0.7277777777777777],[0.19302083333333328,0.6453703703703704],[0.2630208333333333,0.5601851851851852],[0.3042708333333332,0.49907407407407406],[0.33562500000000006,0.45444444444444443],[0.3779166666666666,0.415925925925926],[0.3779166666666666,0.415925925925926],[0.4101041666666667,0.3903703703703703],[0.4479166666666667,0.36129629629629634],[0.4982291666666666,0.3146296296296296],[0.505,0.31296296296296294],[0.4851041666666667,0.30333333333333323],[0.4709374999999999,0.33055555555555555],[0.4569791666666667,0.35648148148148145],[0.4476041666666667,0.4014814814814814],[0.4482291666666666,0.4425925925925926],[0.4318749999999999,0.5064814814814815],[0.4239583333333333,0.5592592592592592],[0.41281249999999997,0.6138888888888889],[0.3958333333333333,0.6537037037037037],[0.4037499999999999,0.6737037037037036],[0.4071875000000001,0.6901851851851852],[0.41552083333333345,0.6925925925925925],[0.42125000000000007,0.718888888888889],[0.42135416666666664,0.7290740740740742],[0.41291666666666677,0.74],[0.40958333333333335,0.7124074074074075],[0.4087500000000001,0.6998148148148148],[0.3950000000000001,0.6848148148148148],[0.3757291666666667,0.7138888888888889],[0.34885416666666674,0.7294444444444445],[0.3264583333333334,0.7485185185185186],[0.3264583333333334,0.7485185185185186],[0.32041666666666657,0.7501851851851852],[0.30520833333333336,0.7411111111111112],[0.29104166666666675,0.7290740740740742],[0.29104166666666675,0.7290740740740742],[0.2821875000000001,0.721111111111111],[0.28177083333333336,0.725],[0.2796875,0.7266666666666666],[0.290625,0.7087037037037038],[0.29375,0.6855555555555556],[0.2955208333333334,0.678888888888889],[0.28895833333333343,0.6787037037037037],[0.27020833333333344,0.6866666666666665],[0.26833333333333326,0.6933333333333332],[0.2664583333333333,0.7],[0.2626041666666666,0.7127777777777777],[0.2626041666666666,0.7127777777777777],[0.25114583333333323,0.7305555555555555],[0.24145833333333327,0.7348148148148147],[0.24145833333333327,0.7348148148148147],[0.23166666666666677,0.7611111111111111],[0.22614583333333324,0.7694444444444445],[0.2146874999999999,0.7544444444444444],[0.20750000000000005,0.7472222222222222],[0.17041666666666658,0.7414814814814814],[0.12802083333333342,0.7251851851851853],[0.12802083333333342,0.7251851851851853],[0.07916666666666666,0.7162962962962962],[0.07916666666666666,0.7162962962962962],[0.050833333333333286,0.7044444444444444],[0.050833333333333286,0.7044444444444444],[0.005104166666666643,0.7033333333333333],[0.005104166666666643,0.7033333333333333],[-0.03145833333333338,0.6683333333333333],[-0.03145833333333338,0.6683333333333333],[-0.059687499999999956,0.6392592592592593],[-0.059687499999999956,0.6392592592592593],[-0.10979166666666665,0.6175925925925926],[-0.10979166666666665,0.6175925925925926],[-0.15093749999999997,0.6346296296296298],[-0.15093749999999997,0.6346296296296298],[-0.18791666666666665,0.6196296296296296],[-0.18791666666666665,0.6196296296296296],[-0.19916666666666671,0.6124074074074075],[-0.19916666666666671,0.6124074074074075],[-0.19593750000000001,0.5962962962962963],[-0.19593750000000001,0.5962962962962963],[-0.19197916666666662,0.5661111111111112],[-0.19197916666666662,0.5661111111111112],[-0.22000000000000006,0.4564814814814815],[-0.22000000000000006,0.4564814814814815],[-0.15104166666666666,0.3479629629629629],[-0.15104166666666666,0.3479629629629629],[-0.09739583333333333,0.28277777777777785],[-0.09739583333333333,0.28277777777777785],[-0.04375,0.23648148148148157],[-0.04375,0.23648148148148157],[0.03791666666666664,0.18981481481481483],[0.03791666666666664,0.18981481481481483],[0.10260416666666666,0.12037037037037036],[0.10260416666666666,0.12037037037037036],[0.17322916666666663,0.04592592592592584],[0.17322916666666663,0.04592592592592584],[0.2482291666666666,0.010370370370370412],[0.2482291666666666,0.010370370370370412],[0.29874999999999996,-0.02370370370370362],[0.29874999999999996,-0.02370370370370362],[0.3549999999999999,-0.051111111111111156],[0.3549999999999999,-0.051111111111111156],[0.43854166666666666,0.0001851851851852273],[0.43854166666666666,0.0001851851851852273],[0.42999999999999994,0.026481481481481398],[0.42999999999999994,0.026481481481481398],[0.42906250000000007,0.03981481481481482],[0.42906250000000007,0.03981481481481482],[0.42906250000000007,0.03981481481481482],[0.42906250000000007,0.03981481481481482],[0.4154166666666666,0.03425925925925926],[0.4154166666666666,0.03425925925925926],[0.39958333333333323,0.03925925925925934],[0.39958333333333323,0.03925925925925934],[0.4028125000000001,0.07037037037037037],[0.4028125000000001,0.07037037037037037],[0.40208333333333335,0.13759259259259252],[0.40208333333333335,0.13759259259259252],[0.3889583333333334,0.1507407407407407],[0.3889583333333334,0.1507407407407407],[0.38385416666666666,0.1477777777777777],[0.38385416666666666,0.1477777777777777],[0.3775000000000001,0.14685185185185176],[0.3775000000000001,0.14685185185185176],[0.37687499999999996,0.16944444444444445],[0.37687499999999996,0.16944444444444445],[0.3807291666666667,0.22870370370370371],[0.3807291666666667,0.22870370370370371],[0.378125,0.256111111111111],[0.378125,0.256111111111111],[0.38937499999999997,0.33240740740740743],[0.38937499999999997,0.33240740740740743],[0.39739583333333334,0.41388888888888886],[0.39739583333333334,0.41388888888888886],[0.3775000000000001,0.5033333333333333],[0.3775000000000001,0.5033333333333333],[0.3342708333333334,0.5596296296296297],[0.3342708333333334,0.5596296296296297],[0.30135416666666665,0.6624074074074074],[0.30135416666666665,0.6624074074074074],[0.26593749999999994,0.7540740740740741],[0.26593749999999994,0.7540740740740741],[0.25718750000000007,0.8977777777777777],[0.25718750000000007,0.8977777777777777],[0.21989583333333323,0.9633333333333334],[0.21989583333333323,0.9633333333333334],[0.19520833333333343,0.980925925925926],[0.19520833333333343,0.980925925925926],[0.1875,1.0779629629629628],[0.1875,1.0779629629629628],[0.16572916666666657,1.1133333333333335],[0.16572916666666657,1.1133333333333335],[0.1571875000000001,1.1303703703703705],[0.1571875000000001,1.1303703703703705],[0.16510416666666666,1.088148148148148],[0.16510416666666666,1.088148148148148],[0.20125000000000004,1.079074074074074],[0.20125000000000004,1.079074074074074],[0.2384375000000001,0.9994444444444446],[0.2384375000000001,0.9994444444444446],[0.28072916666666664,0.9546296296296296],[0.28072916666666664,0.9546296296296296],[0.29968750000000005,0.8664814814814814],[0.29968750000000005,0.8664814814814814],[0.32625000000000004,0.8174074074074074],[0.32625000000000004,0.8174074074074074],[0.359375,0.7827777777777779],[0.359375,0.7827777777777779],[0.35010416666666655,0.6812962962962963],[0.35010416666666655,0.6812962962962963],[0.3493750000000001,0.6075925925925927],[0.3493750000000001,0.6075925925925927],[0.33781249999999996,0.5261111111111112],[0.33781249999999996,0.5261111111111112],[0.33541666666666664,0.48351851851851857],[0.33541666666666664,0.48351851851851857],[0.3224999999999999,0.4294444444444444],[0.3224999999999999,0.4294444444444444],[0.3055208333333333,0.41648148148148145],[0.3055208333333333,0.41648148148148145],[0.2933333333333332,0.38185185185185194],[0.2933333333333332,0.38185185185185194],[0.2727083333333333,0.3118518518518518],[0.2727083333333333,0.3118518518518518],[0.2569791666666667,0.2540740740740742],[0.2569791666666667,0.2540740740740742],[0.23489583333333333,0.2205555555555556],[0.23489583333333333,0.2205555555555556],[0.23489583333333333,0.2205555555555556],[0.25052083333333336,0.20462962962962963],[0.25052083333333336,0.20462962962962963],[0.26593749999999994,0.1596296296296297],[0.26593749999999994,0.1596296296296297],[0.2607291666666666,0.10777777777777786],[0.2607291666666666,0.10777777777777786],[0.2607291666666666,0.10777777777777786],[0.25270833333333326,0.049629629629629544],[0.25270833333333326,0.049629629629629544],[0.24989583333333343,-0.04203703703703712],[0.24989583333333343,-0.04203703703703712],[0.2598958333333333,-0.10888888888888891],[0.2598958333333333,-0.10888888888888891],[0.2553124999999999,-0.1307407407407408],[0.2553124999999999,-0.1307407407407408],[0.25114583333333323,-0.11277777777777774],[0.25114583333333323,-0.11277777777777774],[0.25927083333333345,-0.04425925925925922],[0.25927083333333345,-0.04425925925925922],[0.25062499999999993,-0.01518518518518527],[0.24093749999999994,0.01648148148148144],[0.24093749999999994,0.01648148148148144],[0.2482291666666666,0.044999999999999915],[0.2482291666666666,0.044999999999999915],[0.2491666666666667,0.11277777777777774],[0.2491666666666667,0.11277777777777774],[0.2621875000000001,0.1264814814814814],[0.28708333333333325,0.18203703703703694],[0.2851041666666667,0.19870370370370363],[0.2851041666666667,0.19870370370370363],[0.28104166666666663,0.17962962962962964],[0.27333333333333343,0.1787037037037037],[0.2609375,0.14240740740740737],[0.2631249999999999,0.0801851851851851],[0.23833333333333329,0.018333333333333292],[0.19281249999999991,-0.03222222222222218],[0.19281249999999991,-0.03222222222222218],[0.1921875,-0.09462962962962967],[0.1921875,-0.09462962962962967],[0.16572916666666657,-0.05462962962962963],[0.16572916666666657,-0.05462962962962963],[0.09885416666666676,-0.08814814814814818],[0.041458333333333285,-0.12000000000000002],[0.041458333333333285,-0.12000000000000002],[0.03322916666666664,-0.04314814814814806],[0.023958333333333335,-0.05481481481481486],[0.0067708333333333336,-0.08555555555555554],[-0.03687499999999998,-0.14814814814814814],[-0.06072916666666662,-0.2096296296296296],[-0.0655208333333333,-0.21370370370370367],[-0.0655208333333333,-0.21370370370370367],[-0.07291666666666667,-0.1911111111111111],[-0.06197916666666667,-0.22925925925925927],[-0.028750000000000022,-0.19166666666666668],[0.02385416666666664,-0.17740740740740743],[0.03854166666666667,-0.2596296296296296],[0.05135416666666662,-0.30407407407407405],[0.0671875,-0.3316666666666667],[0.14500000000000005,-0.24111111111111108],[0.20927083333333343,-0.17851851851851847],[0.23385416666666667,-0.18351851851851855],[0.2423958333333334,-0.22092592592592594],[0.25833333333333336,-0.24444444444444444],[0.25833333333333336,-0.24444444444444444],[0.26104166666666656,-0.3014814814814815],[0.27937500000000004,-0.29148148148148145],[0.27354166666666657,-0.3101851851851852],[0.28020833333333334,-0.31148148148148147],[0.2741666666666667,-0.3455555555555556],[0.25458333333333344,-0.3911111111111111],[0.23666666666666672,-0.4390740740740741],[0.23666666666666672,-0.4390740740740741],[0.228125,-0.43037037037037035],[0.2287499999999999,-0.4361111111111111],[0.22770833333333323,-0.42185185185185187],[0.2384375000000001,-0.4359259259259259],[0.2384375000000001,-0.4359259259259259],[0.22125000000000009,-0.47388888888888886],[0.225,-0.4861111111111111],[0.2256249999999999,-0.4898148148148148],[0.26052083333333326,-0.42962962962962964],[0.26458333333333334,-0.4166666666666667],[0.2795833333333334,-0.36370370370370364],[0.3071875000000001,-0.37907407407407406],[0.2993750000000001,-0.3827777777777778],[0.28125,-0.40796296296296297],[0.2795833333333334,-0.3638888888888889],[0.2886458333333332,-0.3081481481481481],[0.3004166666666668,-0.25407407407407406],[0.32135416666666666,-0.2131481481481482],[0.2998958333333334,-0.23870370370370367],[0.29020833333333323,-0.2207407407407407],[0.2916666666666667,-0.1985185185185185],[0.28177083333333336,-0.18185185185185182],[0.3008333333333333,-0.15037037037037035],[0.31906249999999997,-0.14648148148148152],[0.31906249999999997,-0.14648148148148152],[0.3245833333333332,-0.16574074074074074],[0.31489583333333326,-0.205],[0.31489583333333326,-0.205],[0.3086458333333333,-0.25018518518518523],[0.3086458333333333,-0.25018518518518523],[0.2952083333333334,-0.285],[0.3078125,-0.3466666666666666],[0.29270833333333335,-0.4083333333333333],[0.2673958333333334,-0.4838888888888889],[0.25895833333333323,-0.5437037037037038],[0.2478125000000001,-0.6155555555555555],[0.23739583333333342,-0.6337037037037037],[0.22927083333333323,-0.6485185185185185],[0.22708333333333333,-0.6892592592592592],[0.22197916666666656,-0.7194444444444444],[0.20364583333333333,-0.7498148148148148],[0.17708333333333334,-0.7348148148148148],[0.18072916666666666,-0.7462962962962963],[0.19958333333333325,-0.7701851851851852],[0.2115624999999999,-0.7824074074074074],[0.2127083333333334,-0.7294444444444445],[0.21427083333333338,-0.7255555555555556],[0.22645833333333343,-0.7262962962962963],[0.23541666666666666,-0.7020370370370371],[0.24354166666666663,-0.6603703703703704],[0.2647916666666667,-0.6237037037037038],[0.2569791666666667,-0.6064814814814815],[0.24114583333333334,-0.5827777777777777],[0.2101041666666667,-0.5466666666666666],[0.1953125,-0.5188888888888888]]","[[-0.09406249999999995,0.696111111111111,0.000299999713902821],[-0.09406249999999995,0.696111111111111,0.05409999990463632],[-0.058854166666666666,0.6924074074074074,0.07750000000000057],[-0.058854166666666666,0.6924074074074074,0.08619999980926707],[-0.05562499999999997,0.6614814814814816,0.11259999990463854],[-0.05562499999999997,0.6614814814814816,0.12199999999999989],[-0.07374999999999995,0.5881481481481482,0.14840000009537135],[-0.07374999999999995,0.5881481481481482,0.15629999971390163],[-0.07989583333333337,0.5185185185185185,0.182699999809266],[-0.07989583333333337,0.5185185185185185,0.19429999971389833],[-0.06427083333333337,0.41574074074074074,0.2101999998092694],[-0.06427083333333337,0.41574074074074074,0.2267999997138972],[-0.03791666666666664,0.32407407407407407,0.2435000000000045],[-0.03791666666666664,0.32407407407407407,0.2600999999046323],[-0.027395833333333286,0.2733333333333334,0.27690000009536675],[-0.027395833333333286,0.2733333333333334,0.29469999980926787],[-0.011979166666666667,0.21518518518518526,0.31009999990463655],[-0.011979166666666667,0.21518518518518526,0.3267999997138986],[0.016458333333333287,0.2012962962962964,0.3435000000000059],[0.04822916666666662,0.230925925925926,0.36469999980926815],[0.04822916666666662,0.230925925925926,0.37690000009536817],[0.057604166666666616,0.2198148148148149,0.3934000000953688],[0.057604166666666616,0.2198148148148149,0.41009999990463797],[0.09635416666666667,0.22925925925925916,0.42679999971390004],[0.09635416666666667,0.22925925925925916,0.44790000009537323],[0.14708333333333337,0.24462962962962967,0.46040000009536897],[0.14708333333333337,0.24462962962962967,0.4769000000953696],[0.18218750000000009,0.24870370370370362,0.4932999997138978],[0.18218750000000009,0.24870370370370362,0.5100999999046323],[0.19583333333333333,0.27259259259259266,0.532199999809265],[0.19583333333333333,0.27259259259259266,0.5435000000000016],[0.2133333333333333,0.285,0.5600000000000023],[0.21437499999999995,0.23499999999999996,0.5766999998092643],[0.20645833333333338,0.20666666666666672,0.5934000000953716],[0.21197916666666666,0.17907407407407416,0.6104000000953675],[0.2007291666666667,0.10444444444444441,0.6266999998092686],[0.2071875000000001,0.054259259259259174,0.6434000000953688],[0.2033333333333334,0,0.660099999904638],[0.21281249999999996,-0.01592592592592597,0.6767999997139],[0.20583333333333323,0.0014814814814813973,0.693799999713903],[0.20583333333333323,0.0014814814814813973,0.7101999998092694],[0.18395833333333325,-0.02833333333333325,0.72669999980927],[0.17489583333333342,-0.025185185185185227,0.7434000000953702],[0.1701041666666666,0.008888888888888804,0.7600000000000051],[0.16052083333333325,0.03092592592592601,0.7766999998092672],[0.14375,0.04592592592592584,0.7934000000953674],[0.12427083333333329,0.057962962962962876,0.8127999997139028],[0.09937500000000009,0.05611111111111103,0.8274000000953734],[0.0609375,0.052962962962963,0.8437999997139016],[0.05510416666666664,0.08499999999999996,0.8619000000953676],[0.04052083333333331,0.08148148148148149,0.8766999998092686],[0.025937499999999978,0.14018518518518527,0.8935000000000031],[-0.000833333333333286,0.2024074074074073,0.915299999713902],[-0.000833333333333286,0.2024074074074073,0.9267999997139],[-0.00916666666666662,0.24592592592592585,0.9434000000953731],[-0.033958333333333354,0.29796296296296293,0.9600000000000009],[-0.058749999999999976,0.35,0.9767999997138972],[-0.09041666666666662,0.3977777777777777,0.9934000000953702],[-0.12208333333333338,0.4455555555555556,1.0120999999046347],[-0.14229166666666668,0.4885185185185184,1.028500000000001],[-0.17895833333333327,0.5411111111111112,1.0434000000953674],[-0.18479166666666663,0.5953703703703703,1.063199999809271],[-0.15760416666666663,0.6381481481481482,1.0786999998092668],[-0.14281250000000004,0.6824074074074075,1.0936999998092674],[-0.14281250000000004,0.6824074074074075,1.110199999809268],[-0.1514583333333333,0.677962962962963,1.1267999997139029],[-0.12593749999999998,0.6857407407407407,1.1460000000000008],[-0.11447916666666665,0.7337037037037037,1.1607999997139018],[-0.11447916666666665,0.7337037037037037,1.1767999997139],[-0.09947916666666666,0.7987037037037036,1.193400000095373],[-0.09947916666666666,0.7987037037037036,1.2101999998092694],[-0.05572916666666667,0.8396296296296296,1.22669999980927],[-0.012083333333333357,0.867962962962963,1.2432999997138978],[0.012812499999999952,0.8616666666666666,1.261400000095371],[0.026041666666666668,0.8357407407407407,1.2767999997139015],[0.027499999999999976,0.8062962962962963,1.293299999713902],[0.03927083333333338,0.769074074074074,1.3165000000000049],[0.03927083333333338,0.769074074074074,1.3266999998092643],[0.08291666666666657,0.7472222222222222,1.3434000000953716],[0.08291666666666657,0.7472222222222222,1.3599999999999994],[0.13624999999999995,0.7277777777777777,1.3767999997139029],[0.19302083333333328,0.6453703703703704,1.3934000000953688],[0.2630208333333333,0.5601851851851852,1.4117999997138995],[0.3042708333333332,0.49907407407407406,1.4280999999046387],[0.33562500000000006,0.45444444444444443,1.4432999997139007],[0.3779166666666666,0.415925925925926,1.4600000000000009],[0.3779166666666666,0.415925925925926,1.47669999980927],[0.4101041666666667,0.3903703703703703,1.4934000000953702],[0.4479166666666667,0.36129629629629634,1.5100999999046323],[0.4982291666666666,0.3146296296296296,1.5271999998092696],[0.505,0.31296296296296294,1.5435000000000016],[0.4851041666666667,0.30333333333333323,1.5600999999046365],[0.4709374999999999,0.33055555555555555,1.579099999904635],[0.4569791666666667,0.35648148148148145,1.5934000000953716],[0.4476041666666667,0.4014814814814814,1.6100999999046337],[0.4482291666666666,0.4425925925925926,1.6266999998092686],[0.4318749999999999,0.5064814814814815,1.6432999997139035],[0.4239583333333333,0.5592592592592592,1.6605999999046333],[0.41281249999999997,0.6138888888888889,1.6806999998092707],[0.3958333333333333,0.6537037037037037,1.697099999904637],[0.4037499999999999,0.6737037037037036,1.7132999997139038],[0.4071875000000001,0.6901851851851852,1.7297999997138973],[0.41552083333333345,0.6925925925925925,1.7460999999046365],[0.42125000000000007,0.718888888888889,1.7617999997139009],[0.42135416666666664,0.7290740740740742,1.7766999998092672],[0.41291666666666677,0.74,1.7934000000953674],[0.40958333333333335,0.7124074074074075,1.8105000000000047],[0.4087500000000001,0.6998148148148148,1.8267999997138986],[0.3950000000000001,0.6848148148148148,1.8447999997138993],[0.3757291666666667,0.7138888888888889,1.8600999999046337],[0.34885416666666674,0.7294444444444445,1.8765999999046343],[0.3264583333333334,0.7485185185185186,1.8970999999046327],[0.3264583333333334,0.7485185185185186,1.9100000000000037],[0.32041666666666657,0.7501851851851852,1.9267999997139],[0.30520833333333336,0.7411111111111112,1.9435000000000002],[0.29104166666666675,0.7290740740740742,1.9605999999046375],[0.29104166666666675,0.7290740740740742,1.980799999713902],[0.2821875000000001,0.721111111111111,1.9932999997138978],[0.28177083333333336,0.725,2.0101999998092666],[0.2796875,0.7266666666666666,2.028400000095367],[0.290625,0.7087037037037038,2.045900000095372],[0.29375,0.6855555555555556,2.0600999999046365],[0.2955208333333334,0.678888888888889,2.0766999998092643],[0.28895833333333343,0.6787037037037037,2.0934000000953716],[0.27020833333333344,0.6866666666666665,2.1121999998092704],[0.26833333333333326,0.6933333333333332,2.1285000000000025],[0.2664583333333333,0.7,2.1436999998092645],[0.2626041666666666,0.7127777777777777,2.161699999809265],[0.2626041666666666,0.7127777777777777,2.1766999998092658],[0.25114583333333323,0.7305555555555555,2.193400000095373],[0.24145833333333327,0.7348148148148147,2.215599999904633],[0.24145833333333327,0.7348148148148147,2.22669999980927],[0.23166666666666677,0.7611111111111111,2.24340000009537],[0.22614583333333324,0.7694444444444445,2.2605000000000004],[0.2146874999999999,0.7544444444444444,2.276699999809267],[0.20750000000000005,0.7472222222222222,2.2934000000953674],[0.17041666666666658,0.7414814814814814,2.311699999809271],[0.12802083333333342,0.7251851851851853,2.3267999997138986],[0.12802083333333342,0.7251851851851853,2.343500000000006],[0.07916666666666666,0.7162962962962962,2.3600999999046337],[0.07916666666666666,0.7162962962962962,2.376799999713903],[0.050833333333333286,0.7044444444444444,2.393400000095369],[0.050833333333333286,0.7044444444444444,2.410099999904638],[0.005104166666666643,0.7033333333333333,2.4469000000953685],[0.005104166666666643,0.7033333333333333,2.456000000000003],[-0.03145833333333338,0.6683333333333333,2.4824000000953674],[-0.03145833333333338,0.6683333333333333,2.489599999904634],[-0.059687499999999956,0.6392592592592593,2.5171999998092645],[-0.059687499999999956,0.6392592592592593,2.5242999997139037],[-0.10979166666666665,0.6175925925925926,2.545900000095372],[-0.10979166666666665,0.6175925925925926,2.55290000009537],[-0.15093749999999997,0.6346296296296298,2.579199999809269],[-0.15093749999999997,0.6346296296296298,2.5860000000000056],[-0.18791666666666665,0.6196296296296296,2.61090000009537],[-0.18791666666666665,0.6196296296296296,2.6181999998092707],[-0.19916666666666671,0.6124074074074075,2.646099999904635],[-0.19916666666666671,0.6124074074074075,2.6532999997139015],[-0.19593750000000001,0.5962962962962963,2.679699999809266],[-0.19593750000000001,0.5962962962962963,2.687799999713903],[-0.19197916666666662,0.5661111111111112,2.7129000000953667],[-0.19197916666666662,0.5661111111111112,2.720099999904633],[-0.22000000000000006,0.4564814814814815,2.746299999713898],[-0.22000000000000006,0.4564814814814815,2.7541999998092663],[-0.15104166666666666,0.3479629629629629,2.7794000000953716],[-0.15104166666666666,0.3479629629629629,2.786699999809265],[-0.09739583333333333,0.28277777777777785,2.8130000000000024],[-0.09739583333333333,0.28277777777777785,2.825000000000003],[-0.04375,0.23648148148148157,2.8470000000000013],[-0.04375,0.23648148148148157,2.8541999998092678],[0.03791666666666664,0.18981481481481483,2.881599999904637],[0.03791666666666664,0.18981481481481483,2.8889000000953686],[0.10260416666666666,0.12037037037037036,2.913799999713902],[0.10260416666666666,0.12037037037037036,2.920900000095372],[0.17322916666666663,0.04592592592592584,2.946400000095373],[0.17322916666666663,0.04592592592592584,2.9542999997139034],[0.2482291666666666,0.010370370370370412,2.9791999998092678],[0.2482291666666666,0.010370370370370412,2.9862999997139],[0.29874999999999996,-0.02370370370370362,3.0131999998092667],[0.29874999999999996,-0.02370370370370362,3.020000000000003],[0.3549999999999999,-0.051111111111111156,3.0474000000953723],[0.3549999999999999,-0.051111111111111156,3.0575000000000045],[0.43854166666666666,0.0001851851851852273,3.0796999998092645],[0.43854166666666666,0.0001851851851852273,3.087699999809267],[0.42999999999999994,0.026481481481481398,3.113099999904634],[0.42999999999999994,0.026481481481481398,3.120199999809266],[0.42906250000000007,0.03981481481481482,3.1480999999046375],[0.42906250000000007,0.03981481481481482,3.1562999997139016],[0.42906250000000007,0.03981481481481482,3.1600000000000037],[0.42906250000000007,0.03981481481481482,3.178599999904634],[0.4154166666666666,0.03425925925925926,3.2110000000000056],[0.4154166666666666,0.03425925925925926,3.219000000000001],[0.39958333333333323,0.03925925925925934,3.2467999997139003],[0.39958333333333323,0.03925925925925934,3.2545999999046344],[0.4028125000000001,0.07037037037037037,3.2804000000953693],[0.4028125000000001,0.07037037037037037,3.288099999904638],[0.40208333333333335,0.13759259259259252,3.312900000095368],[0.40208333333333335,0.13759259259259252,3.3306999998092692],[0.3889583333333334,0.1507407407407407,3.345400000095367],[0.3889583333333334,0.1507407407407407,3.355000000000004],[0.38385416666666666,0.1477777777777777,3.3774000000953706],[0.38385416666666666,0.1477777777777777,3.3855000000000004],[0.3775000000000001,0.14685185185185176,3.4121999998092676],[0.3775000000000001,0.14685185185185176,3.419699999809268],[0.37687499999999996,0.16944444444444445,3.4461999998092665],[0.37687499999999996,0.16944444444444445,3.454900000095371],[0.3807291666666667,0.22870370370370371,3.4790999999046335],[0.3807291666666667,0.22870370370370371,3.486699999809268],[0.378125,0.256111111111111,3.5122999997139033],[0.378125,0.256111111111111,3.5201999998092646],[0.38937499999999997,0.33240740740740743,3.545500000000004],[0.38937499999999997,0.33240740740740743,3.5524000000953677],[0.39739583333333334,0.41388888888888886,3.5790000000000006],[0.39739583333333334,0.41388888888888886,3.585799999713899],[0.3775000000000001,0.5033333333333333,3.611000000000004],[0.3775000000000001,0.5033333333333333,3.6200999999046317],[0.3342708333333334,0.5596296296296297,3.6454000000953712],[0.3342708333333334,0.5596296296296297,3.653000000000006],[0.30135416666666665,0.6624074074074074,3.6827999997139003],[0.30135416666666665,0.6624074074074074,3.690000000000005],[0.26593749999999994,0.7540740740740741,3.7130999999046352],[0.26593749999999994,0.7540740740740741,3.7239000000953695],[0.25718750000000007,0.8977777777777777,3.7454000000953727],[0.25718750000000007,0.8977777777777777,3.7526999998092663],[0.21989583333333323,0.9633333333333334,3.7775000000000034],[0.21989583333333323,0.9633333333333334,3.7860000000000014],[0.19520833333333343,0.980925925925926,3.8125],[0.19520833333333343,0.980925925925926,3.8196999998092664],[0.1875,1.0779629629629628,3.8459000000953694],[0.1875,1.0779629629629628,3.8532999997138973],[0.16572916666666657,1.1133333333333335,3.8774000000953706],[0.16572916666666657,1.1133333333333335,3.8851999998092666],[0.1571875000000001,1.1303703703703705,3.9125999999046357],[0.1571875000000001,1.1303703703703705,3.9209999999999994],[0.16510416666666666,1.088148148148148,3.9457999997138984],[0.16510416666666666,1.088148148148148,3.9530999999046372],[0.20125000000000004,1.079074074074074,3.979299999713902],[0.20125000000000004,1.079074074074074,3.9865999999046338],[0.2384375000000001,0.9994444444444446,4.010799999713903],[0.2384375000000001,0.9994444444444446,4.0190000000000055],[0.28072916666666664,0.9546296296296296,4.045500000000004],[0.28072916666666664,0.9546296296296296,4.0526999998092705],[0.29968750000000005,0.8664814814814814,4.080000000000005],[0.29968750000000005,0.8664814814814814,4.087099999904638],[0.32625000000000004,0.8174074074074074,4.113500000000002],[0.32625000000000004,0.8174074074074074,4.1210999999046365],[0.359375,0.7827777777777779,4.145400000095371],[0.359375,0.7827777777777779,4.152500000000003],[0.35010416666666655,0.6812962962962963,4.179000000000002],[0.35010416666666655,0.6812962962962963,4.1920999999046344],[0.3493750000000001,0.6075925925925927,4.213500000000003],[0.3493750000000001,0.6075925925925927,4.22069999980927],[0.33781249999999996,0.5261111111111112,4.2455],[0.33781249999999996,0.5261111111111112,4.252400000095371],[0.33541666666666664,0.48351851851851857,4.279500000000006],[0.33541666666666664,0.48351851851851857,4.2867999997138995],[0.3224999999999999,0.4294444444444444,4.310900000095373],[0.3224999999999999,0.4294444444444444,4.319000000000003],[0.3055208333333333,0.41648148148148145,4.3515000000000015],[0.3055208333333333,0.41648148148148145,4.3604000000953675],[0.2933333333333332,0.38185185185185194,4.376699999809269],[0.2933333333333332,0.38185185185185194,4.393400000095369],[0.2727083333333333,0.3118518518518518,4.410099999904638],[0.2727083333333333,0.3118518518518518,4.4267999997139],[0.2569791666666667,0.2540740740740742,4.4435],[0.2569791666666667,0.2540740740740742,4.460099999904635],[0.23489583333333333,0.2205555555555556,4.476799999713897],[0.23489583333333333,0.2205555555555556,4.4935000000000045],[0.23489583333333333,0.2205555555555556,4.519199999809267],[0.25052083333333336,0.20462962962962963,4.548699999809266],[0.25052083333333336,0.20462962962962963,4.556900000095368],[0.26593749999999994,0.1596296296296297,4.582000000000001],[0.26593749999999994,0.1596296296296297,4.589799999713897],[0.2607291666666666,0.10777777777777786,4.612900000095372],[0.2607291666666666,0.10777777777777786,4.620900000095368],[0.2607291666666666,0.10777777777777786,4.627500000000005],[0.25270833333333326,0.049629629629629544,4.664900000095372],[0.25270833333333326,0.049629629629629544,4.672799999713902],[0.24989583333333343,-0.04203703703703712,4.6984000000953685],[0.24989583333333343,-0.04203703703703712,4.7065000000000055],[0.2598958333333333,-0.10888888888888891,4.735199999809268],[0.2598958333333333,-0.10888888888888891,4.743599999904632],[0.2553124999999999,-0.1307407407407408,4.760199999809267],[0.2553124999999999,-0.1307407407407408,4.776900000095367],[0.25114583333333323,-0.11277777777777774,4.7985999999046385],[0.25114583333333323,-0.11277777777777774,4.81040000009537],[0.25927083333333345,-0.04425925925925922,4.827000000000005],[0.25927083333333345,-0.04425925925925922,4.847299999713897],[0.25062499999999993,-0.01518518518518527,4.860299999713902],[0.24093749999999994,0.01648148148148144,4.881299999713903],[0.24093749999999994,0.01648148148148144,4.898299999713899],[0.2482291666666666,0.044999999999999915,4.910400000095372],[0.2482291666666666,0.044999999999999915,4.926900000095372],[0.2491666666666667,0.11277777777777774,4.958500000000001],[0.2491666666666667,0.11277777777777774,4.967400000095367],[0.2621875000000001,0.1264814814814814,4.97690000009537],[0.28708333333333325,0.18203703703703694,4.994],[0.2851041666666667,0.19870370370370363,5.015400000095369],[0.2851041666666667,0.19870370370370363,5.026900000095367],[0.28104166666666663,0.17962962962962964,5.043599999904636],[0.27333333333333343,0.1787037037037037,5.060199999809271],[0.2609375,0.14240740740740737,5.0796999998092645],[0.2631249999999999,0.0801851851851851,5.096799999713902],[0.23833333333333329,0.018333333333333292,5.113599999904636],[0.19281249999999991,-0.03222222222222218,5.1321999998092664],[0.19281249999999991,-0.03222222222222218,5.143500000000003],[0.1921875,-0.09462962962962967,5.160500000000006],[0.1921875,-0.09462962962962967,5.176900000095372],[0.16572916666666657,-0.05462962962962963,5.197799999713901],[0.16572916666666657,-0.05462962962962963,5.210199999809269],[0.09885416666666676,-0.08814814814814818,5.227000000000004],[0.041458333333333285,-0.12000000000000002,5.250099999904634],[0.041458333333333285,-0.12000000000000002,5.261599999904632],[0.03322916666666664,-0.04314814814814806,5.2767999997139015],[0.023958333333333335,-0.05481481481481486,5.29369999980927],[0.0067708333333333336,-0.08555555555555554,5.3152999997139005],[-0.03687499999999998,-0.14814814814814814,5.330500000000001],[-0.06072916666666662,-0.2096296296296296,5.346099999904638],[-0.0655208333333333,-0.21370370370370367,5.373199999809266],[-0.0655208333333333,-0.21370370370370367,5.380400000095371],[-0.07291666666666667,-0.1911111111111111,5.393400000095369],[-0.06197916666666667,-0.22925925925925927,5.410900000095367],[-0.028750000000000022,-0.19166666666666668,5.427299999713902],[0.02385416666666664,-0.17740740740740743,5.443299999713901],[0.03854166666666667,-0.2596296296296296,5.460000000000001],[0.05135416666666662,-0.30407407407407405,5.47669999980927],[0.0671875,-0.3316666666666667,5.496299999713898],[0.14500000000000005,-0.24111111111111108,5.512699999809264],[0.20927083333333343,-0.17851851851851847,5.527599999904638],[0.23385416666666667,-0.18351851851851855,5.543500000000002],[0.2423958333333334,-0.22092592592592594,5.563900000095373],[0.25833333333333336,-0.24444444444444444,5.581099999904637],[0.25833333333333336,-0.24444444444444444,5.593299999713899],[0.26104166666666656,-0.3014814814814815,5.610099999904634],[0.27937500000000004,-0.29148148148148145,5.626599999904634],[0.27354166666666657,-0.3101851851851852,5.6436999998092645],[0.28020833333333334,-0.31148148148148147,5.660199999809265],[0.2741666666666667,-0.3455555555555556,5.676599999904639],[0.25458333333333344,-0.3911111111111111,5.693400000095373],[0.23666666666666672,-0.4390740740740741,5.711599999904635],[0.23666666666666672,-0.4390740740740741,5.72669999980927],[0.228125,-0.43037037037037035,5.743299999713898],[0.2287499999999999,-0.4361111111111111,5.7635000000000005],[0.22770833333333323,-0.42185185185185187,5.779099999904638],[0.2384375000000001,-0.4359259259259259,5.793500000000002],[0.2384375000000001,-0.4359259259259259,5.8100999999046365],[0.22125000000000009,-0.47388888888888886,5.826599999904637],[0.225,-0.4861111111111111,5.844599999904638],[0.2256249999999999,-0.4898148148148148,5.860299999713902],[0.26052083333333326,-0.42962962962962964,5.876799999713903],[0.26458333333333334,-0.4166666666666667,5.8932999997139035],[0.2795833333333334,-0.36370370370370364,5.910099999904638],[0.3071875000000001,-0.37907407407407406,5.927],[0.2993750000000001,-0.3827777777777778,5.945],[0.28125,-0.40796296296296297,5.959900000095367],[0.2795833333333334,-0.3638888888888889,5.97669999980927],[0.2886458333333332,-0.3081481481481481,5.993699999809266],[0.3004166666666668,-0.25407407407407406,6.012199999809269],[0.32135416666666666,-0.2131481481481482,6.028000000000006],[0.2998958333333334,-0.23870370370370367,6.043400000095367],[0.29020833333333323,-0.2207407407407407,6.060000000000002],[0.2916666666666667,-0.1985185185185185,6.076599999904637],[0.28177083333333336,-0.18185185185185182,6.093299999713899],[0.3008333333333333,-0.15037037037037035,6.111000000000004],[0.31906249999999997,-0.14648148148148152,6.126799999713903],[0.31906249999999997,-0.14648148148148152,6.143400000095369],[0.3245833333333332,-0.16574074074074074,6.160099999904638],[0.31489583333333326,-0.205,6.180400000095368],[0.31489583333333326,-0.205,6.193400000095373],[0.3086458333333333,-0.25018518518518523,6.210099999904635],[0.3086458333333333,-0.25018518518518523,6.22669999980927],[0.2952083333333334,-0.285,6.243299999713898],[0.3078125,-0.3466666666666666,6.2605],[0.29270833333333335,-0.4083333333333333,6.277099999904628],[0.2673958333333334,-0.4838888888888889,6.293199999809268],[0.25895833333333323,-0.5437037037037038,6.310099999904629],[0.2478125000000001,-0.6155555555555555,6.326599999904637],[0.23739583333333342,-0.6337037037037037,6.343299999713899],[0.22927083333333323,-0.6485185185185185,6.359900000095372],[0.22708333333333333,-0.6892592592592592,6.3780999999046415],[0.22197916666666656,-0.7194444444444444,6.393499999999996],[0.20364583333333333,-0.7498148148148148,6.411999999999999],[0.17708333333333334,-0.7348148148148148,6.426699999809266],[0.18072916666666666,-0.7462962962962963,6.4431999998092735],[0.19958333333333325,-0.7701851851851852,6.462799999713901],[0.2115624999999999,-0.7824074074074074,6.479199999809261],[0.2127083333333334,-0.7294444444444445,6.494099999904641],[0.21427083333333338,-0.7255555555555556,6.510299999713901],[0.22645833333333343,-0.7262962962962963,6.526699999809274],[0.23541666666666666,-0.7020370370370371,6.543299999713902],[0.24354166666666663,-0.6603703703703704,6.560000000000009],[0.2647916666666667,-0.6237037037037038,6.5766999998092714],[0.2569791666666667,-0.6064814814814815,6.593299999713899],[0.24114583333333334,-0.5827777777777777,6.613299999713895],[0.2101041666666667,-0.5466666666666666,6.629199999809266],[0.1953125,-0.5188888888888888,6.663299999713907]]","[0.000299999713902821,0.05409999990463632,0.07750000000000057,0.08619999980926707,0.11259999990463854,0.12199999999999989,0.14840000009537135,0.15629999971390163,0.182699999809266,0.19429999971389833,0.2101999998092694,0.2267999997138972,0.2435000000000045,0.2600999999046323,0.27690000009536675,0.29469999980926787,0.31009999990463655,0.3267999997138986,0.3435000000000059,0.36469999980926815,0.37690000009536817,0.3934000000953688,0.41009999990463797,0.42679999971390004,0.44790000009537323,0.46040000009536897,0.4769000000953696,0.4932999997138978,0.5100999999046323,0.532199999809265,0.5435000000000016,0.5600000000000023,0.5766999998092643,0.5934000000953716,0.6104000000953675,0.6266999998092686,0.6434000000953688,0.660099999904638,0.6767999997139,0.693799999713903,0.7101999998092694,0.72669999980927,0.7434000000953702,0.7600000000000051,0.7766999998092672,0.7934000000953674,0.8127999997139028,0.8274000000953734,0.8437999997139016,0.8619000000953676,0.8766999998092686,0.8935000000000031,0.915299999713902,0.9267999997139,0.9434000000953731,0.9600000000000009,0.9767999997138972,0.9934000000953702,1.0120999999046347,1.028500000000001,1.0434000000953674,1.063199999809271,1.0786999998092668,1.0936999998092674,1.110199999809268,1.1267999997139029,1.1460000000000008,1.1607999997139018,1.1767999997139,1.193400000095373,1.2101999998092694,1.22669999980927,1.2432999997138978,1.261400000095371,1.2767999997139015,1.293299999713902,1.3165000000000049,1.3266999998092643,1.3434000000953716,1.3599999999999994,1.3767999997139029,1.3934000000953688,1.4117999997138995,1.4280999999046387,1.4432999997139007,1.4600000000000009,1.47669999980927,1.4934000000953702,1.5100999999046323,1.5271999998092696,1.5435000000000016,1.5600999999046365,1.579099999904635,1.5934000000953716,1.6100999999046337,1.6266999998092686,1.6432999997139035,1.6605999999046333,1.6806999998092707,1.697099999904637,1.7132999997139038,1.7297999997138973,1.7460999999046365,1.7617999997139009,1.7766999998092672,1.7934000000953674,1.8105000000000047,1.8267999997138986,1.8447999997138993,1.8600999999046337,1.8765999999046343,1.8970999999046327,1.9100000000000037,1.9267999997139,1.9435000000000002,1.9605999999046375,1.980799999713902,1.9932999997138978,2.0101999998092666,2.028400000095367,2.045900000095372,2.0600999999046365,2.0766999998092643,2.0934000000953716,2.1121999998092704,2.1285000000000025,2.1436999998092645,2.161699999809265,2.1766999998092658,2.193400000095373,2.215599999904633,2.22669999980927,2.24340000009537,2.2605000000000004,2.276699999809267,2.2934000000953674,2.311699999809271,2.3267999997138986,2.343500000000006,2.3600999999046337,2.376799999713903,2.393400000095369,2.410099999904638,2.4469000000953685,2.456000000000003,2.4824000000953674,2.489599999904634,2.5171999998092645,2.5242999997139037,2.545900000095372,2.55290000009537,2.579199999809269,2.5860000000000056,2.61090000009537,2.6181999998092707,2.646099999904635,2.6532999997139015,2.679699999809266,2.687799999713903,2.7129000000953667,2.720099999904633,2.746299999713898,2.7541999998092663,2.7794000000953716,2.786699999809265,2.8130000000000024,2.825000000000003,2.8470000000000013,2.8541999998092678,2.881599999904637,2.8889000000953686,2.913799999713902,2.920900000095372,2.946400000095373,2.9542999997139034,2.9791999998092678,2.9862999997139,3.0131999998092667,3.020000000000003,3.0474000000953723,3.0575000000000045,3.0796999998092645,3.087699999809267,3.113099999904634,3.120199999809266,3.1480999999046375,3.1562999997139016,3.1600000000000037,3.178599999904634,3.2110000000000056,3.219000000000001,3.2467999997139003,3.2545999999046344,3.2804000000953693,3.288099999904638,3.312900000095368,3.3306999998092692,3.345400000095367,3.355000000000004,3.3774000000953706,3.3855000000000004,3.4121999998092676,3.419699999809268,3.4461999998092665,3.454900000095371,3.4790999999046335,3.486699999809268,3.5122999997139033,3.5201999998092646,3.545500000000004,3.5524000000953677,3.5790000000000006,3.585799999713899,3.611000000000004,3.6200999999046317,3.6454000000953712,3.653000000000006,3.6827999997139003,3.690000000000005,3.7130999999046352,3.7239000000953695,3.7454000000953727,3.7526999998092663,3.7775000000000034,3.7860000000000014,3.8125,3.8196999998092664,3.8459000000953694,3.8532999997138973,3.8774000000953706,3.8851999998092666,3.9125999999046357,3.9209999999999994,3.9457999997138984,3.9530999999046372,3.979299999713902,3.9865999999046338,4.010799999713903,4.0190000000000055,4.045500000000004,4.0526999998092705,4.080000000000005,4.087099999904638,4.113500000000002,4.1210999999046365,4.145400000095371,4.152500000000003,4.179000000000002,4.1920999999046344,4.213500000000003,4.22069999980927,4.2455,4.252400000095371,4.279500000000006,4.2867999997138995,4.310900000095373,4.319000000000003,4.3515000000000015,4.3604000000953675,4.376699999809269,4.393400000095369,4.410099999904638,4.4267999997139,4.4435,4.460099999904635,4.476799999713897,4.4935000000000045,4.519199999809267,4.548699999809266,4.556900000095368,4.582000000000001,4.589799999713897,4.612900000095372,4.620900000095368,4.627500000000005,4.664900000095372,4.672799999713902,4.6984000000953685,4.7065000000000055,4.735199999809268,4.743599999904632,4.760199999809267,4.776900000095367,4.7985999999046385,4.81040000009537,4.827000000000005,4.847299999713897,4.860299999713902,4.881299999713903,4.898299999713899,4.910400000095372,4.926900000095372,4.958500000000001,4.967400000095367,4.97690000009537,4.994,5.015400000095369,5.026900000095367,5.043599999904636,5.060199999809271,5.0796999998092645,5.096799999713902,5.113599999904636,5.1321999998092664,5.143500000000003,5.160500000000006,5.176900000095372,5.197799999713901,5.210199999809269,5.227000000000004,5.250099999904634,5.261599999904632,5.2767999997139015,5.29369999980927,5.3152999997139005,5.330500000000001,5.346099999904638,5.373199999809266,5.380400000095371,5.393400000095369,5.410900000095367,5.427299999713902,5.443299999713901,5.460000000000001,5.47669999980927,5.496299999713898,5.512699999809264,5.527599999904638,5.543500000000002,5.563900000095373,5.581099999904637,5.593299999713899,5.610099999904634,5.626599999904634,5.6436999998092645,5.660199999809265,5.676599999904639,5.693400000095373,5.711599999904635,5.72669999980927,5.743299999713898,5.7635000000000005,5.779099999904638,5.793500000000002,5.8100999999046365,5.826599999904637,5.844599999904638,5.860299999713902,5.876799999713903,5.8932999997139035,5.910099999904638,5.927,5.945,5.959900000095367,5.97669999980927,5.993699999809266,6.012199999809269,6.028000000000006,6.043400000095367,6.060000000000002,6.076599999904637,6.093299999713899,6.111000000000004,6.126799999713903,6.143400000095369,6.160099999904638,6.180400000095368,6.193400000095373,6.210099999904635,6.22669999980927,6.243299999713898,6.2605,6.277099999904628,6.293199999809268,6.310099999904629,6.326599999904637,6.343299999713899,6.359900000095372,6.3780999999046415,6.393499999999996,6.411999999999999,6.426699999809266,6.4431999998092735,6.462799999713901,6.479199999809261,6.494099999904641,6.510299999713901,6.526699999809274,6.543299999713902,6.560000000000009,6.5766999998092714,6.593299999713899,6.613299999713895,6.629199999809266,6.663299999713907]","[1732161496385,1732161496429,1732161496453,1732161496461,1732161496488,1732161496497,1732161496524,1732161496532,1732161496558,1732161496569,1732161496585,1732161496602,1732161496619,1732161496635,1732161496652,1732161496670,1732161496685,1732161496702,1732161496719,1732161496740,1732161496752,1732161496769,1732161496785,1732161496802,1732161496823,1732161496836,1732161496852,1732161496869,1732161496885,1732161496907,1732161496919,1732161496935,1732161496952,1732161496968,1732161496985,1732161497002,1732161497019,1732161497035,1732161497052,1732161497069,1732161497085,1732161497102,1732161497119,1732161497135,1732161497152,1732161497169,1732161497188,1732161497203,1732161497219,1732161497237,1732161497252,1732161497269,1732161497291,1732161497302,1732161497319,1732161497335,1732161497352,1732161497369,1732161497387,1732161497404,1732161497419,1732161497438,1732161497454,1732161497469,1732161497485,1732161497502,1732161497521,1732161497536,1732161497552,1732161497569,1732161497585,1732161497602,1732161497619,1732161497637,1732161497652,1732161497668,1732161497692,1732161497702,1732161497719,1732161497735,1732161497752,1732161497768,1732161497787,1732161497803,1732161497819,1732161497835,1732161497852,1732161497869,1732161497885,1732161497902,1732161497919,1732161497935,1732161497954,1732161497968,1732161497985,1732161498002,1732161498019,1732161498036,1732161498056,1732161498072,1732161498088,1732161498105,1732161498121,1732161498137,1732161498152,1732161498169,1732161498186,1732161498202,1732161498220,1732161498235,1732161498252,1732161498272,1732161498285,1732161498302,1732161498319,1732161498336,1732161498356,1732161498368,1732161498385,1732161498404,1732161498421,1732161498435,1732161498452,1732161498468,1732161498487,1732161498504,1732161498519,1732161498537,1732161498552,1732161498569,1732161498591,1732161498602,1732161498619,1732161498636,1732161498652,1732161498668,1732161498687,1732161498702,1732161498719,1732161498735,1732161498752,1732161498769,1732161498785,1732161498822,1732161498831,1732161498858,1732161498865,1732161498892,1732161498899,1732161498921,1732161498928,1732161498954,1732161498961,1732161498986,1732161498993,1732161499021,1732161499028,1732161499055,1732161499063,1732161499088,1732161499095,1732161499121,1732161499129,1732161499154,1732161499162,1732161499188,1732161499200,1732161499222,1732161499229,1732161499257,1732161499264,1732161499289,1732161499296,1732161499322,1732161499329,1732161499354,1732161499361,1732161499388,1732161499395,1732161499423,1732161499433,1732161499455,1732161499463,1732161499488,1732161499495,1732161499523,1732161499531,1732161499535,1732161499554,1732161499586,1732161499594,1732161499622,1732161499630,1732161499655,1732161499663,1732161499688,1732161499706,1732161499721,1732161499730,1732161499753,1732161499761,1732161499787,1732161499795,1732161499821,1732161499830,1732161499854,1732161499862,1732161499887,1732161499895,1732161499921,1732161499928,1732161499954,1732161499961,1732161499986,1732161499995,1732161500021,1732161500028,1732161500058,1732161500065,1732161500088,1732161500099,1732161500121,1732161500128,1732161500153,1732161500161,1732161500188,1732161500195,1732161500221,1732161500228,1732161500253,1732161500260,1732161500288,1732161500296,1732161500321,1732161500328,1732161500354,1732161500362,1732161500386,1732161500394,1732161500421,1732161500428,1732161500455,1732161500462,1732161500489,1732161500496,1732161500521,1732161500528,1732161500554,1732161500567,1732161500589,1732161500596,1732161500621,1732161500628,1732161500655,1732161500662,1732161500686,1732161500694,1732161500727,1732161500736,1732161500752,1732161500769,1732161500785,1732161500802,1732161500819,1732161500835,1732161500852,1732161500869,1732161500894,1732161500924,1732161500932,1732161500957,1732161500965,1732161500988,1732161500996,1732161501003,1732161501040,1732161501048,1732161501074,1732161501082,1732161501110,1732161501119,1732161501135,1732161501152,1732161501174,1732161501186,1732161501202,1732161501222,1732161501235,1732161501256,1732161501273,1732161501286,1732161501302,1732161501334,1732161501342,1732161501352,1732161501369,1732161501391,1732161501402,1732161501419,1732161501435,1732161501455,1732161501472,1732161501489,1732161501507,1732161501519,1732161501536,1732161501552,1732161501573,1732161501585,1732161501602,1732161501625,1732161501637,1732161501652,1732161501669,1732161501690,1732161501706,1732161501721,1732161501748,1732161501756,1732161501768,1732161501786,1732161501802,1732161501818,1732161501835,1732161501852,1732161501871,1732161501888,1732161501903,1732161501919,1732161501939,1732161501956,1732161501969,1732161501985,1732161502002,1732161502019,1732161502035,1732161502052,1732161502069,1732161502087,1732161502102,1732161502118,1732161502139,1732161502154,1732161502169,1732161502185,1732161502202,1732161502220,1732161502235,1732161502252,1732161502268,1732161502285,1732161502302,1732161502320,1732161502335,1732161502352,1732161502369,1732161502387,1732161502403,1732161502419,1732161502435,1732161502452,1732161502468,1732161502486,1732161502502,1732161502519,1732161502535,1732161502556,1732161502568,1732161502585,1732161502602,1732161502618,1732161502636,1732161502652,1732161502668,1732161502685,1732161502702,1732161502718,1732161502735,1732161502753,1732161502769,1732161502787,1732161502802,1732161502818,1732161502838,1732161502854,1732161502869,1732161502885,1732161502902,1732161502918,1732161502935,1732161502952,1732161502968,1732161502988,1732161503004,1732161503038]","[[869.7,915.9],[869.7,915.9],[903.5,913.9],[903.5,913.9],[906.6,897.2],[906.6,897.2],[889.2,857.6],[889.2,857.6],[883.3,820],[883.3,820],[898.3,764.5],[898.3,764.5],[923.6,715],[923.6,715],[933.7,687.6],[933.7,687.6],[948.5,656.2],[948.5,656.2],[975.8,648.7],[1006.3,664.7],[1006.3,664.7],[1015.3,658.7],[1015.3,658.7],[1052.5,663.8],[1052.5,663.8],[1101.2,672.1],[1101.2,672.1],[1134.9,674.3],[1134.9,674.3],[1148,687.2],[1148,687.2],[1164.8,693.9],[1165.8,666.9],[1158.2,651.6],[1163.5,636.7],[1152.7,596.4],[1158.9,569.3],[1155.2,540],[1164.3,531.4],[1157.6,540.8],[1157.6,540.8],[1136.6,524.7],[1127.9,526.4],[1123.3,544.8],[1114.1,556.7],[1098,564.8],[1079.3,571.3],[1055.4,570.3],[1018.5,568.6],[1012.9,585.9],[998.9,584],[984.9,615.7],[959.2,649.3],[959.2,649.3],[951.2,672.8],[927.4,700.9],[903.6,729],[873.2,754.8],[842.8,780.6],[823.4,803.8],[788.2,832.2],[782.6,861.5],[808.7,884.6],[822.9,908.5],[822.9,908.5],[814.6,906.1],[839.1,910.3],[850.1,936.2],[850.1,936.2],[864.5,971.3],[864.5,971.3],[906.5,993.4],[948.4,1008.7],[972.3,1005.3],[985,991.3],[986.4,975.4],[997.7,955.3],[997.7,955.3],[1039.6,943.5],[1039.6,943.5],[1090.8,933],[1145.3,888.5],[1212.5,842.5],[1252.1,809.5],[1282.2,785.4],[1322.8,764.6],[1322.8,764.6],[1353.7,750.8],[1390,735.1],[1438.3,709.9],[1444.8,709],[1425.7,703.8],[1412.1,718.5],[1398.7,732.5],[1389.7,756.8],[1390.3,779],[1374.6,813.5],[1367,842],[1356.3,871.5],[1340,893],[1347.6,903.8],[1350.9,912.7],[1358.9,914],[1364.4,928.2],[1364.5,933.7],[1356.4,939.6],[1353.2,924.7],[1352.4,917.9],[1339.2,909.8],[1320.7,925.5],[1294.9,933.9],[1273.4,944.2],[1273.4,944.2],[1267.6,945.1],[1253,940.2],[1239.4,933.7],[1239.4,933.7],[1230.9,929.4],[1230.5,931.5],[1228.5,932.4],[1239,922.7],[1242,910.2],[1243.7,906.6],[1237.4,906.5],[1219.4,910.8],[1217.6,914.4],[1215.8,918],[1212.1,924.9],[1212.1,924.9],[1201.1,934.5],[1191.8,936.8],[1191.8,936.8],[1182.4,951],[1177.1,955.5],[1166.1,947.4],[1159.2,943.5],[1123.6,940.4],[1082.9,931.6],[1082.9,931.6],[1036,926.8],[1036,926.8],[1008.8,920.4],[1008.8,920.4],[964.9,919.8],[964.9,919.8],[929.8,900.9],[929.8,900.9],[902.7,885.2],[902.7,885.2],[854.6,873.5],[854.6,873.5],[815.1,882.7],[815.1,882.7],[779.6,874.6],[779.6,874.6],[768.8,870.7],[768.8,870.7],[771.9,862],[771.9,862],[775.7,845.7],[775.7,845.7],[748.8,786.5],[748.8,786.5],[815,727.9],[815,727.9],[866.5,692.7],[866.5,692.7],[918,667.7],[918,667.7],[996.4,642.5],[996.4,642.5],[1058.5,605],[1058.5,605],[1126.3,564.8],[1126.3,564.8],[1198.3,545.6],[1198.3,545.6],[1246.8,527.2],[1246.8,527.2],[1300.8,512.4],[1300.8,512.4],[1381,540.1],[1381,540.1],[1372.8,554.3],[1372.8,554.3],[1371.9,561.5],[1371.9,561.5],[1371.9,561.5],[1371.9,561.5],[1358.8,558.5],[1358.8,558.5],[1343.6,561.2],[1343.6,561.2],[1346.7,578],[1346.7,578],[1346,614.3],[1346,614.3],[1333.4,621.4],[1333.4,621.4],[1328.5,619.8],[1328.5,619.8],[1322.4,619.3],[1322.4,619.3],[1321.8,631.5],[1321.8,631.5],[1325.5,663.5],[1325.5,663.5],[1323,678.3],[1323,678.3],[1333.8,719.5],[1333.8,719.5],[1341.5,763.5],[1341.5,763.5],[1322.4,811.8],[1322.4,811.8],[1280.9,842.2],[1280.9,842.2],[1249.3,897.7],[1249.3,897.7],[1215.3,947.2],[1215.3,947.2],[1206.9,1024.8],[1206.9,1024.8],[1171.1,1060.2],[1171.1,1060.2],[1147.4,1069.7],[1147.4,1069.7],[1140,1122.1],[1140,1122.1],[1119.1,1141.2],[1119.1,1141.2],[1110.9,1150.4],[1110.9,1150.4],[1118.5,1127.6],[1118.5,1127.6],[1153.2,1122.7],[1153.2,1122.7],[1188.9,1079.7],[1188.9,1079.7],[1229.5,1055.5],[1229.5,1055.5],[1247.7,1007.9],[1247.7,1007.9],[1273.2,981.4],[1273.2,981.4],[1305,962.7],[1305,962.7],[1296.1,907.9],[1296.1,907.9],[1295.4,868.1],[1295.4,868.1],[1284.3,824.1],[1284.3,824.1],[1282,801.1],[1282,801.1],[1269.6,771.9],[1269.6,771.9],[1253.3,764.9],[1253.3,764.9],[1241.6,746.2],[1241.6,746.2],[1221.8,708.4],[1221.8,708.4],[1206.7,677.2],[1206.7,677.2],[1185.5,659.1],[1185.5,659.1],[1185.5,659.1],[1200.5,650.5],[1200.5,650.5],[1215.3,626.2],[1215.3,626.2],[1210.3,598.2],[1210.3,598.2],[1210.3,598.2],[1202.6,566.8],[1202.6,566.8],[1199.9,517.3],[1199.9,517.3],[1209.5,481.2],[1209.5,481.2],[1205.1,469.4],[1205.1,469.4],[1201.1,479.1],[1201.1,479.1],[1208.9,516.1],[1208.9,516.1],[1200.6,531.8],[1191.3,548.9],[1191.3,548.9],[1198.3,564.3],[1198.3,564.3],[1199.2,600.9],[1199.2,600.9],[1211.7,608.3],[1235.6,638.3],[1233.7,647.3],[1233.7,647.3],[1229.8,637],[1222.4,636.5],[1210.5,616.9],[1212.6,583.3],[1188.8,549.9],[1145.1,522.6],[1145.1,522.6],[1144.5,488.9],[1144.5,488.9],[1119.1,510.5],[1119.1,510.5],[1054.9,492.4],[999.8,475.2],[999.8,475.2],[991.9,516.7],[983,510.4],[966.5,493.8],[924.6,460],[901.7,426.8],[897.1,424.6],[897.1,424.6],[890,436.8],[900.5,416.2],[932.4,436.5],[982.9,444.2],[997,399.8],[1009.3,375.8],[1024.5,360.9],[1099.2,409.8],[1160.9,443.6],[1184.5,440.9],[1192.7,420.7],[1208,408],[1208,408],[1210.6,377.2],[1228.2,382.6],[1222.6,372.5],[1229,371.8],[1223.2,353.4],[1204.4,328.8],[1187.2,302.9],[1187.2,302.9],[1179,307.6],[1179.6,304.5],[1178.6,312.2],[1188.9,304.6],[1188.9,304.6],[1172.4,284.1],[1176,277.5],[1176.6,275.5],[1210.1,308],[1214,315],[1228.4,343.6],[1254.9,335.3],[1247.4,333.3],[1230,319.7],[1228.4,343.5],[1237.1,373.6],[1248.4,402.8],[1268.5,424.9],[1247.9,411.1],[1238.6,420.8],[1240,432.8],[1230.5,441.8],[1248.8,458.8],[1266.3,460.9],[1266.3,460.9],[1271.6,450.5],[1262.3,429.3],[1262.3,429.3],[1256.3,404.9],[1256.3,404.9],[1243.4,386.1],[1255.5,352.8],[1241,319.5],[1216.7,278.7],[1208.6,246.4],[1197.9,207.6],[1187.9,197.8],[1180.1,189.8],[1178,167.8],[1173.1,151.5],[1155.5,135.1],[1130,143.2],[1133.5,137],[1151.6,124.1],[1163.1,117.5],[1164.2,146.1],[1165.7,148.2],[1177.4,147.8],[1186,160.9],[1193.8,183.4],[1214.2,203.2],[1206.7,212.5],[1191.5,225.3],[1161.7,244.8],[1147.5,259.8]]","[-0.132282,0.39684600000000003]","[0.132282,0.39684600000000003]","[0.39684600000000003,0.39684600000000003]","[-0.39684600000000003,0.132282]","[-0.39684600000000003,-0.132282]","[-0.39684600000000003,-0.39684600000000003]","[-0.132282,0.132282]","[0.132282,0.132282]","[0.39684600000000003,0.132282]","[-0.132282,-0.132282]","[0.132282,-0.132282]","[0.39684600000000003,-0.132282]","[-0.132282,-0.39684600000000003]","[0.132282,-0.39684600000000003]","[0.39684600000000003,-0.39684600000000003]",0,0,0,0,1,3,Tablet,25,40,9,1,50,4,1,60,5
