inst1_resp.keys,inst1_resp.rt,calibrationMouse.x,calibrationMouse.y,calibrationMouse.leftButton,calibrationMouse.midButton,calibrationMouse.rightButton,calibrationClick.x,calibrationClick.y,calibrationClick.leftButton,calibrationClick.midButton,calibrationClick.rightButton,calibrationClick.clicked_name,trialsc.thisRepN,trialsc.thisTrialN,trialsc.thisN,trialsc.thisIndex,trialsc.ran,calibration_x,calibration_y,participant,session,date,expName,psychopyVersion,OS,frameRate,ScreenRes_pixels,Camera_pixels,mouse_2.x,mouse_2.y,mouse_2.leftButton,mouse_2.midButton,mouse_2.rightButton,mouse_2.time,mouse_2.clicked_name,mouse.x,mouse.y,mouse.leftButton,mouse.midButton,mouse.rightButton,mouse.time,mouse.clicked_name,Choice,Trial,TrialDuration,MOUSE_GAZE,ET_GAZE,ET_GAZE_x_T,time,unixTime,ET_GAZE_NF,Loc_Bus_label,Loc_Metro_label,Loc_RH_label,Loc_Cost_label,Loc_Travel_label,Loc_Comfort_label,Loc_Bus_cost,Loc_Metro_cost,Loc_RH_cost,Loc_Bus_travel,Loc_Metro_travel,Loc_RH_travel,Loc_Bus_comfort,Loc_Metro_comfort,Loc_RH_comfort,trials.thisRepN,trials.thisTrialN,trials.thisN,trials.thisIndex,trials.ran,Block,Device,RH_cost,RH_travel_time,RH_Comfort,metro_cost,metro_travel_time,metro_Comfort,Bus_cost,Bus_travel_time,Bus_Comfort
space,1.9163,-0.442708333,-0.27037037,1,0,0,0.328125,0.668518519,1,0,0,calibration_square,0,0,0,18,1,0.33,0.67,05,001,2024-11-21_13h07.18.840,Attention_exp_legacy,2023.1.0,Win32,59.88023952,,,,,,,,,,,,,,,,,,,,,,,,,,,,,,,,,,,,,,,,,,,,,,,,,,,,,,,,
,,,,,,,0.005208333,-0.307407407,1,0,0,,0,1,1,10,1,0,-0.33,05,001,2024-11-21_13h07.18.840,Attention_exp_legacy,2023.1.0,Win32,59.88023952,,,,,,,,,,,,,,,,,,,,,,,,,,,,,,,,,,,,,,,,,,,,,,,,,,,,,,,,
,,,,,,,-0.672916667,-0.668518519,1,0,0,calibration_square,0,2,2,0,1,-0.67,-0.67,05,001,2024-11-21_13h07.18.840,Attention_exp_legacy,2023.1.0,Win32,59.88023952,,,,,,,,,,,,,,,,,,,,,,,,,,,,,,,,,,,,,,,,,,,,,,,,,,,,,,,,
,,,,,,,-0.332291667,-0.337037037,1,0,0,calibration_square,0,3,3,5,1,-0.33,-0.33,05,001,2024-11-21_13h07.18.840,Attention_exp_legacy,2023.1.0,Win32,59.88023952,,,,,,,,,,,,,,,,,,,,,,,,,,,,,,,,,,,,,,,,,,,,,,,,,,,,,,,,
,,,,,,,0.363541667,0.035185185,1,0,0,,0,4,4,16,1,0.33,0,05,001,2024-11-21_13h07.18.840,Attention_exp_legacy,2023.1.0,Win32,59.88023952,,,,,,,,,,,,,,,,,,,,,,,,,,,,,,,,,,,,,,,,,,,,,,,,,,,,,,,,
,,,,,,,0.334375,-0.316666667,1,0,0,,0,5,5,15,1,0.33,-0.33,05,001,2024-11-21_13h07.18.840,Attention_exp_legacy,2023.1.0,Win32,59.88023952,,,,,,,,,,,,,,,,,,,,,,,,,,,,,,,,,,,,,,,,,,,,,,,,,,,,,,,,
,,,,,,,0.020833333,0.309259259,1,0,0,,0,6,6,12,1,0,0.33,05,001,2024-11-21_13h07.18.840,Attention_exp_legacy,2023.1.0,Win32,59.88023952,,,,,,,,,,,,,,,,,,,,,,,,,,,,,,,,,,,,,,,,,,,,,,,,,,,,,,,,
,,,,,,,-0.311458333,0.335185185,1,0,0,,0,7,7,7,1,-0.33,0.33,05,001,2024-11-21_13h07.18.840,Attention_exp_legacy,2023.1.0,Win32,59.88023952,,,,,,,,,,,,,,,,,,,,,,,,,,,,,,,,,,,,,,,,,,,,,,,,,,,,,,,,
,,,,,,,-0.657291667,-0.32037037,1,0,0,,0,8,8,1,1,-0.67,-0.33,05,001,2024-11-21_13h07.18.840,Attention_exp_legacy,2023.1.0,Win32,59.88023952,,,,,,,,,,,,,,,,,,,,,,,,,,,,,,,,,,,,,,,,,,,,,,,,,,,,,,,,
,,,,,,,0.003125,0.668518519,1,0,0,calibration_square,0,9,9,13,1,0,0.67,05,001,2024-11-21_13h07.18.840,Attention_exp_legacy,2023.1.0,Win32,59.88023952,,,,,,,,,,,,,,,,,,,,,,,,,,,,,,,,,,,,,,,,,,,,,,,,,,,,,,,,
,,,,,,,-0.001041667,-0.022222222,1,0,0,,0,10,10,11,1,0,0,05,001,2024-11-21_13h07.18.840,Attention_exp_legacy,2023.1.0,Win32,59.88023952,,,,,,,,,,,,,,,,,,,,,,,,,,,,,,,,,,,,,,,,,,,,,,,,,,,,,,,,
,,,,,,,-0.310416667,-0.637037037,1,0,0,,0,11,11,4,1,-0.33,-0.67,05,001,2024-11-21_13h07.18.840,Attention_exp_legacy,2023.1.0,Win32,59.88023952,,,,,,,,,,,,,,,,,,,,,,,,,,,,,,,,,,,,,,,,,,,,,,,,,,,,,,,,
,,,,,,,0.670833333,-0.642592593,1,0,0,,0,12,12,20,1,0.67,-0.67,05,001,2024-11-21_13h07.18.840,Attention_exp_legacy,2023.1.0,Win32,59.88023952,,,,,,,,,,,,,,,,,,,,,,,,,,,,,,,,,,,,,,,,,,,,,,,,,,,,,,,,
,,,,,,,0.017708333,-0.672222222,1,0,0,,0,13,13,9,1,0,-0.67,05,001,2024-11-21_13h07.18.840,Attention_exp_legacy,2023.1.0,Win32,59.88023952,,,,,,,,,,,,,,,,,,,,,,,,,,,,,,,,,,,,,,,,,,,,,,,,,,,,,,,,
,,,,,,,0.671875,0.659259259,1,0,0,,0,14,14,19,1,0.67,0.67,05,001,2024-11-21_13h07.18.840,Attention_exp_legacy,2023.1.0,Win32,59.88023952,,,,,,,,,,,,,,,,,,,,,,,,,,,,,,,,,,,,,,,,,,,,,,,,,,,,,,,,
,,,,,,,0.328125,0.316666667,1,0,0,,0,15,15,17,1,0.33,0.33,05,001,2024-11-21_13h07.18.840,Attention_exp_legacy,2023.1.0,Win32,59.88023952,,,,,,,,,,,,,,,,,,,,,,,,,,,,,,,,,,,,,,,,,,,,,,,,,,,,,,,,
,,,,,,,-0.301041667,-0.022222222,1,0,0,,0,16,16,6,1,-0.33,0,05,001,2024-11-21_13h07.18.840,Attention_exp_legacy,2023.1.0,Win32,59.88023952,,,,,,,,,,,,,,,,,,,,,,,,,,,,,,,,,,,,,,,,,,,,,,,,,,,,,,,,
,,,,,,,-0.316666667,0.581481481,1,0,0,,0,17,17,8,1,-0.33,0.67,05,001,2024-11-21_13h07.18.840,Attention_exp_legacy,2023.1.0,Win32,59.88023952,,,,,,,,,,,,,,,,,,,,,,,,,,,,,,,,,,,,,,,,,,,,,,,,,,,,,,,,
,,,,,,,0.330208333,-0.688888889,1,0,0,,0,18,18,14,1,0.33,-0.67,05,001,2024-11-21_13h07.18.840,Attention_exp_legacy,2023.1.0,Win32,59.88023952,,,,,,,,,,,,,,,,,,,,,,,,,,,,,,,,,,,,,,,,,,,,,,,,,,,,,,,,
,,,,,,,-0.704166667,0.327777778,1,0,0,,0,19,19,3,1,-0.67,0.33,05,001,2024-11-21_13h07.18.840,Attention_exp_legacy,2023.1.0,Win32,59.88023952,,,,,,,,,,,,,,,,,,,,,,,,,,,,,,,,,,,,,,,,,,,,,,,,,,,,,,,,
,,,,,,,-0.653125,0.003703704,1,0,0,,0,20,20,2,1,-0.67,0,05,001,2024-11-21_13h07.18.840,Attention_exp_legacy,2023.1.0,Win32,59.88023952,,,,,,,,,,,,,,,,,,,,,,,,,,,,,,,,,,,,,,,,,,,,,,,,,,,,,,,,
,,,,,,,,,,,,,,,,,,,,05,001,2024-11-21_13h07.18.840,Attention_exp_legacy,2023.1.0,Win32,59.88023952,"[1920,1080]","[640,480]",[0.071875],[-0.5203703703703704],[1],[0],[0],[1.5629000000953681],"[""StartButton""]",[0.21458333333333332],[0.5944444444444444],[1],[0],[0],[4.1869000000953704],"[""Metro_label""]",Metro_label,1,5.2106,"[[0.08541666666666667,-0.4888888888888889],[0.08541666666666667,-0.4888888888888889],[0.08541666666666667,-0.4888888888888889],[0.08541666666666667,-0.4888888888888889],[0.08541666666666667,-0.4888888888888889],[0.08541666666666667,-0.4888888888888889],[0.08541666666666667,-0.4888888888888889],[0.08541666666666667,-0.4888888888888889],[0.08541666666666667,-0.4888888888888889],[0.08541666666666667,-0.4888888888888889],[0.08541666666666667,-0.4888888888888889],[0.08541666666666667,-0.4888888888888889],[0.08541666666666667,-0.4888888888888889],[0.08541666666666667,-0.4888888888888889],[0.08541666666666667,-0.4888888888888889],[0.08541666666666667,-0.4888888888888889],[0.08541666666666667,-0.4888888888888889],[0.08541666666666667,-0.4888888888888889],[0.08541666666666667,-0.4888888888888889],[0.08541666666666667,-0.4888888888888889],[0.08541666666666667,-0.4888888888888889],[0.08541666666666667,-0.4888888888888889],[0.08541666666666667,-0.4888888888888889],[0.08541666666666667,-0.4888888888888889],[0.08541666666666667,-0.4888888888888889],[0.08541666666666667,-0.4888888888888889],[0.08541666666666667,-0.4888888888888889],[0.08541666666666667,-0.4888888888888889],[0.08541666666666667,-0.4888888888888889],[0.08541666666666667,-0.4888888888888889],[0.08541666666666667,-0.4888888888888889],[0.08541666666666667,-0.4888888888888889],[0.08541666666666667,-0.4888888888888889],[0.08541666666666667,-0.4888888888888889],[0.08541666666666667,-0.4888888888888889],[0.08541666666666667,-0.4888888888888889],[0.08541666666666667,-0.4888888888888889],[0.08541666666666667,-0.4888888888888889],[0.08541666666666667,-0.4888888888888889],[0.08541666666666667,-0.4888888888888889],[0.08541666666666667,-0.4888888888888889],[0.08541666666666667,-0.4888888888888889],[0.08541666666666667,-0.4888888888888889],[0.08541666666666667,-0.48518518518518516],[0.08541666666666667,-0.48333333333333334],[0.08541666666666667,-0.48333333333333334],[0.08541666666666667,-0.48333333333333334],[0.08541666666666667,-0.48333333333333334],[0.08541666666666667,-0.48333333333333334],[0.08541666666666667,-0.48333333333333334],[0.08541666666666667,-0.48333333333333334],[0.08541666666666667,-0.48333333333333334],[0.08541666666666667,-0.48333333333333334],[0.08541666666666667,-0.48333333333333334],[0.08541666666666667,-0.48333333333333334],[0.08541666666666667,-0.48333333333333334],[0.08541666666666667,-0.48148148148148145],[0.084375,-0.47962962962962963],[0.08333333333333333,-0.4759259259259259],[0.08333333333333333,-0.4740740740740741],[0.08333333333333333,-0.4722222222222222],[0.08333333333333333,-0.4703703703703704],[0.08333333333333333,-0.4685185185185185],[0.08229166666666667,-0.4685185185185185],[0.08229166666666667,-0.4685185185185185],[0.08229166666666667,-0.4685185185185185],[0.08229166666666667,-0.4666666666666667],[0.08229166666666667,-0.4666666666666667],[0.08229166666666667,-0.4666666666666667],[0.08125,-0.4648148148148148],[0.07916666666666666,-0.46111111111111114],[0.078125,-0.46111111111111114],[0.07708333333333334,-0.45740740740740743],[0.075,-0.45],[0.07083333333333333,-0.44074074074074077],[0.06666666666666667,-0.42777777777777776],[0.059375,-0.4111111111111111],[0.052083333333333336,-0.39444444444444443],[0.046875,-0.3814814814814815],[0.04583333333333333,-0.37962962962962965],[0.04479166666666667,-0.37407407407407406],[0.04375,-0.37222222222222223],[0.04375,-0.37037037037037035],[0.04375,-0.37037037037037035],[0.04375,-0.37037037037037035],[0.04375,-0.37037037037037035],[0.04375,-0.37037037037037035],[0.042708333333333334,-0.36666666666666664],[0.041666666666666664,-0.362962962962963],[0.040625,-0.3611111111111111],[0.03854166666666667,-0.34814814814814815],[0.0375,-0.34444444444444444],[0.03333333333333333,-0.3296296296296296],[0.03229166666666667,-0.32222222222222224],[0.028125,-0.3074074074074074],[0.025,-0.2962962962962963],[0.023958333333333335,-0.28888888888888886],[0.021875,-0.2777777777777778],[0.01875,-0.26296296296296295],[0.013541666666666667,-0.24259259259259258],[0.008333333333333333,-0.21296296296296297],[0,-0.1814814814814815],[-0.009375,-0.15],[-0.019791666666666666,-0.11296296296296296],[-0.03333333333333333,-0.07222222222222222],[-0.053125,-0.022222222222222223],[-0.065625,0.014814814814814815],[-0.07708333333333334,0.04814814814814815],[-0.0875,0.07037037037037037],[-0.09479166666666666,0.08703703703703704],[-0.10208333333333333,0.1],[-0.10520833333333333,0.10555555555555556],[-0.10833333333333334,0.11296296296296296],[-0.1125,0.12037037037037036],[-0.11458333333333333,0.12222222222222222],[-0.11666666666666667,0.1259259259259259],[-0.11770833333333333,0.12777777777777777],[-0.11979166666666667,0.12777777777777777],[-0.11979166666666667,0.12777777777777777],[-0.11979166666666667,0.12777777777777777],[-0.11979166666666667,0.12777777777777777],[-0.11979166666666667,0.12777777777777777],[-0.11979166666666667,0.12777777777777777],[-0.11979166666666667,0.12777777777777777],[-0.11979166666666667,0.12777777777777777],[-0.11979166666666667,0.12777777777777777],[-0.11979166666666667,0.12777777777777777],[-0.11979166666666667,0.12777777777777777],[-0.11979166666666667,0.12777777777777777],[-0.11979166666666667,0.12777777777777777],[-0.11979166666666667,0.12777777777777777],[-0.11979166666666667,0.12777777777777777],[-0.11979166666666667,0.12777777777777777],[-0.11979166666666667,0.12777777777777777],[-0.11979166666666667,0.12777777777777777],[-0.11979166666666667,0.12777777777777777],[-0.11979166666666667,0.12777777777777777],[-0.11979166666666667,0.12777777777777777],[-0.11979166666666667,0.12777777777777777],[-0.11979166666666667,0.12777777777777777],[-0.11979166666666667,0.12777777777777777],[-0.11458333333333333,0.12777777777777777],[-0.096875,0.12407407407407407],[-0.075,0.12222222222222222],[-0.06979166666666667,0.12037037037037036],[-0.05520833333333333,0.11481481481481481],[-0.04479166666666667,0.10740740740740741],[-0.03229166666666667,0.1037037037037037],[-0.020833333333333332,0.09814814814814815],[-0.003125,0.09444444444444444],[0.008333333333333333,0.09259259259259259],[0.019791666666666666,0.08888888888888889],[0.034375,0.08518518518518518],[0.052083333333333336,0.07962962962962963],[0.07083333333333333,0.07592592592592592],[0.08854166666666667,0.07407407407407407],[0.103125,0.07037037037037037],[0.11666666666666667,0.06666666666666667],[0.11875,0.06666666666666667],[0.121875,0.06666666666666667],[0.12291666666666666,0.06666666666666667],[0.12395833333333334,0.06481481481481481],[0.125,0.06296296296296296],[0.125,0.06111111111111111],[0.12604166666666666,0.06111111111111111],[0.12604166666666666,0.06111111111111111],[0.12604166666666666,0.05740740740740741],[0.12604166666666666,0.053703703703703705],[0.125,0.046296296296296294],[0.12083333333333333,0.03888888888888889],[0.11354166666666667,0.02962962962962963],[0.10729166666666666,0.020370370370370372],[0.10416666666666667,0.014814814814814815],[0.09791666666666667,0.003703703703703704],[0.0875,-0.024074074074074074],[0.075,-0.05555555555555555],[0.06354166666666666,-0.08148148148148149],[0.053125,-0.10740740740740741],[0.04375,-0.13148148148148148],[0.0375,-0.1425925925925926],[0.027083333333333334,-0.15925925925925927],[0.015625,-0.17592592592592593],[0.003125,-0.19074074074074074],[-0.007291666666666667,-0.2037037037037037],[-0.017708333333333333,-0.21296296296296297],[-0.03229166666666667,-0.2222222222222222],[-0.05,-0.2351851851851852],[-0.065625,-0.24814814814814815],[-0.08229166666666667,-0.26481481481481484],[-0.10104166666666667,-0.28888888888888886],[-0.10625,-0.29814814814814816],[-0.1125,-0.3055555555555556],[-0.11770833333333333,-0.3148148148148148],[-0.121875,-0.32592592592592595],[-0.12604166666666666,-0.3333333333333333],[-0.12916666666666668,-0.34074074074074073],[-0.134375,-0.35185185185185186],[-0.13541666666666666,-0.3537037037037037],[-0.13958333333333334,-0.362962962962963],[-0.14583333333333334,-0.37962962962962965],[-0.14791666666666667,-0.38333333333333336],[-0.15104166666666666,-0.3888888888888889],[-0.15208333333333332,-0.39444444444444443],[-0.15208333333333332,-0.39444444444444443],[-0.15208333333333332,-0.39444444444444443],[-0.14375,-0.39444444444444443],[-0.12083333333333333,-0.37037037037037035],[-0.07395833333333333,-0.3277777777777778],[-0.021875,-0.2740740740740741],[0.035416666666666666,-0.20925925925925926],[0.09791666666666667,-0.1259259259259259],[0.14791666666666667,-0.016666666666666666],[0.17291666666666666,0.06851851851851852],[0.1875,0.1574074074074074],[0.18958333333333333,0.19814814814814816],[0.18958333333333333,0.2351851851851852],[0.18958333333333333,0.26481481481481484],[0.18958333333333333,0.2851851851851852],[0.18958333333333333,0.3037037037037037],[0.19166666666666668,0.32222222222222224],[0.19166666666666668,0.3388888888888889],[0.19166666666666668,0.3574074074074074],[0.19166666666666668,0.3685185185185185],[0.19166666666666668,0.37222222222222223],[0.19166666666666668,0.37222222222222223],[0.19166666666666668,0.37407407407407406],[0.19166666666666668,0.37407407407407406],[0.19166666666666668,0.37407407407407406],[0.19270833333333334,0.3574074074074074],[0.19583333333333333,0.337037037037037],[0.2,0.32222222222222224],[0.20208333333333334,0.32037037037037036],[0.20416666666666666,0.32037037037037036],[0.20625,0.32222222222222224],[0.2125,0.337037037037037],[0.215625,0.3611111111111111],[0.21875,0.3907407407407407],[0.21875,0.4351851851851852],[0.21875,0.45740740740740743],[0.21875,0.4722222222222222],[0.21770833333333334,0.4888888888888889],[0.21666666666666667,0.5018518518518519],[0.215625,0.5203703703703704],[0.21458333333333332,0.5333333333333333],[0.21458333333333332,0.5444444444444444],[0.21458333333333332,0.5592592592592592],[0.21458333333333332,0.575925925925926],[0.21458333333333332,0.5888888888888889],[0.21458333333333332,0.5944444444444444],[0.21458333333333332,0.5944444444444444],[0.21458333333333332,0.5944444444444444],[0.21458333333333332,0.5944444444444444],[0.21458333333333332,0.5944444444444444],[0.21458333333333332,0.5944444444444444],[0.21458333333333332,0.5944444444444444],[0.21458333333333332,0.5944444444444444],[0.21458333333333332,0.5944444444444444],[0.21458333333333332,0.5944444444444444],[0.21458333333333332,0.5944444444444444],[0.21458333333333332,0.5944444444444444],[0.21458333333333332,0.5944444444444444],[0.21458333333333332,0.5944444444444444],[0.21458333333333332,0.5944444444444444],[0.21458333333333332,0.5944444444444444],[0.21458333333333332,0.5944444444444444],[0.21458333333333332,0.5944444444444444],[0.21458333333333332,0.5944444444444444],[0.21458333333333332,0.5944444444444444],[0.21458333333333332,0.5944444444444444],[0.21458333333333332,0.5944444444444444],[0.21458333333333332,0.5944444444444444],[0.21458333333333332,0.5944444444444444],[0.21458333333333332,0.5944444444444444],[0.21458333333333332,0.5944444444444444],[0.21458333333333332,0.5944444444444444],[0.21458333333333332,0.5944444444444444],[0.21458333333333332,0.5944444444444444],[0.21458333333333332,0.5944444444444444],[0.21458333333333332,0.5944444444444444],[0.21458333333333332,0.5944444444444444],[0.21458333333333332,0.5944444444444444],[0.21458333333333332,0.5944444444444444],[0.21458333333333332,0.5944444444444444],[0.21458333333333332,0.5944444444444444],[0.21458333333333332,0.5944444444444444],[0.21458333333333332,0.5944444444444444],[0.21458333333333332,0.5944444444444444],[0.21458333333333332,0.5944444444444444],[0.21458333333333332,0.5944444444444444],[0.21458333333333332,0.5944444444444444],[0.21354166666666666,0.5888888888888889],[0.2125,0.5537037037037037],[0.2125,0.5388888888888889],[0.2125,0.5092592592592593],[0.215625,0.4666666666666667],[0.21875,0.45],[0.221875,0.4222222222222222],[0.228125,0.3851851851851852],[0.23125,0.37222222222222223],[0.23333333333333334,0.3592592592592593],[0.234375,0.35],[0.23541666666666666,0.3425925925925926],[0.2375,0.337037037037037],[0.23854166666666668,0.3277777777777778],[0.23854166666666668,0.3277777777777778],[0.23854166666666668,0.32222222222222224],[0.23958333333333334,0.31851851851851853],[0.23958333333333334,0.31666666666666665],[0.23958333333333334,0.31666666666666665],[0.240625,0.31296296296296294],[0.240625,0.31296296296296294],[0.240625,0.31296296296296294]]","[[0.31614583333333335,0.10999999999999996],[0.31614583333333335,0.10999999999999996],[0.3177083333333333,0.08925925925925934],[0.35604166666666665,0.07851851851851847],[0.33354166666666674,0.06055555555555564],[0.3529166666666666,0.057777777777777865],[0.3529166666666666,0.057777777777777865],[0.3663541666666667,0.07518518518518523],[0.3889583333333334,0.06703703703703712],[0.3889583333333334,0.06703703703703712],[0.3859375,0.03833333333333342],[0.3888541666666666,0.04537037037037037],[0.36395833333333344,0.05814814814814811],[0.3671875,0.043703703703703745],[0.3323958333333332,0.03425925925925926],[0.31843750000000004,0.007962962962962878],[0.3165625000000001,-0.024074074074074074],[0.3304166666666667,-0.0727777777777778],[0.31239583333333343,-0.13574074074074077],[0.3288541666666667,-0.17962962962962964],[0.3267708333333334,-0.207962962962963],[0.36593749999999997,-0.2668518518518519],[0.36177083333333326,-0.31370370370370365],[0.3720833333333334,-0.355],[0.35614583333333344,-0.4075925925925926],[0.3402083333333332,-0.4601851851851852],[0.3494791666666667,-0.49166666666666664],[0.35572916666666665,-0.5144444444444445],[0.3277083333333332,-0.5225925925925926],[0.31520833333333326,-0.5203703703703704],[0.2757291666666667,-0.5298148148148148],[0.2757291666666667,-0.5298148148148148],[0.2642708333333334,-0.528888888888889],[0.26624999999999993,-0.5212962962962963],[0.2682291666666667,-0.5137037037037037],[0.2677083333333333,-0.4735185185185185],[0.2671875,-0.43333333333333335],[0.2326041666666666,-0.39444444444444443],[0.2326041666666666,-0.39444444444444443],[0.19322916666666667,-0.3464814814814815],[0.22083333333333333,-0.3074074074074074],[0.22083333333333333,-0.3074074074074074],[0.19343750000000004,-0.26666666666666666],[0.17739583333333328,-0.2125925925925926],[0.17739583333333328,-0.2125925925925926],[0.16124999999999995,-0.15759259259259265],[0.13479166666666675,-0.08037037037037033],[0.13479166666666675,-0.08037037037037033],[0.08854166666666667,-0.006666666666666709],[0.08854166666666667,-0.006666666666666709],[0.09666666666666662,0.07851851851851847],[0.11281249999999995,0.1259259259259259],[0.11281249999999995,0.1259259259259259],[0.13052083333333328,0.20777777777777787],[0.13052083333333328,0.20777777777777787],[0.13958333333333334,0.21092592592592588],[0.13958333333333334,0.21092592592592588],[0.15302083333333344,0.28277777777777785],[0.2111458333333334,0.3301851851851851],[0.2783333333333334,0.36740740740740735],[0.25760416666666663,0.4105555555555556],[0.25510416666666674,0.41092592592592586],[0.2789583333333333,0.41796296296296304],[0.2720833333333334,0.40259259259259256],[0.2507291666666667,0.41648148148148145],[0.2185416666666666,0.4012962962962964],[0.22937500000000005,0.44425925925925924],[0.22937500000000005,0.44425925925925924],[0.18708333333333324,0.4081481481481481],[0.14364583333333342,0.4072222222222222],[0.10229166666666671,0.40481481481481485],[0.11635416666666672,0.39092592592592595],[0.13052083333333328,0.3762962962962964],[0.13812499999999991,0.35851851851851857],[0.13583333333333342,0.36814814814814806],[0.1400000000000001,0.38629629629629636],[0.15989583333333332,0.39888888888888885],[0.1662499999999999,0.4168518518518519],[0.1603125000000001,0.43925925925925935],[0.1662499999999999,0.4422222222222221],[0.16437499999999997,0.465],[0.16437499999999997,0.465],[0.17197916666666657,0.4703703703703704],[0.171875,0.4729629629629629],[0.17177083333333343,0.47555555555555545],[0.1881249999999999,0.4542592592592592],[0.20708333333333329,0.4198148148148149],[0.23187499999999991,0.37777777777777777],[0.23187499999999991,0.37777777777777777],[0.2513541666666666,0.36999999999999994],[0.2872916666666666,0.3490740740740741],[0.30968749999999995,0.32037037037037036],[0.2816666666666668,0.30537037037037035],[0.24968750000000003,0.31740740740740736],[0.21989583333333323,0.29814814814814816],[0.19010416666666666,0.2788888888888889],[0.19010416666666666,0.2788888888888889],[0.19239583333333338,0.2564814814814815],[0.17291666666666666,0.25166666666666665],[0.12989583333333338,0.23666666666666658],[0.12989583333333338,0.23666666666666658],[0.09666666666666662,0.22592592592592592],[0.0921875,0.2388888888888889],[0.0921875,0.2388888888888889],[0.065625,0.2301851851851851],[0.06447916666666664,0.21333333333333343],[0.0578125,0.1868518518518518],[0.07468750000000005,0.19870370370370363],[0.09156250000000009,0.21055555555555563],[0.07635416666666663,0.22555555555555548],[0.10177083333333338,0.21851851851851853],[0.1384375000000001,0.2294444444444444],[0.1384375000000001,0.2294444444444444],[0.09197916666666663,0.1866666666666666],[0.09197916666666663,0.1866666666666666],[0.0078125,0.1648148148148148],[-0.034375,0.15018518518518523],[-0.03760416666666669,0.11314814814814819],[-0.05145833333333331,0.07481481481481478],[-0.08343750000000003,0.03296296296296288],[-0.08645833333333333,0.0011111111111111532],[-0.08947916666666664,-0.030740740740740784],[-0.12875000000000003,-0.05388888888888893],[-0.17385416666666664,-0.05703703703703706],[-0.16520833333333335,-0.059814814814814835],[-0.14375,-0.07462962962962966],[-0.14906250000000001,-0.06370370370370367],[-0.13635416666666664,-0.032777777777777864],[-0.12239583333333333,-0.024074074074074074],[-0.10020833333333339,-0.0025925925925925505],[-0.10270833333333336,0.01055555555555564],[-0.1295833333333333,0.03851851851851843],[-0.14166666666666666,0.07537037037037045],[-0.16802083333333329,0.07740740740740733],[-0.20843750000000003,0.04351851851851852],[-0.24249999999999997,0],[-0.26229166666666665,0.012962962962962963],[-0.3134375,0.009444444444444486],[-0.3352083333333333,0.0242592592592593],[-0.36520833333333336,0.02629629629629638],[-0.34489583333333335,0.03592592592592588],[-0.31,0.051111111111111156],[-0.288125,0.01648148148148144],[-0.24614583333333329,-0.003333333333333249],[-0.24614583333333329,-0.003333333333333249],[-0.1938541666666667,0.021851851851851768],[-0.16020833333333329,0.06962962962962967],[-0.13635416666666664,0.054074074074074156],[-0.20322916666666668,0.05222222222222231],[-0.2169791666666666,0.008888888888888804],[-0.1570833333333333,-0.0035185185185184764],[-0.18697916666666667,-0.04296296296296305],[-0.24354166666666663,-0.09888888888888885],[-0.2700000000000001,-0.09592592592592594],[-0.2964583333333334,-0.09296296296296294],[-0.28020833333333334,-0.08388888888888892],[-0.24500000000000005,-0.09037037037037039],[-0.20979166666666665,-0.09685185185185187],[-0.20979166666666665,-0.09685185185185187],[-0.09739583333333333,-0.11629629629629631],[-0.09739583333333333,-0.11629629629629631],[-0.06947916666666672,-0.07777777777777778],[-0.06947916666666672,-0.07777777777777778],[-0.13802083333333334,-0.06666666666666667],[-0.13802083333333334,-0.06666666666666667],[-0.10489583333333338,-0.0492592592592593],[-0.10489583333333338,-0.0492592592592593],[-0.04468749999999998,-0.032777777777777864],[-0.04468749999999998,-0.032777777777777864],[-0.01739583333333338,-0.02833333333333325],[0.034062500000000044,-0.03222222222222218],[0.010520833333333358,-0.03851851851851843],[0.010520833333333358,-0.03851851851851843],[-0.019687499999999976,-0.04222222222222214],[-0.019687499999999976,-0.04222222222222214],[-0.013750000000000047,0.0003703703703704546],[-0.010312499999999976,0.03185185185185194],[0.020729166666666642,0.0492592592592593],[0.06499999999999997,0.05185185185185185],[0.06520833333333335,0.07222222222222222],[0.06604166666666664,0.0772222222222223],[0.06604166666666664,0.0772222222222223],[0.0875,0.09888888888888885],[0.04541666666666669,0.1287037037037037],[0.07572916666666671,0.16277777777777774],[0.07572916666666671,0.16277777777777774],[0.0859375,0.16888888888888898],[0.0859375,0.16888888888888898],[0.06864583333333343,0.14537037037037037],[0.06291666666666665,0.12444444444444452],[0.06593749999999995,0.10055555555555547],[0.06593749999999995,0.10055555555555547],[0.06302083333333333,0.08611111111111111],[0.06302083333333333,0.08611111111111111],[0.023958333333333335,0.09018518518518527],[0.021249999999999977,0.10574074074074079],[0.002812500000000047,0.1198148148148149],[0.002812500000000047,0.1198148148148149],[-0.00010416666666669035,0.13055555555555556],[0.052083333333333336,0.11500000000000005],[0.052083333333333336,0.11500000000000005],[0.08052083333333329,0.1581481481481481],[0.0787499999999999,0.1905555555555555],[0.0787499999999999,0.1905555555555555],[0.08677083333333328,0.22277777777777769],[0.06916666666666677,0.2616666666666666],[0.03958333333333333,0.3022222222222223],[0.03958333333333333,0.3022222222222223],[0.03875000000000005,0.31796296296296306],[0.03875000000000005,0.31796296296296306],[0.024270833333333287,0.3314814814814815],[0.024270833333333287,0.3314814814814815],[0.03760416666666669,0.3264814814814814],[0.07729166666666672,0.3316666666666667],[0.03229166666666667,0.31555555555555553],[0.027187500000000024,0.2662962962962962],[0.06593749999999995,0.1962962962962963],[0.09937500000000009,0.13425925925925927],[0.12281250000000009,0.07240740740740745],[0.1961458333333333,0.014814814814814815],[0.2598958333333333,-0.05425925925925928],[0.30437500000000006,-0.11814814814814817],[0.31052083333333325,-0.19129629629629633],[0.34697916666666656,-0.26851851851851855],[0.3885416666666667,-0.302962962962963],[0.3849999999999999,-0.33666666666666667],[0.3696875000000001,-0.3483333333333334],[0.33562500000000006,-0.36259259259259263],[0.35093750000000007,-0.3809259259259259],[0.34385416666666657,-0.4033333333333334],[0.31135416666666677,-0.4111111111111111],[0.2841666666666666,-0.4209259259259259],[0.2841666666666666,-0.4209259259259259],[0.2625,-0.4168518518518519],[0.23718750000000005,-0.462037037037037],[0.19822916666666662,-0.5044444444444444],[0.2078125,-0.5346296296296296],[0.2068749999999999,-0.572037037037037],[0.23093750000000005,-0.5975925925925926],[0.21375000000000005,-0.6003703703703703],[0.2048958333333334,-0.612037037037037],[0.21604166666666677,-0.6268518518518519],[0.21520833333333325,-0.6337037037037037],[0.2303124999999999,-0.6388888888888888],[0.2165625000000001,-0.5968518518518519],[0.21645833333333328,-0.5575925925925926],[0.21645833333333328,-0.5575925925925926],[0.22447916666666667,-0.5362962962962964],[0.23020833333333332,-0.5301851851851852],[0.24447916666666672,-0.5046296296296297],[0.2612499999999999,-0.4988888888888888],[0.28927083333333337,-0.47370370370370374],[0.3172916666666666,-0.4485185185185185],[0.3572916666666667,-0.43129629629629623],[0.3779166666666666,-0.41759259259259257],[0.39822916666666663,-0.4044444444444444],[0.3959374999999999,-0.41092592592592586],[0.41854166666666665,-0.3875925925925926],[0.41854166666666665,-0.3875925925925926],[0.41593749999999996,-0.38055555555555554],[0.43812499999999993,-0.41203703703703703],[0.43854166666666666,-0.4383333333333333],[0.42312500000000003,-0.4848148148148148],[0.40770833333333345,-0.5312962962962963],[0.3991666666666667,-0.5766666666666667],[0.4099999999999999,-0.6185185185185185],[0.40864583333333326,-0.6764814814814815],[0.42989583333333337,-0.7148148148148148],[0.43781249999999994,-0.7733333333333334],[0.4657291666666666,-0.7957407407407407],[0.4540625000000001,-0.8083333333333333],[0.4673958333333334,-0.8294444444444444],[0.48322916666666677,-0.8238888888888889],[0.47072916666666675,-0.8240740740740741],[0.4513541666666666,-0.8253703703703703],[0.4578125,-0.8159259259259259],[0.47645833333333343,-0.7903703703703704],[0.4951041666666666,-0.7648148148148148],[0.49666666666666665,-0.7566666666666667],[0.49666666666666665,-0.7566666666666667],[0.5057291666666667,-0.7531481481481481],[0.5193749999999999,-0.7583333333333333],[0.5193749999999999,-0.7583333333333333],[0.5332291666666668,-0.7385185185185186],[0.5332291666666668,-0.7385185185185186],[0.5282291666666665,-0.7446296296296296],[0.5282291666666665,-0.7446296296296296],[0.5619791666666667,-0.7414814814814814],[0.5619791666666667,-0.7414814814814814],[0.5875,-0.7403703703703703],[0.5940624999999999,-0.7492592592592593],[0.5580208333333334,-0.7542592592592593],[0.5580208333333334,-0.7542592592592593],[0.5191666666666668,-0.7640740740740741],[0.4773958333333333,-0.7516666666666666],[0.4773958333333333,-0.7516666666666666],[0.44729166666666675,-0.7168518518518519],[0.43239583333333326,-0.6562962962962963],[0.4101041666666667,-0.6368518518518518],[0.3889583333333334,-0.5805555555555556],[0.3889583333333334,-0.5805555555555556],[0.35,-0.5407407407407407],[0.3165625000000001,-0.48333333333333334],[0.3165625000000001,-0.48333333333333334],[0.26458333333333334,-0.4564814814814815],[0.27843749999999995,-0.42240740740740745],[0.3125,-0.37888888888888894],[0.31875,-0.3396296296296296],[0.3316666666666668,-0.32833333333333337],[0.3023958333333333,-0.33722222222222226],[0.29406249999999995,-0.32685185185185184],[0.29718749999999994,-0.34444444444444444]]","[[0.31614583333333335,0.10999999999999996,0.00029999971389571556],[0.31614583333333335,0.10999999999999996,0.050499999999999545],[0.3177083333333333,0.08925925925925934,0.06059999990463183],[0.35604166666666665,0.07851851851851847,0.08099999999999596],[0.33354166666666674,0.06055555555555564,0.09529999971389458],[0.3529166666666666,0.057777777777777865,0.117999999999995],[0.3529166666666666,0.057777777777777865,0.13349999999999795],[0.3663541666666667,0.07518518518518523,0.14399999999999835],[0.3889583333333334,0.06703703703703712,0.1607999997138947],[0.3889583333333334,0.06703703703703712,0.17729999971389532],[0.3859375,0.03833333333333342,0.1939999999999955],[0.3888541666666666,0.04537037037037037,0.2105999999046304],[0.36395833333333344,0.05814814814814811,0.2294999999999945],[0.3671875,0.043703703703703745,0.2472999997138956],[0.3323958333333332,0.03425925925925926,0.2611999998092642],[0.31843750000000004,0.007962962962962878,0.2775999999046306],[0.3165625000000001,-0.024074074074074074,0.2943999996185269],[0.3304166666666667,-0.0727777777777778,0.31059999990463183],[0.31239583333333343,-0.13574074074074077,0.32929999971389634],[0.3288541666666667,-0.17962962962962964,0.3439999999999941],[0.3267708333333334,-0.207962962962963,0.36069999980926326],[0.36593749999999997,-0.2668518518518519,0.3806999998092593],[0.36177083333333326,-0.31370370370370365,0.39689999961852607],[0.3720833333333334,-0.355,0.41099999999999426],[0.35614583333333344,-0.4075925925925926,0.4273999996185296],[0.3402083333333332,-0.4601851851851852,0.4438999996185302],[0.3494791666666667,-0.49166666666666664,0.4605999999046304],[0.35572916666666665,-0.5144444444444445,0.47749999999999915],[0.3277083333333332,-0.5225925925925926,0.49439999961852976],[0.31520833333333326,-0.5203703703703704,0.5113999996185257],[0.2757291666666667,-0.5298148148148148,0.5290999999046306],[0.2757291666666667,-0.5298148148148148,0.5438999996185245],[0.2642708333333334,-0.528888888888889,0.560699999809259],[0.26624999999999993,-0.5212962962962963,0.5772999997138939],[0.2682291666666667,-0.5137037037037037,0.5938999996185288],[0.2677083333333333,-0.4735185185185185,0.610599999904629],[0.2671875,-0.43333333333333335,0.627299999713891],[0.2326041666666666,-0.39444444444444443,0.6476999998092623],[0.2326041666666666,-0.39444444444444443,0.6605999999046261],[0.19322916666666667,-0.3464814814814815,0.6772999997138953],[0.22083333333333333,-0.3074074074074074,0.6996999998092619],[0.22083333333333333,-0.3074074074074074,0.7105999999046304],[0.19343750000000004,-0.26666666666666666,0.7273999996185267],[0.17739583333333328,-0.2125925925925926,0.7512999997138934],[0.17739583333333328,-0.2125925925925926,0.7606999998092618],[0.16124999999999995,-0.15759259259259265,0.7771999998092625],[0.13479166666666675,-0.08037037037037033,0.7976999998092609],[0.13479166666666675,-0.08037037037037033,0.8105999999046318],[0.08854166666666667,-0.006666666666666709,0.8272999997138939],[0.08854166666666667,-0.006666666666666709,0.8438999996185288],[0.09666666666666662,0.07851851851851847,0.860599999904629],[0.11281249999999995,0.1259259259259259,0.8788999996185254],[0.11281249999999995,0.1259259259259259,0.8939999999999984],[0.13052083333333328,0.20777777777777787,0.9106999998092604],[0.13052083333333328,0.20777777777777787,0.9273999996185296],[0.13958333333333334,0.21092592592592588,0.9440999999046298],[0.13958333333333334,0.21092592592592588,0.9649999999999963],[0.15302083333333344,0.28277777777777785,0.9778999996185291],[0.2111458333333334,0.3301851851851851,0.9956999998092613],[0.2783333333333334,0.36740740740740735,1.0148999996185282],[0.25760416666666663,0.4105555555555556,1.0329999999999941],[0.25510416666666674,0.41092592592592586,1.0478999996185294],[0.2789583333333333,0.41796296296296304,1.0660999999046297],[0.2720833333333334,0.40259259259259256,1.0815999999046326],[0.2507291666666667,0.41648148148148145,1.0969999999999942],[0.2185416666666666,0.4012962962962964,1.1139999999999972],[0.22937500000000005,0.44425925925925924,1.1323999996185279],[0.22937500000000005,0.44425925925925924,1.143899999618526],[0.18708333333333324,0.4081481481481481,1.1605999999046261],[0.14364583333333342,0.4072222222222222,1.1828999996185274],[0.10229166666666671,0.40481481481481485,1.1976999998092595],[0.11635416666666672,0.39092592592592595,1.2133999996185239],[0.13052083333333328,0.3762962962962964,1.2304999999999993],[0.13812499999999991,0.35851851851851857,1.2477999997138909],[0.13583333333333342,0.36814814814814806,1.2615999999046323],[0.1400000000000001,0.38629629629629636,1.277399999618524],[0.15989583333333332,0.39888888888888885,1.293999999999997],[0.1662499999999999,0.4168518518518519,1.3145999999046296],[0.1603125000000001,0.43925925925925935,1.3308999996185236],[0.1662499999999999,0.4422222222222221,1.3460999999046308],[0.16437499999999997,0.465,1.3606999998092633],[0.16437499999999997,0.465,1.3806999998092593],[0.17197916666666657,0.4703703703703704,1.3940999999046326],[0.171875,0.4729629629629629,1.4118999996185266],[0.17177083333333343,0.47555555555555545,1.4284999999999997],[0.1881249999999999,0.4542592592592592,1.4438999996185302],[0.20708333333333329,0.4198148148148149,1.4605999999046304],[0.23187499999999991,0.37777777777777777,1.4962999997138908],[0.23187499999999991,0.37777777777777777,1.5038999996185254],[0.2513541666666666,0.36999999999999994,1.5123999996185233],[0.2872916666666666,0.3490740740740741,1.5308999996185264],[0.30968749999999995,0.32037037037037036,1.5485999999046314],[0.2816666666666668,0.30537037037037035,1.563299999713891],[0.24968750000000003,0.31740740740740736,1.5775999999046277],[0.21989583333333323,0.29814814814814816,1.5940999999046284],[0.19010416666666666,0.2788888888888889,1.6153999996185249],[0.19010416666666666,0.2788888888888889,1.6274999999999977],[0.19239583333333338,0.2564814814814815,1.6441999998092598],[0.17291666666666666,0.25166666666666665,1.6607999997138947],[0.12989583333333338,0.23666666666666658,1.6810999999046317],[0.12989583333333338,0.23666666666666658,1.6940999999046298],[0.09666666666666662,0.22592592592592592,1.7107999997138919],[0.0921875,0.2388888888888889,1.7321999998092608],[0.0921875,0.2388888888888889,1.7441999998092612],[0.065625,0.2301851851851851,1.7607999997138961],[0.06447916666666664,0.21333333333333343,1.7790999999046306],[0.0578125,0.1868518518518518,1.7955999999046313],[0.07468750000000005,0.19870370370370363,1.8107999997138933],[0.09156250000000009,0.21055555555555563,1.8273999996185282],[0.07635416666666663,0.22555555555555548,1.8466999998092604],[0.10177083333333338,0.21851851851851853,1.8607999997138975],[0.1384375000000001,0.2294444444444444,1.877599999904632],[0.1384375000000001,0.2294444444444444,1.896899999618526],[0.09197916666666663,0.1866666666666666,1.9109999999999943],[0.09197916666666663,0.1866666666666666,1.9275999999046292],[0.0078125,0.1648148148148148,1.944199999809264],[-0.034375,0.15018518518518523,1.964499999999994],[-0.03760416666666669,0.11314814814814819,1.9787999997138925],[-0.05145833333333331,0.07481481481481478,1.9939999999999998],[-0.08343750000000003,0.03296296296296288,2.0119999999999933],[-0.08645833333333333,0.0011111111111111532,2.0301999998092626],[-0.08947916666666664,-0.030740740740740784,2.0438999996185245],[-0.12875000000000003,-0.05388888888888893,2.0604999999999976],[-0.17385416666666664,-0.05703703703703706,2.0784999999999982],[-0.16520833333333335,-0.059814814814814835,2.093999999999994],[-0.14375,-0.07462962962962966,2.110599999904629],[-0.14906250000000001,-0.06370370370370367,2.1273999996185253],[-0.13635416666666664,-0.032777777777777864,2.1458999996185284],[-0.12239583333333333,-0.024074074074074074,2.160499999999999],[-0.10020833333333339,-0.0025925925925925505,2.177199999809261],[-0.10270833333333336,0.01055555555555564,2.1939999999999955],[-0.1295833333333333,0.03851851851851843,2.2105999999046304],[-0.14166666666666666,0.07537037037037045,2.227199999809258],[-0.16802083333333329,0.07740740740740733,2.2438999996185274],[-0.20843750000000003,0.04351851851851852,2.2604999999999933],[-0.24249999999999997,0,2.2772999997138967],[-0.26229166666666665,0.012962962962962963,2.2938999996185245],[-0.3134375,0.009444444444444486,2.310599999904632],[-0.3352083333333333,0.0242592592592593,2.3271999998092596],[-0.36520833333333336,0.02629629629629638,2.343899999618529],[-0.34489583333333335,0.03592592592592588,2.3604999999999947],[-0.31,0.051111111111111156,2.3800999999046297],[-0.288125,0.01648148148148144,2.394599999904628],[-0.24614583333333329,-0.003333333333333249,2.4222999997138928],[-0.24614583333333329,-0.003333333333333249,2.433099999904627],[-0.1938541666666667,0.021851851851851768,2.44409999990463],[-0.16020833333333329,0.06962962962962967,2.460799999713892],[-0.13635416666666664,0.054074074074074156,2.4773999996185267],[-0.20322916666666668,0.05222222222222231,2.497899999618525],[-0.2169791666666666,0.008888888888888804,2.5153999996185235],[-0.1570833333333333,-0.0035185185185184764,2.5320999999046307],[-0.18697916666666667,-0.04296296296296305,2.5489999999999995],[-0.24354166666666663,-0.09888888888888885,2.565099999904632],[-0.2700000000000001,-0.09592592592592594,2.5804999999999936],[-0.2964583333333334,-0.09296296296296294,2.594399999618524],[-0.28020833333333334,-0.08388888888888892,2.614699999809261],[-0.24500000000000005,-0.09037037037037039,2.632399999618528],[-0.20979166666666665,-0.09685185185185187,2.650599999904628],[-0.20979166666666665,-0.09685185185185187,2.6606999998092604],[-0.09739583333333333,-0.11629629629629631,2.6813999996185274],[-0.09739583333333333,-0.11629629629629631,2.6939999999999955],[-0.06947916666666672,-0.07777777777777778,2.710799999713892],[-0.06947916666666672,-0.07777777777777778,2.7273999996185267],[-0.13802083333333334,-0.06666666666666667,2.7479999999999976],[-0.13802083333333334,-0.06666666666666667,2.7605999999046276],[-0.10489583333333338,-0.0492592592592593,2.7772999997138967],[-0.10489583333333338,-0.0492592592592593,2.794099999904631],[-0.04468749999999998,-0.032777777777777864,2.8159999999999954],[-0.04468749999999998,-0.032777777777777864,2.827299999713894],[-0.01739583333333338,-0.02833333333333325,2.8440999999046284],[0.034062500000000044,-0.03222222222222218,2.864299999713893],[0.010520833333333358,-0.03851851851851843,2.882799999713896],[0.010520833333333358,-0.03851851851851843,2.8940999999046326],[-0.019687499999999976,-0.04222222222222214,2.9155999999046287],[-0.019687499999999976,-0.04222222222222214,2.927499999999995],[-0.013750000000000047,0.0003703703703704546,2.944199999809264],[-0.010312499999999976,0.03185185185185194,2.960799999713892],[0.020729166666666642,0.0492592592592593,2.9827999997138974],[0.06499999999999997,0.05185185185185185,2.9976999998092637],[0.06520833333333335,0.07222222222222222,3.013399999618528],[0.06604166666666664,0.0772222222222223,3.038199999809258],[0.06604166666666664,0.0772222222222223,3.0444999999999993],[0.0875,0.09888888888888885,3.060699999809259],[0.04541666666666669,0.1287037037037037,3.0774999999999935],[0.07572916666666671,0.16277777777777774,3.098799999713897],[0.07572916666666671,0.16277777777777774,3.1107999997138975],[0.0859375,0.16888888888888898,3.127699999809259],[0.0859375,0.16888888888888898,3.1440999999046326],[0.06864583333333343,0.14537037037037037,3.164599999904631],[0.06291666666666665,0.12444444444444452,3.1810999999046317],[0.06593749999999995,0.10055555555555547,3.1991999998092595],[0.06593749999999995,0.10055555555555547,3.210799999713892],[0.06302083333333333,0.08611111111111111,3.2332999997138927],[0.06302083333333333,0.08611111111111111,3.244499999999995],[0.023958333333333335,0.09018518518518527,3.260799999713896],[0.021249999999999977,0.10574074074074079,3.2816999998092626],[0.002812500000000047,0.1198148148148149,3.301499999999997],[0.002812500000000047,0.1198148148148149,3.310699999809259],[-0.00010416666666669035,0.13055555555555556,3.3275999999046277],[0.052083333333333336,0.11500000000000005,3.3507999997138924],[0.052083333333333336,0.11500000000000005,3.360999999999997],[0.08052083333333329,0.1581481481481481,3.377599999904632],[0.0787499999999999,0.1905555555555555,3.3995999999046305],[0.0787499999999999,0.1905555555555555,3.4106999998092604],[0.08677083333333328,0.22277777777777769,3.427199999809261],[0.06916666666666677,0.2616666666666666,3.4439999999999955],[0.03958333333333333,0.3022222222222223,3.4643999996185286],[0.03958333333333333,0.3022222222222223,3.4772999997138925],[0.03875000000000005,0.31796296296296306,3.494099999904627],[0.03875000000000005,0.31796296296296306,3.510699999809262],[0.024270833333333287,0.3314814814814815,3.5304999999999964],[0.024270833333333287,0.3314814814814815,3.543999999999997],[0.03760416666666669,0.3264814814814814,3.560699999809259],[0.07729166666666672,0.3316666666666667,3.579499999999996],[0.03229166666666667,0.31555555555555553,3.594699999809265],[0.027187500000000024,0.2662962962962962,3.6115999999046267],[0.06593749999999995,0.1962962962962963,3.6274999999999977],[0.09937500000000009,0.13425925925925927,3.6480999999046304],[0.12281250000000009,0.07240740740740745,3.6628999996185243],[0.1961458333333333,0.014814814814814815,3.6791999998092635],[0.2598958333333333,-0.05425925925925928,3.69409999990463],[0.30437500000000006,-0.11814814814814817,3.714899999618524],[0.31052083333333325,-0.19129629629629633,3.7308999996185293],[0.34697916666666656,-0.26851851851851855,3.7457999997138955],[0.3885416666666667,-0.302962962962963,3.7604999999999933],[0.3849999999999999,-0.33666666666666667,3.779299999713892],[0.3696875000000001,-0.3483333333333334,3.7938999996185245],[0.33562500000000006,-0.36259259259259263,3.8107999997138933],[0.35093750000000007,-0.3809259259259259,3.827399999618528],[0.34385416666666657,-0.4033333333333334,3.8467999997138946],[0.31135416666666677,-0.4111111111111111,3.8606999998092633],[0.2841666666666666,-0.4209259259259259,3.878699999809264],[0.2841666666666666,-0.4209259259259259,3.8970999999046256],[0.2625,-0.4168518518518519,3.910899999618529],[0.23718750000000005,-0.462037037037037,3.929099999904629],[0.19822916666666662,-0.5044444444444444,3.9475999999046323],[0.2078125,-0.5346296296296296,3.9609999999999985],[0.2068749999999999,-0.572037037037037,3.9801999998092583],[0.23093750000000005,-0.5975925925925926,3.99589999961853],[0.21375000000000005,-0.6003703703703703,4.010799999713896],[0.2048958333333334,-0.612037037037037,4.030499999999996],[0.21604166666666677,-0.6268518518518519,4.047799999713895],[0.21520833333333325,-0.6337037037037037,4.062599999904627],[0.2303124999999999,-0.6388888888888888,4.077999999999996],[0.2165625000000001,-0.5968518518518519,4.093999999999994],[0.21645833333333328,-0.5575925925925926,4.113999999999997],[0.21645833333333328,-0.5575925925925926,4.127399999618525],[0.22447916666666667,-0.5362962962962964,4.143999999999998],[0.23020833333333332,-0.5301851851851852,4.162999999999997],[0.24447916666666672,-0.5046296296296297,4.177499999999995],[0.2612499999999999,-0.4988888888888888,4.19689999961853],[0.28927083333333337,-0.47370370370370374,4.212299999713892],[0.3172916666666666,-0.4485185185185185,4.228599999904631],[0.3572916666666667,-0.43129629629629623,4.243899999618527],[0.3779166666666666,-0.41759259259259257,4.260499999999993],[0.39822916666666663,-0.4044444444444444,4.277299999713897],[0.3959374999999999,-0.41092592592592586,4.2945999999046265],[0.41854166666666665,-0.3875925925925926,4.313899999618528],[0.41854166666666665,-0.3875925925925926,4.327299999713894],[0.41593749999999996,-0.38055555555555554,4.343999999999994],[0.43812499999999993,-0.41203703703703703,4.3611999998092585],[0.43854166666666666,-0.4383333333333333,4.377199999809264],[0.42312500000000003,-0.4848148148148148,4.397799999713897],[0.40770833333333345,-0.5312962962962963,4.413899999618529],[0.3991666666666667,-0.5766666666666667,4.430199999809261],[0.4099999999999999,-0.6185185185185185,4.445499999999996],[0.40864583333333326,-0.6764814814814815,4.460499999999996],[0.42989583333333337,-0.7148148148148148,4.477399999618527],[0.43781249999999994,-0.7733333333333334,4.493799999713893],[0.4657291666666666,-0.7957407407407407,4.513099999904632],[0.4540625000000001,-0.8083333333333333,4.5312999997138945],[0.4673958333333334,-0.8294444444444444,4.547599999904627],[0.48322916666666677,-0.8238888888888889,4.5630999999046296],[0.47072916666666675,-0.8240740740740741,4.57719999980926],[0.4513541666666666,-0.8253703703703703,4.593899999618529],[0.4578125,-0.8159259259259259,4.612399999618525],[0.47645833333333343,-0.7903703703703704,4.628699999809264],[0.4951041666666666,-0.7648148148148148,4.648999999999994],[0.49666666666666665,-0.7566666666666667,4.665799999713897],[0.49666666666666665,-0.7566666666666667,4.677299999713895],[0.5057291666666667,-0.7531481481481481,4.69389999961853],[0.5193749999999999,-0.7583333333333333,4.7172999997138945],[0.5193749999999999,-0.7583333333333333,4.727199999809258],[0.5332291666666668,-0.7385185185185186,4.743899999618527],[0.5332291666666668,-0.7385185185185186,4.760599999904628],[0.5282291666666665,-0.7446296296296296,4.7771999998092625],[0.5282291666666665,-0.7446296296296296,4.793799999713897],[0.5619791666666667,-0.7414814814814814,4.810599999904632],[0.5619791666666667,-0.7414814814814814,4.82719999980926],[0.5875,-0.7403703703703703,4.844299999713897],[0.5940624999999999,-0.7492592592592593,4.865799999713893],[0.5580208333333334,-0.7542592592592593,4.883499999999998],[0.5580208333333334,-0.7542592592592593,4.895899999618528],[0.5191666666666668,-0.7640740740740741,4.910899999618529],[0.4773958333333333,-0.7516666666666666,4.936499999999995],[0.4773958333333333,-0.7516666666666666,4.944499999999998],[0.44729166666666675,-0.7168518518518519,4.961799999713897],[0.43239583333333326,-0.6562962962962963,4.9794999999999945],[0.4101041666666667,-0.6368518518518518,4.9985],[0.3889583333333334,-0.5805555555555556,5.015799999713892],[0.3889583333333334,-0.5805555555555556,5.027299999713897],[0.35,-0.5407407407407407,5.044099999904631],[0.3165625000000001,-0.48333333333333334,5.0674999999999955],[0.3165625000000001,-0.48333333333333334,5.084299999713892],[0.26458333333333334,-0.4564814814814815,5.093899999618529],[0.27843749999999995,-0.42240740740740745,5.110699999809263],[0.3125,-0.37888888888888894,5.129399999618528],[0.31875,-0.3396296296296296,5.143999999999998],[0.3316666666666668,-0.32833333333333337,5.160499999999999],[0.3023958333333333,-0.33722222222222226,5.177299999713895],[0.29406249999999995,-0.32685185185185184,5.19389999961853],[0.29718749999999994,-0.34444444444444444,5.21059999990463]]","[0.00029999971389571556,0.050499999999999545,0.06059999990463183,0.08099999999999596,0.09529999971389458,0.117999999999995,0.13349999999999795,0.14399999999999835,0.1607999997138947,0.17729999971389532,0.1939999999999955,0.2105999999046304,0.2294999999999945,0.2472999997138956,0.2611999998092642,0.2775999999046306,0.2943999996185269,0.31059999990463183,0.32929999971389634,0.3439999999999941,0.36069999980926326,0.3806999998092593,0.39689999961852607,0.41099999999999426,0.4273999996185296,0.4438999996185302,0.4605999999046304,0.47749999999999915,0.49439999961852976,0.5113999996185257,0.5290999999046306,0.5438999996185245,0.560699999809259,0.5772999997138939,0.5938999996185288,0.610599999904629,0.627299999713891,0.6476999998092623,0.6605999999046261,0.6772999997138953,0.6996999998092619,0.7105999999046304,0.7273999996185267,0.7512999997138934,0.7606999998092618,0.7771999998092625,0.7976999998092609,0.8105999999046318,0.8272999997138939,0.8438999996185288,0.860599999904629,0.8788999996185254,0.8939999999999984,0.9106999998092604,0.9273999996185296,0.9440999999046298,0.9649999999999963,0.9778999996185291,0.9956999998092613,1.0148999996185282,1.0329999999999941,1.0478999996185294,1.0660999999046297,1.0815999999046326,1.0969999999999942,1.1139999999999972,1.1323999996185279,1.143899999618526,1.1605999999046261,1.1828999996185274,1.1976999998092595,1.2133999996185239,1.2304999999999993,1.2477999997138909,1.2615999999046323,1.277399999618524,1.293999999999997,1.3145999999046296,1.3308999996185236,1.3460999999046308,1.3606999998092633,1.3806999998092593,1.3940999999046326,1.4118999996185266,1.4284999999999997,1.4438999996185302,1.4605999999046304,1.4962999997138908,1.5038999996185254,1.5123999996185233,1.5308999996185264,1.5485999999046314,1.563299999713891,1.5775999999046277,1.5940999999046284,1.6153999996185249,1.6274999999999977,1.6441999998092598,1.6607999997138947,1.6810999999046317,1.6940999999046298,1.7107999997138919,1.7321999998092608,1.7441999998092612,1.7607999997138961,1.7790999999046306,1.7955999999046313,1.8107999997138933,1.8273999996185282,1.8466999998092604,1.8607999997138975,1.877599999904632,1.896899999618526,1.9109999999999943,1.9275999999046292,1.944199999809264,1.964499999999994,1.9787999997138925,1.9939999999999998,2.0119999999999933,2.0301999998092626,2.0438999996185245,2.0604999999999976,2.0784999999999982,2.093999999999994,2.110599999904629,2.1273999996185253,2.1458999996185284,2.160499999999999,2.177199999809261,2.1939999999999955,2.2105999999046304,2.227199999809258,2.2438999996185274,2.2604999999999933,2.2772999997138967,2.2938999996185245,2.310599999904632,2.3271999998092596,2.343899999618529,2.3604999999999947,2.3800999999046297,2.394599999904628,2.4222999997138928,2.433099999904627,2.44409999990463,2.460799999713892,2.4773999996185267,2.497899999618525,2.5153999996185235,2.5320999999046307,2.5489999999999995,2.565099999904632,2.5804999999999936,2.594399999618524,2.614699999809261,2.632399999618528,2.650599999904628,2.6606999998092604,2.6813999996185274,2.6939999999999955,2.710799999713892,2.7273999996185267,2.7479999999999976,2.7605999999046276,2.7772999997138967,2.794099999904631,2.8159999999999954,2.827299999713894,2.8440999999046284,2.864299999713893,2.882799999713896,2.8940999999046326,2.9155999999046287,2.927499999999995,2.944199999809264,2.960799999713892,2.9827999997138974,2.9976999998092637,3.013399999618528,3.038199999809258,3.0444999999999993,3.060699999809259,3.0774999999999935,3.098799999713897,3.1107999997138975,3.127699999809259,3.1440999999046326,3.164599999904631,3.1810999999046317,3.1991999998092595,3.210799999713892,3.2332999997138927,3.244499999999995,3.260799999713896,3.2816999998092626,3.301499999999997,3.310699999809259,3.3275999999046277,3.3507999997138924,3.360999999999997,3.377599999904632,3.3995999999046305,3.4106999998092604,3.427199999809261,3.4439999999999955,3.4643999996185286,3.4772999997138925,3.494099999904627,3.510699999809262,3.5304999999999964,3.543999999999997,3.560699999809259,3.579499999999996,3.594699999809265,3.6115999999046267,3.6274999999999977,3.6480999999046304,3.6628999996185243,3.6791999998092635,3.69409999990463,3.714899999618524,3.7308999996185293,3.7457999997138955,3.7604999999999933,3.779299999713892,3.7938999996185245,3.8107999997138933,3.827399999618528,3.8467999997138946,3.8606999998092633,3.878699999809264,3.8970999999046256,3.910899999618529,3.929099999904629,3.9475999999046323,3.9609999999999985,3.9801999998092583,3.99589999961853,4.010799999713896,4.030499999999996,4.047799999713895,4.062599999904627,4.077999999999996,4.093999999999994,4.113999999999997,4.127399999618525,4.143999999999998,4.162999999999997,4.177499999999995,4.19689999961853,4.212299999713892,4.228599999904631,4.243899999618527,4.260499999999993,4.277299999713897,4.2945999999046265,4.313899999618528,4.327299999713894,4.343999999999994,4.3611999998092585,4.377199999809264,4.397799999713897,4.413899999618529,4.430199999809261,4.445499999999996,4.460499999999996,4.477399999618527,4.493799999713893,4.513099999904632,4.5312999997138945,4.547599999904627,4.5630999999046296,4.57719999980926,4.593899999618529,4.612399999618525,4.628699999809264,4.648999999999994,4.665799999713897,4.677299999713895,4.69389999961853,4.7172999997138945,4.727199999809258,4.743899999618527,4.760599999904628,4.7771999998092625,4.793799999713897,4.810599999904632,4.82719999980926,4.844299999713897,4.865799999713893,4.883499999999998,4.895899999618528,4.910899999618529,4.936499999999995,4.944499999999998,4.961799999713897,4.9794999999999945,4.9985,5.015799999713892,5.027299999713897,5.044099999904631,5.0674999999999955,5.084299999713892,5.093899999618529,5.110699999809263,5.129399999618528,5.143999999999998,5.160499999999999,5.177299999713895,5.19389999961853,5.21059999990463]","[1732165679788,1732165679829,1732165679838,1732165679859,1732165679873,1732165679896,1732165679911,1732165679922,1732165679939,1732165679955,1732165679972,1732165679988,1732165680007,1732165680025,1732165680039,1732165680056,1732165680072,1732165680088,1732165680107,1732165680122,1732165680139,1732165680159,1732165680175,1732165680189,1732165680205,1732165680222,1732165680239,1732165680255,1732165680272,1732165680289,1732165680307,1732165680322,1732165680339,1732165680355,1732165680372,1732165680388,1732165680405,1732165680426,1732165680438,1732165680455,1732165680478,1732165680488,1732165680505,1732165680529,1732165680539,1732165680555,1732165680576,1732165680589,1732165680605,1732165680622,1732165680638,1732165680657,1732165680672,1732165680689,1732165680705,1732165680722,1732165680743,1732165680756,1732165680774,1732165680793,1732165680811,1732165680826,1732165680844,1732165680859,1732165680875,1732165680892,1732165680910,1732165680922,1732165680939,1732165680961,1732165680976,1732165680991,1732165681008,1732165681026,1732165681039,1732165681055,1732165681072,1732165681093,1732165681109,1732165681124,1732165681139,1732165681159,1732165681172,1732165681190,1732165681206,1732165681222,1732165681238,1732165681274,1732165681282,1732165681290,1732165681309,1732165681327,1732165681341,1732165681355,1732165681372,1732165681393,1732165681405,1732165681422,1732165681439,1732165681459,1732165681472,1732165681489,1732165681510,1732165681522,1732165681539,1732165681557,1732165681574,1732165681589,1732165681605,1732165681625,1732165681639,1732165681656,1732165681675,1732165681689,1732165681706,1732165681722,1732165681742,1732165681757,1732165681772,1732165681790,1732165681808,1732165681822,1732165681838,1732165681856,1732165681872,1732165681888,1732165681905,1732165681924,1732165681938,1732165681955,1732165681972,1732165681988,1732165682005,1732165682022,1732165682038,1732165682055,1732165682072,1732165682088,1732165682105,1732165682122,1732165682138,1732165682158,1732165682173,1732165682200,1732165682211,1732165682222,1732165682239,1732165682255,1732165682276,1732165682293,1732165682310,1732165682327,1732165682344,1732165682360,1732165682374,1732165682394,1732165682412,1732165682430,1732165682440,1732165682461,1732165682473,1732165682490,1732165682507,1732165682527,1732165682540,1732165682557,1732165682573,1732165682595,1732165682607,1732165682623,1732165682644,1732165682662,1732165682673,1732165682695,1732165682707,1732165682723,1732165682740,1732165682762,1732165682777,1732165682793,1732165682817,1732165682824,1732165682840,1732165682857,1732165682878,1732165682890,1732165682907,1732165682923,1732165682944,1732165682960,1732165682978,1732165682990,1732165683013,1732165683024,1732165683040,1732165683061,1732165683081,1732165683090,1732165683107,1732165683130,1732165683140,1732165683157,1732165683179,1732165683190,1732165683207,1732165683223,1732165683244,1732165683257,1732165683273,1732165683290,1732165683310,1732165683323,1732165683340,1732165683359,1732165683374,1732165683391,1732165683407,1732165683427,1732165683442,1732165683458,1732165683473,1732165683494,1732165683510,1732165683525,1732165683540,1732165683559,1732165683573,1732165683590,1732165683607,1732165683626,1732165683640,1732165683658,1732165683676,1732165683690,1732165683708,1732165683727,1732165683740,1732165683759,1732165683775,1732165683790,1732165683810,1732165683827,1732165683842,1732165683857,1732165683873,1732165683893,1732165683907,1732165683923,1732165683942,1732165683957,1732165683976,1732165683992,1732165684008,1732165684023,1732165684040,1732165684056,1732165684074,1732165684093,1732165684107,1732165684123,1732165684140,1732165684156,1732165684177,1732165684193,1732165684210,1732165684225,1732165684240,1732165684257,1732165684273,1732165684292,1732165684311,1732165684327,1732165684342,1732165684356,1732165684373,1732165684392,1732165684408,1732165684428,1732165684445,1732165684456,1732165684473,1732165684497,1732165684506,1732165684523,1732165684540,1732165684557,1732165684573,1732165684590,1732165684606,1732165684624,1732165684645,1732165684663,1732165684675,1732165684690,1732165684716,1732165684724,1732165684741,1732165684759,1732165684778,1732165684795,1732165684807,1732165684823,1732165684847,1732165684864,1732165684873,1732165684890,1732165684909,1732165684923,1732165684940,1732165684957,1732165684973,1732165684990]","[[1263.5,599.4],[1263.5,599.4],[1265,588.2],[1301.8,582.4],[1280.2,572.7],[1298.8,571.2],[1298.8,571.2],[1311.7,580.6],[1333.4,576.2],[1333.4,576.2],[1330.5,560.7],[1333.3,564.5],[1309.4,571.4],[1312.5,563.6],[1279.1,558.5],[1265.7,544.3],[1263.9,527],[1277.2,500.7],[1259.9,466.7],[1275.7,443],[1273.7,427.7],[1311.3,395.9],[1307.3,370.6],[1317.2,348.3],[1301.9,319.9],[1286.6,291.5],[1295.5,274.5],[1301.5,262.2],[1274.6,257.8],[1262.6,259],[1224.7,253.9],[1224.7,253.9],[1213.7,254.4],[1215.6,258.5],[1217.5,262.6],[1217,284.3],[1216.5,306],[1183.3,327],[1183.3,327],[1145.5,352.9],[1172,374],[1172,374],[1145.7,396],[1130.3,425.2],[1130.3,425.2],[1114.8,454.9],[1089.4,496.6],[1089.4,496.6],[1045,536.4],[1045,536.4],[1052.8,582.4],[1068.3,608],[1068.3,608],[1085.3,652.2],[1085.3,652.2],[1094,653.9],[1094,653.9],[1106.9,692.7],[1162.7,718.3],[1227.2,738.4],[1207.3,761.7],[1204.9,761.9],[1227.8,765.7],[1221.2,757.4],[1200.7,764.9],[1169.8,756.7],[1180.2,779.9],[1180.2,779.9],[1139.6,760.4],[1097.9,759.9],[1058.2,758.6],[1071.7,751.1],[1085.3,743.2],[1092.6,733.6],[1090.4,738.8],[1094.4,748.6],[1113.5,755.4],[1119.6,765.1],[1113.9,777.2],[1119.6,778.8],[1117.8,791.1],[1117.8,791.1],[1125.1,794],[1125,795.4],[1124.9,796.8],[1140.6,785.3],[1158.8,766.7],[1182.6,744],[1182.6,744],[1201.3,739.8],[1235.8,728.5],[1257.3,713],[1230.4,704.9],[1199.7,711.4],[1171.1,701],[1142.5,690.6],[1142.5,690.6],[1144.7,678.5],[1126,675.9],[1084.7,667.8],[1084.7,667.8],[1052.8,662],[1048.5,669],[1048.5,669],[1023,664.3],[1021.9,655.2],[1015.5,640.9],[1031.7,647.3],[1047.9,653.7],[1033.3,661.8],[1057.7,658],[1092.9,663.9],[1092.9,663.9],[1048.3,640.8],[1048.3,640.8],[967.5,629],[927,621.1],[923.9,601.1],[910.6,580.4],[879.9,557.8],[877,540.6],[874.1,523.4],[836.4,510.9],[793.1,509.2],[801.4,507.7],[822,499.7],[816.9,505.6],[829.1,522.3],[842.5,527],[863.8,538.6],[861.4,545.7],[835.6,560.8],[824,580.7],[798.7,581.8],[759.9,563.5],[727.2,540],[708.2,547],[659.1,545.1],[638.2,553.1],[609.4,554.2],[628.9,559.4],[662.4,567.6],[683.4,548.9],[723.7,538.2],[723.7,538.2],[773.9,551.8],[806.2,577.6],[829.1,569.2],[764.9,568.2],[751.7,544.8],[809.2,538.1],[780.5,516.8],[726.2,486.6],[700.8,488.2],[675.4,489.8],[691,494.7],[724.8,491.2],[758.6,487.7],[758.6,487.7],[866.5,477.2],[866.5,477.2],[893.3,498],[893.3,498],[827.5,504],[827.5,504],[859.3,513.4],[859.3,513.4],[917.1,522.3],[917.1,522.3],[943.3,524.7],[992.7,522.6],[970.1,519.2],[970.1,519.2],[941.1,517.2],[941.1,517.2],[946.8,540.2],[950.1,557.2],[979.9,566.6],[1022.4,568],[1022.6,579],[1023.4,581.7],[1023.4,581.7],[1044,593.4],[1003.6,609.5],[1032.7,627.9],[1032.7,627.9],[1042.5,631.2],[1042.5,631.2],[1025.9,618.5],[1020.4,607.2],[1023.3,594.3],[1023.3,594.3],[1020.5,586.5],[1020.5,586.5],[983,588.7],[980.4,597.1],[962.7,604.7],[962.7,604.7],[959.9,610.5],[1010,602.1],[1010,602.1],[1037.3,625.4],[1035.6,642.9],[1035.6,642.9],[1043.3,660.3],[1026.4,681.3],[998,703.2],[998,703.2],[997.2,711.7],[997.2,711.7],[983.3,719],[983.3,719],[996.1,716.3],[1034.2,719.1],[991,710.4],[986.1,683.8],[1023.3,646],[1055.4,612.5],[1077.9,579.1],[1148.3,548],[1209.5,510.7],[1252.2,476.2],[1258.1,436.7],[1293.1,395],[1333,376.4],[1329.6,358.2],[1314.9,351.9],[1282.2,344.2],[1296.9,334.3],[1290.1,322.2],[1258.9,318],[1232.8,312.7],[1232.8,312.7],[1212,314.9],[1187.7,290.5],[1150.3,267.6],[1159.5,251.3],[1158.6,231.1],[1181.7,217.3],[1165.2,215.8],[1156.7,209.5],[1167.4,201.5],[1166.6,197.8],[1181.1,195],[1167.9,217.7],[1167.8,238.9],[1167.8,238.9],[1175.5,250.4],[1181,253.7],[1194.7,267.5],[1210.8,270.6],[1237.7,284.2],[1264.6,297.8],[1303,307.1],[1322.8,314.5],[1342.3,321.6],[1340.1,318.1],[1361.8,330.7],[1361.8,330.7],[1359.3,334.5],[1380.6,317.5],[1381,303.3],[1366.2,278.2],[1351.4,253.1],[1343.2,228.6],[1353.6,206],[1352.3,174.7],[1372.7,154],[1380.3,122.4],[1407.1,110.3],[1395.9,103.5],[1408.7,92.1],[1423.9,95.1],[1411.9,95],[1393.3,94.3],[1399.5,99.4],[1417.4,113.2],[1435.3,127],[1436.8,131.4],[1436.8,131.4],[1445.5,133.3],[1458.6,130.5],[1458.6,130.5],[1471.9,141.2],[1471.9,141.2],[1467.1,137.9],[1467.1,137.9],[1499.5,139.6],[1499.5,139.6],[1524,140.2],[1530.3,135.4],[1495.7,132.7],[1495.7,132.7],[1458.4,127.4],[1418.3,134.1],[1418.3,134.1],[1389.4,152.9],[1375.1,185.6],[1353.7,196.1],[1333.4,226.5],[1333.4,226.5],[1296,248],[1263.9,279],[1263.9,279],[1214,293.5],[1227.3,311.9],[1260,335.4],[1266,356.6],[1278.4,362.7],[1250.3,357.9],[1242.3,363.5],[1245.3,354]]","[-0.2,0.6000000000000001]","[0.2,0.6000000000000001]","[0.6000000000000001,0.6000000000000001]","[-0.6000000000000001,-0.2]","[-0.6000000000000001,0.2]","[-0.6000000000000001,-0.6000000000000001]","[-0.2,-0.2]","[0.2,-0.2]","[0.6000000000000001,-0.2]","[-0.2,0.2]","[0.2,0.2]","[0.6000000000000001,0.2]","[-0.2,-0.6000000000000001]","[0.2,-0.6000000000000001]","[0.6000000000000001,-0.6000000000000001]",0,0,0,0,1,4,Monitor,25,20,8,1,60,4,1,60,3
