inst1_resp.keys,inst1_resp.rt,calibrationMouse.x,calibrationMouse.y,calibrationMouse.leftButton,calibrationMouse.midButton,calibrationMouse.rightButton,calibrationClick.x,calibrationClick.y,calibrationClick.leftButton,calibrationClick.midButton,calibrationClick.rightButton,calibrationClick.clicked_name,trialsc.thisRepN,trialsc.thisTrialN,trialsc.thisN,trialsc.thisIndex,trialsc.ran,calibration_x,calibration_y,participant,session,date,expName,psychopyVersion,OS,frameRate,ScreenRes_pixels,Camera_pixels,mouse_2.x,mouse_2.y,mouse_2.leftButton,mouse_2.midButton,mouse_2.rightButton,mouse_2.time,mouse_2.clicked_name,mouse.x,mouse.y,mouse.leftButton,mouse.midButton,mouse.rightButton,mouse.time,mouse.clicked_name,Choice,Trial,TrialDuration,MOUSE_GAZE,ET_GAZE,ET_GAZE_x_T,time,unixTime,ET_GAZE_NF,Loc_Bus_label,Loc_Metro_label,Loc_RH_label,Loc_Cost_label,Loc_Travel_label,Loc_Comfort_label,Loc_Bus_cost,Loc_Metro_cost,Loc_RH_cost,Loc_Bus_travel,Loc_Metro_travel,Loc_RH_travel,Loc_Bus_comfort,Loc_Metro_comfort,Loc_RH_comfort,trials.thisRepN,trials.thisTrialN,trials.thisN,trials.thisIndex,trials.ran,Block,Device,RH_cost,RH_travel_time,RH_Comfort,metro_cost,metro_travel_time,metro_Comfort,Bus_cost,Bus_travel_time,Bus_Comfort
space,1.8152,-0.104166667,0.303703704,1,0,0,-0.673958333,-0.324074074,1,0,0,calibration_square,0,0,0,1,1,-0.67,-0.33,26,001,2024-11-25_12h52.05.077,Attention_exp_legacy,2023.1.0,Win32,59.88023952,,,,,,,,,,,,,,,,,,,,,,,,,,,,,,,,,,,,,,,,,,,,,,,,,,,,,,,,
,,,,,,,0.316666667,0,1,0,0,,0,1,1,16,1,0.33,0,26,001,2024-11-25_12h52.05.077,Attention_exp_legacy,2023.1.0,Win32,59.88023952,,,,,,,,,,,,,,,,,,,,,,,,,,,,,,,,,,,,,,,,,,,,,,,,,,,,,,,,
,,,,,,,-0.672916667,0.351851852,1,0,0,,0,2,2,3,1,-0.67,0.33,26,001,2024-11-25_12h52.05.077,Attention_exp_legacy,2023.1.0,Win32,59.88023952,,,,,,,,,,,,,,,,,,,,,,,,,,,,,,,,,,,,,,,,,,,,,,,,,,,,,,,,
,,,,,,,0.005208333,-0.67037037,1,0,0,calibration_square,0,3,3,9,1,0,-0.67,26,001,2024-11-25_12h52.05.077,Attention_exp_legacy,2023.1.0,Win32,59.88023952,,,,,,,,,,,,,,,,,,,,,,,,,,,,,,,,,,,,,,,,,,,,,,,,,,,,,,,,
,,,,,,,-0.323958333,-0.322222222,1,0,0,calibration_square,0,4,4,5,1,-0.33,-0.33,26,001,2024-11-25_12h52.05.077,Attention_exp_legacy,2023.1.0,Win32,59.88023952,,,,,,,,,,,,,,,,,,,,,,,,,,,,,,,,,,,,,,,,,,,,,,,,,,,,,,,,
,,,,,,,0.325,0.674074074,1,0,0,calibration_square,0,5,5,18,1,0.33,0.67,26,001,2024-11-25_12h52.05.077,Attention_exp_legacy,2023.1.0,Win32,59.88023952,,,,,,,,,,,,,,,,,,,,,,,,,,,,,,,,,,,,,,,,,,,,,,,,,,,,,,,,
,,,,,,,-0.321875,-0.677777778,1,0,0,calibration_square,0,6,6,4,1,-0.33,-0.67,26,001,2024-11-25_12h52.05.077,Attention_exp_legacy,2023.1.0,Win32,59.88023952,,,,,,,,,,,,,,,,,,,,,,,,,,,,,,,,,,,,,,,,,,,,,,,,,,,,,,,,
,,,,,,,-0.329166667,0.683333333,1,0,0,,0,7,7,8,1,-0.33,0.67,26,001,2024-11-25_12h52.05.077,Attention_exp_legacy,2023.1.0,Win32,59.88023952,,,,,,,,,,,,,,,,,,,,,,,,,,,,,,,,,,,,,,,,,,,,,,,,,,,,,,,,
,,,,,,,0.660416667,0.687037037,1,0,0,,0,8,8,19,1,0.67,0.67,26,001,2024-11-25_12h52.05.077,Attention_exp_legacy,2023.1.0,Win32,59.88023952,,,,,,,,,,,,,,,,,,,,,,,,,,,,,,,,,,,,,,,,,,,,,,,,,,,,,,,,
,,,,,,,0.008333333,0.333333333,1,0,0,calibration_square,0,9,9,12,1,0,0.33,26,001,2024-11-25_12h52.05.077,Attention_exp_legacy,2023.1.0,Win32,59.88023952,,,,,,,,,,,,,,,,,,,,,,,,,,,,,,,,,,,,,,,,,,,,,,,,,,,,,,,,
,,,,,,,-0.008333333,0.666666667,1,0,0,calibration_square,0,10,10,13,1,0,0.67,26,001,2024-11-25_12h52.05.077,Attention_exp_legacy,2023.1.0,Win32,59.88023952,,,,,,,,,,,,,,,,,,,,,,,,,,,,,,,,,,,,,,,,,,,,,,,,,,,,,,,,
,,,,,,,-0.007291667,0.014814815,1,0,0,,0,11,11,11,1,0,0,26,001,2024-11-25_12h52.05.077,Attention_exp_legacy,2023.1.0,Win32,59.88023952,,,,,,,,,,,,,,,,,,,,,,,,,,,,,,,,,,,,,,,,,,,,,,,,,,,,,,,,
,,,,,,,-0.314583333,0.02037037,1,0,0,,0,12,12,6,1,-0.33,0,26,001,2024-11-25_12h52.05.077,Attention_exp_legacy,2023.1.0,Win32,59.88023952,,,,,,,,,,,,,,,,,,,,,,,,,,,,,,,,,,,,,,,,,,,,,,,,,,,,,,,,
,,,,,,,-0.671875,0,1,0,0,calibration_square,0,13,13,2,1,-0.67,0,26,001,2024-11-25_12h52.05.077,Attention_exp_legacy,2023.1.0,Win32,59.88023952,,,,,,,,,,,,,,,,,,,,,,,,,,,,,,,,,,,,,,,,,,,,,,,,,,,,,,,,
,,,,,,,0.340625,-0.648148148,1,0,0,,0,14,14,14,1,0.33,-0.67,26,001,2024-11-25_12h52.05.077,Attention_exp_legacy,2023.1.0,Win32,59.88023952,,,,,,,,,,,,,,,,,,,,,,,,,,,,,,,,,,,,,,,,,,,,,,,,,,,,,,,,
,,,,,,,-0.321875,0.342592593,1,0,0,,0,15,15,7,1,-0.33,0.33,26,001,2024-11-25_12h52.05.077,Attention_exp_legacy,2023.1.0,Win32,59.88023952,,,,,,,,,,,,,,,,,,,,,,,,,,,,,,,,,,,,,,,,,,,,,,,,,,,,,,,,
,,,,,,,0.002083333,-0.342592593,1,0,0,,0,16,16,10,1,0,-0.33,26,001,2024-11-25_12h52.05.077,Attention_exp_legacy,2023.1.0,Win32,59.88023952,,,,,,,,,,,,,,,,,,,,,,,,,,,,,,,,,,,,,,,,,,,,,,,,,,,,,,,,
,,,,,,,-0.669791667,-0.674074074,1,0,0,calibration_square,0,17,17,0,1,-0.67,-0.67,26,001,2024-11-25_12h52.05.077,Attention_exp_legacy,2023.1.0,Win32,59.88023952,,,,,,,,,,,,,,,,,,,,,,,,,,,,,,,,,,,,,,,,,,,,,,,,,,,,,,,,
,,,,,,,0.328125,0.312962963,1,0,0,,0,18,18,17,1,0.33,0.33,26,001,2024-11-25_12h52.05.077,Attention_exp_legacy,2023.1.0,Win32,59.88023952,,,,,,,,,,,,,,,,,,,,,,,,,,,,,,,,,,,,,,,,,,,,,,,,,,,,,,,,
,,,,,,,0.666666667,-0.655555556,1,0,0,,0,19,19,20,1,0.67,-0.67,26,001,2024-11-25_12h52.05.077,Attention_exp_legacy,2023.1.0,Win32,59.88023952,,,,,,,,,,,,,,,,,,,,,,,,,,,,,,,,,,,,,,,,,,,,,,,,,,,,,,,,
,,,,,,,0.341666667,-0.331481481,1,0,0,,0,20,20,15,1,0.33,-0.33,26,001,2024-11-25_12h52.05.077,Attention_exp_legacy,2023.1.0,Win32,59.88023952,,,,,,,,,,,,,,,,,,,,,,,,,,,,,,,,,,,,,,,,,,,,,,,,,,,,,,,,
,,,,,,,,,,,,,,,,,,,,26,001,2024-11-25_12h52.05.077,Attention_exp_legacy,2023.1.0,Win32,59.88023952,"[1920,1080]","[640,480]",[0.05520833333333333],[-0.5018518518518519],[1],[0],[0],[1.3275000000000006],"[""StartButton""]",[0.17395833333333333],[0.6148148148148148],[1],[0],[0],[7.634799999997021],"[""Metro_label""]",Metro_label,1,8.6471,"[[-0.25104166666666666,0.3925925925925926],[-0.25104166666666666,0.3925925925925926],[-0.25104166666666666,0.3925925925925926],[-0.25104166666666666,0.3925925925925926],[-0.25104166666666666,0.3925925925925926],[-0.25104166666666666,0.3925925925925926],[-0.25104166666666666,0.3925925925925926],[-0.25104166666666666,0.3925925925925926],[-0.25104166666666666,0.3925925925925926],[-0.25104166666666666,0.3925925925925926],[-0.25104166666666666,0.3925925925925926],[-0.25104166666666666,0.3925925925925926],[-0.25104166666666666,0.3925925925925926],[-0.25104166666666666,0.3925925925925926],[-0.25104166666666666,0.3925925925925926],[-0.25104166666666666,0.3925925925925926],[-0.25104166666666666,0.3925925925925926],[-0.25104166666666666,0.3925925925925926],[-0.25104166666666666,0.3925925925925926],[-0.25104166666666666,0.3925925925925926],[-0.25104166666666666,0.3925925925925926],[-0.25104166666666666,0.3925925925925926],[-0.25104166666666666,0.3925925925925926],[-0.25104166666666666,0.3925925925925926],[-0.25104166666666666,0.3925925925925926],[-0.25104166666666666,0.3925925925925926],[-0.25104166666666666,0.3925925925925926],[-0.25104166666666666,0.3925925925925926],[-0.25104166666666666,0.3925925925925926],[-0.25104166666666666,0.3925925925925926],[-0.25104166666666666,0.3925925925925926],[-0.25104166666666666,0.3925925925925926],[-0.25104166666666666,0.3925925925925926],[-0.25104166666666666,0.3925925925925926],[-0.25104166666666666,0.3925925925925926],[-0.25104166666666666,0.3925925925925926],[-0.25104166666666666,0.3925925925925926],[-0.25104166666666666,0.3925925925925926],[-0.25104166666666666,0.3925925925925926],[-0.25104166666666666,0.3925925925925926],[-0.25104166666666666,0.3925925925925926],[-0.25104166666666666,0.3925925925925926],[-0.25104166666666666,0.3925925925925926],[-0.25104166666666666,0.3925925925925926],[-0.25104166666666666,0.3925925925925926],[-0.25104166666666666,0.3925925925925926],[-0.25104166666666666,0.3925925925925926],[-0.25104166666666666,0.3925925925925926],[-0.25104166666666666,0.3925925925925926],[-0.25104166666666666,0.3925925925925926],[-0.25104166666666666,0.3925925925925926],[-0.25104166666666666,0.3925925925925926],[-0.25104166666666666,0.3925925925925926],[-0.25104166666666666,0.3925925925925926],[-0.25104166666666666,0.3925925925925926],[-0.25104166666666666,0.3925925925925926],[-0.25104166666666666,0.3925925925925926],[-0.25104166666666666,0.3925925925925926],[-0.25104166666666666,0.3925925925925926],[-0.25104166666666666,0.3925925925925926],[-0.25104166666666666,0.3925925925925926],[-0.25104166666666666,0.3925925925925926],[-0.25104166666666666,0.3925925925925926],[-0.25104166666666666,0.3925925925925926],[-0.25104166666666666,0.3925925925925926],[-0.25104166666666666,0.3925925925925926],[-0.25104166666666666,0.3925925925925926],[-0.25104166666666666,0.3925925925925926],[-0.25104166666666666,0.3925925925925926],[-0.25104166666666666,0.3925925925925926],[-0.25104166666666666,0.3925925925925926],[-0.25104166666666666,0.3925925925925926],[-0.25104166666666666,0.3925925925925926],[-0.25104166666666666,0.3925925925925926],[-0.25104166666666666,0.3925925925925926],[-0.25104166666666666,0.3925925925925926],[-0.25104166666666666,0.3925925925925926],[-0.25104166666666666,0.3925925925925926],[-0.25104166666666666,0.3925925925925926],[-0.25104166666666666,0.3925925925925926],[-0.25104166666666666,0.3925925925925926],[-0.25104166666666666,0.3925925925925926],[-0.25104166666666666,0.3925925925925926],[-0.25104166666666666,0.3925925925925926],[-0.25104166666666666,0.3925925925925926],[-0.25104166666666666,0.3925925925925926],[-0.25104166666666666,0.3925925925925926],[-0.25104166666666666,0.3925925925925926],[-0.25104166666666666,0.3925925925925926],[-0.25104166666666666,0.3925925925925926],[-0.25104166666666666,0.3925925925925926],[-0.25104166666666666,0.3925925925925926],[-0.25104166666666666,0.3925925925925926],[-0.25104166666666666,0.3925925925925926],[-0.25104166666666666,0.3925925925925926],[-0.25104166666666666,0.37777777777777777],[-0.25104166666666666,0.362962962962963],[-0.24895833333333334,0.3425925925925926],[-0.24583333333333332,0.31851851851851853],[-0.24375,0.30185185185185187],[-0.24166666666666667,0.2814814814814815],[-0.240625,0.26481481481481484],[-0.23958333333333334,0.2537037037037037],[-0.23645833333333333,0.24074074074074073],[-0.23229166666666667,0.22592592592592592],[-0.21979166666666666,0.19444444444444445],[-0.2125,0.17777777777777778],[-0.20416666666666666,0.16296296296296298],[-0.196875,0.1537037037037037],[-0.190625,0.14629629629629629],[-0.18125,0.13703703703703704],[-0.17291666666666666,0.13148148148148148],[-0.1625,0.12777777777777777],[-0.15208333333333332,0.1259259259259259],[-0.14166666666666666,0.12037037037037036],[-0.12708333333333333,0.12037037037037036],[-0.11354166666666667,0.12037037037037036],[-0.08958333333333333,0.11851851851851852],[-0.06875,0.1111111111111111],[-0.04375,0.10925925925925926],[-0.019791666666666666,0.10925925925925926],[0.003125,0.10925925925925926],[0.026041666666666668,0.10740740740740741],[0.04375,0.1037037037037037],[0.059375,0.10185185185185185],[0.07395833333333333,0.1],[0.0875,0.1],[0.1125,0.1],[0.12708333333333333,0.09814814814814815],[0.1375,0.09814814814814815],[0.14583333333333334,0.09814814814814815],[0.15,0.09814814814814815],[0.153125,0.09814814814814815],[0.15625,0.09814814814814815],[0.15729166666666666,0.09814814814814815],[0.15729166666666666,0.09814814814814815],[0.15729166666666666,0.09814814814814815],[0.15729166666666666,0.09814814814814815],[0.15729166666666666,0.09814814814814815],[0.15729166666666666,0.09814814814814815],[0.15729166666666666,0.09814814814814815],[0.15729166666666666,0.09814814814814815],[0.15729166666666666,0.09814814814814815],[0.15729166666666666,0.09814814814814815],[0.15729166666666666,0.09814814814814815],[0.15729166666666666,0.09814814814814815],[0.15729166666666666,0.09814814814814815],[0.159375,0.09814814814814815],[0.16145833333333334,0.09444444444444444],[0.1625,0.09259259259259259],[0.165625,0.09074074074074075],[0.16979166666666667,0.08703703703703704],[0.18958333333333333,0.07222222222222222],[0.196875,0.05925925925925926],[0.196875,0.046296296296296294],[0.196875,0.03333333333333333],[0.19583333333333333,0.024074074074074074],[0.19270833333333334,0.009259259259259259],[0.1875,-0.009259259259259259],[0.18020833333333333,-0.025925925925925925],[0.171875,-0.04259259259259259],[0.1625,-0.05555555555555555],[0.153125,-0.06851851851851852],[0.14166666666666666,-0.08148148148148149],[0.12604166666666666,-0.08888888888888889],[0.09166666666666666,-0.10185185185185185],[0.051041666666666666,-0.1259259259259259],[0.021875,-0.13333333333333333],[-0.003125,-0.13333333333333333],[-0.028125,-0.13333333333333333],[-0.051041666666666666,-0.13333333333333333],[-0.07395833333333333,-0.13333333333333333],[-0.090625,-0.13333333333333333],[-0.09895833333333333,-0.13333333333333333],[-0.10625,-0.13333333333333333],[-0.115625,-0.13703703703703704],[-0.11875,-0.13703703703703704],[-0.121875,-0.1388888888888889],[-0.12395833333333334,-0.14074074074074075],[-0.125,-0.14074074074074075],[-0.12604166666666666,-0.1425925925925926],[-0.12604166666666666,-0.1425925925925926],[-0.12604166666666666,-0.1425925925925926],[-0.12604166666666666,-0.1425925925925926],[-0.12604166666666666,-0.1425925925925926],[-0.12604166666666666,-0.1425925925925926],[-0.12604166666666666,-0.1425925925925926],[-0.12604166666666666,-0.1425925925925926],[-0.12395833333333334,-0.14444444444444443],[-0.11666666666666667,-0.14629629629629629],[-0.10520833333333333,-0.14814814814814814],[-0.09375,-0.1537037037037037],[-0.0875,-0.15555555555555556],[-0.08125,-0.15555555555555556],[-0.07604166666666666,-0.1574074074074074],[-0.06458333333333334,-0.1574074074074074],[-0.042708333333333334,-0.1574074074074074],[-0.030208333333333334,-0.1574074074074074],[-0.027083333333333334,-0.1574074074074074],[-0.020833333333333332,-0.1574074074074074],[-0.015625,-0.16111111111111112],[-0.005208333333333333,-0.16111111111111112],[0,-0.16111111111111112],[0.003125,-0.16111111111111112],[0.00625,-0.16111111111111112],[0.009375,-0.16111111111111112],[0.011458333333333333,-0.16111111111111112],[0.013541666666666667,-0.16111111111111112],[0.015625,-0.16296296296296298],[0.015625,-0.16296296296296298],[0.01875,-0.16296296296296298],[0.01875,-0.16296296296296298],[0.022916666666666665,-0.16296296296296298],[0.027083333333333334,-0.15925925925925927],[0.03229166666666667,-0.15185185185185185],[0.0375,-0.14444444444444443],[0.04375,-0.12777777777777777],[0.05,-0.11296296296296296],[0.05625,-0.09814814814814815],[0.06145833333333333,-0.08333333333333333],[0.06666666666666667,-0.06666666666666667],[0.07291666666666667,-0.046296296296296294],[0.08541666666666667,-0.005555555555555556],[0.08854166666666667,0.003703703703703704],[0.09791666666666667,0.03888888888888889],[0.10416666666666667,0.07962962962962963],[0.10833333333333334,0.1037037037037037],[0.11145833333333334,0.1259259259259259],[0.115625,0.15555555555555556],[0.11979166666666667,0.17777777777777778],[0.121875,0.19444444444444445],[0.12395833333333334,0.2037037037037037],[0.125,0.2111111111111111],[0.125,0.21851851851851853],[0.12708333333333333,0.22407407407407406],[0.128125,0.2351851851851852],[0.12916666666666668,0.2611111111111111],[0.134375,0.29259259259259257],[0.140625,0.337037037037037],[0.14895833333333333,0.3888888888888889],[0.15833333333333333,0.4685185185185185],[0.16458333333333333,0.5481481481481482],[0.16666666666666666,0.6166666666666667],[0.16666666666666666,0.65],[0.16666666666666666,0.6611111111111111],[0.16666666666666666,0.662962962962963],[0.16666666666666666,0.662962962962963],[0.16666666666666666,0.662962962962963],[0.16666666666666666,0.662962962962963],[0.16666666666666666,0.662962962962963],[0.16666666666666666,0.662962962962963],[0.16666666666666666,0.662962962962963],[0.16666666666666666,0.662962962962963],[0.16666666666666666,0.662962962962963],[0.16666666666666666,0.662962962962963],[0.16770833333333332,0.662962962962963],[0.16770833333333332,0.662962962962963],[0.16979166666666667,0.662962962962963],[0.17395833333333333,0.65],[0.175,0.6407407407407407],[0.17916666666666667,0.6296296296296297],[0.18125,0.6203703703703703],[0.18125,0.6166666666666667],[0.18125,0.6166666666666667],[0.18125,0.6166666666666667],[0.18125,0.6166666666666667],[0.18125,0.6166666666666667],[0.18125,0.6166666666666667],[0.18125,0.6148148148148148],[0.18125,0.6148148148148148],[0.18125,0.6148148148148148],[0.18125,0.6148148148148148],[0.18125,0.6148148148148148],[0.18125,0.6148148148148148],[0.18125,0.6148148148148148],[0.18125,0.6148148148148148],[0.18125,0.6148148148148148],[0.18125,0.6148148148148148],[0.18125,0.6148148148148148],[0.18125,0.6148148148148148],[0.18125,0.6148148148148148],[0.18125,0.6148148148148148],[0.18125,0.6148148148148148],[0.18125,0.6148148148148148],[0.18125,0.6148148148148148],[0.18125,0.6148148148148148],[0.18125,0.6148148148148148],[0.18125,0.6148148148148148],[0.18125,0.6148148148148148],[0.18125,0.6148148148148148],[0.18125,0.6148148148148148],[0.18125,0.6148148148148148],[0.18125,0.6148148148148148],[0.18125,0.6148148148148148],[0.18125,0.6148148148148148],[0.18125,0.6148148148148148],[0.18125,0.6148148148148148],[0.18125,0.6148148148148148],[0.18125,0.6148148148148148],[0.18125,0.6148148148148148],[0.18125,0.6148148148148148],[0.18125,0.6148148148148148],[0.18125,0.6148148148148148],[0.18125,0.6148148148148148],[0.18125,0.6148148148148148],[0.18125,0.6148148148148148],[0.18125,0.6148148148148148],[0.18125,0.6148148148148148],[0.18125,0.6148148148148148],[0.18125,0.6148148148148148],[0.18125,0.6148148148148148],[0.18125,0.6148148148148148],[0.18125,0.6148148148148148],[0.18125,0.6148148148148148],[0.18125,0.6148148148148148],[0.18125,0.6148148148148148],[0.18125,0.6148148148148148],[0.18125,0.6148148148148148],[0.18125,0.6148148148148148],[0.18125,0.6148148148148148],[0.18125,0.6148148148148148],[0.18125,0.6148148148148148],[0.18125,0.6148148148148148],[0.18125,0.6148148148148148],[0.18125,0.6148148148148148],[0.18125,0.6148148148148148],[0.18125,0.6148148148148148],[0.18125,0.6148148148148148],[0.18125,0.6148148148148148],[0.18125,0.6148148148148148],[0.18125,0.6148148148148148],[0.18125,0.6148148148148148],[0.18125,0.6148148148148148],[0.18125,0.6148148148148148],[0.18125,0.6148148148148148],[0.18125,0.6148148148148148],[0.18125,0.6148148148148148],[0.18125,0.6148148148148148],[0.18125,0.6148148148148148],[0.18125,0.6148148148148148],[0.18125,0.6148148148148148],[0.18125,0.6148148148148148],[0.18125,0.6148148148148148],[0.18125,0.6148148148148148],[0.18125,0.6148148148148148],[0.18125,0.6148148148148148],[0.18125,0.6148148148148148],[0.18125,0.6148148148148148],[0.18125,0.6148148148148148],[0.18125,0.6148148148148148],[0.18125,0.6148148148148148],[0.18125,0.6148148148148148],[0.18125,0.6148148148148148],[0.18125,0.6148148148148148],[0.18125,0.6148148148148148],[0.18125,0.6148148148148148],[0.18125,0.6148148148148148],[0.18125,0.6148148148148148],[0.18125,0.6148148148148148],[0.18125,0.6148148148148148],[0.18125,0.6148148148148148],[0.18125,0.6148148148148148],[0.18125,0.6148148148148148],[0.18125,0.6148148148148148],[0.18125,0.6148148148148148],[0.18125,0.6148148148148148],[0.18125,0.6148148148148148],[0.18125,0.6148148148148148],[0.18125,0.6148148148148148],[0.18125,0.6148148148148148],[0.18125,0.6148148148148148],[0.18125,0.6148148148148148],[0.18125,0.6148148148148148],[0.18125,0.6148148148148148],[0.18125,0.6148148148148148],[0.18125,0.6148148148148148],[0.18125,0.6148148148148148],[0.178125,0.6148148148148148],[0.17604166666666668,0.6148148148148148],[0.175,0.6148148148148148],[0.17395833333333333,0.6148148148148148],[0.17395833333333333,0.6148148148148148],[0.17395833333333333,0.6148148148148148],[0.17395833333333333,0.6148148148148148],[0.17395833333333333,0.6148148148148148],[0.17395833333333333,0.6148148148148148],[0.17395833333333333,0.6148148148148148],[0.17395833333333333,0.6148148148148148],[0.17395833333333333,0.6148148148148148],[0.17395833333333333,0.6148148148148148],[0.17395833333333333,0.6148148148148148],[0.17395833333333333,0.6148148148148148],[0.17395833333333333,0.6148148148148148],[0.17395833333333333,0.6148148148148148],[0.17395833333333333,0.6148148148148148],[0.17395833333333333,0.6148148148148148],[0.17395833333333333,0.6148148148148148],[0.17395833333333333,0.6148148148148148],[0.17395833333333333,0.6148148148148148],[0.17395833333333333,0.6148148148148148],[0.17395833333333333,0.6148148148148148],[0.17395833333333333,0.6148148148148148],[0.17395833333333333,0.6148148148148148],[0.17395833333333333,0.6148148148148148],[0.17395833333333333,0.6148148148148148],[0.17395833333333333,0.6148148148148148],[0.17395833333333333,0.6148148148148148],[0.17395833333333333,0.6148148148148148],[0.17395833333333333,0.6148148148148148],[0.17395833333333333,0.6148148148148148],[0.17395833333333333,0.6148148148148148],[0.17395833333333333,0.6148148148148148],[0.17395833333333333,0.6148148148148148],[0.17395833333333333,0.6148148148148148],[0.17395833333333333,0.6148148148148148],[0.17395833333333333,0.6148148148148148],[0.17395833333333333,0.6148148148148148],[0.17395833333333333,0.6148148148148148],[0.17395833333333333,0.6148148148148148],[0.17395833333333333,0.6148148148148148],[0.17395833333333333,0.6148148148148148],[0.17395833333333333,0.6148148148148148],[0.17395833333333333,0.6148148148148148],[0.17395833333333333,0.6148148148148148],[0.17395833333333333,0.6148148148148148],[0.17395833333333333,0.6148148148148148],[0.17395833333333333,0.6148148148148148],[0.17395833333333333,0.6148148148148148],[0.17395833333333333,0.6148148148148148],[0.17395833333333333,0.6148148148148148],[0.17395833333333333,0.6148148148148148],[0.17395833333333333,0.6148148148148148],[0.17395833333333333,0.6148148148148148],[0.17395833333333333,0.6148148148148148],[0.17395833333333333,0.6148148148148148],[0.17395833333333333,0.6148148148148148],[0.17395833333333333,0.6148148148148148],[0.17395833333333333,0.6148148148148148],[0.17395833333333333,0.6148148148148148],[0.17395833333333333,0.6148148148148148],[0.17395833333333333,0.6148148148148148],[0.17395833333333333,0.6148148148148148],[0.17395833333333333,0.6148148148148148],[0.17395833333333333,0.6148148148148148],[0.17395833333333333,0.6148148148148148],[0.17395833333333333,0.6148148148148148],[0.17395833333333333,0.6148148148148148],[0.17395833333333333,0.6148148148148148],[0.17395833333333333,0.6148148148148148],[0.17395833333333333,0.6148148148148148],[0.17395833333333333,0.6148148148148148],[0.17395833333333333,0.6148148148148148],[0.17395833333333333,0.6148148148148148],[0.17395833333333333,0.6148148148148148],[0.17395833333333333,0.6148148148148148],[0.17395833333333333,0.6148148148148148],[0.17395833333333333,0.6148148148148148],[0.17395833333333333,0.6148148148148148],[0.17395833333333333,0.6148148148148148],[0.17395833333333333,0.6148148148148148],[0.17395833333333333,0.6148148148148148],[0.17395833333333333,0.6148148148148148],[0.17395833333333333,0.6148148148148148],[0.17395833333333333,0.6148148148148148],[0.17395833333333333,0.6148148148148148],[0.17395833333333333,0.6148148148148148],[0.17395833333333333,0.6148148148148148],[0.17395833333333333,0.6148148148148148],[0.17395833333333333,0.6148148148148148],[0.17395833333333333,0.6148148148148148],[0.17395833333333333,0.6148148148148148],[0.17395833333333333,0.6148148148148148],[0.17395833333333333,0.6148148148148148],[0.17395833333333333,0.6148148148148148],[0.17395833333333333,0.6148148148148148],[0.17395833333333333,0.6148148148148148],[0.17395833333333333,0.6148148148148148],[0.17395833333333333,0.6148148148148148],[0.17395833333333333,0.6148148148148148],[0.17395833333333333,0.6148148148148148],[0.17395833333333333,0.6148148148148148],[0.17395833333333333,0.6148148148148148],[0.17395833333333333,0.6148148148148148],[0.17395833333333333,0.6148148148148148],[0.17395833333333333,0.6148148148148148],[0.17395833333333333,0.6148148148148148],[0.17395833333333333,0.6148148148148148],[0.17395833333333333,0.6148148148148148],[0.17395833333333333,0.6148148148148148],[0.17395833333333333,0.6148148148148148],[0.17395833333333333,0.6148148148148148],[0.17395833333333333,0.6148148148148148],[0.17395833333333333,0.6148148148148148],[0.17395833333333333,0.6148148148148148],[0.17395833333333333,0.6148148148148148],[0.17395833333333333,0.6148148148148148],[0.17395833333333333,0.6148148148148148],[0.17395833333333333,0.6148148148148148],[0.17395833333333333,0.6148148148148148],[0.17395833333333333,0.6148148148148148],[0.17395833333333333,0.6148148148148148],[0.17395833333333333,0.6148148148148148],[0.17395833333333333,0.6148148148148148],[0.17395833333333333,0.6148148148148148],[0.17395833333333333,0.6148148148148148],[0.17395833333333333,0.6148148148148148],[0.17395833333333333,0.6148148148148148],[0.17395833333333333,0.6148148148148148],[0.17395833333333333,0.6148148148148148],[0.17395833333333333,0.6148148148148148],[0.17395833333333333,0.6148148148148148],[0.17395833333333333,0.6148148148148148],[0.17395833333333333,0.6148148148148148],[0.17395833333333333,0.6148148148148148],[0.17395833333333333,0.6148148148148148],[0.17395833333333333,0.6148148148148148],[0.17395833333333333,0.6148148148148148],[0.17395833333333333,0.6148148148148148]]","[[0.06875,0.014814814814814815],[0.06875,0.014814814814814815],[0.06114583333333338,-0.011481481481481566],[0.07645833333333343,0.034074074074074034],[0.09177083333333323,0.07962962962962963],[0.06739583333333338,0.09092592592592597],[0.05916666666666662,0.10574074074074079],[0.02802083333333331,0.13481481481481472],[-0.012916666666666642,0.23833333333333342],[-0.058749999999999976,0.3472222222222222],[-0.09145833333333328,0.4353703703703704],[-0.14333333333333337,0.5275925925925925],[-0.18885416666666663,0.6155555555555555],[-0.22281249999999997,0.6422222222222221],[-0.2509375,0.6275925925925926],[-0.25427083333333333,0.6268518518518519],[-0.2345833333333334,0.5955555555555556],[-0.20979166666666665,0.5659259259259259],[-0.16052083333333336,0.48629629629629634],[-0.10010416666666669,0.43074074074074076],[-0.04093749999999995,0.3742592592592593],[0.01729166666666669,0.38499999999999995],[0.06083333333333331,0.40333333333333327],[0.11197916666666667,0.4083333333333333],[0.15729166666666666,0.4546296296296296],[0.2078125,0.4935185185185185],[0.22843749999999996,0.5618518518518518],[0.24718749999999995,0.6224074074074074],[0.24947916666666667,0.6679629629629631],[0.2428124999999999,0.6794444444444444],[0.25145833333333345,0.6875925925925925],[0.2652083333333332,0.6488888888888888],[0.2660416666666668,0.5862962962962963],[0.24895833333333334,0.4714814814814815],[0.20927083333333343,0.3562962962962963],[0.16437499999999997,0.2485185185185186],[0.1328125,0.13351851851851856],[0.09802083333333324,0.024629629629629547],[0.07791666666666662,-0.09092592592592597],[0.05354166666666664,-0.172037037037037],[0.04760416666666671,-0.26055555555555554],[0.0375,-0.36944444444444446],[0.03864583333333336,-0.4425925925925926],[0.05010416666666669,-0.42592592592592593],[0.08208333333333329,-0.40703703703703703],[0.13395833333333323,-0.39537037037037037],[0.1586458333333333,-0.3896296296296296],[0.18427083333333344,-0.3814814814814815],[0.20645833333333338,-0.36925925925925923],[0.23208333333333328,-0.36870370370370376],[0.22999999999999995,-0.367037037037037],[0.22999999999999995,-0.367037037037037],[0.22583333333333327,-0.38851851851851854],[0.23208333333333328,-0.41074074074074074],[0.23833333333333329,-0.432962962962963],[0.24666666666666662,-0.4570370370370371],[0.23072916666666668,-0.4722222222222222],[0.23364583333333327,-0.48462962962962963],[0.23364583333333327,-0.48462962962962963],[0.1993750000000001,-0.5405555555555556],[0.1834374999999999,-0.585],[0.18093750000000006,-0.5931481481481482],[0.12291666666666666,-0.571111111111111],[0.06697916666666662,-0.5259259259259259],[0.0067708333333333336,-0.47555555555555556],[-0.05343749999999995,-0.4251851851851852],[-0.11114583333333337,-0.3937037037037037],[-0.16343749999999999,-0.35537037037037034],[-0.21604166666666663,-0.2946296296296297],[-0.24166666666666667,-0.21444444444444447],[-0.2951041666666666,-0.15259259259259256],[-0.33468749999999997,-0.10388888888888893],[-0.31875,-0.08537037037037042],[-0.30520833333333336,-0.07314814814814814],[-0.3177083333333333,-0.07796296296296301],[-0.3134375,-0.0742592592592593],[-0.33468749999999997,-0.03462962962962971],[-0.3338541666666667,-0.03722222222222227],[-0.3355208333333334,-0.049629629629629544],[-0.3251041666666667,-0.052962962962963],[-0.33916666666666667,-0.02166666666666675],[-0.36291666666666667,0.022037037037036994],[-0.380625,0.10092592592592593],[-0.39510416666666665,0.18277777777777787],[-0.3945833333333333,0.24444444444444444],[-0.41437499999999994,0.30388888888888893],[-0.37562500000000004,0.285],[-0.3757291666666667,0.32759259259259255],[-0.3570833333333333,0.3346296296296297],[-0.34125,0.35425925925925916],[-0.2719791666666667,0.35833333333333334],[-0.2139583333333333,0.33907407407407414],[-0.15531250000000002,0.35259259259259257],[-0.12760416666666666,0.3177777777777778],[-0.12760416666666666,0.3177777777777778],[-0.08697916666666666,0.3487037037037036],[-0.08697916666666666,0.3487037037037036],[-0.021979166666666692,0.2616666666666666],[0.03312499999999995,0.2403703703703703],[0.12531249999999997,0.2094444444444445],[0.11416666666666657,0.17629629629629637],[0.1296875,0.12018518518518514],[0.11624999999999991,0.044999999999999915],[0.07999999999999995,-0.0035185185185184764],[0.05635416666666669,-0.18425925925925926],[0.05635416666666669,-0.18425925925925926],[0.06499999999999997,-0.21722222222222223],[0.043333333333333356,-0.3466666666666666],[0.025520833333333333,-0.37351851851851847],[-0.020729166666666642,-0.37111111111111106],[-0.10447916666666662,-0.39592592592592596],[-0.0967708333333333,-0.41148148148148145],[-0.1141666666666667,-0.3516666666666666],[-0.12250000000000003,-0.26537037037037037],[-0.10687500000000003,-0.24685185185185188],[-0.11052083333333336,-0.16407407407407412],[-0.12052083333333338,-0.1551851851851852],[-0.09406249999999995,-0.11685185185185189],[-0.09229166666666669,-0.06944444444444445],[-0.06416666666666669,-0.04277777777777782],[-0.030104166666666644,-0.003703703703703704],[-0.030104166666666644,-0.003703703703703704],[-0.022604166666666713,0.023333333333333376],[-0.015208333333333357,0.030740740740740784],[-0.016875000000000046,0.011666666666666582],[0.008229166666666643,-0.004629629629629629],[0.04645833333333336,0.01185185185185181],[0.06770833333333333,-0.013333333333333417],[0.0743750000000001,-0.013518518518518435],[0.08104166666666662,-0.013703703703703662],[0.07000000000000005,-0.0418518518518519],[0.07114583333333328,-0.06092592592592588],[0.08562500000000005,-0.04018518518518527],[0.09864583333333338,-0.052222222222222205],[0.140625,-0.07222222222222222],[0.15812499999999996,-0.05481481481481486],[0.12166666666666662,-0.022777777777777692],[0.10635416666666657,0.028703703703703703],[0.06687500000000005,0.06481481481481481],[0.04624999999999998,0.06333333333333342],[0.043437500000000046,0.0492592592592593],[-0.01260416666666669,0.08518518518518518],[-0.09302083333333329,0.11018518518518519],[-0.16010416666666671,0.11796296296296305],[-0.16010416666666671,0.11796296296296305],[-0.2514583333333333,0.12629629629629638],[-0.3490625,0.11722222222222214],[-0.4421875,0.05759259259259263],[-0.4715625,0.02814814814814823],[-0.500625,-0.020185185185185143],[-0.5289583333333333,-0.01574074074074074],[-0.5267708333333333,-0.009999999999999959],[-0.46291666666666664,-0.03555555555555564],[-0.378125,-0.06851851851851852],[-0.33229166666666665,-0.06259259259259262],[-0.24447916666666672,-0.02907407407407416],[-0.1782291666666667,0.0005555555555554713],[-0.06968749999999997,0.045740740740740825],[-0.058749999999999976,0.07925925925925917],[-0.035312499999999976,0.1814814814814815],[0.03260416666666662,0.21740740740740735],[0.030208333333333334,0.26222222222222225],[0.00927083333333331,0.2716666666666668],[0.0009374999999999763,0.2875925925925925],[0.042916666666666714,0.27537037037037043],[0.004270833333333357,0.24814814814814815],[-0.015312500000000047,0.24000000000000005],[-0.05343749999999995,0.1816666666666667],[-0.05343749999999995,0.1816666666666667],[-0.03125,0.15203703703703708],[-0.013229166666666714,0.06870370370370374],[-0.01604166666666664,0.10333333333333325],[-0.03291666666666669,0.10240740740740732],[-0.029375000000000047,0.11388888888888889],[-0.03427083333333331,0.11500000000000005],[-0.06218750000000005,0.1337037037037038],[-0.027395833333333286,0.18425925925925926],[0.016145833333333335,0.23703703703703705],[0.019583333333333286,0.30999999999999994],[0.011249999999999953,0.3725925925925927],[0.022291666666666644,0.4338888888888888],[-0.009895833333333333,0.42833333333333323],[-0.02041666666666669,0.4514814814814814],[-0.043229166666666666,0.46648148148148144],[-0.03291666666666669,0.5118518518518518],[-0.049270833333333285,0.5344444444444445],[-0.0702083333333333,0.5346296296296297],[-0.08739583333333331,0.5224074074074074],[-0.004062499999999977,0.5675925925925925],[-0.004062499999999977,0.5675925925925925],[0.05281250000000005,0.5874074074074075],[0.1040625000000001,0.6216666666666667],[0.1553124999999999,0.655925925925926],[0.17666666666666658,0.64],[0.19802083333333323,0.6240740740740741],[0.17072916666666677,0.57],[0.16864583333333344,0.5474074074074075],[0.1584374999999999,0.505925925925926],[0.14447916666666671,0.47685185185185186],[0.08562500000000005,0.4535185185185185],[0.08562500000000005,0.4535185185185185],[0.03166666666666664,0.38685185185185184],[-0.018124999999999978,0.330925925925926],[-0.018124999999999978,0.330925925925926],[-0.060104166666666715,0.25203703703703706],[-0.05947916666666669,0.247037037037037],[-0.05947916666666669,0.247037037037037],[-0.08260416666666662,0.23481481481481473],[-0.040625,0.2609259259259259],[0.001145833333333357,0.26722222222222214],[0.02374999999999995,0.24962962962962953],[0.043958333333333384,0.26129629629629636],[0.06124999999999995,0.22740740740740734],[0.08177083333333333,0.20555555555555555],[0.09239583333333339,0.1824074074074074],[0.09260416666666677,0.1551851851851851],[0.08864583333333324,0.12851851851851848],[0.14395833333333338,0.15037037037037046],[0.12750000000000009,0.1331481481481481],[0.11927083333333334,0.13148148148148148],[0.11416666666666657,0.1579629629629629],[0.10645833333333338,0.10388888888888893],[0.09874999999999995,0.04981481481481477],[0.11531250000000005,-0.0016666666666666245],[0.1414583333333333,-0.05925925925925926],[0.1414583333333333,-0.05925925925925926],[0.15114583333333323,-0.052222222222222205],[0.15614583333333343,-0.014814814814814815],[0.13760416666666658,-0.03259259259259263],[0.14406249999999995,-0.05944444444444449],[0.14406249999999995,-0.11259259259259262],[0.14406249999999995,-0.16574074074074074],[0.14406249999999995,-0.16574074074074074],[0.1397916666666667,-0.17240740740740745],[0.13270833333333343,-0.19944444444444442],[0.11937499999999991,-0.2116666666666667],[0.1009375000000001,-0.21074074074074076],[0.1224999999999999,-0.2264814814814815],[0.14874999999999997,-0.27259259259259255],[0.1586458333333333,-0.3122222222222223],[0.17416666666666672,-0.32388888888888884],[0.15927083333333342,-0.33111111111111113],[0.1443749999999999,-0.3383333333333333],[0.16302083333333334,-0.35055555555555556],[0.18447916666666658,-0.3424074074074074],[0.17822916666666658,-0.3375925925925926],[0.184375,-0.36314814814814816],[0.16864583333333344,-0.37666666666666665],[0.15291666666666662,-0.3901851851851852],[0.1415625000000001,-0.3962962962962963],[0.12114583333333329,-0.4487037037037037],[0.12104166666666671,-0.4855555555555555],[0.1330208333333334,-0.4962962962962963],[0.12072916666666676,-0.49722222222222223],[0.10270833333333323,-0.5224074074074074],[0.09802083333333324,-0.5418518518518519],[0.08781249999999995,-0.5075925925925926],[0.08781249999999995,-0.5075925925925926],[0.08322916666666676,-0.5177777777777778],[0.07208333333333337,-0.5314814814814814],[0.07208333333333337,-0.5314814814814814],[0.07833333333333338,-0.5140740740740741],[0.06375000000000004,-0.39740740740740743],[0.06375000000000004,-0.39740740740740743],[0.024374999999999977,-0.24166666666666667],[-0.033749999999999974,-0.12462962962962965],[-0.09187500000000005,-0.007592592592592635],[-0.08531249999999997,0.03925925925925934],[-0.09458333333333328,0.14222222222222214],[-0.07947916666666661,0.12462962962962955],[-0.07406250000000002,0.14574074074074084],[-0.04583333333333333,0.18907407407407412],[-0.030624999999999975,0.19592592592592584],[0.010104166666666714,0.1551851851851851],[0.06749999999999995,0.08592592592592588],[0.13708333333333325,-0.013888888888888888],[0.21416666666666656,-0.0301851851851851],[0.23229166666666667,0.04796296296296292],[0.2585416666666667,0.07314814814814814],[0.2586458333333333,0.1824074074074074],[0.2665625000000001,0.24981481481481477],[0.27197916666666655,0.3066666666666667],[0.27197916666666655,0.3066666666666667],[0.2560416666666666,0.3162962962962962],[0.27583333333333326,0.2825925925925926],[0.30145833333333344,0.25759259259259265],[0.33697916666666666,0.2803703703703703],[0.3334374999999999,0.16500000000000004],[0.35822916666666677,0.0742592592592593],[0.3651041666666667,-0.03537037037037041],[0.39260416666666675,-0.1227777777777778],[0.403125,-0.17333333333333337],[0.41593749999999996,-0.2212962962962963],[0.4382291666666667,-0.2381481481481482],[0.43864583333333323,-0.23074074074074077],[0.43864583333333323,-0.23074074074074077],[0.4554166666666667,-0.2537037037037037],[0.46822916666666664,-0.2368518518518518],[0.5238541666666667,-0.205],[0.5481250000000001,-0.192037037037037],[0.5821875000000001,-0.17185185185185187],[0.5943749999999999,-0.16129629629629633],[0.6055208333333333,-0.18592592592592588],[0.6148958333333333,-0.20111111111111116],[0.5984375,-0.23203703703703707],[0.5868750000000001,-0.2433333333333333],[0.5462500000000001,-0.25703703703703706],[0.5107291666666666,-0.31351851851851853],[0.44895833333333335,-0.3622222222222223],[0.3814583333333334,-0.41092592592592586],[0.3219791666666666,-0.49240740740740735],[0.3219791666666666,-0.49240740740740735],[0.2795833333333334,-0.5518518518518518],[0.26114583333333335,-0.6062962962962962],[0.2185416666666666,-0.653888888888889],[0.1603125000000001,-0.6525925925925925],[0.0978125000000001,-0.6407407407407407],[0.0978125000000001,-0.6407407407407407],[0.043124999999999976,-0.6425925925925926],[-0.03687499999999998,-0.63],[-0.09624999999999997,-0.5753703703703703],[-0.146875,-0.5264814814814816],[-0.18229166666666666,-0.43037037037037035],[-0.21843750000000003,-0.36629629629629634],[-0.2703125,-0.2911111111111111],[-0.31229166666666663,-0.24296296296296294],[-0.303125,-0.21481481481481482],[-0.29177083333333337,-0.20703703703703705],[-0.3,-0.16407407407407412],[-0.30010416666666667,-0.1542592592592593],[-0.3272916666666667,-0.14092592592592595],[-0.35479166666666667,-0.12999999999999998],[-0.3736458333333334,-0.0992592592592593],[-0.39812500000000006,-0.034999999999999955],[-0.415625,0.026111111111111154],[-0.41520833333333335,0.08537037037037042],[-0.4169791666666666,0.152962962962963],[-0.421875,0.21777777777777782],[-0.37177083333333333,0.20981481481481473],[-0.32572916666666674,0.2625925925925925],[-0.2514583333333333,0.28055555555555556],[-0.175,0.306111111111111],[-0.11458333333333333,0.305925925925926],[-0.0640625,0.3224074074074075],[-0.01864583333333331,0.3333333333333333],[0.011562500000000024,0.33666666666666656],[0.049374999999999974,0.37185185185185177],[0.09833333333333343,0.3987037037037036],[0.11802083333333328,0.45759259259259266],[0.14791666666666667,0.5038888888888889],[0.17531249999999995,0.5672222222222222],[0.20083333333333328,0.6253703703703705],[0.20083333333333328,0.6253703703703705],[0.22927083333333323,0.6755555555555555],[0.25770833333333343,0.6774074074074073],[0.2912499999999999,0.6848148148148148],[0.3195833333333333,0.7072222222222222],[0.3403125000000001,0.6977777777777777],[0.3584374999999999,0.7125925925925926],[0.3870833333333332,0.7312962962962962],[0.4102083333333333,0.718888888888889],[0.4069791666666667,0.7085185185185185],[0.4106250000000001,0.7107407407407407],[0.4234375,0.7133333333333334],[0.4332291666666668,0.6964814814814815],[0.4334374999999999,0.6874074074074075],[0.4361458333333334,0.6727777777777777],[0.42947916666666663,0.6412962962962963],[0.42947916666666663,0.6412962962962963],[0.40510416666666677,0.6005555555555555],[0.39968750000000003,0.6072222222222222],[0.39427083333333335,0.6138888888888889],[0.3974999999999999,0.5694444444444444],[0.4180208333333333,0.5612962962962963],[0.4180208333333333,0.5612962962962963],[0.4054166666666667,0.5011111111111112],[0.37552083333333336,0.419074074074074],[0.35520833333333335,0.3292592592592592],[0.35520833333333335,0.3292592592592592],[0.3400000000000001,0.21907407407407398],[0.3026041666666667,0.0868518518518518],[0.28062500000000007,-0.044999999999999915],[0.23854166666666668,-0.20462962962962963],[0.19812500000000005,-0.3538888888888889],[0.17114583333333327,-0.45],[0.13333333333333333,-0.5981481481481481],[0.1165625000000001,-0.6866666666666666],[0.11895833333333337,-0.7622222222222222],[0.12708333333333333,-0.8059259259259259],[0.14697916666666658,-0.812037037037037],[0.1984375,-0.7792592592592593],[0.2256249999999999,-0.7366666666666667],[0.25281250000000005,-0.6940740740740741],[0.2783333333333334,-0.6618518518518518],[0.2908333333333334,-0.662962962962963],[0.2900000000000001,-0.6609259259259259],[0.29697916666666657,-0.6946296296296297],[0.2978125000000001,-0.6535185185185185],[0.3272916666666667,-0.645],[0.3398958333333333,-0.6537037037037037],[0.3433333333333332,-0.7072222222222222],[0.3556250000000001,-0.7709259259259259],[0.34645833333333326,-0.8270370370370371],[0.3372916666666666,-0.8831481481481481],[0.34343750000000006,-0.8487037037037037],[0.35822916666666677,-0.8740740740740741],[0.3954166666666666,-0.8496296296296296],[0.39697916666666655,-0.8222222222222222],[0.38229166666666664,-0.7498148148148148],[0.37625000000000003,-0.6133333333333333],[0.3711458333333333,-0.4262962962962963],[0.37562499999999993,-0.222037037037037],[0.3953125,-0.03796296296296296],[0.4235416666666666,0.1381481481481482],[0.44947916666666665,0.25703703703703695],[0.4658333333333334,0.4381481481481482],[0.45197916666666677,0.605185185185185],[0.4805208333333333,0.7377777777777778],[0.4904166666666666,0.8262962962962964],[0.49093749999999997,0.8385185185185184],[0.5257291666666667,0.8668518518518519],[0.5509375000000001,0.8779629629629631],[0.5604166666666667,0.8825925925925926],[0.5613541666666667,0.8951851851851852],[0.5495833333333332,0.8851851851851852],[0.5576041666666666,0.9112962962962962],[0.5396874999999999,0.8851851851851852],[0.5223958333333333,0.8351851851851851],[0.5473958333333333,0.8014814814814814],[0.5620833333333333,0.7816666666666667],[0.5507291666666667,0.74],[0.5438541666666665,0.6901851851851852],[0.5589583333333332,0.6594444444444445],[0.5849999999999999,0.6285185185185185],[0.6158333333333333,0.6040740740740742],[0.6308333333333332,0.5694444444444444],[0.6717708333333334,0.587037037037037],[0.7151041666666667,0.5918518518518519],[0.7167708333333332,0.5774074074074074],[0.7459374999999999,0.5949999999999999],[0.7751041666666666,0.6125925925925925],[0.7751041666666666,0.6125925925925925],[0.7997916666666666,0.6383333333333334],[0.8176041666666668,0.6468518518518518],[0.8178124999999999,0.6544444444444444],[0.83,0.6753703703703705],[0.8411458333333334,0.6670370370370371],[0.8522916666666667,0.6587037037037038],[0.8419791666666666,0.6464814814814815],[0.8427083333333333,0.657037037037037],[0.8269791666666667,0.6338888888888888],[0.8139583333333335,0.6122222222222222],[0.8009375000000001,0.5905555555555555],[0.8020833333333334,0.5887037037037036],[0.8172916666666665,0.597037037037037],[0.8322916666666667,0.602037037037037],[0.8453125,0.6079629629629629],[0.8361458333333334,0.6281481481481482],[0.8463541666666666,0.6694444444444444],[0.8256249999999999,0.6759259259259259],[0.8048958333333334,0.6824074074074075],[0.7792708333333332,0.6651851851851853],[0.7618750000000001,0.6407407407407407],[0.7142708333333334,0.6087037037037037],[0.6592708333333335,0.5675925925925925],[0.6004166666666667,0.5325925925925926],[0.5411458333333333,0.4866666666666666],[0.5086458333333332,0.4359259259259259],[0.46864583333333343,0.3603703703703704],[0.4484375,0.2996296296296295],[0.46541666666666665,0.27925925925925915],[0.47604166666666664,0.2692592592592592],[0.47416666666666674,0.2490740740740741],[0.5016666666666666,0.25092592592592594],[0.48760416666666656,0.23203703703703696],[0.4735416666666666,0.2131481481481482],[0.5142708333333333,0.18722222222222226],[0.5421875,0.15851851851851856],[0.5776041666666667,0.15462962962962962],[0.6016666666666666,0.1294444444444444],[0.5885416666666666,0.06388888888888888],[0.5826041666666666,0.012592592592592508],[0.5904166666666666,0.013703703703703662],[0.5721875,-0.04000000000000004],[0.6052083333333333,-0.07111111111111107],[0.6427083333333333,-0.11574074074074074],[0.5989583333333334,-0.16425925925925924],[0.5930208333333333,-0.19425925925925921],[0.59375,-0.21777777777777782],[0.5991666666666667,-0.2264814814814815],[0.6039583333333333,-0.2331481481481481],[0.6094791666666666,-0.24240740740740738],[0.5882291666666667,-0.2733333333333334],[0.5936458333333334,-0.24000000000000005],[0.5503125,-0.16574074074074074],[0.5315624999999999,-0.050370370370370454],[0.4617708333333333,0.06925925925925921],[0.3602083333333333,0.14425925925925923],[0.25760416666666663,0.16018518518518518],[0.1616666666666667,0.18259259259259264],[0.10854166666666672,0.2051851851851851],[0.05687500000000002,0.2361111111111111],[0.022604166666666713,0.27148148148148155],[-0.008645833333333287,0.31296296296296294],[-0.024583333333333356,0.28481481481481474],[-0.013229166666666714,0.23703703703703705],[0.07000000000000005,0.1868518518518518],[0.15593750000000003,0.13277777777777786],[0.2209374999999999,0.10740740740740741],[0.31062500000000004,0.1175925925925926],[0.3150000000000001,0.03944444444444436],[0.34177083333333325,-0.01518518518518527],[0.36843750000000003,-0.08759259259259261],[0.40343749999999995,-0.17092592592592595],[0.44072916666666656,-0.26296296296296295],[0.42166666666666663,-0.362962962962963],[0.42166666666666663,-0.362962962962963],[0.3984375,-0.4448148148148148]]","[[0.06875,0.014814814814814815,0.00029999999701857405],[0.06875,0.014814814814814815,0.04820000000297853],[0.06114583333333338,-0.011481481481481566,0.06099999999999994],[0.07645833333333343,0.034074074074074034,0.07760000000893541],[0.09177083333333323,0.07962962962962963,0.09410000000893604],[0.06739583333333338,0.09092592592592597,0.11070000000297853],[0.05916666666666662,0.10574074074074079,0.12749999999999773],[0.02802083333333331,0.13481481481481472,0.1441000000089403],[-0.012916666666666642,0.23833333333333342,0.1609000000059595],[-0.058749999999999976,0.3472222222222222,0.17740000000596012],[-0.09145833333333328,0.4353703703703704,0.19699999999999562],[-0.14333333333333337,0.5275925925925925,0.21060000000893808],[-0.18885416666666663,0.6155555555555555,0.22740000000595728],[-0.22281249999999997,0.6422222222222221,0.24399999999999977],[-0.2509375,0.6275925925925926,0.2607000000029771],[-0.25427083333333333,0.6268518518518519,0.27740000000595444],[-0.2345833333333334,0.5955555555555556,0.29420000000298074],[-0.20979166666666665,0.5659259259259259,0.31070000000297426],[-0.16052083333333336,0.48629629629629634,0.3274000000059587],[-0.10010416666666669,0.43074074074074076,0.34410000000893604],[-0.04093749999999995,0.3742592592592593,0.36110000000893905],[0.01729166666666669,0.38499999999999995,0.37740000000595586],[0.06083333333333331,0.40333333333333327,0.3941000000089403],[0.11197916666666667,0.4083333333333333,0.4109000000059595],[0.15729166666666666,0.4546296296296296,0.4274000000059601],[0.2078125,0.4935185185185185,0.44410000000893746],[0.22843749999999996,0.5618518518518518,0.4636000000089382],[0.24718749999999995,0.6224074074074074,0.4784999999999968],[0.24947916666666667,0.6679629629629631,0.4941000000089346],[0.2428124999999999,0.6794444444444444,0.510799999997019],[0.25145833333333345,0.6875925925925925,0.5274000000059544],[0.2652083333333332,0.6488888888888888,0.5439999999999969],[0.2660416666666668,0.5862962962962963,0.5607000000029743],[0.24895833333333334,0.4714814814814815,0.5777000000029773],[0.20927083333333343,0.3562962962962963,0.5939999999999941],[0.16437499999999997,0.2485185185185186,0.6107000000029785],[0.1328125,0.13351851851851856,0.6286000000089373],[0.09802083333333324,0.024629629629629547,0.6441000000089403],[0.07791666666666662,-0.09092592592592597,0.6627000000029781],[0.05354166666666664,-0.172037037037037,0.6774999999999949],[0.04760416666666671,-0.26055555555555554,0.6939999999999955],[0.0375,-0.36944444444444446,0.71070000000298],[0.03864583333333336,-0.4425925925925926,0.7272999999970153],[0.05010416666666669,-0.42592592592592593,0.7439999999999998],[0.08208333333333329,-0.40703703703703703,0.760799999997019],[0.13395833333333323,-0.39537037037037037,0.7794999999999987],[0.1586458333333333,-0.3896296296296296,0.7944000000059575],[0.18427083333333344,-0.3814814814814815,0.8106000000089395],[0.20645833333333338,-0.36925925925925923,0.8306000000089355],[0.23208333333333328,-0.36870370370370376,0.845700000002978],[0.22999999999999995,-0.367037037037037,0.861100000008939],[0.22999999999999995,-0.367037037037037,0.8774000000059559],[0.22583333333333327,-0.38851851851851854,0.8939999999999984],[0.23208333333333328,-0.41074074074074074,0.9109000000059595],[0.23833333333333329,-0.432962962962963,0.9309999999999974],[0.24666666666666662,-0.4570370370370371,0.947499999999998],[0.23072916666666668,-0.4722222222222222,0.9644999999999939],[0.23364583333333327,-0.48462962962962963,0.9827999999970203],[0.23364583333333327,-0.48462962962962963,0.9939999999999998],[0.1993750000000001,-0.5405555555555556,1.010700000002977],[0.1834374999999999,-0.585,1.0274999999999963],[0.18093750000000006,-0.5931481481481482,1.043999999999997],[0.12291666666666666,-0.571111111111111,1.0607000000029743],[0.06697916666666662,-0.5259259259259259,1.0772999999970168],[0.0067708333333333336,-0.47555555555555556,1.094100000008936],[-0.05343749999999995,-0.4251851851851852,1.1107000000029785],[-0.11114583333333337,-0.3937037037037037,1.127299999997014],[-0.16343749999999999,-0.35537037037037034,1.1439999999999984],[-0.21604166666666663,-0.2946296296296297,1.1607000000029757],[-0.24166666666666667,-0.21444444444444447,1.1772999999970182],[-0.2951041666666666,-0.15259259259259256,1.1942000000029793],[-0.33468749999999997,-0.10388888888888893,1.21070000000298],[-0.31875,-0.08537037037037042,1.2272999999970153],[-0.30520833333333336,-0.07314814814814814,1.2441000000089346],[-0.3177083333333333,-0.07796296296296301,1.2641000000089377],[-0.3134375,-0.0742592592592593,1.2794999999999987],[-0.33468749999999997,-0.03462962962962971,1.2942000000029807],[-0.3338541666666667,-0.03722222222222227,1.3107000000029743],[-0.3355208333333334,-0.049629629629629544,1.3272999999970168],[-0.3251041666666667,-0.052962962962963,1.343999999999994],[-0.33916666666666667,-0.02166666666666675,1.3619999999999948],[-0.36291666666666667,0.022037037037036994,1.3774000000059559],[-0.380625,0.10092592592592593,1.3939999999999984],[-0.39510416666666665,0.18277777777777787,1.4137000000029758],[-0.3945833333333333,0.24444444444444444,1.4272999999970182],[-0.41437499999999994,0.30388888888888893,1.4441000000089375],[-0.37562500000000004,0.285,1.4639000000059568],[-0.3757291666666667,0.32759259259259255,1.4792999999970178],[-0.3570833333333333,0.3346296296296297,1.4939999999999998],[-0.34125,0.35425925925925916,1.510700000002977],[-0.2719791666666667,0.35833333333333334,1.5272999999970196],[-0.2139583333333333,0.33907407407407414,1.5441000000089389],[-0.15531250000000002,0.35259259259259257,1.5607999999970161],[-0.12760416666666666,0.3177777777777778,1.5805000000000007],[-0.12760416666666666,0.3177777777777778,1.6004999999999967],[-0.08697916666666666,0.3487037037037036,1.618799999997016],[-0.08697916666666666,0.3487037037037036,1.6277000000029744],[-0.021979166666666692,0.2616666666666666,1.644200000002975],[0.03312499999999995,0.2403703703703703,1.6609999999999943],[0.12531249999999997,0.2094444444444445,1.6792000000029788],[0.11416666666666657,0.17629629629629637,1.6942000000029793],[0.1296875,0.12018518518518514,1.7109000000059567],[0.11624999999999991,0.044999999999999915,1.7292999999970178],[0.07999999999999995,-0.0035185185185184764,1.7442000000029765],[0.05635416666666669,-0.18425925925925926,1.7609999999999957],[0.05635416666666669,-0.18425925925925926,1.7792000000029802],[0.06499999999999997,-0.21722222222222223,1.7942000000029807],[0.043333333333333356,-0.3466666666666666,1.810900000005958],[0.025520833333333333,-0.37351851851851847,1.8312999999970145],[-0.020729166666666642,-0.37111111111111106,1.8444999999999965],[-0.10447916666666662,-0.39592592592592596,1.8609000000059552],[-0.0967708333333333,-0.41148148148148145,1.8825000000000003],[-0.1141666666666667,-0.3516666666666666,1.8964000000059613],[-0.12250000000000003,-0.26537037037037037,1.9107999999970176],[-0.10687500000000003,-0.24685185185185188,1.9274999999999949],[-0.11052083333333336,-0.16407407407407412,1.9457000000029794],[-0.12052083333333338,-0.1551851851851852,1.9611000000089405],[-0.09406249999999995,-0.11685185185185189,1.9787999999970154],[-0.09229166666666669,-0.06944444444444445,1.996200000002979],[-0.06416666666666669,-0.04277777777777782,2.010799999997019],[-0.030104166666666644,-0.003703703703703704,2.0274999999999963],[-0.030104166666666644,-0.003703703703703704,2.0442000000029807],[-0.022604166666666713,0.023333333333333376,2.0631000000089372],[-0.015208333333333357,0.030740740740740784,2.0775000000000006],[-0.016875000000000046,0.011666666666666582,2.094200000002978],[0.008229166666666643,-0.004629629629629629,2.1107999999970204],[0.04645833333333336,0.01185185185185181,2.129600000008935],[0.06770833333333333,-0.013333333333333417,2.1484999999999985],[0.0743750000000001,-0.013518518518518435,2.1637999999970177],[0.08104166666666662,-0.013703703703703662,2.177600000008937],[0.07000000000000005,-0.0418518518518519,2.196600000008935],[0.07114583333333328,-0.06092592592592588,2.2109000000059567],[0.08562500000000005,-0.04018518518518527,2.227600000008941],[0.09864583333333338,-0.052222222222222205,2.2466000000089394],[0.140625,-0.07222222222222222,2.2636000000089354],[0.15812499999999996,-0.05481481481481486,2.2772999999970196],[0.12166666666666662,-0.022777777777777692,2.293999999999997],[0.10635416666666657,0.028703703703703703,2.3107000000029743],[0.06687500000000005,0.06481481481481481,2.3272999999970168],[0.04624999999999998,0.06333333333333342,2.344100000008936],[0.043437500000000046,0.0492592592592593,2.3607000000029785],[-0.01260416666666669,0.08518518518518518,2.377400000005956],[-0.09302083333333329,0.11018518518518519,2.3939999999999984],[-0.16010416666666671,0.11796296296296305,2.413700000002976],[-0.16010416666666671,0.11796296296296305,2.427299999997018],[-0.2514583333333333,0.12629629629629638,2.4439999999999955],[-0.3490625,0.11722222222222214,2.46070000000298],[-0.4421875,0.05759259259259263,2.479200000002976],[-0.4715625,0.02814814814814823,2.4942999999970183],[-0.500625,-0.020185185185185143,2.5117000000029748],[-0.5289583333333333,-0.01574074074074074,2.530100000008936],[-0.5267708333333333,-0.009999999999999959,2.5442999999970155],[-0.46291666666666664,-0.03555555555555564,2.561100000008935],[-0.378125,-0.06851851851851852,2.579499999999996],[-0.33229166666666665,-0.06259259259259262,2.594200000002978],[-0.24447916666666672,-0.02907407407407416,2.610999999999997],[-0.1782291666666667,0.0005555555555554713,2.630299999997014],[-0.06968749999999997,0.045740740740740825,2.644299999997017],[-0.058749999999999976,0.07925925925925917,2.6609999999999943],[-0.035312499999999976,0.1814814814814815,2.677600000008937],[0.03260416666666662,0.21740740740740735,2.695900000005956],[0.030208333333333334,0.26222222222222225,2.7109000000059567],[0.00927083333333331,0.2716666666666668,2.727499999999999],[0.0009374999999999763,0.2875925925925925,2.7442000000029765],[0.042916666666666714,0.27537037037037043,2.76460000000894],[0.004270833333333357,0.24814814814814815,2.7794999999999987],[-0.015312500000000047,0.24000000000000005,2.7942999999970155],[-0.05343749999999995,0.1816666666666667,2.8151000000089397],[-0.05343749999999995,0.1816666666666667,2.8275000000000006],[-0.03125,0.15203703703703708,2.844200000002978],[-0.013229166666666714,0.06870370370370374,2.8609000000059552],[-0.01604166666666664,0.10333333333333325,2.881200000002977],[-0.03291666666666669,0.10240740740740732,2.8967999999970147],[-0.029375000000000047,0.11388888888888889,2.9109000000059595],[-0.03427083333333331,0.11500000000000005,2.9314999999999998],[-0.06218750000000005,0.1337037037037038,2.946600000008935],[-0.027395833333333286,0.18425925925925926,2.9616000000089358],[0.016145833333333335,0.23703703703703705,2.98090000000596],[0.019583333333333286,0.30999999999999994,2.996900000005958],[0.011249999999999953,0.3725925925925927,3.010799999997019],[0.022291666666666644,0.4338888888888888,3.0274999999999963],[-0.009895833333333333,0.42833333333333323,3.047200000002981],[-0.02041666666666669,0.4514814814814814,3.0622000000029743],[-0.043229166666666666,0.46648148148148144,3.0772999999970168],[-0.03291666666666669,0.5118518518518518,3.093999999999994],[-0.049270833333333285,0.5344444444444445,3.1106000000089367],[-0.0702083333333333,0.5346296296296297,3.127400000005956],[-0.08739583333333331,0.5224074074074074,3.1477999999970194],[-0.004062499999999977,0.5675925925925925,3.168999999999997],[-0.004062499999999977,0.5675925925925925,3.177499999999995],[0.05281250000000005,0.5874074074074075,3.1942000000029793],[0.1040625000000001,0.6216666666666667,3.2112000000029752],[0.1553124999999999,0.655925925925926,3.2297000000029783],[0.17666666666666658,0.64,3.2456000000089347],[0.19802083333333323,0.6240740740740741,3.263999999999996],[0.17072916666666677,0.57,3.2812999999970174],[0.16864583333333344,0.5474074074074075,3.2974000000059576],[0.1584374999999999,0.505925925925926,3.3134999999999977],[0.14447916666666671,0.47685185185185186,3.32860000000894],[0.08562500000000005,0.4535185185185185,3.3484000000059595],[0.08562500000000005,0.4535185185185185,3.361100000008939],[0.03166666666666664,0.38685185185185184,3.3774999999999977],[-0.018124999999999978,0.330925925925926,3.396600000008938],[-0.018124999999999978,0.330925925925926,3.4109000000059595],[-0.060104166666666715,0.25203703703703706,3.427499999999995],[-0.05947916666666669,0.247037037037037,3.4487000000029795],[-0.05947916666666669,0.247037037037037,3.4609000000059567],[-0.08260416666666662,0.23481481481481473,3.477600000008941],[-0.040625,0.2609259259259259,3.4941000000089346],[0.001145833333333357,0.26722222222222214,3.510700000002977],[0.02374999999999995,0.24962962962962953,3.5304000000059546],[0.043958333333333384,0.26129629629629636,3.5451000000089365],[0.06124999999999995,0.22740740740740734,3.5627000000029767],[0.08177083333333333,0.20555555555555555,3.582600000008938],[0.09239583333333339,0.1824074074074074,3.596999999999994],[0.09260416666666677,0.1551851851851851,3.6131000000089415],[0.08864583333333324,0.12851851851851848,3.6292000000029745],[0.14395833333333338,0.15037037037037046,3.647299999997017],[0.12750000000000009,0.1331481481481481,3.66429999999702],[0.11927083333333334,0.13148148148148148,3.6809000000059555],[0.11416666666666657,0.1579629629629629,3.6977000000029747],[0.10645833333333338,0.10388888888888893,3.711500000000001],[0.09874999999999995,0.04981481481481477,3.729299999997018],[0.11531250000000005,-0.0016666666666666245,3.7442999999970183],[0.1414583333333333,-0.05925925925925926,3.7641000000089377],[0.1414583333333333,-0.05925925925925926,3.7774999999999963],[0.15114583333333323,-0.052222222222222205,3.794100000008939],[0.15614583333333343,-0.014814814814814815,3.811],[0.13760416666666658,-0.03259259259259263,3.831900000005959],[0.14406249999999995,-0.05944444444444449,3.846299999997015],[0.14406249999999995,-0.11259259259259262,3.86340000000596],[0.14406249999999995,-0.16574074074074074,3.8837000000029747],[0.14406249999999995,-0.16574074074074074,3.8941000000089403],[0.1397916666666667,-0.17240740740740745,3.9107999999970176],[0.13270833333333343,-0.19944444444444442,3.9277000000029787],[0.11937499999999991,-0.2116666666666667,3.9471000000089376],[0.1009375000000001,-0.21074074074074076,3.9647000000029777],[0.1224999999999999,-0.2264814814814815,3.982200000002976],[0.14874999999999997,-0.27259259259259255,3.999200000002979],[0.1586458333333333,-0.3122222222222223,4.013700000002977],[0.17416666666666672,-0.32388888888888884,4.02879999999702],[0.15927083333333342,-0.33111111111111113,4.044200000002981],[0.1443749999999999,-0.3383333333333333,4.063900000005958],[0.16302083333333334,-0.35055555555555556,4.07820000000298],[0.18447916666666658,-0.3424074074074074,4.0984000000059595],[0.17822916666666658,-0.3375925925925926,4.115200000002979],[0.184375,-0.36314814814814816,4.130400000005956],[0.16864583333333344,-0.37666666666666665,4.146799999997015],[0.15291666666666662,-0.3901851851851852,4.162600000008936],[0.1415625000000001,-0.3962962962962963,4.17740000000596],[0.12114583333333329,-0.4487037037037037,4.194200000002979],[0.12104166666666671,-0.4855555555555555,4.210600000008938],[0.1330208333333334,-0.4962962962962963,4.227299999997015],[0.12072916666666676,-0.49722222222222223,4.244100000008935],[0.10270833333333323,-0.5224074074074074,4.261799999997017],[0.09802083333333324,-0.5418518518518519,4.280499999999996],[0.08781249999999995,-0.5075925925925926,4.297299999997016],[0.08781249999999995,-0.5075925925925926,4.310799999997016],[0.08322916666666676,-0.5177777777777778,4.327500000000001],[0.07208333333333337,-0.5314814814814814,4.346600000008941],[0.07208333333333337,-0.5314814814814814,4.361700000002976],[0.07833333333333338,-0.5140740740740741,4.37760000000894],[0.06375000000000004,-0.39740740740740743,4.396799999997015],[0.06375000000000004,-0.39740740740740743,4.410600000008941],[0.024374999999999977,-0.24166666666666667,4.42740000000596],[-0.033749999999999974,-0.12462962962962965,4.443900000005961],[-0.09187500000000005,-0.007592592592592635,4.462799999997017],[-0.08531249999999997,0.03925925925925934,4.480799999997018],[-0.09458333333333328,0.14222222222222214,4.4985],[-0.07947916666666661,0.12462962962962955,4.514900000005959],[-0.07406250000000002,0.14574074074074084,4.529900000005959],[-0.04583333333333333,0.18907407407407412,4.543999999999997],[-0.030624999999999975,0.19592592592592584,4.560700000002974],[0.010104166666666714,0.1551851851851851,4.577400000005959],[0.06749999999999995,0.08592592592592588,4.593999999999994],[0.13708333333333325,-0.013888888888888888,4.610600000008937],[0.21416666666666656,-0.0301851851851851,4.629299999997016],[0.23229166666666667,0.04796296296296292,4.643999999999998],[0.2585416666666667,0.07314814814814814,4.660700000002976],[0.2586458333333333,0.1824074074074074,4.677799999997021],[0.2665625000000001,0.24981481481481477,4.693900000005961],[0.27197916666666655,0.3066666666666667,4.719400000005955],[0.27197916666666655,0.3066666666666667,4.729600000008936],[0.2560416666666666,0.3162962962962962,4.744],[0.27583333333333326,0.2825925925925926,4.760700000002977],[0.30145833333333344,0.25759259259259265,4.77729999999702],[0.33697916666666666,0.2803703703703703,4.793999999999997],[0.3334374999999999,0.16500000000000004,4.8106000000089395],[0.35822916666666677,0.0742592592592593,4.827299999997017],[0.3651041666666667,-0.03537037037037041,4.843999999999994],[0.39260416666666675,-0.1227777777777778,4.8607000000029785],[0.403125,-0.17333333333333337,4.877299999997014],[0.41593749999999996,-0.2212962962962963,4.8939000000059565],[0.4382291666666667,-0.2381481481481482,4.910700000002976],[0.43864583333333323,-0.23074074074074077,4.927299999997018],[0.43864583333333323,-0.23074074074074077,4.9439999999999955],[0.4554166666666667,-0.2537037037037037,4.96070000000298],[0.46822916666666664,-0.2368518518518518,4.977299999997015],[0.5238541666666667,-0.205,4.993900000005958],[0.5481250000000001,-0.192037037037037,5.010600000008935],[0.5821875000000001,-0.17185185185185187,5.027200000002978],[0.5943749999999999,-0.16129629629629633,5.047299999997016],[0.6055208333333333,-0.18592592592592588,5.063200000002979],[0.6148958333333333,-0.20111111111111116,5.077400000005959],[0.5984375,-0.23203703703703707,5.093999999999994],[0.5868750000000001,-0.2433333333333333,5.11079999999702],[0.5462500000000001,-0.25703703703703706,5.127299999997014],[0.5107291666666666,-0.31351851851851853,5.14410000000894],[0.44895833333333335,-0.3622222222222223,5.161400000005955],[0.3814583333333334,-0.41092592592592586,5.177299999997018],[0.3219791666666666,-0.49240740740740735,5.1939999999999955],[0.3219791666666666,-0.49240740740740735,5.210600000008938],[0.2795833333333334,-0.5518518518518518,5.227299999997015],[0.26114583333333335,-0.6062962962962962,5.244],[0.2185416666666666,-0.653888888888889,5.260900000005961],[0.1603125000000001,-0.6525925925925925,5.27729999999702],[0.0978125000000001,-0.6407407407407407,5.293999999999997],[0.0978125000000001,-0.6407407407407407,5.3106000000089395],[0.043124999999999976,-0.6425925925925926,5.327299999997017],[-0.03687499999999998,-0.63,5.343900000005959],[-0.09624999999999997,-0.5753703703703703,5.362799999997016],[-0.146875,-0.5264814814814816,5.377299999997014],[-0.18229166666666666,-0.43037037037037035,5.393999999999998],[-0.21843750000000003,-0.36629629629629634,5.410600000008941],[-0.2703125,-0.2911111111111111,5.427499999999995],[-0.31229166666666663,-0.24296296296296294,5.4441000000089375],[-0.303125,-0.21481481481481482,5.463499999999996],[-0.29177083333333337,-0.20703703703703705,5.47940000000596],[-0.3,-0.16407407407407412,5.494],[-0.30010416666666667,-0.1542592592592593,5.510700000002977],[-0.3272916666666667,-0.14092592592592595,5.52729999999702],[-0.35479166666666667,-0.12999999999999998,5.543999999999997],[-0.3736458333333334,-0.0992592592592593,5.560700000002974],[-0.39812500000000006,-0.034999999999999955,5.577400000005959],[-0.415625,0.026111111111111154,5.593999999999994],[-0.41520833333333335,0.08537037037037042,5.6107000000029785],[-0.4169791666666666,0.152962962962963,5.627499999999998],[-0.421875,0.21777777777777782,5.643999999999998],[-0.37177083333333333,0.20981481481481473,5.660700000002976],[-0.32572916666666674,0.2625925925925925,5.677299999997018],[-0.2514583333333333,0.28055555555555556,5.6939999999999955],[-0.175,0.306111111111111,5.710600000008938],[-0.11458333333333333,0.305925925925926,5.727400000005957],[-0.0640625,0.3224074074074075,5.744],[-0.01864583333333331,0.3333333333333333,5.760700000002977],[0.011562500000000024,0.33666666666666656,5.77729999999702],[0.049374999999999974,0.37185185185185177,5.793999999999997],[0.09833333333333343,0.3987037037037036,5.810700000002974],[0.11802083333333328,0.45759259259259266,5.827299999997017],[0.14791666666666667,0.5038888888888889,5.846299999997015],[0.17531249999999995,0.5672222222222222,5.860600000008937],[0.20083333333333328,0.6253703703703705,5.877299999997014],[0.20083333333333328,0.6253703703703705,5.89410000000894],[0.22927083333333323,0.6755555555555555,5.911400000005955],[0.25770833333333343,0.6774074074074073,5.927299999997018],[0.2912499999999999,0.6848148148148148,5.9441000000089375],[0.3195833333333333,0.7072222222222222,5.96070000000298],[0.3403125000000001,0.6977777777777777,5.977299999997015],[0.3584374999999999,0.7125925925925926,5.994900000005956],[0.3870833333333332,0.7312962962962962,6.011900000005959],[0.4102083333333333,0.718888888888889,6.02729999999702],[0.4069791666666667,0.7085185185185185,6.043999999999997],[0.4106250000000001,0.7107407407407407,6.062600000008935],[0.4234375,0.7133333333333334,6.077299999997017],[0.4332291666666668,0.6964814814814815,6.094100000008936],[0.4334374999999999,0.6874074074074075,6.1107000000029785],[0.4361458333333334,0.6727777777777777,6.127299999997014],[0.42947916666666663,0.6412962962962963,6.143999999999998],[0.42947916666666663,0.6412962962962963,6.160700000002976],[0.40510416666666677,0.6005555555555555,6.17740000000596],[0.39968750000000003,0.6072222222222222,6.1939999999999955],[0.39427083333333335,0.6138888888888889,6.213799999997015],[0.3974999999999999,0.5694444444444444,6.228400000005955],[0.4180208333333333,0.5612962962962963,6.243900000005958],[0.4180208333333333,0.5612962962962963,6.260700000002977],[0.4054166666666667,0.5011111111111112,6.27729999999702],[0.37552083333333336,0.419074074074074,6.294100000008939],[0.35520833333333335,0.3292592592592592,6.31660000000894],[0.35520833333333335,0.3292592592592592,6.327400000005959],[0.3400000000000001,0.21907407407407398,6.344200000002978],[0.3026041666666667,0.0868518518518518,6.360999999999997],[0.28062500000000007,-0.044999999999999915,6.378799999997014],[0.23854166666666668,-0.20462962962962963,6.393999999999998],[0.19812500000000005,-0.3538888888888889,6.410600000008941],[0.17114583333333327,-0.45,6.427299999997018],[0.13333333333333333,-0.5981481481481481,6.4441000000089375],[0.1165625000000001,-0.6866666666666666,6.46070000000298],[0.11895833333333337,-0.7622222222222222,6.479100000008941],[0.12708333333333333,-0.8059259259259259,6.493900000005958],[0.14697916666666658,-0.812037037037037,6.510700000002977],[0.1984375,-0.7792592592592593,6.530100000008936],[0.2256249999999999,-0.7366666666666667,6.5451000000089365],[0.25281250000000005,-0.6940740740740741,6.560700000002974],[0.2783333333333334,-0.6618518518518518,6.579400000005961],[0.2908333333333334,-0.662962962962963,6.595100000008941],[0.2900000000000001,-0.6609259259259259,6.6107000000029785],[0.29697916666666657,-0.6946296296296297,6.628799999997014],[0.2978125000000001,-0.6535185185185185,6.647200000002975],[0.3272916666666667,-0.645,6.6632000000029805],[0.3398958333333333,-0.6537037037037037,6.679100000008937],[0.3433333333333332,-0.7072222222222222,6.694200000002979],[0.3556250000000001,-0.7709259259259259,6.710600000008938],[0.34645833333333326,-0.8270370370370371,6.727299999997015],[0.3372916666666666,-0.8831481481481481,6.744100000008935],[0.34343750000000006,-0.8487037037037037,6.760900000005961],[0.35822916666666677,-0.8740740740740741,6.777400000005954],[0.3954166666666666,-0.8496296296296296,6.797600000008941],[0.39697916666666655,-0.8222222222222222,6.812600000008935],[0.38229166666666664,-0.7498148148148148,6.827299999997017],[0.37625000000000003,-0.6133333333333333,6.846900000005959],[0.3711458333333333,-0.4262962962962963,6.861400000005958],[0.37562499999999993,-0.222037037037037,6.877299999997014],[0.3953125,-0.03796296296296296,6.8939000000059565],[0.4235416666666666,0.1381481481481482,6.910600000008941],[0.44947916666666665,0.25703703703703695,6.927299999997018],[0.4658333333333334,0.4381481481481482,6.943900000005961],[0.45197916666666677,0.605185185185185,6.964999999999996],[0.4805208333333333,0.7377777777777778,6.979200000002976],[0.4904166666666666,0.8262962962962964,6.994299999997018],[0.49093749999999997,0.8385185185185184,7.010799999997019],[0.5257291666666667,0.8668518518518519,7.02729999999702],[0.5509375000000001,0.8779629629629631,7.043999999999997],[0.5604166666666667,0.8825925925925926,7.061900000005956],[0.5613541666666667,0.8951851851851852,7.078799999997017],[0.5495833333333332,0.8851851851851852,7.093900000005959],[0.5576041666666666,0.9112962962962962,7.113600000008937],[0.5396874999999999,0.8851851851851852,7.128499999999995],[0.5223958333333333,0.8351851851851851,7.1439000000059565],[0.5473958333333333,0.8014814814814814,7.160700000002976],[0.5620833333333333,0.7816666666666667,7.177600000008937],[0.5507291666666667,0.74,7.193900000005961],[0.5438541666666665,0.6901851851851852,7.21070000000298],[0.5589583333333332,0.6594444444444445,7.227299999997015],[0.5849999999999999,0.6285185185185185,7.243900000005958],[0.6158333333333333,0.6040740740740742,7.260600000008935],[0.6308333333333332,0.5694444444444444,7.27729999999702],[0.6717708333333334,0.587037037037037,7.294100000008939],[0.7151041666666667,0.5918518518518519,7.310700000002974],[0.7167708333333332,0.5774074074074074,7.327200000002975],[0.7459374999999999,0.5949999999999999,7.343999999999994],[0.7751041666666666,0.6125925925925925,7.360600000008937],[0.7751041666666666,0.6125925925925925,7.377299999997014],[0.7997916666666666,0.6383333333333334,7.393999999999998],[0.8176041666666668,0.6468518518518518,7.410600000008941],[0.8178124999999999,0.6544444444444444,7.427299999997018],[0.83,0.6753703703703705,7.4439999999999955],[0.8411458333333334,0.6670370370370371,7.46070000000298],[0.8522916666666667,0.6587037037037038,7.48090000000596],[0.8419791666666666,0.6464814814814815,7.498400000005958],[0.8427083333333333,0.657037037037037,7.512400000005961],[0.8269791666666667,0.6338888888888888,7.528499999999994],[0.8139583333333335,0.6122222222222222,7.543999999999997],[0.8009375000000001,0.5905555555555555,7.560700000002974],[0.8020833333333334,0.5887037037037036,7.5791000000089355],[0.8172916666666665,0.597037037037037,7.594200000002978],[0.8322916666666667,0.602037037037037,7.610600000008937],[0.8453125,0.6079629629629629,7.628799999997014],[0.8361458333333334,0.6281481481481482,7.6447000000029774],[0.8463541666666666,0.6694444444444444,7.661799999997015],[0.8256249999999999,0.6759259259259259,7.679499999999997],[0.8048958333333334,0.6824074074074075,7.6964000000059585],[0.7792708333333332,0.6651851851851853,7.710600000008938],[0.7618750000000001,0.6407407407407407,7.727299999997015],[0.7142708333333334,0.6087037037037037,7.744600000008937],[0.6592708333333335,0.5675925925925925,7.760900000005961],[0.6004166666666667,0.5325925925925926,7.777200000002978],[0.5411458333333333,0.4866666666666666,7.793900000005955],[0.5086458333333332,0.4359259259259259,7.8106000000089395],[0.46864583333333343,0.3603703703703704,7.827200000002975],[0.4484375,0.2996296296296295,7.846999999999994],[0.46541666666666665,0.27925925925925915,7.863999999999997],[0.47604166666666664,0.2692592592592592,7.878400000005961],[0.47416666666666674,0.2490740740740741,7.8939000000059565],[0.5016666666666666,0.25092592592592594,7.910600000008941],[0.48760416666666656,0.23203703703703696,7.927299999997018],[0.4735416666666666,0.2131481481481482,7.943900000005961],[0.5142708333333333,0.18722222222222226,7.96070000000298],[0.5421875,0.15851851851851856,7.977400000005957],[0.5776041666666667,0.15462962962962962,7.994],[0.6016666666666666,0.1294444444444444,8.010600000008935],[0.5885416666666666,0.06388888888888888,8.027200000002978],[0.5826041666666666,0.012592592592592508,8.044100000008939],[0.5904166666666666,0.013703703703703662,8.06060000000894],[0.5721875,-0.04000000000000004,8.077200000002975],[0.6052083333333333,-0.07111111111111107,8.093999999999994],[0.6427083333333333,-0.11574074074074074,8.11379999999702],[0.5989583333333334,-0.16425925925925924,8.12840000000596],[0.5930208333333333,-0.19425925925925921,8.143900000005956],[0.59375,-0.21777777777777782,8.160600000008941],[0.5991666666666667,-0.2264814814814815,8.177200000002976],[0.6039583333333333,-0.2331481481481481,8.19390000000596],[0.6094791666666666,-0.24240740740740738,8.21070000000298],[0.5882291666666667,-0.2733333333333334,8.22720000000298],[0.5936458333333334,-0.24000000000000005,8.243900000005958],[0.5503125,-0.16574074074074074,8.260600000008935],[0.5315624999999999,-0.050370370370370454,8.27729999999702],[0.4617708333333333,0.06925925925925921,8.293999999999997],[0.3602083333333333,0.14425925925925923,8.31060000000894],[0.25760416666666663,0.16018518518518518,8.327700000002977],[0.1616666666666667,0.18259259259259264,8.34390000000596],[0.10854166666666672,0.2051851851851851,8.361400000005958],[0.05687500000000002,0.2361111111111111,8.380700000002975],[0.022604166666666713,0.27148148148148155,8.394200000002975],[-0.008645833333333287,0.31296296296296294,8.410600000008941],[-0.024583333333333356,0.28481481481481474,8.42740000000596],[-0.013229166666666714,0.23703703703703705,8.44390000000596],[0.07000000000000005,0.1868518518518518,8.460600000008938],[0.15593750000000003,0.13277777777777786,8.477999999999994],[0.2209374999999999,0.10740740740740741,8.493900000005958],[0.31062500000000004,0.1175925925925926,8.510600000008935],[0.3150000000000001,0.03944444444444436,8.52729999999702],[0.34177083333333325,-0.01518518518518527,8.543999999999997],[0.36843750000000003,-0.08759259259259261,8.56060000000894],[0.40343749999999995,-0.17092592592592595,8.5775],[0.44072916666666656,-0.26296296296296295,8.59390000000596],[0.42166666666666663,-0.362962962962963,8.620600000008935],[0.42166666666666663,-0.362962962962963,8.632999999999996],[0.3984375,-0.4448148148148148,8.64710000000894]]","[0.00029999999701857405,0.04820000000297853,0.06099999999999994,0.07760000000893541,0.09410000000893604,0.11070000000297853,0.12749999999999773,0.1441000000089403,0.1609000000059595,0.17740000000596012,0.19699999999999562,0.21060000000893808,0.22740000000595728,0.24399999999999977,0.2607000000029771,0.27740000000595444,0.29420000000298074,0.31070000000297426,0.3274000000059587,0.34410000000893604,0.36110000000893905,0.37740000000595586,0.3941000000089403,0.4109000000059595,0.4274000000059601,0.44410000000893746,0.4636000000089382,0.4784999999999968,0.4941000000089346,0.510799999997019,0.5274000000059544,0.5439999999999969,0.5607000000029743,0.5777000000029773,0.5939999999999941,0.6107000000029785,0.6286000000089373,0.6441000000089403,0.6627000000029781,0.6774999999999949,0.6939999999999955,0.71070000000298,0.7272999999970153,0.7439999999999998,0.760799999997019,0.7794999999999987,0.7944000000059575,0.8106000000089395,0.8306000000089355,0.845700000002978,0.861100000008939,0.8774000000059559,0.8939999999999984,0.9109000000059595,0.9309999999999974,0.947499999999998,0.9644999999999939,0.9827999999970203,0.9939999999999998,1.010700000002977,1.0274999999999963,1.043999999999997,1.0607000000029743,1.0772999999970168,1.094100000008936,1.1107000000029785,1.127299999997014,1.1439999999999984,1.1607000000029757,1.1772999999970182,1.1942000000029793,1.21070000000298,1.2272999999970153,1.2441000000089346,1.2641000000089377,1.2794999999999987,1.2942000000029807,1.3107000000029743,1.3272999999970168,1.343999999999994,1.3619999999999948,1.3774000000059559,1.3939999999999984,1.4137000000029758,1.4272999999970182,1.4441000000089375,1.4639000000059568,1.4792999999970178,1.4939999999999998,1.510700000002977,1.5272999999970196,1.5441000000089389,1.5607999999970161,1.5805000000000007,1.6004999999999967,1.618799999997016,1.6277000000029744,1.644200000002975,1.6609999999999943,1.6792000000029788,1.6942000000029793,1.7109000000059567,1.7292999999970178,1.7442000000029765,1.7609999999999957,1.7792000000029802,1.7942000000029807,1.810900000005958,1.8312999999970145,1.8444999999999965,1.8609000000059552,1.8825000000000003,1.8964000000059613,1.9107999999970176,1.9274999999999949,1.9457000000029794,1.9611000000089405,1.9787999999970154,1.996200000002979,2.010799999997019,2.0274999999999963,2.0442000000029807,2.0631000000089372,2.0775000000000006,2.094200000002978,2.1107999999970204,2.129600000008935,2.1484999999999985,2.1637999999970177,2.177600000008937,2.196600000008935,2.2109000000059567,2.227600000008941,2.2466000000089394,2.2636000000089354,2.2772999999970196,2.293999999999997,2.3107000000029743,2.3272999999970168,2.344100000008936,2.3607000000029785,2.377400000005956,2.3939999999999984,2.413700000002976,2.427299999997018,2.4439999999999955,2.46070000000298,2.479200000002976,2.4942999999970183,2.5117000000029748,2.530100000008936,2.5442999999970155,2.561100000008935,2.579499999999996,2.594200000002978,2.610999999999997,2.630299999997014,2.644299999997017,2.6609999999999943,2.677600000008937,2.695900000005956,2.7109000000059567,2.727499999999999,2.7442000000029765,2.76460000000894,2.7794999999999987,2.7942999999970155,2.8151000000089397,2.8275000000000006,2.844200000002978,2.8609000000059552,2.881200000002977,2.8967999999970147,2.9109000000059595,2.9314999999999998,2.946600000008935,2.9616000000089358,2.98090000000596,2.996900000005958,3.010799999997019,3.0274999999999963,3.047200000002981,3.0622000000029743,3.0772999999970168,3.093999999999994,3.1106000000089367,3.127400000005956,3.1477999999970194,3.168999999999997,3.177499999999995,3.1942000000029793,3.2112000000029752,3.2297000000029783,3.2456000000089347,3.263999999999996,3.2812999999970174,3.2974000000059576,3.3134999999999977,3.32860000000894,3.3484000000059595,3.361100000008939,3.3774999999999977,3.396600000008938,3.4109000000059595,3.427499999999995,3.4487000000029795,3.4609000000059567,3.477600000008941,3.4941000000089346,3.510700000002977,3.5304000000059546,3.5451000000089365,3.5627000000029767,3.582600000008938,3.596999999999994,3.6131000000089415,3.6292000000029745,3.647299999997017,3.66429999999702,3.6809000000059555,3.6977000000029747,3.711500000000001,3.729299999997018,3.7442999999970183,3.7641000000089377,3.7774999999999963,3.794100000008939,3.811,3.831900000005959,3.846299999997015,3.86340000000596,3.8837000000029747,3.8941000000089403,3.9107999999970176,3.9277000000029787,3.9471000000089376,3.9647000000029777,3.982200000002976,3.999200000002979,4.013700000002977,4.02879999999702,4.044200000002981,4.063900000005958,4.07820000000298,4.0984000000059595,4.115200000002979,4.130400000005956,4.146799999997015,4.162600000008936,4.17740000000596,4.194200000002979,4.210600000008938,4.227299999997015,4.244100000008935,4.261799999997017,4.280499999999996,4.297299999997016,4.310799999997016,4.327500000000001,4.346600000008941,4.361700000002976,4.37760000000894,4.396799999997015,4.410600000008941,4.42740000000596,4.443900000005961,4.462799999997017,4.480799999997018,4.4985,4.514900000005959,4.529900000005959,4.543999999999997,4.560700000002974,4.577400000005959,4.593999999999994,4.610600000008937,4.629299999997016,4.643999999999998,4.660700000002976,4.677799999997021,4.693900000005961,4.719400000005955,4.729600000008936,4.744,4.760700000002977,4.77729999999702,4.793999999999997,4.8106000000089395,4.827299999997017,4.843999999999994,4.8607000000029785,4.877299999997014,4.8939000000059565,4.910700000002976,4.927299999997018,4.9439999999999955,4.96070000000298,4.977299999997015,4.993900000005958,5.010600000008935,5.027200000002978,5.047299999997016,5.063200000002979,5.077400000005959,5.093999999999994,5.11079999999702,5.127299999997014,5.14410000000894,5.161400000005955,5.177299999997018,5.1939999999999955,5.210600000008938,5.227299999997015,5.244,5.260900000005961,5.27729999999702,5.293999999999997,5.3106000000089395,5.327299999997017,5.343900000005959,5.362799999997016,5.377299999997014,5.393999999999998,5.410600000008941,5.427499999999995,5.4441000000089375,5.463499999999996,5.47940000000596,5.494,5.510700000002977,5.52729999999702,5.543999999999997,5.560700000002974,5.577400000005959,5.593999999999994,5.6107000000029785,5.627499999999998,5.643999999999998,5.660700000002976,5.677299999997018,5.6939999999999955,5.710600000008938,5.727400000005957,5.744,5.760700000002977,5.77729999999702,5.793999999999997,5.810700000002974,5.827299999997017,5.846299999997015,5.860600000008937,5.877299999997014,5.89410000000894,5.911400000005955,5.927299999997018,5.9441000000089375,5.96070000000298,5.977299999997015,5.994900000005956,6.011900000005959,6.02729999999702,6.043999999999997,6.062600000008935,6.077299999997017,6.094100000008936,6.1107000000029785,6.127299999997014,6.143999999999998,6.160700000002976,6.17740000000596,6.1939999999999955,6.213799999997015,6.228400000005955,6.243900000005958,6.260700000002977,6.27729999999702,6.294100000008939,6.31660000000894,6.327400000005959,6.344200000002978,6.360999999999997,6.378799999997014,6.393999999999998,6.410600000008941,6.427299999997018,6.4441000000089375,6.46070000000298,6.479100000008941,6.493900000005958,6.510700000002977,6.530100000008936,6.5451000000089365,6.560700000002974,6.579400000005961,6.595100000008941,6.6107000000029785,6.628799999997014,6.647200000002975,6.6632000000029805,6.679100000008937,6.694200000002979,6.710600000008938,6.727299999997015,6.744100000008935,6.760900000005961,6.777400000005954,6.797600000008941,6.812600000008935,6.827299999997017,6.846900000005959,6.861400000005958,6.877299999997014,6.8939000000059565,6.910600000008941,6.927299999997018,6.943900000005961,6.964999999999996,6.979200000002976,6.994299999997018,7.010799999997019,7.02729999999702,7.043999999999997,7.061900000005956,7.078799999997017,7.093900000005959,7.113600000008937,7.128499999999995,7.1439000000059565,7.160700000002976,7.177600000008937,7.193900000005961,7.21070000000298,7.227299999997015,7.243900000005958,7.260600000008935,7.27729999999702,7.294100000008939,7.310700000002974,7.327200000002975,7.343999999999994,7.360600000008937,7.377299999997014,7.393999999999998,7.410600000008941,7.427299999997018,7.4439999999999955,7.46070000000298,7.48090000000596,7.498400000005958,7.512400000005961,7.528499999999994,7.543999999999997,7.560700000002974,7.5791000000089355,7.594200000002978,7.610600000008937,7.628799999997014,7.6447000000029774,7.661799999997015,7.679499999999997,7.6964000000059585,7.710600000008938,7.727299999997015,7.744600000008937,7.760900000005961,7.777200000002978,7.793900000005955,7.8106000000089395,7.827200000002975,7.846999999999994,7.863999999999997,7.878400000005961,7.8939000000059565,7.910600000008941,7.927299999997018,7.943900000005961,7.96070000000298,7.977400000005957,7.994,8.010600000008935,8.027200000002978,8.044100000008939,8.06060000000894,8.077200000002975,8.093999999999994,8.11379999999702,8.12840000000596,8.143900000005956,8.160600000008941,8.177200000002976,8.19390000000596,8.21070000000298,8.22720000000298,8.243900000005958,8.260600000008935,8.27729999999702,8.293999999999997,8.31060000000894,8.327700000002977,8.34390000000596,8.361400000005958,8.380700000002975,8.394200000002975,8.410600000008941,8.42740000000596,8.44390000000596,8.460600000008938,8.477999999999994,8.493900000005958,8.510600000008935,8.52729999999702,8.543999999999997,8.56060000000894,8.5775,8.59390000000596,8.620600000008935,8.632999999999996,8.64710000000894]","[1732510367593,1732510367631,1732510367643,1732510367660,1732510367677,1732510367693,1732510367710,1732510367726,1732510367743,1732510367760,1732510367779,1732510367793,1732510367810,1732510367826,1732510367843,1732510367860,1732510367877,1732510367893,1732510367910,1732510367927,1732510367944,1732510367960,1732510367977,1732510367993,1732510368010,1732510368027,1732510368046,1732510368061,1732510368076,1732510368093,1732510368110,1732510368126,1732510368143,1732510368160,1732510368176,1732510368193,1732510368211,1732510368227,1732510368245,1732510368260,1732510368276,1732510368293,1732510368310,1732510368326,1732510368343,1732510368362,1732510368377,1732510368393,1732510368413,1732510368428,1732510368444,1732510368460,1732510368476,1732510368493,1732510368513,1732510368530,1732510368547,1732510368565,1732510368576,1732510368593,1732510368610,1732510368626,1732510368643,1732510368660,1732510368677,1732510368693,1732510368710,1732510368726,1732510368743,1732510368760,1732510368777,1732510368793,1732510368810,1732510368826,1732510368847,1732510368862,1732510368877,1732510368893,1732510368910,1732510368926,1732510368944,1732510368960,1732510368976,1732510368996,1732510369010,1732510369026,1732510369046,1732510369062,1732510369076,1732510369093,1732510369110,1732510369126,1732510369143,1732510369163,1732510369183,1732510369201,1732510369210,1732510369227,1732510369243,1732510369262,1732510369277,1732510369293,1732510369312,1732510369327,1732510369343,1732510369362,1732510369377,1732510369393,1732510369414,1732510369427,1732510369443,1732510369465,1732510369479,1732510369493,1732510369510,1732510369528,1732510369544,1732510369561,1732510369579,1732510369593,1732510369610,1732510369627,1732510369646,1732510369660,1732510369677,1732510369693,1732510369712,1732510369731,1732510369746,1732510369760,1732510369779,1732510369793,1732510369810,1732510369829,1732510369846,1732510369860,1732510369876,1732510369893,1732510369910,1732510369926,1732510369943,1732510369960,1732510369976,1732510369996,1732510370010,1732510370026,1732510370043,1732510370062,1732510370077,1732510370094,1732510370112,1732510370127,1732510370144,1732510370162,1732510370177,1732510370193,1732510370213,1732510370227,1732510370243,1732510370260,1732510370278,1732510370293,1732510370310,1732510370327,1732510370347,1732510370362,1732510370377,1732510370397,1732510370410,1732510370427,1732510370443,1732510370464,1732510370479,1732510370493,1732510370514,1732510370529,1732510370544,1732510370563,1732510370579,1732510370593,1732510370610,1732510370630,1732510370645,1732510370660,1732510370676,1732510370693,1732510370710,1732510370730,1732510370751,1732510370760,1732510370777,1732510370794,1732510370812,1732510370828,1732510370846,1732510370864,1732510370880,1732510370896,1732510370911,1732510370931,1732510370943,1732510370960,1732510370979,1732510370993,1732510371010,1732510371031,1732510371043,1732510371060,1732510371077,1732510371093,1732510371113,1732510371127,1732510371145,1732510371165,1732510371179,1732510371195,1732510371212,1732510371230,1732510371247,1732510371263,1732510371280,1732510371294,1732510371312,1732510371327,1732510371347,1732510371360,1732510371377,1732510371393,1732510371414,1732510371429,1732510371446,1732510371466,1732510371477,1732510371493,1732510371510,1732510371529,1732510371547,1732510371565,1732510371582,1732510371596,1732510371611,1732510371627,1732510371646,1732510371661,1732510371681,1732510371698,1732510371713,1732510371729,1732510371745,1732510371760,1732510371777,1732510371793,1732510371810,1732510371826,1732510371844,1732510371863,1732510371880,1732510371893,1732510371910,1732510371929,1732510371944,1732510371960,1732510371979,1732510371993,1732510372010,1732510372026,1732510372045,1732510372063,1732510372081,1732510372097,1732510372112,1732510372126,1732510372143,1732510372160,1732510372176,1732510372193,1732510372212,1732510372226,1732510372243,1732510372260,1732510372276,1732510372302,1732510372312,1732510372326,1732510372343,1732510372360,1732510372376,1732510372393,1732510372410,1732510372426,1732510372443,1732510372460,1732510372476,1732510372493,1732510372510,1732510372526,1732510372543,1732510372560,1732510372576,1732510372593,1732510372610,1732510372630,1732510372646,1732510372660,1732510372676,1732510372693,1732510372710,1732510372726,1732510372744,1732510372760,1732510372776,1732510372793,1732510372810,1732510372826,1732510372843,1732510372860,1732510372876,1732510372893,1732510372910,1732510372926,1732510372945,1732510372960,1732510372976,1732510372993,1732510373010,1732510373026,1732510373046,1732510373062,1732510373076,1732510373093,1732510373110,1732510373126,1732510373143,1732510373160,1732510373176,1732510373193,1732510373210,1732510373226,1732510373243,1732510373260,1732510373276,1732510373293,1732510373310,1732510373326,1732510373343,1732510373360,1732510373376,1732510373393,1732510373410,1732510373429,1732510373443,1732510373460,1732510373477,1732510373494,1732510373510,1732510373526,1732510373543,1732510373560,1732510373577,1732510373594,1732510373610,1732510373626,1732510373645,1732510373660,1732510373676,1732510373693,1732510373710,1732510373726,1732510373743,1732510373760,1732510373776,1732510373796,1732510373811,1732510373826,1732510373843,1732510373860,1732510373876,1732510373899,1732510373910,1732510373927,1732510373943,1732510373961,1732510373976,1732510373993,1732510374010,1732510374027,1732510374043,1732510374061,1732510374076,1732510374093,1732510374112,1732510374128,1732510374143,1732510374162,1732510374178,1732510374193,1732510374211,1732510374230,1732510374246,1732510374262,1732510374277,1732510374293,1732510374310,1732510374326,1732510374343,1732510374360,1732510374380,1732510374395,1732510374410,1732510374429,1732510374444,1732510374460,1732510374476,1732510374493,1732510374510,1732510374526,1732510374547,1732510374562,1732510374577,1732510374593,1732510374610,1732510374626,1732510374644,1732510374661,1732510374676,1732510374696,1732510374711,1732510374726,1732510374743,1732510374760,1732510374776,1732510374793,1732510374810,1732510374826,1732510374843,1732510374860,1732510374876,1732510374893,1732510374910,1732510374926,1732510374943,1732510374960,1732510374976,1732510374993,1732510375010,1732510375026,1732510375043,1732510375063,1732510375081,1732510375095,1732510375111,1732510375126,1732510375143,1732510375162,1732510375177,1732510375193,1732510375211,1732510375227,1732510375244,1732510375262,1732510375279,1732510375293,1732510375310,1732510375327,1732510375343,1732510375360,1732510375376,1732510375393,1732510375410,1732510375429,1732510375446,1732510375461,1732510375476,1732510375493,1732510375510,1732510375526,1732510375543,1732510375560,1732510375576,1732510375593,1732510375610,1732510375626,1732510375643,1732510375660,1732510375676,1732510375696,1732510375711,1732510375726,1732510375743,1732510375760,1732510375776,1732510375793,1732510375810,1732510375826,1732510375843,1732510375860,1732510375876,1732510375893,1732510375910,1732510375926,1732510375944,1732510375963,1732510375977,1732510375993,1732510376010,1732510376026,1732510376043,1732510376060,1732510376076,1732510376093,1732510376110,1732510376126,1732510376143,1732510376160,1732510376176,1732510376203,1732510376215,1732510376230]","[[1026,548],[1026,548],[1018.7,533.8],[1033.4,558.4],[1048.1,583],[1024.7,589.1],[1016.8,597.1],[986.9,612.8],[947.6,668.7],[903.6,727.5],[872.2,775.1],[822.4,824.9],[778.7,872.4],[746.1,886.8],[719.1,878.9],[715.9,878.5],[734.8,861.6],[758.6,845.6],[805.9,802.6],[863.9,772.6],[920.7,742.1],[976.6,747.9],[1018.4,757.8],[1067.5,760.5],[1111,785.5],[1159.5,806.5],[1179.3,843.4],[1197.3,876.1],[1199.5,900.7],[1193.1,906.9],[1201.4,911.3],[1214.6,890.4],[1215.4,856.6],[1199,794.6],[1160.9,732.4],[1117.8,674.2],[1087.5,612.1],[1054.1,553.3],[1034.8,490.9],[1011.4,447.1],[1005.7,399.3],[996,340.5],[997.1,301],[1008.1,310],[1038.8,320.2],[1088.6,326.5],[1112.3,329.6],[1136.9,334],[1158.2,340.6],[1182.8,340.9],[1180.8,341.8],[1180.8,341.8],[1176.8,330.2],[1182.8,318.2],[1188.8,306.2],[1196.8,293.2],[1181.5,285],[1184.3,278.3],[1184.3,278.3],[1151.4,248.1],[1136.1,224.1],[1133.7,219.7],[1078,231.6],[1024.3,256],[966.5,283.2],[908.7,310.4],[853.3,327.4],[803.1,348.1],[752.6,380.9],[728,424.2],[676.7,457.6],[638.7,483.9],[654,493.9],[667,500.5],[655,497.9],[659.1,499.9],[638.7,521.3],[639.5,519.9],[637.9,513.2],[647.9,511.4],[634.4,528.3],[611.6,551.9],[594.6,594.5],[580.7,638.7],[581.2,672],[562.2,704.1],[599.4,693.9],[599.3,716.9],[617.2,720.7],[632.4,731.3],[698.9,733.5],[754.6,723.1],[810.9,730.4],[837.5,711.6],[837.5,711.6],[876.5,728.3],[876.5,728.3],[938.9,681.3],[991.8,669.8],[1080.3,653.1],[1069.6,635.2],[1084.5,604.9],[1071.6,564.3],[1036.8,538.1],[1014.1,440.5],[1014.1,440.5],[1022.4,422.7],[1001.6,352.8],[984.5,338.3],[940.1,339.6],[859.7,326.2],[867.1,317.8],[850.4,350.1],[842.4,396.7],[857.4,406.7],[853.9,451.4],[844.3,456.2],[869.7,476.9],[871.4,502.5],[898.4,516.9],[931.1,538],[931.1,538],[938.3,552.6],[945.4,556.6],[943.8,546.3],[967.9,537.5],[1004.6,546.4],[1025,532.8],[1031.4,532.7],[1037.8,532.6],[1027.2,517.4],[1028.3,507.1],[1042.2,518.3],[1054.7,511.8],[1095,501],[1111.8,510.4],[1076.8,527.7],[1062.1,555.5],[1024.2,575],[1004.4,574.2],[1001.7,566.6],[947.9,586],[870.7,599.5],[806.3,603.7],[806.3,603.7],[718.6,608.2],[624.9,603.3],[535.5,571.1],[507.3,555.2],[479.4,529.1],[452.2,531.5],[454.3,534.6],[515.6,520.8],[597,503],[641,506.2],[725.3,524.3],[788.9,540.3],[893.1,564.7],[903.6,582.8],[926.1,638],[991.3,657.4],[989,681.6],[968.9,686.7],[960.9,695.3],[1001.2,688.7],[964.1,674],[945.3,669.6],[908.7,638.1],[908.7,638.1],[930,622.1],[947.3,577.1],[944.6,595.8],[928.4,595.3],[931.8,601.5],[927.1,602.1],[900.3,612.2],[933.7,639.5],[975.5,668],[978.8,707.4],[970.8,741.2],[981.4,774.3],[950.5,771.3],[940.4,783.8],[918.5,791.9],[928.4,816.4],[912.7,828.6],[892.6,828.7],[876.1,822.1],[956.1,846.5],[956.1,846.5],[1010.7,857.2],[1059.9,875.7],[1109.1,894.2],[1129.6,885.6],[1150.1,877],[1123.9,847.8],[1121.9,835.6],[1112.1,813.2],[1098.7,797.5],[1042.2,784.9],[1042.2,784.9],[990.4,748.9],[942.6,718.7],[942.6,718.7],[902.3,676.1],[902.9,673.4],[902.9,673.4],[880.7,666.8],[921,680.9],[961.1,684.3],[982.8,674.8],[1002.2,681.1],[1018.8,662.8],[1038.5,651],[1048.7,638.5],[1048.9,623.8],[1045.1,609.4],[1098.2,621.2],[1082.4,611.9],[1074.5,611],[1069.6,625.3],[1062.2,596.1],[1054.8,566.9],[1070.7,539.1],[1095.8,508],[1095.8,508],[1105.1,511.8],[1109.9,532],[1092.1,522.4],[1098.3,507.9],[1098.3,479.2],[1098.3,450.5],[1098.3,450.5],[1094.2,446.9],[1087.4,432.3],[1074.6,425.7],[1056.9,426.2],[1077.6,417.7],[1102.8,392.8],[1112.3,371.4],[1127.2,365.1],[1112.9,361.2],[1098.6,357.3],[1116.5,350.7],[1137.1,355.1],[1131.1,357.7],[1137,343.9],[1121.9,336.6],[1106.8,329.3],[1095.9,326],[1076.3,297.7],[1076.2,277.8],[1087.7,272],[1075.9,271.5],[1058.6,257.9],[1054.1,247.4],[1044.3,265.9],[1044.3,265.9],[1039.9,260.4],[1029.2,253],[1029.2,253],[1035.2,262.4],[1021.2,325.4],[1021.2,325.4],[983.4,409.5],[927.6,472.7],[871.8,535.9],[878.1,561.2],[869.2,616.8],[883.7,607.3],[888.9,618.7],[916,642.1],[930.6,645.8],[969.7,623.8],[1024.8,586.4],[1091.6,532.5],[1165.6,523.7],[1183,565.9],[1208.2,579.5],[1208.3,638.5],[1215.9,674.9],[1221.1,705.6],[1221.1,705.6],[1205.8,710.8],[1224.8,692.6],[1249.4,679.1],[1283.5,691.4],[1280.1,629.1],[1303.9,580.1],[1310.5,520.9],[1336.9,473.7],[1347,446.4],[1359.3,420.5],[1380.7,411.4],[1381.1,415.4],[1381.1,415.4],[1397.2,403],[1409.5,412.1],[1462.9,429.3],[1486.2,436.3],[1518.9,447.2],[1530.6,452.9],[1541.3,439.6],[1550.3,431.4],[1534.5,414.7],[1523.4,408.6],[1484.4,401.2],[1450.3,370.7],[1391,344.4],[1326.2,318.1],[1269.1,274.1],[1269.1,274.1],[1228.4,242],[1210.7,212.6],[1169.8,186.9],[1113.9,187.6],[1053.9,194],[1053.9,194],[1001.4,193],[924.6,199.8],[867.6,229.3],[819,255.7],[785,307.6],[750.3,342.2],[700.5,382.8],[660.2,408.8],[669,424],[679.9,428.2],[672,451.4],[671.9,456.7],[645.8,463.9],[619.4,469.8],[601.3,486.4],[577.8,521.1],[561,554.1],[561.4,586.1],[559.7,622.6],[555,657.6],[603.1,653.3],[647.3,681.8],[718.6,691.5],[792,705.3],[850,705.2],[898.5,714.1],[942.1,720],[971.1,721.8],[1007.4,740.8],[1054.4,755.3],[1073.3,787.1],[1102,812.1],[1128.3,846.3],[1152.8,877.7],[1152.8,877.7],[1180.1,904.8],[1207.4,905.8],[1239.6,909.8],[1266.8,921.9],[1286.7,916.8],[1304.1,924.8],[1331.6,934.9],[1353.8,928.2],[1350.7,922.6],[1354.2,923.8],[1366.5,925.2],[1375.9,916.1],[1376.1,911.2],[1378.7,903.3],[1372.3,886.3],[1372.3,886.3],[1348.9,864.3],[1343.7,867.9],[1338.5,871.5],[1341.6,847.5],[1361.3,843.1],[1361.3,843.1],[1349.2,810.6],[1320.5,766.3],[1301,717.8],[1301,717.8],[1286.4,658.3],[1250.5,586.9],[1229.4,515.7],[1189,429.5],[1150.2,348.9],[1124.3,297],[1088,217],[1071.9,169.2],[1074.2,128.4],[1082,104.8],[1101.1,101.5],[1150.5,119.2],[1176.6,142.2],[1202.7,165.2],[1227.2,182.6],[1239.2,182],[1238.4,183.1],[1245.1,164.9],[1245.9,187.1],[1274.2,191.7],[1286.3,187],[1289.6,158.1],[1301.4,123.7],[1292.6,93.4],[1283.8,63.1],[1289.7,81.7],[1303.9,68],[1339.6,81.2],[1341.1,96],[1327,135.1],[1321.2,208.8],[1316.3,309.8],[1320.6,420.1],[1339.5,519.5],[1366.6,614.6],[1391.5,678.8],[1407.2,776.6],[1393.9,866.8],[1421.3,938.4],[1430.8,986.2],[1431.3,992.8],[1464.7,1008.1],[1488.9,1014.1],[1498,1016.6],[1498.9,1023.4],[1487.6,1018],[1495.3,1032.1],[1478.1,1018],[1461.5,991],[1485.5,972.8],[1499.6,962.1],[1488.7,939.6],[1482.1,912.7],[1496.6,896.1],[1521.6,879.4],[1551.2,866.2],[1565.6,847.5],[1604.9,857],[1646.5,859.6],[1648.1,851.8],[1676.1,861.3],[1704.1,870.8],[1704.1,870.8],[1727.8,884.7],[1744.9,889.3],[1745.1,893.4],[1756.8,904.7],[1767.5,900.2],[1778.2,895.7],[1768.3,889.1],[1769,894.8],[1753.9,882.3],[1