inst1_resp.keys,inst1_resp.rt,calibrationMouse.x,calibrationMouse.y,calibrationMouse.leftButton,calibrationMouse.midButton,calibrationMouse.rightButton,calibrationClick.x,calibrationClick.y,calibrationClick.leftButton,calibrationClick.midButton,calibrationClick.rightButton,trialsc.thisRepN,trialsc.thisTrialN,trialsc.thisN,trialsc.thisIndex,trialsc.ran,calibration_x,calibration_y,participant,session,date,expName,psychopyVersion,OS,frameRate,calibrationClick.clicked_name,ScreenRes_pixels,Camera_pixels,mouse_2.x,mouse_2.y,mouse_2.leftButton,mouse_2.midButton,mouse_2.rightButton,mouse_2.time,mouse_2.clicked_name,mouse.x,mouse.y,mouse.leftButton,mouse.midButton,mouse.rightButton,mouse.time,mouse.clicked_name,Choice,Trial,TrialDuration,MOUSE_GAZE,ET_GAZE,ET_GAZE_x_T,time,unixTime,ET_GAZE_NF,Loc_Bus_label,Loc_Metro_label,Loc_RH_label,Loc_Cost_label,Loc_Travel_label,Loc_Comfort_label,Loc_Bus_cost,Loc_Metro_cost,Loc_RH_cost,Loc_Bus_travel,Loc_Metro_travel,Loc_RH_travel,Loc_Bus_comfort,Loc_Metro_comfort,Loc_RH_comfort,trials.thisRepN,trials.thisTrialN,trials.thisN,trials.thisIndex,trials.ran,Block,Device,RH_cost,RH_travel_time,RH_Comfort,metro_cost,metro_travel_time,metro_Comfort,Bus_cost,Bus_travel_time,Bus_Comfort
space,2.5152,-0.235416667,0.475925926,1,0,0,-0.303125,0.581481481,0,0,0,0,0,0,1,1,-0.67,-0.33,30,001,2024-11-21_12h25.08.828,Attention_exp_legacy,2023.1.0,Win32,59.52380952,,,,,,,,,,,,,,,,,,,,,,,,,,,,,,,,,,,,,,,,,,,,,,,,,,,,,,,,,
,,,,,,,-0.011458333,0.338888889,1,0,0,0,1,1,12,1,0,0.33,30,001,2024-11-21_12h25.08.828,Attention_exp_legacy,2023.1.0,Win32,59.52380952,,,,,,,,,,,,,,,,,,,,,,,,,,,,,,,,,,,,,,,,,,,,,,,,,,,,,,,,,
,,,,,,,0.680208333,0.67037037,1,0,0,0,2,2,19,1,0.67,0.67,30,001,2024-11-21_12h25.08.828,Attention_exp_legacy,2023.1.0,Win32,59.52380952,,,,,,,,,,,,,,,,,,,,,,,,,,,,,,,,,,,,,,,,,,,,,,,,,,,,,,,,,
,,,,,,,0.33125,-0.662962963,1,0,0,0,3,3,14,1,0.33,-0.67,30,001,2024-11-21_12h25.08.828,Attention_exp_legacy,2023.1.0,Win32,59.52380952,calibration_square,,,,,,,,,,,,,,,,,,,,,,,,,,,,,,,,,,,,,,,,,,,,,,,,,,,,,,,,
,,,,,,,-0.675,-0.001851852,1,0,0,0,4,4,2,1,-0.67,0,30,001,2024-11-21_12h25.08.828,Attention_exp_legacy,2023.1.0,Win32,59.52380952,calibration_square,,,,,,,,,,,,,,,,,,,,,,,,,,,,,,,,,,,,,,,,,,,,,,,,,,,,,,,,
,,,,,,,0.327083333,-0.324074074,1,0,0,0,5,5,15,1,0.33,-0.33,30,001,2024-11-21_12h25.08.828,Attention_exp_legacy,2023.1.0,Win32,59.52380952,calibration_square,,,,,,,,,,,,,,,,,,,,,,,,,,,,,,,,,,,,,,,,,,,,,,,,,,,,,,,,
,,,,,,,0.334375,0.664814815,1,0,0,0,6,6,18,1,0.33,0.67,30,001,2024-11-21_12h25.08.828,Attention_exp_legacy,2023.1.0,Win32,59.52380952,calibration_square,,,,,,,,,,,,,,,,,,,,,,,,,,,,,,,,,,,,,,,,,,,,,,,,,,,,,,,,
,,,,,,,-0.320833333,-0.32962963,1,0,0,0,7,7,5,1,-0.33,-0.33,30,001,2024-11-21_12h25.08.828,Attention_exp_legacy,2023.1.0,Win32,59.52380952,calibration_square,,,,,,,,,,,,,,,,,,,,,,,,,,,,,,,,,,,,,,,,,,,,,,,,,,,,,,,,
,,,,,,,0.664583333,-0.668518519,1,0,0,0,8,8,20,1,0.67,-0.67,30,001,2024-11-21_12h25.08.828,Attention_exp_legacy,2023.1.0,Win32,59.52380952,calibration_square,,,,,,,,,,,,,,,,,,,,,,,,,,,,,,,,,,,,,,,,,,,,,,,,,,,,,,,,
,,,,,,,-0.004166667,-0.664814815,1,0,0,0,9,9,9,1,0,-0.67,30,001,2024-11-21_12h25.08.828,Attention_exp_legacy,2023.1.0,Win32,59.52380952,calibration_square,,,,,,,,,,,,,,,,,,,,,,,,,,,,,,,,,,,,,,,,,,,,,,,,,,,,,,,,
,,,,,,,0.008333333,-0.322222222,1,0,0,0,10,10,10,1,0,-0.33,30,001,2024-11-21_12h25.08.828,Attention_exp_legacy,2023.1.0,Win32,59.52380952,calibration_square,,,,,,,,,,,,,,,,,,,,,,,,,,,,,,,,,,,,,,,,,,,,,,,,,,,,,,,,
,,,,,,,0.330208333,0.005555556,1,0,0,0,11,11,16,1,0.33,0,30,001,2024-11-21_12h25.08.828,Attention_exp_legacy,2023.1.0,Win32,59.52380952,calibration_square,,,,,,,,,,,,,,,,,,,,,,,,,,,,,,,,,,,,,,,,,,,,,,,,,,,,,,,,
,,,,,,,-0.336458333,0.005555556,1,0,0,0,12,12,6,1,-0.33,0,30,001,2024-11-21_12h25.08.828,Attention_exp_legacy,2023.1.0,Win32,59.52380952,calibration_square,,,,,,,,,,,,,,,,,,,,,,,,,,,,,,,,,,,,,,,,,,,,,,,,,,,,,,,,
,,,,,,,-0.678125,-0.67037037,1,0,0,0,13,13,0,1,-0.67,-0.67,30,001,2024-11-21_12h25.08.828,Attention_exp_legacy,2023.1.0,Win32,59.52380952,calibration_square,,,,,,,,,,,,,,,,,,,,,,,,,,,,,,,,,,,,,,,,,,,,,,,,,,,,,,,,
,,,,,,,0.002083333,0.694444444,1,0,0,0,14,14,13,1,0,0.67,30,001,2024-11-21_12h25.08.828,Attention_exp_legacy,2023.1.0,Win32,59.52380952,,,,,,,,,,,,,,,,,,,,,,,,,,,,,,,,,,,,,,,,,,,,,,,,,,,,,,,,,
,,,,,,,-0.672916667,0.346296296,1,0,0,0,15,15,3,1,-0.67,0.33,30,001,2024-11-21_12h25.08.828,Attention_exp_legacy,2023.1.0,Win32,59.52380952,,,,,,,,,,,,,,,,,,,,,,,,,,,,,,,,,,,,,,,,,,,,,,,,,,,,,,,,,
,,,,,,,-0.33125,0.344444444,1,0,0,0,16,16,7,1,-0.33,0.33,30,001,2024-11-21_12h25.08.828,Attention_exp_legacy,2023.1.0,Win32,59.52380952,,,,,,,,,,,,,,,,,,,,,,,,,,,,,,,,,,,,,,,,,,,,,,,,,,,,,,,,,
,,,,,,,0.330208333,0.337037037,1,0,0,0,17,17,17,1,0.33,0.33,30,001,2024-11-21_12h25.08.828,Attention_exp_legacy,2023.1.0,Win32,59.52380952,calibration_square,,,,,,,,,,,,,,,,,,,,,,,,,,,,,,,,,,,,,,,,,,,,,,,,,,,,,,,,
,,,,,,,-0.0125,0.016666667,1,0,0,0,18,18,11,1,0,0,30,001,2024-11-21_12h25.08.828,Attention_exp_legacy,2023.1.0,Win32,59.52380952,,,,,,,,,,,,,,,,,,,,,,,,,,,,,,,,,,,,,,,,,,,,,,,,,,,,,,,,,
,,,,,,,-0.315625,0.668518519,1,0,0,0,19,19,8,1,-0.33,0.67,30,001,2024-11-21_12h25.08.828,Attention_exp_legacy,2023.1.0,Win32,59.52380952,,,,,,,,,,,,,,,,,,,,,,,,,,,,,,,,,,,,,,,,,,,,,,,,,,,,,,,,,
,,,,,,,-0.335416667,-0.664814815,1,0,0,0,20,20,4,1,-0.33,-0.67,30,001,2024-11-21_12h25.08.828,Attention_exp_legacy,2023.1.0,Win32,59.52380952,calibration_square,,,,,,,,,,,,,,,,,,,,,,,,,,,,,,,,,,,,,,,,,,,,,,,,,,,,,,,,
,,,,,,,,,,,,,,,,,,,30,001,2024-11-21_12h25.08.828,Attention_exp_legacy,2023.1.0,Win32,59.52380952,,"[1920,1080]","[640,480]",[-0.009375],[-0.49444444444444446],[1],[0],[0],[1.161999999999999],"[""StartButton""]",[-0.040625],[0.1648148148148148],[1],[0],[0],[4.647699999809269],"[""Bus_label""]",Bus_label,1,5.6785,"[[0.026041666666666668,-0.07962962962962963],[0.026041666666666668,-0.07962962962962963],[0.026041666666666668,-0.07962962962962963],[0.026041666666666668,-0.07962962962962963],[0.026041666666666668,-0.07962962962962963],[0.026041666666666668,-0.07962962962962963],[0.026041666666666668,-0.07962962962962963],[0.026041666666666668,-0.07962962962962963],[0.026041666666666668,-0.07962962962962963],[0.026041666666666668,-0.07962962962962963],[0.026041666666666668,-0.07962962962962963],[0.026041666666666668,-0.07962962962962963],[0.026041666666666668,-0.07962962962962963],[0.026041666666666668,-0.07962962962962963],[0.026041666666666668,-0.07962962962962963],[0.026041666666666668,-0.07962962962962963],[0.026041666666666668,-0.07962962962962963],[0.026041666666666668,-0.07962962962962963],[0.026041666666666668,-0.07962962962962963],[0.026041666666666668,-0.07962962962962963],[0.026041666666666668,-0.07962962962962963],[0.026041666666666668,-0.07962962962962963],[0.026041666666666668,-0.07962962962962963],[0.026041666666666668,-0.07962962962962963],[0.026041666666666668,-0.08148148148148149],[0.025,-0.08148148148148149],[0.023958333333333335,-0.08148148148148149],[0.023958333333333335,-0.08148148148148149],[0.021875,-0.08148148148148149],[0.020833333333333332,-0.08148148148148149],[0.020833333333333332,-0.08148148148148149],[0.020833333333333332,-0.08148148148148149],[0.019791666666666666,-0.08148148148148149],[0.019791666666666666,-0.08148148148148149],[0.019791666666666666,-0.08148148148148149],[0.019791666666666666,-0.08148148148148149],[0.01875,-0.08148148148148149],[0.01875,-0.08148148148148149],[0.01875,-0.08148148148148149],[0.01875,-0.08148148148148149],[0.01875,-0.08148148148148149],[0.01875,-0.08148148148148149],[0.01875,-0.08148148148148149],[0.017708333333333333,-0.08148148148148149],[0.014583333333333334,-0.07962962962962963],[0.014583333333333334,-0.07592592592592592],[0.013541666666666667,-0.07037037037037037],[0.0125,-0.06851851851851852],[0.0125,-0.06481481481481481],[0.011458333333333333,-0.05925925925925926],[0.011458333333333333,-0.05740740740740741],[0.011458333333333333,-0.05740740740740741],[0.011458333333333333,-0.05555555555555555],[0.010416666666666666,-0.05185185185185185],[0.010416666666666666,-0.05],[0.010416666666666666,-0.05],[0.010416666666666666,-0.04814814814814815],[0.010416666666666666,-0.046296296296296294],[0.010416666666666666,-0.044444444444444446],[0.010416666666666666,-0.044444444444444446],[0.010416666666666666,-0.04259259259259259],[0.010416666666666666,-0.03888888888888889],[0.010416666666666666,-0.03888888888888889],[0.010416666666666666,-0.037037037037037035],[0.010416666666666666,-0.03333333333333333],[0.010416666666666666,-0.03333333333333333],[0.010416666666666666,-0.03148148148148148],[0.010416666666666666,-0.027777777777777776],[0.010416666666666666,-0.027777777777777776],[0.010416666666666666,-0.025925925925925925],[0.010416666666666666,-0.025925925925925925],[0.010416666666666666,-0.022222222222222223],[0.010416666666666666,-0.016666666666666666],[0.010416666666666666,-0.016666666666666666],[0.011458333333333333,-0.012962962962962963],[0.011458333333333333,-0.009259259259259259],[0.011458333333333333,-0.009259259259259259],[0.011458333333333333,-0.009259259259259259],[0.011458333333333333,-0.009259259259259259],[0.011458333333333333,-0.009259259259259259],[0.011458333333333333,-0.009259259259259259],[0.011458333333333333,-0.009259259259259259],[0.011458333333333333,-0.009259259259259259],[0.011458333333333333,-0.009259259259259259],[0.011458333333333333,-0.009259259259259259],[0.011458333333333333,-0.009259259259259259],[0.011458333333333333,-0.009259259259259259],[0.011458333333333333,-0.009259259259259259],[0.011458333333333333,-0.009259259259259259],[0.011458333333333333,-0.009259259259259259],[0.011458333333333333,-0.009259259259259259],[0.011458333333333333,-0.009259259259259259],[0.011458333333333333,-0.009259259259259259],[0.011458333333333333,-0.009259259259259259],[0.011458333333333333,-0.009259259259259259],[0.011458333333333333,-0.007407407407407408],[0.011458333333333333,-0.005555555555555556],[0.011458333333333333,-0.003703703703703704],[0.011458333333333333,-0.003703703703703704],[0.011458333333333333,-0.001851851851851852],[0.011458333333333333,-0.001851851851851852],[0.011458333333333333,-0.001851851851851852],[0.011458333333333333,-0.001851851851851852],[0.011458333333333333,-0.001851851851851852],[0.010416666666666666,0],[0.010416666666666666,0],[0.010416666666666666,0.001851851851851852],[0.010416666666666666,0.001851851851851852],[0.010416666666666666,0.001851851851851852],[0.010416666666666666,0.001851851851851852],[0.010416666666666666,0.001851851851851852],[0.010416666666666666,0.001851851851851852],[0.010416666666666666,0.001851851851851852],[0.010416666666666666,0.001851851851851852],[0.010416666666666666,0.001851851851851852],[0.010416666666666666,0.001851851851851852],[0.010416666666666666,0.001851851851851852],[0.010416666666666666,0.001851851851851852],[0.010416666666666666,0.001851851851851852],[0.010416666666666666,0.001851851851851852],[0.010416666666666666,0.001851851851851852],[0.010416666666666666,0.001851851851851852],[0.010416666666666666,0.001851851851851852],[0.009375,0.003703703703703704],[0.009375,0.003703703703703704],[0.009375,0.003703703703703704],[0.009375,0.003703703703703704],[0.009375,0.003703703703703704],[0.009375,0.005555555555555556],[0.009375,0.005555555555555556],[0.009375,0.005555555555555556],[0.009375,0.005555555555555556],[0.009375,0.005555555555555556],[0.009375,0.005555555555555556],[0.009375,0.005555555555555556],[0.009375,0.005555555555555556],[0.009375,0.007407407407407408],[0.009375,0.007407407407407408],[0.009375,0.007407407407407408],[0.009375,0.007407407407407408],[0.009375,0.007407407407407408],[0.009375,0.007407407407407408],[0.009375,0.007407407407407408],[0.009375,0.007407407407407408],[0.009375,0.007407407407407408],[0.009375,0.007407407407407408],[0.009375,0.007407407407407408],[0.009375,0.007407407407407408],[0.009375,0.007407407407407408],[0.009375,0.007407407407407408],[0.009375,0.007407407407407408],[0.009375,0.007407407407407408],[0.009375,0.007407407407407408],[0.009375,0.007407407407407408],[0.009375,0.007407407407407408],[0.009375,0.007407407407407408],[0.009375,0.007407407407407408],[0.009375,0.007407407407407408],[0.009375,0.011111111111111112],[0.009375,0.011111111111111112],[0.009375,0.011111111111111112],[0.009375,0.011111111111111112],[0.009375,0.014814814814814815],[0.009375,0.014814814814814815],[0.009375,0.014814814814814815],[0.009375,0.014814814814814815],[0.009375,0.016666666666666666],[0.009375,0.016666666666666666],[0.009375,0.016666666666666666],[0.009375,0.016666666666666666],[0.009375,0.016666666666666666],[0.009375,0.016666666666666666],[0.009375,0.018518518518518517],[0.005208333333333333,0.022222222222222223],[0.003125,0.022222222222222223],[0.0020833333333333333,0.024074074074074074],[-0.0010416666666666667,0.024074074074074074],[-0.003125,0.027777777777777776],[-0.005208333333333333,0.027777777777777776],[-0.00625,0.02962962962962963],[-0.00625,0.02962962962962963],[-0.00625,0.02962962962962963],[-0.00625,0.02962962962962963],[-0.00625,0.02962962962962963],[-0.00625,0.02962962962962963],[-0.00625,0.02962962962962963],[-0.00625,0.02962962962962963],[-0.00625,0.02962962962962963],[-0.00625,0.02962962962962963],[-0.00625,0.02962962962962963],[-0.00625,0.02962962962962963],[-0.00625,0.02962962962962963],[-0.00625,0.02962962962962963],[-0.00625,0.02962962962962963],[-0.00625,0.02962962962962963],[-0.00625,0.02962962962962963],[-0.00625,0.02962962962962963],[-0.00625,0.02962962962962963],[-0.00625,0.02962962962962963],[-0.00625,0.02962962962962963],[-0.00625,0.02962962962962963],[-0.00625,0.02962962962962963],[-0.00625,0.02962962962962963],[-0.00625,0.02962962962962963],[-0.00625,0.02962962962962963],[-0.00625,0.02962962962962963],[-0.00625,0.02962962962962963],[-0.00625,0.02962962962962963],[-0.00625,0.02962962962962963],[-0.007291666666666667,0.02962962962962963],[-0.008333333333333333,0.02962962962962963],[-0.010416666666666666,0.03148148148148148],[-0.0125,0.03148148148148148],[-0.013541666666666667,0.03148148148148148],[-0.015625,0.03333333333333333],[-0.015625,0.03333333333333333],[-0.016666666666666666,0.03333333333333333],[-0.016666666666666666,0.03333333333333333],[-0.017708333333333333,0.03518518518518519],[-0.019791666666666666,0.037037037037037035],[-0.020833333333333332,0.037037037037037035],[-0.020833333333333332,0.03888888888888889],[-0.022916666666666665,0.040740740740740744],[-0.022916666666666665,0.04259259259259259],[-0.023958333333333335,0.046296296296296294],[-0.026041666666666668,0.05185185185185185],[-0.027083333333333334,0.05555555555555555],[-0.029166666666666667,0.06481481481481481],[-0.030208333333333334,0.07037037037037037],[-0.03125,0.07592592592592592],[-0.03333333333333333,0.08148148148148149],[-0.034375,0.08518518518518518],[-0.036458333333333336,0.09444444444444444],[-0.036458333333333336,0.09444444444444444],[-0.036458333333333336,0.09814814814814815],[-0.036458333333333336,0.1],[-0.0375,0.1037037037037037],[-0.0375,0.10555555555555556],[-0.03854166666666667,0.10925925925925926],[-0.03958333333333333,0.1111111111111111],[-0.03958333333333333,0.1111111111111111],[-0.03958333333333333,0.11296296296296296],[-0.03958333333333333,0.11481481481481481],[-0.03958333333333333,0.11481481481481481],[-0.040625,0.11666666666666667],[-0.040625,0.11851851851851852],[-0.040625,0.12037037037037036],[-0.040625,0.1259259259259259],[-0.040625,0.12777777777777777],[-0.040625,0.12777777777777777],[-0.040625,0.13148148148148148],[-0.040625,0.13148148148148148],[-0.040625,0.13148148148148148],[-0.040625,0.13148148148148148],[-0.040625,0.13148148148148148],[-0.040625,0.13148148148148148],[-0.040625,0.13148148148148148],[-0.040625,0.13333333333333333],[-0.040625,0.13703703703703704],[-0.040625,0.1388888888888889],[-0.040625,0.1425925925925926],[-0.040625,0.14444444444444443],[-0.040625,0.14444444444444443],[-0.040625,0.14814814814814814],[-0.040625,0.15],[-0.040625,0.1537037037037037],[-0.040625,0.15555555555555556],[-0.040625,0.15925925925925927],[-0.040625,0.16111111111111112],[-0.040625,0.16296296296296298],[-0.040625,0.16296296296296298],[-0.040625,0.1648148148148148],[-0.040625,0.1648148148148148],[-0.040625,0.1648148148148148],[-0.040625,0.1648148148148148],[-0.040625,0.1648148148148148],[-0.040625,0.1648148148148148],[-0.040625,0.1648148148148148],[-0.040625,0.1648148148148148],[-0.040625,0.1648148148148148],[-0.040625,0.1648148148148148],[-0.040625,0.1648148148148148],[-0.040625,0.1648148148148148],[-0.040625,0.1648148148148148],[-0.040625,0.1648148148148148],[-0.040625,0.1648148148148148],[-0.040625,0.1648148148148148],[-0.040625,0.1648148148148148],[-0.040625,0.1648148148148148],[-0.040625,0.1648148148148148],[-0.040625,0.1648148148148148],[-0.040625,0.1648148148148148],[-0.040625,0.1648148148148148],[-0.040625,0.1648148148148148],[-0.040625,0.1648148148148148],[-0.040625,0.1648148148148148],[-0.040625,0.1648148148148148],[-0.040625,0.1648148148148148],[-0.040625,0.1648148148148148],[-0.040625,0.1648148148148148],[-0.040625,0.1648148148148148],[-0.040625,0.1648148148148148],[-0.040625,0.1648148148148148],[-0.040625,0.1648148148148148],[-0.040625,0.1648148148148148],[-0.040625,0.1648148148148148],[-0.040625,0.1648148148148148],[-0.040625,0.1648148148148148],[-0.040625,0.1648148148148148],[-0.040625,0.1648148148148148],[-0.040625,0.1648148148148148],[-0.040625,0.1648148148148148],[-0.040625,0.1648148148148148],[-0.040625,0.1648148148148148],[-0.040625,0.1648148148148148],[-0.040625,0.1648148148148148],[-0.040625,0.1648148148148148],[-0.040625,0.1648148148148148],[-0.040625,0.1648148148148148],[-0.040625,0.1648148148148148],[-0.040625,0.1648148148148148],[-0.040625,0.1648148148148148],[-0.040625,0.1648148148148148],[-0.040625,0.1648148148148148],[-0.040625,0.1648148148148148],[-0.040625,0.1648148148148148],[-0.040625,0.1648148148148148],[-0.040625,0.1648148148148148],[-0.040625,0.1648148148148148],[-0.040625,0.1648148148148148],[-0.040625,0.1648148148148148],[-0.040625,0.1648148148148148],[-0.040625,0.1648148148148148],[-0.040625,0.1648148148148148],[-0.040625,0.1648148148148148],[-0.040625,0.1648148148148148],[-0.040625,0.1648148148148148],[-0.040625,0.1648148148148148],[-0.040625,0.1648148148148148]]","[[-0.0068750000000000235,0.05314814814814823],[-0.0068750000000000235,0.05314814814814823],[0.034687499999999954,0.012222222222222264],[0.03958333333333333,0.03944444444444436],[0.08041666666666672,0.0016666666666666245],[0.08041666666666672,0.05259259259259255],[0.08354166666666671,0.0485185185185186],[0.08354166666666671,0.0485185185185186],[0.11770833333333333,-0.011481481481481566],[0.14166666666666666,-0.01777777777777782],[0.14208333333333342,-0.052222222222222205],[0.11843750000000004,-0.03462962962962971],[0.10479166666666657,-0.05537037037037033],[0.09635416666666667,-0.04407407407407399],[0.06770833333333333,-0.08611111111111111],[0.034375,-0.10407407407407405],[0.0068750000000000235,-0.1425925925925926],[-0.04770833333333328,-0.11870370370370374],[-0.12052083333333338,-0.13296296296296298],[-0.12052083333333338,-0.13296296296296298],[-0.16354166666666667,-0.13296296296296298],[-0.19958333333333336,-0.14518518518518514],[-0.22218749999999995,-0.15648148148148147],[-0.25906250000000003,-0.17240740740740745],[-0.3255208333333333,-0.17296296296296293],[-0.3255208333333333,-0.17296296296296293],[-0.32083333333333336,-0.15703703703703706],[-0.32083333333333336,-0.15703703703703706],[-0.3241666666666667,-0.0948148148148148],[-0.3081249999999999,-0.06962962962962967],[-0.2548958333333334,-0.047037037037036995],[-0.2548958333333334,-0.047037037037036995],[-0.19031250000000005,-0.03777777777777774],[-0.19593750000000001,0.028703703703703703],[-0.1658333333333334,0.07925925925925917],[-0.12770833333333337,0.09370370370370375],[-0.12770833333333337,0.09370370370370375],[-0.090625,0.1198148148148149],[-0.028750000000000022,0.169074074074074],[-0.0421875,0.16925925925925922],[0.008541666666666715,0.11611111111111119],[0.007708333333333309,0.13351851851851856],[-0.010104166666666714,0.13833333333333342],[-0.010104166666666714,0.13833333333333342],[-0.01552083333333331,0.13129629629629624],[0.0037500000000000237,0.10611111111111103],[-0.008124999999999953,0.10870370370370379],[-0.008124999999999953,0.10870370370370379],[-0.014791666666666713,0.1259259259259259],[-0.014791666666666713,0.1259259259259259],[-0.01427083333333338,0.10777777777777786],[-0.01427083333333338,0.10777777777777786],[-0.02312500000000005,0.08777777777777773],[0.015625,0.1235185185185186],[-0.02791666666666662,0.15462962962962962],[-0.02791666666666662,0.15462962962962962],[-0.04041666666666662,0.14870370370370362],[-0.04562499999999995,0.1455555555555556],[-0.04562499999999995,0.1455555555555556],[-0.07000000000000005,0.16518518518518527],[-0.07083333333333333,0.1633333333333334],[-0.06447916666666664,0.1111111111111111],[-0.06447916666666664,0.1111111111111111],[-0.06572916666666669,0.09407407407407399],[-0.06062500000000005,0.05740740740740741],[-0.06135416666666664,0.036666666666666584],[-0.07447916666666667,-0.03740740740740749],[-0.07447916666666667,-0.03740740740740749],[-0.06343749999999998,-0.06111111111111111],[-0.06124999999999995,-0.08518518518518518],[-0.029375000000000047,-0.10759259259259263],[-0.02947916666666662,-0.12148148148148152],[-0.010312499999999976,-0.15907407407407403],[-0.010312499999999976,-0.15907407407407403],[-0.009583333333333381,-0.13092592592592592],[-0.009583333333333381,-0.13092592592592592],[0.007604166666666619,-0.11259259259259262],[0.005833333333333357,-0.07111111111111107],[0.005833333333333357,-0.07111111111111107],[0.025625000000000023,-0.06129629629629634],[0.025625000000000023,-0.06129629629629634],[0.03864583333333336,-0.028888888888888933],[0.03864583333333336,-0.028888888888888933],[0.03604166666666669,-0.018148148148148063],[0.03604166666666669,-0.018148148148148063],[0.07291666666666667,-0.008333333333333333],[0.07291666666666667,-0.008333333333333333],[0.03447916666666669,0.015555555555555513],[0.07635416666666663,0.0016666666666666245],[0.07635416666666663,0.0016666666666666245],[0.06906249999999996,0.060370370370370414],[0.06843750000000005,0.09185185185185189],[0.09010416666666667,0.06777777777777783],[0.11031250000000009,0.06185185185185181],[0.11145833333333334,0.044999999999999915],[0.11145833333333334,0.044999999999999915],[0.10031249999999996,0.05388888888888893],[0.13010416666666677,0.018518518518518517],[0.1087500000000001,0.017592592592592594],[0.1087500000000001,0.017592592592592594],[0.14343750000000005,-0.009074074074074031],[0.13250000000000003,0.0007407407407406986],[0.13250000000000003,0.0007407407407406986],[0.1365624999999999,-0.062407407407407384],[0.16281249999999994,-0.10092592592592593],[0.10145833333333343,-0.11018518518518519],[0.029375000000000047,-0.12222222222222222],[-0.03729166666666662,-0.1294444444444444],[-0.0067708333333333336,-0.1566666666666667],[-0.05416666666666667,-0.16740740740740737],[-0.06791666666666671,-0.19537037037037036],[-0.08656250000000003,-0.22925925925925927],[-0.10302083333333331,-0.2331481481481481],[-0.12177083333333331,-0.22555555555555556],[-0.16291666666666665,-0.27981481481481485],[-0.15062500000000004,-0.29203703703703704],[-0.1170833333333333,-0.31870370370370377],[-0.0984375,-0.3338888888888889],[-0.1397916666666667,-0.3675925925925926],[-0.18197916666666672,-0.3559259259259259],[-0.23729166666666662,-0.36018518518518516],[-0.25031249999999994,-0.3168518518518519],[-0.2634375,-0.30481481481481487],[-0.2634375,-0.30481481481481487],[-0.23104166666666662,-0.2898148148148148],[-0.20385416666666673,-0.2207407407407407],[-0.17291666666666666,-0.21648148148148144],[-0.16000000000000003,-0.1794444444444444],[-0.15291666666666662,-0.16888888888888887],[-0.15291666666666662,-0.16888888888888887],[-0.1423958333333334,-0.10925925925925926],[-0.05135416666666662,-0.09185185185185189],[0.021145833333333287,-0.05796296296296299],[0.03677083333333329,-0.05462962962962963],[0.042812500000000024,-0.060370370370370414],[0.019479166666666714,-0.05555555555555555],[0.004791666666666691,-0.02833333333333325],[-0.00791666666666669,-0.008148148148148106],[0.003958333333333286,-0.020185185185185143],[0.003958333333333286,-0.020185185185185143],[0.025,-0.014074074074074116],[0.019166666666666644,-0.01518518518518527],[-0.016250000000000025,-0.0025925925925925505],[-0.03145833333333338,-0.025],[-0.007395833333333357,-0.038703703703703664],[0.008124999999999953,-0.037037037037037035],[0.019687499999999976,-0.029259259259259176],[0.03343750000000002,-0.06703703703703702],[0.05020833333333338,-0.06407407407407412],[0.06635416666666671,-0.06222222222222226],[0.09322916666666667,-0.07240740740740745],[0.12406249999999991,-0.09592592592592594],[0.16197916666666667,-0.09666666666666665],[0.18427083333333344,-0.08759259259259261],[0.16822916666666668,-0.09425925925925922],[0.16822916666666668,-0.09425925925925922],[0.1712500000000001,-0.09203703703703701],[0.1712500000000001,-0.09203703703703701],[0.17062499999999994,-0.09907407407407408],[0.17062499999999994,-0.09907407407407408],[0.16375000000000003,-0.07537037037037035],[0.14135416666666673,-0.05592592592592591],[0.10760416666666663,0.011296296296296339],[0.08260416666666662,0.03518518518518519],[0.07374999999999995,0.07592592592592592],[0.05375000000000003,0.08666666666666659],[0.06333333333333328,0.1051851851851851],[0.05322916666666669,0.10648148148148148],[0.02666666666666669,0.11629629629629622],[0.008749999999999977,0.12166666666666676],[0.005208333333333333,0.09518518518518514],[0.003541666666666643,0.11629629629629622],[0.004166666666666667,0.10833333333333334],[0.004166666666666667,0.10796296296296289],[-0.009583333333333381,0.08499999999999996],[-0.014791666666666713,0.06314814814814819],[-0.04760416666666671,0.042407407407407366],[-0.057395833333333354,0.054259259259259174],[-0.08708333333333336,0.06462962962962959],[-0.08708333333333336,0.06462962962962959],[-0.058749999999999976,0.023148148148148147],[-0.051145833333333356,0.025],[-0.051145833333333356,0.025],[-0.051145833333333356,0.025],[-0.05322916666666669,-0.03833333333333342],[-0.040625,-0.09055555555555551],[-0.05645833333333338,-0.07925925925925928],[-0.06541666666666662,-0.03722222222222227],[-0.08062499999999997,-0.007592592592592635],[-0.08406250000000005,0.02240740740740745],[-0.08500000000000002,0.0242592592592593],[-0.05020833333333338,-0.0031481481481482323],[-0.06520833333333335,0.016111111111111194],[-0.050937499999999976,-0.0022222222222223064],[-0.024687500000000046,-0.0031481481481482323],[-0.027395833333333286,-0.03222222222222218],[-0.01895833333333338,-0.0787037037037037],[-0.005208333333333333,-0.15722222222222218],[0.015625,-0.16592592592592598],[0.028645833333333332,-0.2168518518518519],[0.0484375,-0.21722222222222223],[0.0484375,-0.21722222222222223],[0.06072916666666662,-0.1896296296296296],[0.053125,-0.16666666666666666],[0.05322916666666669,-0.1551851851851852],[0.05322916666666669,-0.1551851851851852],[0.036145833333333384,-0.15351851851851847],[0.036145833333333384,-0.15351851851851847],[0.041770833333333354,-0.12185185185185188],[0.041770833333333354,-0.12185185185185188],[0.029999999999999954,-0.07370370370370373],[0.029999999999999954,-0.07370370370370373],[0.0018749999999999527,-0.05055555555555547],[-0.007708333333333309,-0.07666666666666662],[-0.007708333333333309,-0.07666666666666662],[0.0009374999999999763,-0.04722222222222222],[0.0017708333333333807,-0.03759259259259251],[0.0017708333333333807,-0.03759259259259251],[0.00635416666666669,-0.05407407407407405],[0.012916666666666642,-0.07388888888888885],[-0.008645833333333287,-0.08481481481481483],[0.007395833333333357,-0.07407407407407407],[-0.004375000000000047,-0.0801851851851852],[-0.004375000000000047,-0.0801851851851852],[0.00947916666666669,-0.08703703703703704],[0.015312500000000047,-0.07962962962962963],[0.005729166666666666,-0.06592592592592597],[0.007291666666666667,-0.06981481481481479],[0.007291666666666667,-0.06981481481481479],[0.007291666666666667,-0.10981481481481484],[0.007291666666666667,-0.10981481481481484],[-0.0006250000000000236,-0.08851851851851854],[0.009062500000000048,-0.05703703703703706],[0.009062500000000048,-0.05703703703703706],[0.022395833333333334,-0.04055555555555551],[0.022395833333333334,-0.04055555555555551],[0.02635416666666662,-0.059814814814814835],[0.02635416666666662,-0.059814814814814835],[0.025625000000000023,-0.05555555555555555],[0.025625000000000023,-0.05555555555555555],[0.007500000000000047,-0.05925925925925926],[0.024062500000000025,-0.05648148148148148],[0.021249999999999977,-0.05796296296296299],[0.003333333333333381,-0.06648148148148143],[-0.014479166666666644,-0.04148148148148144],[-0.014479166666666644,-0.04148148148148144],[-0.0203125,-0.07166666666666664],[-0.0203125,-0.07166666666666664],[-0.035312499999999976,-0.09870370370370372],[-0.035312499999999976,-0.09870370370370372],[-0.052187500000000026,-0.09796296296296292],[-0.052187500000000026,-0.09796296296296292],[-0.07687499999999996,-0.0735185185185185],[-0.07687499999999996,-0.0735185185185185],[-0.07895833333333328,-0.06703703703703702],[-0.07895833333333328,-0.06703703703703702],[-0.059687499999999956,-0.08574074074074076],[-0.06218750000000005,-0.08814814814814818],[-0.06218750000000005,-0.08814814814814818],[-0.07770833333333335,-0.08407407407407404],[-0.07614583333333336,-0.09425925925925922],[-0.07458333333333336,-0.10444444444444441],[-0.07395833333333333,-0.0948148148148148],[-0.07614583333333336,-0.10333333333333336],[-0.11833333333333336,-0.09240740740740737],[-0.11833333333333336,-0.09240740740740737],[-0.09187500000000005,-0.11037037037037041],[-0.09416666666666665,-0.10870370370370368],[-0.09864583333333338,-0.09111111111111109],[-0.10260416666666666,-0.0940740740740741],[-0.08510416666666672,-0.11425925925925924],[-0.09093749999999995,-0.10944444444444448],[-0.08416666666666663,-0.09500000000000001],[-0.06614583333333333,-0.10740740740740741],[-0.06614583333333333,-0.10740740740740741],[-0.06197916666666667,-0.09111111111111109],[-0.016145833333333335,-0.10240740740740743],[-0.0421875,-0.08462962962962961],[-0.03239583333333336,-0.08907407407407411],[-0.022604166666666713,-0.09351851851851851],[-0.022604166666666713,-0.09351851851851851],[-0.017083333333333308,-0.0868518518518518],[0.0109375,-0.08759259259259261],[0.03239583333333336,-0.06425925925925924],[0.018124999999999978,-0.0962962962962963],[0.009375,-0.11888888888888886],[0.02385416666666664,-0.1514814814814815],[0.007291666666666667,-0.1911111111111111],[-0.00927083333333331,-0.23074074074074077],[-0.00927083333333331,-0.23074074074074077],[0.0078125,-0.20314814814814813],[0.027187500000000024,-0.19870370370370372],[0.04718749999999995,-0.18981481481481483],[0.05166666666666669,-0.17296296296296293],[0.06281249999999995,-0.17703703703703708],[0.09458333333333328,-0.14148148148148143],[0.10229166666666671,-0.09592592592592594],[0.1099999999999999,-0.050370370370370454],[0.1345833333333334,-0.002962962962963005],[0.1345833333333334,-0.002962962962963005],[0.15916666666666662,0.044444444444444446],[0.1287499999999999,0.02388888888888885],[0.10666666666666676,0.002407407407407323],[0.10666666666666676,0.002407407407407323],[0.07843749999999995,-0.014629629629629588],[0.04666666666666662,-0.020555555555555598],[0.02802083333333331,-0.03537037037037041],[-0.0036458333333333334,-0.03685185185185181],[-0.04750000000000002,-0.060370370370370414],[-0.09125000000000003,-0.08388888888888892],[-0.08687499999999998,-0.08296296296296299],[-0.09083333333333338,-0.08796296296296297],[-0.07322916666666662,-0.07888888888888893],[-0.06645833333333329,-0.03851851851851843],[-0.06947916666666672,0.009074074074074031],[-0.06947916666666672,0.009074074074074031],[-0.06072916666666662,0.009814814814814731],[-0.06218750000000005,0.004444444444444402],[-0.05395833333333329,-0.01629629629629621],[-0.027187500000000024,-0.028888888888888933],[-0.019166666666666644,-0.02092592592592584],[-0.05020833333333338,-0.03259259259259263],[-0.04489583333333336,-0.0418518518518519],[-0.051041666666666666,-0.06407407407407412],[-0.06416666666666669,-0.06574074074074074],[-0.06197916666666667,-0.09185185185185189],[-0.06812499999999998,-0.09240740740740737],[-0.07854166666666665,-0.10629629629629625],[-0.08968750000000002,-0.10388888888888893],[-0.10187499999999995,-0.09981481481481477],[-0.07791666666666662,-0.14148148148148143],[-0.05395833333333329,-0.18314814814814812],[-0.059062500000000046,-0.1764814814814815],[-0.06541666666666662,-0.15629629629629627],[-0.11802083333333328,-0.20259259259259255],[-0.1610416666666667,-0.24351851851851852],[-0.22104166666666672,-0.26370370370370366],[-0.22104166666666672,-0.26370370370370366],[-0.2552083333333333,-0.26777777777777784]]","[[-0.0068750000000000235,0.05314814814814823,0.0005000000000023874],[-0.0068750000000000235,0.05314814814814823,0.06169999980926377],[0.034687499999999954,0.012222222222222264,0.07839999961853295],[0.03958333333333333,0.03944444444444436,0.0986999998092628],[0.08041666666666672,0.0016666666666666245,0.1117999997138952],[0.08041666666666672,0.05259259259259255,0.1322999997138936],[0.08354166666666671,0.0485185185185186,0.15179999971389435],[0.08354166666666671,0.0485185185185186,0.1616999998092652],[0.11770833333333333,-0.011481481481481566,0.17839999961852726],[0.14166666666666666,-0.01777777777777782,0.19509999990463456],[0.14208333333333342,-0.052222222222222205,0.21269999980926713],[0.11843750000000004,-0.03462962962962971,0.22839999961853152],[0.10479166666666657,-0.05537037037037033,0.24579999971389555],[0.09635416666666667,-0.04407407407407399,0.26200000000000045],[0.06770833333333333,-0.08611111111111111,0.2783999996185287],[0.034375,-0.10407407407407405,0.29519999980926315],[0.0068750000000000235,-0.1425925925925926,0.31229999971390043],[-0.04770833333333328,-0.11870370370370374,0.33239999961853073],[-0.12052083333333338,-0.13296296296296298,0.3500999999046286],[-0.12052083333333338,-0.13296296296296298,0.3617999997138952],[-0.16354166666666667,-0.13296296296296298,0.3783999996185301],[-0.19958333333333336,-0.14518518518518514,0.3950999999046303],[-0.22218749999999995,-0.15648148148148147,0.41179999971389947],[-0.25906250000000003,-0.17240740740740745,0.42849999999999966],[-0.3255208333333333,-0.17296296296296293,0.4510000000000005],[-0.3255208333333333,-0.17296296296296293,0.4618999996185309],[-0.32083333333333336,-0.15703703703703706,0.4785999999046311],[-0.32083333333333336,-0.15703703703703706,0.4950999999046317],[-0.3241666666666667,-0.0948148148148148,0.5150000000000006],[-0.3081249999999999,-0.06962962962962967,0.5325999999046331],[-0.2548958333333334,-0.047037037037036995,0.5501999998092657],[-0.2548958333333334,-0.047037037037036995,0.561799999713898],[-0.19031250000000005,-0.03777777777777774,0.582099999904635],[-0.19593750000000001,0.028703703703703703,0.5986999998092628],[-0.1658333333333334,0.07925925925925917,0.6166999998092635],[-0.12770833333333337,0.09370370370370375,0.6330000000000027],[-0.12770833333333337,0.09370370370370375,0.6490999999046352],[-0.090625,0.1198148148148149,0.6617999997138995],[-0.028750000000000022,0.169074074074074,0.6811999998092659],[-0.0421875,0.16925925925925922,0.69859999990463],[0.008541666666666715,0.11611111111111119,0.7145999999046353],[0.007708333333333309,0.13351851851851856,0.7291999998092678],[-0.010104166666666714,0.13833333333333342,0.7502999997138957],[-0.010104166666666714,0.13833333333333342,0.7652999997138963],[-0.01552083333333331,0.13129629629629624,0.7786999998092625],[0.0037500000000000237,0.10611111111111103,0.7993999996185295],[-0.008124999999999953,0.10870370370370379,0.8179999999999978],[-0.008124999999999953,0.10870370370370379,0.8286999998092668],[-0.014791666666666713,0.1259259259259259,0.8455000000000013],[-0.014791666666666713,0.1259259259259259,0.8746999998092662],[-0.01427083333333338,0.10777777777777786,0.882799999713896],[-0.01427083333333338,0.10777777777777786,0.8952999997138988],[-0.02312500000000005,0.08777777777777773,0.911999999999999],[0.015625,0.1235185185185186,0.9340999999046318],[-0.02791666666666662,0.15462962962962962,0.9512999997138962],[-0.02791666666666662,0.15462962962962962,0.9617999997138966],[-0.04041666666666662,0.14870370370370362,0.9786999998092654],[-0.04562499999999995,0.1455555555555556,1.00339999961853],[-0.04562499999999995,0.1455555555555556,1.0176999998092668],[-0.07000000000000005,0.16518518518518527,1.028500000000001],[-0.07083333333333333,0.1633333333333334,1.0489999999999995],[-0.06447916666666664,0.1111111111111111,1.0685000000000002],[-0.06447916666666664,0.1111111111111111,1.0785999999046325],[-0.06572916666666669,0.09407407407407399,1.0953999996185289],[-0.06062500000000005,0.05740740740740741,1.1127999997139],[-0.06135416666666664,0.036666666666666584,1.1291999998092663],[-0.07447916666666667,-0.03740740740740749,1.149799999713899],[-0.07447916666666667,-0.03740740740740749,1.161999999999999],[-0.06343749999999998,-0.06111111111111111,1.1783999996185273],[-0.06124999999999995,-0.08518518518518518,1.20009999990463],[-0.029375000000000047,-0.10759259259259263,1.2164999999999964],[-0.02947916666666662,-0.12148148148148152,1.2320999999046336],[-0.010312499999999976,-0.15907407407407403,1.2585999999046322],[-0.010312499999999976,-0.15907407407407403,1.2655999999046301],[-0.009583333333333381,-0.13092592592592592,1.2802999997138969],[-0.009583333333333381,-0.13092592592592592,1.3067999997138955],[0.007604166666666619,-0.11259259259259262,1.311799999713898],[0.005833333333333357,-0.07111111111111107,1.3354999999999961],[0.005833333333333357,-0.07111111111111107,1.3451999998092674],[0.025625000000000023,-0.06129629629629634,1.361699999809268],[0.025625000000000023,-0.06129629629629634,1.3785000000000025],[0.03864583333333336,-0.028888888888888933,1.3950999999046303],[0.03864583333333336,-0.028888888888888933,1.4117999997138995],[0.03604166666666669,-0.018148148148148063,1.4284999999999997],[0.03604166666666669,-0.018148148148148063,1.4450999999046346],[0.07291666666666667,-0.008333333333333333,1.4619999999999962],[0.07291666666666667,-0.008333333333333333,1.4784999999999968],[0.03447916666666669,0.015555555555555513,1.4950999999046317],[0.07635416666666663,0.0016666666666666245,1.518499999999996],[0.07635416666666663,0.0016666666666666245,1.5283999996185287],[0.06906249999999996,0.060370370370370414,1.5450999999046289],[0.06843750000000005,0.09185185185185189,1.561799999713898],[0.09010416666666667,0.06777777777777783,1.579099999904635],[0.11031250000000009,0.06185185185185181,1.5950999999046331],[0.11145833333333334,0.044999999999999915,1.6122999997138976],[0.11145833333333334,0.044999999999999915,1.6322999997138936],[0.10031249999999996,0.05388888888888893,1.6452999997138988],[0.13010416666666677,0.018518518518518517,1.6655000000000015],[0.1087500000000001,0.017592592592592594,1.6839999999999975],[0.1087500000000001,0.017592592592592594,1.7106999998092647],[0.14343750000000005,-0.009074074074074031,1.7171999998092673],[0.13250000000000003,0.0007407407407406986,1.7315999999046312],[0.13250000000000003,0.0007407407407406986,1.7490000000000023],[0.1365624999999999,-0.062407407407407384,1.7617999997138938],[0.16281249999999994,-0.10092592592592593,1.7808999996185264],[0.10145833333333343,-0.11018518518518519,1.7950999999046289],[0.029375000000000047,-0.12222222222222222,1.8119999999999976],[-0.03729166666666662,-0.1294444444444444,1.828399999618533],[-0.0067708333333333336,-0.1566666666666667,1.8450999999046331],[-0.05416666666666667,-0.16740740740740737,1.8617999997138952],[-0.06791666666666671,-0.19537037037037036,1.8785000000000025],[-0.08656250000000003,-0.22925925925925927,1.8950999999046303],[-0.10302083333333331,-0.2331481481481481,1.9117999997138995],[-0.12177083333333331,-0.22555555555555556,1.9283999996185273],[-0.16291666666666665,-0.27981481481481485,1.9450999999046346],[-0.15062500000000004,-0.29203703703703704,1.9626999998092671],[-0.1170833333333333,-0.31870370370370377,1.9783999996185315],[-0.0984375,-0.3338888888888889,1.9950999999046317],[-0.1397916666666667,-0.3675925925925926,2.015499999999996],[-0.18197916666666672,-0.3559259259259259,2.0333999996185312],[-0.23729166666666662,-0.36018518518518516,2.048399999618532],[-0.25031249999999994,-0.3168518518518519,2.0638999996185277],[-0.2634375,-0.30481481481481487,2.079099999904635],[-0.2634375,-0.30481481481481487,2.0985000000000014],[-0.23104166666666662,-0.2898148148148148,2.111799999713895],[-0.20385416666666673,-0.2207407407407407,2.129099999904632],[-0.17291666666666666,-0.21648148148148144,2.1450999999046303],[-0.16000000000000003,-0.1794444444444444,2.1617999997138995],[-0.15291666666666662,-0.16888888888888887,2.186],[-0.15291666666666662,-0.16888888888888887,2.1950000000000003],[-0.1423958333333334,-0.10925925925925926,2.2117999997138966],[-0.05135416666666662,-0.09185185185185189,2.228599999904631],[0.021145833333333287,-0.05796296296296299,2.245599999904634],[0.03677083333333329,-0.05462962962962963,2.2620000000000005],[0.042812500000000024,-0.060370370370370414,2.2783999996185287],[0.019479166666666714,-0.05555555555555555,2.2950000000000017],[0.004791666666666691,-0.02833333333333325,2.314699999809264],[-0.00791666666666669,-0.008148148148148106,2.328399999618533],[0.003958333333333286,-0.020185185185185143,2.345099999904633],[0.003958333333333286,-0.020185185185185143,2.361799999713895],[0.025,-0.014074074074074116,2.37839999961853],[0.019166666666666644,-0.01518518518518527,2.394999999999996],[-0.016250000000000025,-0.0025925925925925505,2.411699999809265],[-0.03145833333333338,-0.025,2.4291999998092635],[-0.007395833333333357,-0.038703703703703664,2.44559999990463],[0.008124999999999953,-0.037037037037037035,2.4638999996185262],[0.019687499999999976,-0.029259259259259176,2.478499999999997],[0.03343750000000002,-0.06703703703703702,2.4950999999046317],[0.05020833333333338,-0.06407407407407412,2.511799999713894],[0.06635416666666671,-0.06222222222222226,2.5283999996185287],[0.09322916666666667,-0.07240740740740745,2.5450000000000017],[0.12406249999999991,-0.09592592592592594,2.561799999713898],[0.16197916666666667,-0.09666666666666665,2.5784999999999982],[0.18427083333333344,-0.08759259259259261,2.595099999904633],[0.16822916666666668,-0.09425925925925922,2.613599999904629],[0.16822916666666668,-0.09425925925925922,2.62839999961853],[0.1712500000000001,-0.09203703703703701,2.6450999999046303],[0.1712500000000001,-0.09203703703703701,2.661699999809265],[0.17062499999999994,-0.09907407407407408,2.681699999809261],[0.17062499999999994,-0.09907407407407408,2.6950999999046346],[0.16375000000000003,-0.07537037037037035,2.7116999998092624],[0.14135416666666673,-0.05592592592592591,2.728499999999997],[0.10760416666666663,0.011296296296296339,2.74889999961853],[0.08260416666666662,0.03518518518518519,2.76559999990463],[0.07374999999999995,0.07592592592592592,2.781399999618529],[0.05375000000000003,0.08666666666666659,2.796999999999997],[0.06333333333333328,0.1051851851851851,2.8160000000000025],[0.05322916666666669,0.10648148148148148,2.8322999997138965],[0.02666666666666669,0.11629629629629622,2.8463999996185265],[0.008749999999999977,0.12166666666666676,2.8655999999046315],[0.005208333333333333,0.09518518518518514,2.881699999809264],[0.003541666666666643,0.11629629629629622,2.8950999999046303],[0.004166666666666667,0.10833333333333334,2.9150999999046334],[0.004166666666666667,0.10796296296296289,2.9318999996185298],[-0.009583333333333381,0.08499999999999996,2.947899999618528],[-0.014791666666666713,0.06314814814814819,2.967899999618531],[-0.04760416666666671,0.042407407407407366,2.9819999999999993],[-0.057395833333333354,0.054259259259259174,2.9975000000000023],[-0.08708333333333336,0.06462962962962959,3.0131999998092667],[-0.08708333333333336,0.06462962962962959,3.034099999904633],[-0.058749999999999976,0.023148148148148147,3.045099999904629],[-0.051145833333333356,0.025,3.082899999618533],[-0.051145833333333356,0.025,3.0903999996185263],[-0.051145833333333356,0.025,3.0951999998092674],[-0.05322916666666669,-0.03833333333333342,3.1118999996185295],[-0.040625,-0.09055555555555551,3.12839999961853],[-0.05645833333333338,-0.07925925925925928,3.1455999999046327],[-0.06541666666666662,-0.03722222222222227,3.1621999998092676],[-0.08062499999999997,-0.007592592592592635,3.178599999904634],[-0.08406250000000005,0.02240740740740745,3.1950999999046346],[-0.08500000000000002,0.0242592592592593,3.211899999618531],[-0.05020833333333338,-0.0031481481481482323,3.228599999904631],[-0.06520833333333335,0.016111111111111194,3.245599999904634],[-0.050937499999999976,-0.0022222222222223064,3.265099999904635],[-0.024687500000000046,-0.0031481481481482323,3.281399999618529],[-0.027395833333333286,-0.03222222222222218,3.2952999997138974],[-0.01895833333333338,-0.0787037037037037,3.3116999998092638],[-0.005208333333333333,-0.15722222222222218,3.328399999618533],[0.015625,-0.16592592592592598,3.347999999999999],[0.028645833333333332,-0.2168518518518519,3.366199999809261],[0.0484375,-0.21722222222222223,3.3826999998092617],[0.0484375,-0.21722222222222223,3.3950999999046303],[0.06072916666666662,-0.1896296296296296,3.411999999999999],[0.053125,-0.16666666666666666,3.4314999999999998],[0.05322916666666669,-0.1551851851851852,3.4486999998092642],[0.05322916666666669,-0.1551851851851852,3.461899999618531],[0.036145833333333384,-0.15351851851851847,3.4786999998092654],[0.036145833333333384,-0.15351851851851847,3.495199999809266],[0.041770833333333354,-0.12185185185185188,3.5120999999046347],[0.041770833333333354,-0.12185185185185188,3.5367999997138995],[0.029999999999999954,-0.07370370370370373,3.545499999999997],[0.029999999999999954,-0.07370370370370373,3.562099999904632],[0.0018749999999999527,-0.05055555555555547,3.5788999996185282],[-0.007708333333333309,-0.07666666666666662,3.6026999998092677],[-0.007708333333333309,-0.07666666666666662,3.612099999904629],[0.0009374999999999763,-0.04722222222222222,3.6285000000000025],[0.0017708333333333807,-0.03759259259259251,3.654199999809265],[0.0017708333333333807,-0.03759259259259251,3.6617999997138995],[0.00635416666666669,-0.05407407407407405,3.678599999904634],[0.012916666666666642,-0.07388888888888885,3.6980000000000004],[-0.008645833333333287,-0.08481481481481483,3.716799999713899],[0.007395833333333357,-0.07407407407407407,3.7330999999046313],[-0.004375000000000047,-0.0801851851851852,3.7493999996185323],[-0.004375000000000047,-0.0801851851851852,3.761899999618528],[0.00947916666666669,-0.08703703703703704,3.781899999618531],[0.015312500000000047,-0.07962962962962963,3.797699999809268],[0.005729166666666666,-0.06592592592592597,3.8155999999046344],[0.007291666666666667,-0.06981481481481479,3.835499999999996],[0.007291666666666667,-0.06981481481481479,3.8455000000000013],[0.007291666666666667,-0.10981481481481484,3.862099999904629],[0.007291666666666667,-0.10981481481481484,3.8785999999046297],[-0.0006250000000000236,-0.08851851851851854,3.8996999998092647],[0.009062500000000048,-0.05703703703703706,3.9165999999046335],[0.009062500000000048,-0.05703703703703706,3.9284999999999997],[0.022395833333333334,-0.04055555555555551,3.951199999809262],[0.022395833333333334,-0.04055555555555551,3.962299999713899],[0.02635416666666662,-0.059814814814814835,3.9787999997138996],[0.02635416666666662,-0.059814814814814835,3.9997999997139004],[0.025625000000000023,-0.05555555555555555,4.01239999961853],[0.025625000000000023,-0.05555555555555555,4.028799999713897],[0.007500000000000047,-0.05925925925925926,4.045199999809263],[0.024062500000000025,-0.05648148148148148,4.067299999713896],[0.021249999999999977,-0.05796296296296299,4.083199999809267],[0.003333333333333381,-0.06648148148148143,4.099099999904631],[-0.014479166666666644,-0.04148148148148144,4.117699999809261],[-0.014479166666666644,-0.04148148148148144,4.128699999809264],[-0.0203125,-0.07166666666666664,4.146099999904635],[-0.0203125,-0.07166666666666664,4.162099999904633],[-0.035312499999999976,-0.09870370370370372,4.18339999961853],[-0.035312499999999976,-0.09870370370370372,4.195],[-0.052187500000000026,-0.09796296296296292,4.2120999999046305],[-0.052187500000000026,-0.09796296296296292,4.2283999996185315],[-0.07687499999999996,-0.0735185185185185,4.2452999997139],[-0.07687499999999996,-0.0735185185185185,4.261899999618528],[-0.07895833333333328,-0.06703703703703702,4.278599999904635],[-0.07895833333333328,-0.06703703703703702,4.295099999904629],[-0.059687499999999956,-0.08574074074074076,4.311899999618532],[-0.06218750000000005,-0.08814814814814818,4.334799999713894],[-0.06218750000000005,-0.08814814814814818,4.345399999618529],[-0.07770833333333335,-0.08407407407407404,4.362299999713898],[-0.07614583333333336,-0.09425925925925922,4.3795999999046344],[-0.07458333333333336,-0.10444444444444441,4.399899999618526],[-0.07395833333333333,-0.0948148148148148,4.415099999904633],[-0.07614583333333336,-0.10333333333333336,4.432000000000002],[-0.11833333333333336,-0.09240740740740737,4.447599999904632],[-0.11833333333333336,-0.09240740740740737,4.465399999618526],[-0.09187500000000005,-0.11037037037037041,4.4787999997139],[-0.09416666666666665,-0.10870370370370368,4.497500000000002],[-0.09864583333333338,-0.09111111111111109,4.515199999809262],[-0.10260416666666666,-0.0940740740740741,4.530499999999996],[-0.08510416666666672,-0.11425925925925924,4.545599999904631],[-0.09093749999999995,-0.10944444444444448,4.564999999999998],[-0.08416666666666663,-0.09500000000000001,4.5811999998092645],[-0.06614583333333333,-0.10740740740740741,4.602499999999999],[-0.06614583333333333,-0.10740740740740741,4.6118999996185295],[-0.06197916666666667,-0.09111111111111109,4.62839999961853],[-0.016145833333333335,-0.10240740740740743,4.645199999809265],[-0.0421875,-0.08462962962962961,4.665699999809263],[-0.03239583333333336,-0.08907407407407411,4.682199999809264],[-0.022604166666666713,-0.09351851851851851,4.701099999904635],[-0.022604166666666713,-0.09351851851851851,4.711899999618531],[-0.017083333333333308,-0.0868518518518518,4.728499999999997],[0.0109375,-0.08759259259259261,4.745599999904634],[0.03239583333333336,-0.06425925925925924,4.764799999713894],[0.018124999999999978,-0.0962962962962963,4.781099999904633],[0.009375,-0.11888888888888886,4.797099999904631],[0.02385416666666664,-0.1514814814814815,4.815599999904634],[0.007291666666666667,-0.1911111111111111,4.833199999809267],[-0.00927083333333331,-0.23074074074074077,4.855699999809268],[-0.00927083333333331,-0.23074074074074077,4.862599999904631],[0.0078125,-0.20314814814814813,4.87839999961853],[0.027187500000000024,-0.19870370370370372,4.895599999904633],[0.04718749999999995,-0.18981481481481483,4.911699999809265],[0.05166666666666669,-0.17296296296296293,4.929599999904632],[0.06281249999999995,-0.17703703703703708,4.947699999809267],[0.09458333333333328,-0.14148148148148143,4.966299999713897],[0.10229166666666671,-0.09592592592592594,4.981099999904629],[0.1099999999999999,-0.050370370370370454,4.995699999809261],[0.1345833333333334,-0.002962962962963005,5.016199999809267],[0.1345833333333334,-0.002962962962963005,5.028599999904635],[0.15916666666666662,0.044444444444444446,5.045199999809263],[0.1287499999999999,0.02388888888888885,5.0641999998092615],[0.10666666666666676,0.002407407407407323,5.0822999997138965],[0.10666666666666676,0.002407407407407323,5.0985999999046285],[0.07843749999999995,-0.014629629629629588,5.115899999618527],[0.04666666666666662,-0.020555555555555598,5.131799999713898],[0.02802083333333331,-0.03537037037037041,5.145699999809267],[-0.0036458333333333334,-0.03685185185185181,5.162299999713895],[-0.04750000000000002,-0.060370370370370414,5.1785],[-0.09125000000000003,-0.08388888888888892,5.195],[-0.08687499999999998,-0.08296296296296299,5.211899999618531],[-0.09083333333333338,-0.08796296296296297,5.2283999996185315],[-0.07322916666666662,-0.07888888888888893,5.245399999618527],[-0.06645833333333329,-0.03851851851851843,5.265499999999996],[-0.06947916666666672,0.009074074074074031,5.280499999999996],[-0.06947916666666672,0.009074074074074031,5.302599999904629],[-0.06072916666666662,0.009814814814814731,5.311799999713898],[-0.06218750000000005,0.004444444444444402,5.328399999618533],[-0.05395833333333329,-0.01629629629629621,5.345199999809267],[-0.027187500000000024,-0.028888888888888933,5.361799999713895],[-0.019166666666666644,-0.02092592592592584,5.37859999990463],[-0.05020833333333338,-0.03259259259259263,5.39509999990463],[-0.04489583333333336,-0.0418518518518519,5.411899999618527],[-0.051041666666666666,-0.06407407407407412,5.428399999618527],[-0.06416666666666669,-0.06574074074074074,5.445099999904635],[-0.06197916666666667,-0.09185185185185189,5.461899999618531],[-0.06812499999999998,-0.09240740740740737,5.478599999904631],[-0.07854166666666665,-0.10629629629629625,5.495099999904632],[-0.08968750000000002,-0.10388888888888893,5.511899999618528],[-0.10187499999999995,-0.09981481481481477,5.528399999618529],[-0.07791666666666662,-0.14148148148148143,5.545199999809263],[-0.05395833333333329,-0.18314814814814812,5.562199999809266],[-0.059062500000000046,-0.1764814814814815,5.578499999999998],[-0.06541666666666662,-0.15629629629629627,5.597799999713899],[-0.11802083333333328,-0.20259259259259255,5.6118999996185295],[-0.1610416666666667,-0.24351851851851852,5.628699999809264],[-0.22104166666666672,-0.26370370370370366,5.645399999618533],[-0.22104166666666672,-0.26370370370370366,5.661899999618527],[-0.2552083333333333,-0.26777777777777784,5.6785]]","[0.0005000000000023874,0.06169999980926377,0.07839999961853295,0.0986999998092628,0.1117999997138952,0.1322999997138936,0.15179999971389435,0.1616999998092652,0.17839999961852726,0.19509999990463456,0.21269999980926713,0.22839999961853152,0.24579999971389555,0.26200000000000045,0.2783999996185287,0.29519999980926315,0.31229999971390043,0.33239999961853073,0.3500999999046286,0.3617999997138952,0.3783999996185301,0.3950999999046303,0.41179999971389947,0.42849999999999966,0.4510000000000005,0.4618999996185309,0.4785999999046311,0.4950999999046317,0.5150000000000006,0.5325999999046331,0.5501999998092657,0.561799999713898,0.582099999904635,0.5986999998092628,0.6166999998092635,0.6330000000000027,0.6490999999046352,0.6617999997138995,0.6811999998092659,0.69859999990463,0.7145999999046353,0.7291999998092678,0.7502999997138957,0.7652999997138963,0.7786999998092625,0.7993999996185295,0.8179999999999978,0.8286999998092668,0.8455000000000013,0.8746999998092662,0.882799999713896,0.8952999997138988,0.911999999999999,0.9340999999046318,0.9512999997138962,0.9617999997138966,0.9786999998092654,1.00339999961853,1.0176999998092668,1.028500000000001,1.0489999999999995,1.0685000000000002,1.0785999999046325,1.0953999996185289,1.1127999997139,1.1291999998092663,1.149799999713899,1.161999999999999,1.1783999996185273,1.20009999990463,1.2164999999999964,1.2320999999046336,1.2585999999046322,1.2655999999046301,1.2802999997138969,1.3067999997138955,1.311799999713898,1.3354999999999961,1.3451999998092674,1.361699999809268,1.3785000000000025,1.3950999999046303,1.4117999997138995,1.4284999999999997,1.4450999999046346,1.4619999999999962,1.4784999999999968,1.4950999999046317,1.518499999999996,1.5283999996185287,1.5450999999046289,1.561799999713898,1.579099999904635,1.5950999999046331,1.6122999997138976,1.6322999997138936,1.6452999997138988,1.6655000000000015,1.6839999999999975,1.7106999998092647,1.7171999998092673,1.7315999999046312,1.7490000000000023,1.7617999997138938,1.7808999996185264,1.7950999999046289,1.8119999999999976,1.828399999618533,1.8450999999046331,1.8617999997138952,1.8785000000000025,1.8950999999046303,1.9117999997138995,1.9283999996185273,1.9450999999046346,1.9626999998092671,1.9783999996185315,1.9950999999046317,2.015499999999996,2.0333999996185312,2.048399999618532,2.0638999996185277,2.079099999904635,2.0985000000000014,2.111799999713895,2.129099999904632,2.1450999999046303,2.1617999997138995,2.186,2.1950000000000003,2.2117999997138966,2.228599999904631,2.245599999904634,2.2620000000000005,2.2783999996185287,2.2950000000000017,2.314699999809264,2.328399999618533,2.345099999904633,2.361799999713895,2.37839999961853,2.394999999999996,2.411699999809265,2.4291999998092635,2.44559999990463,2.4638999996185262,2.478499999999997,2.4950999999046317,2.511799999713894,2.5283999996185287,2.5450000000000017,2.561799999713898,2.5784999999999982,2.595099999904633,2.613599999904629,2.62839999961853,2.6450999999046303,2.661699999809265,2.681699999809261,2.6950999999046346,2.7116999998092624,2.728499999999997,2.74889999961853,2.76559999990463,2.781399999618529,2.796999999999997,2.8160000000000025,2.8322999997138965,2.8463999996185265,2.8655999999046315,2.881699999809264,2.8950999999046303,2.9150999999046334,2.9318999996185298,2.947899999618528,2.967899999618531,2.9819999999999993,2.9975000000000023,3.0131999998092667,3.034099999904633,3.045099999904629,3.082899999618533,3.0903999996185263,3.0951999998092674,3.1118999996185295,3.12839999961853,3.1455999999046327,3.1621999998092676,3.178599999904634,3.1950999999046346,3.211899999618531,3.228599999904631,3.245599999904634,3.265099999904635,3.281399999618529,3.2952999997138974,3.3116999998092638,3.328399999618533,3.347999999999999,3.366199999809261,3.3826999998092617,3.3950999999046303,3.411999999999999,3.4314999999999998,3.4486999998092642,3.461899999618531,3.4786999998092654,3.495199999809266,3.5120999999046347,3.5367999997138995,3.545499999999997,3.562099999904632,3.5788999996185282,3.6026999998092677,3.612099999904629,3.6285000000000025,3.654199999809265,3.6617999997138995,3.678599999904634,3.6980000000000004,3.716799999713899,3.7330999999046313,3.7493999996185323,3.761899999618528,3.781899999618531,3.797699999809268,3.8155999999046344,3.835499999999996,3.8455000000000013,3.862099999904629,3.8785999999046297,3.8996999998092647,3.9165999999046335,3.9284999999999997,3.951199999809262,3.962299999713899,3.9787999997138996,3.9997999997139004,4.01239999961853,4.028799999713897,4.045199999809263,4.067299999713896,4.083199999809267,4.099099999904631,4.117699999809261,4.128699999809264,4.146099999904635,4.162099999904633,4.18339999961853,4.195,4.2120999999046305,4.2283999996185315,4.2452999997139,4.261899999618528,4.278599999904635,4.295099999904629,4.311899999618532,4.334799999713894,4.345399999618529,4.362299999713898,4.3795999999046344,4.399899999618526,4.415099999904633,4.432000000000002,4.447599999904632,4.465399999618526,4.4787999997139,4.497500000000002,4.515199999809262,4.530499999999996,4.545599999904631,4.564999999999998,4.5811999998092645,4.602499999999999,4.6118999996185295,4.62839999961853,4.645199999809265,4.665699999809263,4.682199999809264,4.701099999904635,4.711899999618531,4.728499999999997,4.745599999904634,4.764799999713894,4.781099999904633,4.797099999904631,4.815599999904634,4.833199999809267,4.855699999809268,4.862599999904631,4.87839999961853,4.895599999904633,4.911699999809265,4.929599999904632,4.947699999809267,4.966299999713897,4.981099999904629,4.995699999809261,5.016199999809267,5.028599999904635,5.045199999809263,5.0641999998092615,5.0822999997138965,5.0985999999046285,5.115899999618527,5.131799999713898,5.145699999809267,5.162299999713895,5.1785,5.195,5.211899999618531,5.2283999996185315,5.245399999618527,5.265499999999996,5.280499999999996,5.302599999904629,5.311799999713898,5.328399999618533,5.345199999809267,5.361799999713895,5.37859999990463,5.39509999990463,5.411899999618527,5.428399999618527,5.445099999904635,5.461899999618531,5.478599999904631,5.495099999904632,5.511899999618528,5.528399999618529,5.545199999809263,5.562199999809266,5.578499999999998,5.597799999713899,5.6118999996185295,5.628699999809264,5.645399999618533,5.661899999618527,5.6785]","[1732163151901,1732163151945,1732163151961,1732163151982,1732163151995,1732163152015,1732163152035,1732163152045,1732163152061,1732163152078,1732163152096,1732163152111,1732163152129,1732163152145,1732163152161,1732163152178,1732163152195,1732163152215,1732163152233,1732163152245,1732163152261,1732163152278,1732163152295,1732163152311,1732163152334,1732163152345,1732163152361,1732163152378,1732163152398,1732163152415,1732163152433,1732163152445,1732163152465,1732163152482,1732163152500,1732163152516,1732163152532,1732163152545,1732163152564,1732163152581,1732163152597,1732163152612,1732163152633,1732163152648,1732163152662,1732163152682,1732163152701,1732163152712,1732163152728,1732163152758,1732163152766,1732163152778,1732163152795,1732163152817,1732163152834,1732163152845,1732163152862,1732163152886,1732163152901,1732163152911,1732163152932,1732163152951,1732163152961,1732163152978,1732163152996,1732163153012,1732163153033,1732163153045,1732163153061,1732163153083,1732163153099,1732163153115,1732163153141,1732163153148,1732163153163,1732163153190,1732163153195,1732163153218,1732163153228,1732163153245,1732163153261,1732163153278,1732163153295,1732163153311,1732163153328,1732163153345,1732163153361,1732163153378,1732163153401,1732163153411,1732163153428,1732163153445,1732163153462,1732163153478,1732163153495,1732163153515,1732163153528,1732163153548,1732163153567,1732163153594,1732163153600,1732163153614,1732163153632,1732163153645,1732163153664,1732163153678,1732163153695,1732163153711,1732163153728,1732163153745,1732163153761,1732163153778,1732163153795,1732163153811,1732163153828,1732163153845,1732163153861,1732163153878,1732163153898,1732163153916,1732163153931,1732163153947,1732163153962,1732163153981,1732163153995,1732163154012,1732163154028,1732163154045,1732163154069,1732163154078,1732163154095,1732163154111,1732163154128,1732163154145,1732163154161,1732163154178,1732163154198,1732163154211,1732163154228,1732163154245,1732163154261,1732163154278,1732163154295,1732163154312,1732163154328,1732163154347,1732163154361,1732163154378,1732163154395,1732163154411,1732163154428,1732163154445,1732163154461,1732163154478,1732163154497,1732163154511,1732163154528,1732163154545,1732163154564,1732163154578,1732163154595,1732163154611,1732163154632,1732163154648,1732163154664,1732163154680,1732163154699,1732163154715,1732163154729,1732163154748,1732163154765,1732163154778,1732163154798,1732163154815,1732163154831,1732163154851,1732163154865,1732163154880,1732163154896,1732163154917,1732163154928,1732163154966,1732163154973,1732163154978,1732163154995,1732163155011,1732163155028,1732163155045,1732163155061,1732163155078,1732163155095,1732163155111,1732163155129,1732163155148,1732163155164,1732163155178,1732163155195,1732163155211,1732163155231,1732163155249,1732163155266,1732163155278,1732163155295,1732163155314,1732163155332,1732163155345,1732163155362,1732163155378,1732163155395,1732163155420,1732163155428,1732163155445,1732163155462,1732163155485,1732163155495,1732163155511,1732163155537,1732163155545,1732163155561,1732163155581,1732163155600,1732163155616,1732163155632,1732163155645,1732163155665,1732163155681,1732163155698,1732163155718,1732163155728,1732163155745,1732163155762,1732163155783,1732163155799,1732163155811,1732163155834,1732163155845,1732163155862,1732163155883,1732163155895,1732163155912,1732163155928,1732163155950,1732163155966,1732163155982,1732163156000,1732163156011,1732163156029,1732163156045,1732163156066,1732163156078,1732163156095,1732163156111,1732163156128,1732163156145,1732163156161,1732163156178,1732163156195,1732163156218,1732163156228,1732163156245,1732163156262,1732163156283,1732163156298,1732163156315,1732163156330,1732163156348,1732163156362,1732163156380,1732163156398,1732163156413,1732163156428,1732163156448,1732163156464,1732163156485,1732163156495,1732163156511,1732163156528,1732163156549,1732163156565,1732163156584,1732163156595,1732163156611,1732163156628,1732163156648,1732163156664,1732163156680,1732163156698,1732163156716,1732163156739,1732163156745,1732163156761,1732163156778,1732163156795,1732163156812,1732163156831,1732163156849,1732163156864,1732163156879,1732163156899,1732163156911,1732163156928,1732163156947,1732163156965,1732163156981,1732163156999,1732163157015,1732163157029,1732163157045,1732163157061,1732163157078,1732163157095,1732163157111,1732163157128,1732163157148,1732163157163,1732163157185,1732163157195,1732163157211,1732163157228,1732163157245,1732163157261,1732163157278,1732163157295,1732163157311,1732163157328,1732163157345,1732163157361,1732163157378,1732163157395,1732163157411,1732163157428,1732163157445,1732163157461,1732163157481,1732163157495,1732163157512,1732163157528,1732163157545,1732163157561]","[[953.4,568.7],[953.4,568.7],[993.3,546.6],[998,561.3],[1037.2,540.9],[1037.2,568.4],[1040.2,566.2],[1040.2,566.2],[1073,533.8],[1096,530.4],[1096.4,511.8],[1073.7,521.3],[1060.6,510.1],[1052.5,516.2],[1025,493.5],[993,483.8],[966.6,463],[914.2,475.9],[844.3,468.2],[844.3,468.2],[803,468.2],[768.4,461.6],[746.7,455.5],[711.3,446.9],[647.5,446.6],[647.5,446.6],[652,455.2],[652,455.2],[648.8,488.8],[664.2,502.4],[715.3,514.6],[715.3,514.6],[777.3,519.6],[771.9,555.5],[800.8,582.8],[837.4,590.6],[837.4,590.6],[873,604.7],[932.4,631.3],[919.5,631.4],[968.2,602.7],[967.4,612.1],[950.3,614.7],[950.3,614.7],[945.1,610.9],[963.6,597.3],[952.2,598.7],[952.2,598.7],[945.8,608],[945.8,608],[946.3,598.2],[946.3,598.2],[937.8,587.4],[975,606.7],[933.2,623.5],[933.2,623.5],[921.2,620.3],[916.2,618.6],[916.2,618.6],[892.8,629.2],[892,628.2],[898.1,600],[898.1,600],[896.9,590.8],[901.8,571],[901.1,559.8],[888.5,519.8],[888.5,519.8],[899.1,507],[901.2,494],[931.8,481.9],[931.7,474.4],[950.1,454.1],[950.1,454.1],[950.8,469.3],[950.8,469.3],[967.3,479.2],[965.6,501.6],[965.6,501.6],[984.6,506.9],[984.6,506.9],[997.1,524.4],[997.1,524.4],[994.6,530.2],[994.6,530.2],[1030,535.5],[1030,535.5],[993.1,548.4],[1033.3,540.9],[1033.3,540.9],[1026.3,572.6],[1025.7,589.6],[1046.5,576.6],[1065.9,573.4],[1067,564.3],[1067,564.3],[1056.3,569.1],[1084.9,550],[1064.4,549.5],[1064.4,549.5],[1097.7,535.1],[1087.2,540.4],[1087.2,540.4],[1091.1,506.3],[1116.3,485.5],[1057.4,480.5],[988.2,474],[924.2,470.1],[953.5,455.4],[908,449.6],[894.8,434.5],[876.9,416.2],[861.1,414.1],[843.1,418.2],[803.6,388.9],[815.4,382.3],[847.6,367.9],[865.5,359.7],[825.8,341.5],[785.3,347.8],[732.2,345.5],[719.7,368.9],[707.1,375.4],[707.1,375.4],[738.2,383.5],[764.3,420.8],[794,423.1],[806.4,443.1],[813.2,448.8],[813.2,448.8],[823.3,481],[910.7,490.4],[980.3,508.7],[995.3,510.5],[1001.1,507.4],[978.7,510],[964.6,524.7],[952.4,535.6],[963.8,529.1],[963.8,529.1],[984,532.4],[978.4,531.8],[944.4,538.6],[929.8,526.5],[952.9,519.1],[967.8,520],[978.9,524.2],[992.1,503.8],[1008.2,505.4],[1023.7,506.4],[1049.5,500.9],[1079.1,488.2],[1115.5,487.8],[1136.9,492.7],[1121.5,489.1],[1121.5,489.1],[1124.4,490.3],[1124.4,490.3],[1123.8,486.5],[1123.8,486.5],[1117.2,499.3],[1095.7,509.8],[1063.3,546.1],[1039.3,559],[1030.8,581],[1011.6,586.8],[1020.8,596.8],[1011.1,597.5],[985.6,602.8],[968.4,605.7],[965,591.4],[963.4,602.8],[964,598.5],[964,598.3],[950.8,585.9],[945.8,574.1],[914.3,562.9],[904.9,569.3],[876.4,574.9],[876.4,574.9],[903.6,552.5],[910.9,553.5],[910.9,553.5],[910.9,553.5],[908.9,519.3],[921,491.1],[905.8,497.2],[897.2,519.9],[882.6,535.9],[879.3,552.1],[878.4,553.1],[911.8,538.3],[897.4,548.7],[911.1,538.8],[936.3,538.3],[933.7,522.6],[941.8,497.5],[955,455.1],[975,450.4],[987.5,422.9],[1006.5,422.7],[1006.5,422.7],[1018.3,437.6],[1011,450],[1011.1,456.2],[1011.1,456.2],[994.7,457.1],[994.7,457.1],[1000.1,474.2],[1000.1,474.2],[988.8,500.2],[988.8,500.2],[961.8,512.7],[952.6,498.6],[952.6,498.6],[960.9,514.5],[961.7,519.7],[961.7,519.7],[966.1,510.8],[972.4,500.1],[951.7,494.2],[967.1,500],[955.8,496.7],[955.8,496.7],[969.1,493],[974.7,497],[965.5,504.4],[967,502.3],[967,502.3],[967,480.7],[967,480.7],[959.4,492.2],[968.7,509.2],[968.7,509.2],[981.5,518.1],[981.5,518.1],[985.3,507.7],[985.3,507.7],[984.6,510],[984.6,510],[967.2,508],[983.1,509.5],[980.4,508.7],[963.2,504.1],[946.1,517.6],[946.1,517.6],[940.5,501.3],[940.5,501.3],[926.1,486.7],[926.1,486.7],[909.9,487.1],[909.9,487.1],[886.2,500.3],[886.2,500.3],[884.2,503.8],[884.2,503.8],[902.7,493.7],[900.3,492.4],[900.3,492.4],[885.4,494.6],[886.9,489.1],[888.4,483.6],[889,488.8],[886.9,484.2],[846.4,490.1],[846.4,490.1],[871.8,480.4],[869.6,481.3],[865.3,490.8],[861.5,489.2],[878.3,478.3],[872.7,480.9],[879.2,488.7],[896.5,482],[896.5,482],[900.5,490.8],[944.5,484.7],[919.5,494.3],[928.9,491.9],[938.3,489.5],[938.3,489.5],[943.6,493.1],[970.5,492.7],[991.1,505.3],[977.4,488],[969,475.8],[982.9,458.2],[967,436.8],[951.1,415.4],[951.1,415.4],[967.5,430.3],[986.1,432.7],[1005.3,437.5],[1009.6,446.6],[1020.3,444.4],[1050.8,463.6],[1058.2,488.2],[1065.6,512.8],[1089.2,538.4],[1089.2,538.4],[1112.8,564],[1083.6,552.9],[1062.4,541.3],[1062.4,541.3],[1035.3,532.1],[1004.8,528.9],[986.9,520.9],[956.5,520.1],[914.4,507.4],[872.4,494.7],[876.6,495.2],[872.8,492.5],[889.7,497.4],[896.2,519.2],[893.3,544.9],[893.3,544.9],[901.7,545.3],[900.3,542.4],[908.2,531.2],[933.9,524.4],[941.6,528.7],[911.8,522.4],[916.9,517.4],[911,505.4],[898.4,504.5],[900.5,490.4],[894.6,490.1],[884.6,482.6],[873.9,483.9],[862.2,486.1],[885.2,463.6],[908.2,441.1],[903.3,444.7],[897.2,455.6],[846.7,430.6],[805.4,408.5],[747.8,397.6],[747.8,397.6],[715,395.4]]","[-0.056692,0.170076]","[0.056692,0.170076]","[0.170076,0.170076]","[-0.170076,-0.170076]","[-0.170076,0.056692]","[-0.170076,-0.056692]","[-0.056692,-0.170076]","[0.056692,-0.170076]","[0.170076,-0.170076]","[-0.056692,0.056692]","[0.056692,0.056692]","[0.170076,0.056692]","[-0.056692,-0.056692]","[0.056692,-0.056692]","[0.170076,-0.056692]",0,0,0,0,1,2,Smartphone,15,20,8,3,70,4,3,60,4
