inst1_resp.keys,inst1_resp.rt,calibrationMouse.x,calibrationMouse.y,calibrationMouse.leftButton,calibrationMouse.midButton,calibrationMouse.rightButton,calibrationClick.x,calibrationClick.y,calibrationClick.leftButton,calibrationClick.midButton,calibrationClick.rightButton,calibrationClick.clicked_name,trialsc.thisRepN,trialsc.thisTrialN,trialsc.thisN,trialsc.thisIndex,trialsc.ran,calibration_x,calibration_y,participant,session,date,expName,psychopyVersion,OS,frameRate,ScreenRes_pixels,Camera_pixels,mouse_2.x,mouse_2.y,mouse_2.leftButton,mouse_2.midButton,mouse_2.rightButton,mouse_2.time,mouse_2.clicked_name,mouse.x,mouse.y,mouse.leftButton,mouse.midButton,mouse.rightButton,mouse.time,mouse.clicked_name,Choice,Trial,TrialDuration,MOUSE_GAZE,ET_GAZE,ET_GAZE_x_T,time,unixTime,ET_GAZE_NF,Loc_Bus_label,Loc_Metro_label,Loc_RH_label,Loc_Cost_label,Loc_Travel_label,Loc_Comfort_label,Loc_Bus_cost,Loc_Metro_cost,Loc_RH_cost,Loc_Bus_travel,Loc_Metro_travel,Loc_RH_travel,Loc_Bus_comfort,Loc_Metro_comfort,Loc_RH_comfort,trials.thisRepN,trials.thisTrialN,trials.thisN,trials.thisIndex,trials.ran,Block,Device,RH_cost,RH_travel_time,RH_Comfort,metro_cost,metro_travel_time,metro_Comfort,Bus_cost,Bus_travel_time,Bus_Comfort
space,7.6707,0.004166667,-0.253703704,1,0,0,-0.675,-0.32962963,1,0,0,calibration_square,0,0,0,1,1,-0.67,-0.33,12,001,2024-11-21_13h02.24.120,Attention_exp_legacy,2023.1.0,Win32,60.24096386,,,,,,,,,,,,,,,,,,,,,,,,,,,,,,,,,,,,,,,,,,,,,,,,,,,,,,,,
,,,,,,,-0.66875,0.337037037,1,0,0,calibration_square,0,1,1,3,1,-0.67,0.33,12,001,2024-11-21_13h02.24.120,Attention_exp_legacy,2023.1.0,Win32,60.24096386,,,,,,,,,,,,,,,,,,,,,,,,,,,,,,,,,,,,,,,,,,,,,,,,,,,,,,,,
,,,,,,,0.669791667,-0.67037037,1,0,0,calibration_square,0,2,2,20,1,0.67,-0.67,12,001,2024-11-21_13h02.24.120,Attention_exp_legacy,2023.1.0,Win32,60.24096386,,,,,,,,,,,,,,,,,,,,,,,,,,,,,,,,,,,,,,,,,,,,,,,,,,,,,,,,
,,,,,,,0.342708333,-0.657407407,1,0,0,,0,3,3,14,1,0.33,-0.67,12,001,2024-11-21_13h02.24.120,Attention_exp_legacy,2023.1.0,Win32,60.24096386,,,,,,,,,,,,,,,,,,,,,,,,,,,,,,,,,,,,,,,,,,,,,,,,,,,,,,,,
,,,,,,,0.330208333,0.681481481,1,0,0,,0,4,4,18,1,0.33,0.67,12,001,2024-11-21_13h02.24.120,Attention_exp_legacy,2023.1.0,Win32,60.24096386,,,,,,,,,,,,,,,,,,,,,,,,,,,,,,,,,,,,,,,,,,,,,,,,,,,,,,,,
,,,,,,,-0.002083333,-0.322222222,1,0,0,calibration_square,0,5,5,10,1,0,-0.33,12,001,2024-11-21_13h02.24.120,Attention_exp_legacy,2023.1.0,Win32,60.24096386,,,,,,,,,,,,,,,,,,,,,,,,,,,,,,,,,,,,,,,,,,,,,,,,,,,,,,,,
,,,,,,,-0.335416667,-0.677777778,1,0,0,calibration_square,0,6,6,4,1,-0.33,-0.67,12,001,2024-11-21_13h02.24.120,Attention_exp_legacy,2023.1.0,Win32,60.24096386,,,,,,,,,,,,,,,,,,,,,,,,,,,,,,,,,,,,,,,,,,,,,,,,,,,,,,,,
,,,,,,,0.007291667,0.009259259,1,0,0,calibration_square,0,7,7,11,1,0,0,12,001,2024-11-21_13h02.24.120,Attention_exp_legacy,2023.1.0,Win32,60.24096386,,,,,,,,,,,,,,,,,,,,,,,,,,,,,,,,,,,,,,,,,,,,,,,,,,,,,,,,
,,,,,,,-0.689583333,-0.672222222,1,0,0,,0,8,8,0,1,-0.67,-0.67,12,001,2024-11-21_13h02.24.120,Attention_exp_legacy,2023.1.0,Win32,60.24096386,,,,,,,,,,,,,,,,,,,,,,,,,,,,,,,,,,,,,,,,,,,,,,,,,,,,,,,,
,,,,,,,-0.325,0.685185185,1,0,0,,0,9,9,8,1,-0.33,0.67,12,001,2024-11-21_13h02.24.120,Attention_exp_legacy,2023.1.0,Win32,60.24096386,,,,,,,,,,,,,,,,,,,,,,,,,,,,,,,,,,,,,,,,,,,,,,,,,,,,,,,,
,,,,,,,-0.33125,0.32962963,1,0,0,calibration_square,0,10,10,7,1,-0.33,0.33,12,001,2024-11-21_13h02.24.120,Attention_exp_legacy,2023.1.0,Win32,60.24096386,,,,,,,,,,,,,,,,,,,,,,,,,,,,,,,,,,,,,,,,,,,,,,,,,,,,,,,,
,,,,,,,-0.661458333,0.009259259,1,0,0,calibration_square,0,11,11,2,1,-0.67,0,12,001,2024-11-21_13h02.24.120,Attention_exp_legacy,2023.1.0,Win32,60.24096386,,,,,,,,,,,,,,,,,,,,,,,,,,,,,,,,,,,,,,,,,,,,,,,,,,,,,,,,
,,,,,,,-0.334375,-0.003703704,1,0,0,calibration_square,0,12,12,6,1,-0.33,0,12,001,2024-11-21_13h02.24.120,Attention_exp_legacy,2023.1.0,Win32,60.24096386,,,,,,,,,,,,,,,,,,,,,,,,,,,,,,,,,,,,,,,,,,,,,,,,,,,,,,,,
,,,,,,,0.3375,0.012962963,1,0,0,,0,13,13,16,1,0.33,0,12,001,2024-11-21_13h02.24.120,Attention_exp_legacy,2023.1.0,Win32,60.24096386,,,,,,,,,,,,,,,,,,,,,,,,,,,,,,,,,,,,,,,,,,,,,,,,,,,,,,,,
,,,,,,,0.008333333,-0.651851852,1,0,0,,0,14,14,9,1,0,-0.67,12,001,2024-11-21_13h02.24.120,Attention_exp_legacy,2023.1.0,Win32,60.24096386,,,,,,,,,,,,,,,,,,,,,,,,,,,,,,,,,,,,,,,,,,,,,,,,,,,,,,,,
,,,,,,,0.001041667,0.335185185,1,0,0,calibration_square,0,15,15,12,1,0,0.33,12,001,2024-11-21_13h02.24.120,Attention_exp_legacy,2023.1.0,Win32,60.24096386,,,,,,,,,,,,,,,,,,,,,,,,,,,,,,,,,,,,,,,,,,,,,,,,,,,,,,,,
,,,,,,,0.654166667,0.668518519,1,0,0,,0,16,16,19,1,0.67,0.67,12,001,2024-11-21_13h02.24.120,Attention_exp_legacy,2023.1.0,Win32,60.24096386,,,,,,,,,,,,,,,,,,,,,,,,,,,,,,,,,,,,,,,,,,,,,,,,,,,,,,,,
,,,,,,,0.321875,0.337037037,1,0,0,calibration_square,0,17,17,17,1,0.33,0.33,12,001,2024-11-21_13h02.24.120,Attention_exp_legacy,2023.1.0,Win32,60.24096386,,,,,,,,,,,,,,,,,,,,,,,,,,,,,,,,,,,,,,,,,,,,,,,,,,,,,,,,
,,,,,,,-0.003125,0.666666667,1,0,0,calibration_square,0,18,18,13,1,0,0.67,12,001,2024-11-21_13h02.24.120,Attention_exp_legacy,2023.1.0,Win32,60.24096386,,,,,,,,,,,,,,,,,,,,,,,,,,,,,,,,,,,,,,,,,,,,,,,,,,,,,,,,
,,,,,,,-0.329166667,-0.309259259,1,0,0,,0,19,19,5,1,-0.33,-0.33,12,001,2024-11-21_13h02.24.120,Attention_exp_legacy,2023.1.0,Win32,60.24096386,,,,,,,,,,,,,,,,,,,,,,,,,,,,,,,,,,,,,,,,,,,,,,,,,,,,,,,,
,,,,,,,0.327083333,-0.322222222,1,0,0,calibration_square,0,20,20,15,1,0.33,-0.33,12,001,2024-11-21_13h02.24.120,Attention_exp_legacy,2023.1.0,Win32,60.24096386,,,,,,,,,,,,,,,,,,,,,,,,,,,,,,,,,,,,,,,,,,,,,,,,,,,,,,,,
,,,,,,,,,,,,,,,,,,,,12,001,2024-11-21_13h02.24.120,Attention_exp_legacy,2023.1.0,Win32,60.24096386,"[1920,1080]","[640,480]",[0.057291666666666664],[-0.4925925925925926],[1],[0],[0],[4.763299999713901],"[""StartButton""]",[-0.10520833333333333],[0.412962962962963],[1],[0],[0],[13.748400000095351],"[""Bus_label""]",Bus_label,1,14.7732,"[[0.057291666666666664,-0.4925925925925926],[0.057291666666666664,-0.4925925925925926],[0.057291666666666664,-0.4925925925925926],[0.057291666666666664,-0.4925925925925926],[0.057291666666666664,-0.4925925925925926],[0.057291666666666664,-0.4925925925925926],[0.057291666666666664,-0.4925925925925926],[0.057291666666666664,-0.4925925925925926],[0.057291666666666664,-0.4925925925925926],[0.057291666666666664,-0.4925925925925926],[0.057291666666666664,-0.4925925925925926],[0.057291666666666664,-0.4925925925925926],[0.057291666666666664,-0.4925925925925926],[0.057291666666666664,-0.4925925925925926],[0.057291666666666664,-0.4925925925925926],[0.057291666666666664,-0.4925925925925926],[0.057291666666666664,-0.4925925925925926],[0.057291666666666664,-0.4925925925925926],[0.057291666666666664,-0.4925925925925926],[0.057291666666666664,-0.4925925925925926],[0.057291666666666664,-0.4925925925925926],[0.057291666666666664,-0.4925925925925926],[0.057291666666666664,-0.4925925925925926],[0.057291666666666664,-0.4925925925925926],[0.057291666666666664,-0.4925925925925926],[0.057291666666666664,-0.4925925925925926],[0.057291666666666664,-0.4925925925925926],[0.057291666666666664,-0.4925925925925926],[0.057291666666666664,-0.4925925925925926],[0.057291666666666664,-0.4925925925925926],[0.057291666666666664,-0.4925925925925926],[0.057291666666666664,-0.4925925925925926],[0.057291666666666664,-0.4925925925925926],[0.057291666666666664,-0.4925925925925926],[0.057291666666666664,-0.4925925925925926],[0.057291666666666664,-0.4925925925925926],[0.057291666666666664,-0.4925925925925926],[0.057291666666666664,-0.4925925925925926],[0.057291666666666664,-0.4925925925925926],[0.057291666666666664,-0.4925925925925926],[0.057291666666666664,-0.4925925925925926],[0.057291666666666664,-0.4925925925925926],[0.057291666666666664,-0.4925925925925926],[0.057291666666666664,-0.4925925925925926],[0.057291666666666664,-0.4925925925925926],[0.057291666666666664,-0.4925925925925926],[0.057291666666666664,-0.4925925925925926],[0.057291666666666664,-0.4925925925925926],[0.057291666666666664,-0.4925925925925926],[0.057291666666666664,-0.4925925925925926],[0.057291666666666664,-0.4925925925925926],[0.057291666666666664,-0.4925925925925926],[0.057291666666666664,-0.4925925925925926],[0.057291666666666664,-0.4925925925925926],[0.057291666666666664,-0.4925925925925926],[0.057291666666666664,-0.4925925925925926],[0.057291666666666664,-0.4925925925925926],[0.057291666666666664,-0.4925925925925926],[0.057291666666666664,-0.4925925925925926],[0.057291666666666664,-0.4925925925925926],[0.057291666666666664,-0.4925925925925926],[0.057291666666666664,-0.4925925925925926],[0.057291666666666664,-0.4925925925925926],[0.057291666666666664,-0.4925925925925926],[0.057291666666666664,-0.4925925925925926],[0.057291666666666664,-0.4925925925925926],[0.057291666666666664,-0.4925925925925926],[0.057291666666666664,-0.4925925925925926],[0.057291666666666664,-0.4925925925925926],[0.057291666666666664,-0.4925925925925926],[0.057291666666666664,-0.4925925925925926],[0.057291666666666664,-0.4925925925925926],[0.057291666666666664,-0.4925925925925926],[0.057291666666666664,-0.4925925925925926],[0.057291666666666664,-0.4925925925925926],[0.057291666666666664,-0.4925925925925926],[0.057291666666666664,-0.4925925925925926],[0.057291666666666664,-0.4925925925925926],[0.057291666666666664,-0.4925925925925926],[0.057291666666666664,-0.4925925925925926],[0.057291666666666664,-0.4925925925925926],[0.057291666666666664,-0.4925925925925926],[0.057291666666666664,-0.4925925925925926],[0.057291666666666664,-0.4925925925925926],[0.057291666666666664,-0.4925925925925926],[0.057291666666666664,-0.4925925925925926],[0.057291666666666664,-0.4925925925925926],[0.057291666666666664,-0.4925925925925926],[0.057291666666666664,-0.4925925925925926],[0.057291666666666664,-0.4925925925925926],[0.057291666666666664,-0.4925925925925926],[0.057291666666666664,-0.4925925925925926],[0.057291666666666664,-0.4925925925925926],[0.057291666666666664,-0.4925925925925926],[0.057291666666666664,-0.4925925925925926],[0.057291666666666664,-0.4925925925925926],[0.057291666666666664,-0.4925925925925926],[0.057291666666666664,-0.4925925925925926],[0.057291666666666664,-0.4925925925925926],[0.057291666666666664,-0.4925925925925926],[0.057291666666666664,-0.4925925925925926],[0.057291666666666664,-0.4925925925925926],[0.057291666666666664,-0.4925925925925926],[0.057291666666666664,-0.4925925925925926],[0.057291666666666664,-0.4925925925925926],[0.057291666666666664,-0.4925925925925926],[0.057291666666666664,-0.4925925925925926],[0.057291666666666664,-0.4925925925925926],[0.057291666666666664,-0.4925925925925926],[0.057291666666666664,-0.4925925925925926],[0.057291666666666664,-0.4925925925925926],[0.057291666666666664,-0.4925925925925926],[0.057291666666666664,-0.4925925925925926],[0.057291666666666664,-0.4925925925925926],[0.057291666666666664,-0.4925925925925926],[0.057291666666666664,-0.4925925925925926],[0.057291666666666664,-0.49074074074074076],[0.057291666666666664,-0.49074074074074076],[0.057291666666666664,-0.49074074074074076],[0.057291666666666664,-0.49074074074074076],[0.057291666666666664,-0.49074074074074076],[0.057291666666666664,-0.49074074074074076],[0.057291666666666664,-0.49074074074074076],[0.057291666666666664,-0.49074074074074076],[0.057291666666666664,-0.49074074074074076],[0.057291666666666664,-0.49074074074074076],[0.057291666666666664,-0.49074074074074076],[0.057291666666666664,-0.49074074074074076],[0.057291666666666664,-0.49074074074074076],[0.057291666666666664,-0.49074074074074076],[0.057291666666666664,-0.49074074074074076],[0.057291666666666664,-0.49074074074074076],[0.05416666666666667,-0.4888888888888889],[0.053125,-0.4888888888888889],[0.052083333333333336,-0.4888888888888889],[0.051041666666666666,-0.48703703703703705],[0.04895833333333333,-0.48703703703703705],[0.04791666666666667,-0.48703703703703705],[0.04583333333333333,-0.48703703703703705],[0.04479166666666667,-0.48703703703703705],[0.041666666666666664,-0.48518518518518516],[0.03854166666666667,-0.48148148148148145],[0.035416666666666666,-0.48148148148148145],[0.03229166666666667,-0.4777777777777778],[0.027083333333333334,-0.4722222222222222],[0.020833333333333332,-0.4648148148148148],[0.017708333333333333,-0.45555555555555555],[0.013541666666666667,-0.4462962962962963],[0.00625,-0.42962962962962964],[0,-0.4166666666666667],[-0.005208333333333333,-0.40370370370370373],[-0.015625,-0.37777777777777777],[-0.01875,-0.3685185185185185],[-0.029166666666666667,-0.34814814814814815],[-0.040625,-0.32592592592592595],[-0.053125,-0.29814814814814816],[-0.06041666666666667,-0.2833333333333333],[-0.065625,-0.26851851851851855],[-0.07291666666666667,-0.2462962962962963],[-0.07916666666666666,-0.22407407407407406],[-0.08645833333333333,-0.20185185185185187],[-0.09166666666666666,-0.18518518518518517],[-0.1,-0.17037037037037037],[-0.10625,-0.15185185185185185],[-0.11354166666666667,-0.13518518518518519],[-0.12395833333333334,-0.10185185185185185],[-0.13020833333333334,-0.07592592592592592],[-0.13854166666666667,-0.05555555555555555],[-0.14166666666666666,-0.03888888888888889],[-0.15104166666666666,-0.011111111111111112],[-0.15520833333333334,0.003703703703703704],[-0.15729166666666666,0.014814814814814815],[-0.159375,0.024074074074074074],[-0.1625,0.03333333333333333],[-0.1625,0.03888888888888889],[-0.16458333333333333,0.044444444444444446],[-0.16458333333333333,0.04814814814814815],[-0.16666666666666666,0.053703703703703705],[-0.16666666666666666,0.05925925925925926],[-0.16666666666666666,0.06666666666666667],[-0.16770833333333332,0.07777777777777778],[-0.16770833333333332,0.08518518518518518],[-0.16770833333333332,0.09444444444444444],[-0.16770833333333332,0.1037037037037037],[-0.16458333333333333,0.11296296296296296],[-0.15729166666666666,0.1259259259259259],[-0.15,0.13518518518518519],[-0.14270833333333333,0.1425925925925926],[-0.13645833333333332,0.14629629629629629],[-0.13020833333333334,0.15185185185185185],[-0.12708333333333333,0.1537037037037037],[-0.12291666666666666,0.1537037037037037],[-0.12083333333333333,0.1574074074074074],[-0.12083333333333333,0.1574074074074074],[-0.11979166666666667,0.1574074074074074],[-0.11979166666666667,0.1574074074074074],[-0.11875,0.1574074074074074],[-0.11770833333333333,0.1574074074074074],[-0.11666666666666667,0.1574074074074074],[-0.11458333333333333,0.1574074074074074],[-0.11354166666666667,0.1574074074074074],[-0.11145833333333334,0.1574074074074074],[-0.10833333333333334,0.1574074074074074],[-0.10416666666666667,0.1574074074074074],[-0.103125,0.1574074074074074],[-0.096875,0.1537037037037037],[-0.09583333333333334,0.15185185185185185],[-0.09479166666666666,0.15],[-0.09375,0.15],[-0.09375,0.15],[-0.09375,0.15],[-0.09375,0.15],[-0.09375,0.15],[-0.09375,0.15],[-0.09375,0.15],[-0.09375,0.15],[-0.09375,0.15],[-0.09375,0.15],[-0.09375,0.15],[-0.09375,0.15],[-0.09375,0.15],[-0.09375,0.15],[-0.09375,0.14814814814814814],[-0.09270833333333334,0.14444444444444443],[-0.09270833333333334,0.1425925925925926],[-0.09166666666666666,0.1388888888888889],[-0.09166666666666666,0.13703703703703704],[-0.09166666666666666,0.13333333333333333],[-0.09166666666666666,0.13148148148148148],[-0.09166666666666666,0.12962962962962962],[-0.09166666666666666,0.12777777777777777],[-0.09166666666666666,0.12777777777777777],[-0.09166666666666666,0.1259259259259259],[-0.09166666666666666,0.1259259259259259],[-0.09166666666666666,0.1259259259259259],[-0.09166666666666666,0.1259259259259259],[-0.09166666666666666,0.1259259259259259],[-0.09166666666666666,0.1259259259259259],[-0.09166666666666666,0.12407407407407407],[-0.09270833333333334,0.12407407407407407],[-0.09375,0.12222222222222222],[-0.096875,0.12037037037037036],[-0.09791666666666667,0.11851851851851852],[-0.1,0.11666666666666667],[-0.10104166666666667,0.11481481481481481],[-0.10104166666666667,0.10740740740740741],[-0.103125,0.10185185185185185],[-0.103125,0.0962962962962963],[-0.103125,0.08518518518518518],[-0.103125,0.07407407407407407],[-0.103125,0.06481481481481481],[-0.103125,0.05555555555555555],[-0.103125,0.04814814814814815],[-0.103125,0.03888888888888889],[-0.103125,0.025925925925925925],[-0.103125,0.014814814814814815],[-0.103125,0.003703703703703704],[-0.103125,-0.009259259259259259],[-0.10416666666666667,-0.020370370370370372],[-0.10625,-0.037037037037037035],[-0.10833333333333334,-0.046296296296296294],[-0.109375,-0.053703703703703705],[-0.11145833333333334,-0.06296296296296296],[-0.1125,-0.06666666666666667],[-0.11666666666666667,-0.07962962962962963],[-0.11979166666666667,-0.09074074074074075],[-0.12291666666666666,-0.1037037037037037],[-0.12708333333333333,-0.11296296296296296],[-0.13020833333333334,-0.12407407407407407],[-0.13541666666666666,-0.1388888888888889],[-0.1375,-0.1425925925925926],[-0.140625,-0.15555555555555556],[-0.14375,-0.16111111111111112],[-0.14791666666666667,-0.1685185185185185],[-0.15,-0.17592592592592593],[-0.15625,-0.18888888888888888],[-0.15833333333333333,-0.19444444444444445],[-0.16145833333333334,-0.20185185185185187],[-0.16354166666666667,-0.20555555555555555],[-0.16666666666666666,-0.2111111111111111],[-0.17083333333333334,-0.21851851851851853],[-0.17291666666666666,-0.22407407407407406],[-0.17604166666666668,-0.23148148148148148],[-0.178125,-0.23703703703703705],[-0.17916666666666667,-0.2388888888888889],[-0.18020833333333333,-0.24074074074074073],[-0.18125,-0.24259259259259258],[-0.18125,-0.24259259259259258],[-0.18333333333333332,-0.24259259259259258],[-0.18645833333333334,-0.23148148148148148],[-0.190625,-0.2074074074074074],[-0.19479166666666667,-0.17962962962962964],[-0.19895833333333332,-0.15185185185185185],[-0.20208333333333334,-0.12037037037037036],[-0.20520833333333333,-0.09259259259259259],[-0.20520833333333333,-0.06481481481481481],[-0.20520833333333333,-0.03888888888888889],[-0.20416666666666666,-0.007407407407407408],[-0.19166666666666668,0.05],[-0.18645833333333334,0.06296296296296296],[-0.17604166666666668,0.08518518518518518],[-0.165625,0.1111111111111111],[-0.15520833333333334,0.12962962962962962],[-0.14583333333333334,0.14444444444444443],[-0.13541666666666666,0.15555555555555556],[-0.12604166666666666,0.16296296296296298],[-0.11770833333333333,0.1685185185185185],[-0.109375,0.17037037037037037],[-0.09895833333333333,0.17222222222222222],[-0.08645833333333333,0.17222222222222222],[-0.07291666666666667,0.17222222222222222],[-0.06145833333333333,0.17222222222222222],[-0.036458333333333336,0.17222222222222222],[-0.019791666666666666,0.17222222222222222],[-0.007291666666666667,0.17222222222222222],[0.008333333333333333,0.17222222222222222],[0.029166666666666667,0.17222222222222222],[0.035416666666666666,0.17222222222222222],[0.051041666666666666,0.17222222222222222],[0.065625,0.17222222222222222],[0.08229166666666667,0.17222222222222222],[0.10729166666666666,0.17222222222222222],[0.11354166666666667,0.17222222222222222],[0.12708333333333333,0.17222222222222222],[0.140625,0.17222222222222222],[0.14791666666666667,0.17222222222222222],[0.15416666666666667,0.17222222222222222],[0.16041666666666668,0.17222222222222222],[0.16770833333333332,0.17592592592592593],[0.17291666666666666,0.17592592592592593],[0.17916666666666667,0.17777777777777778],[0.184375,0.17962962962962964],[0.190625,0.17962962962962964],[0.19583333333333333,0.1814814814814815],[0.20416666666666666,0.1814814814814815],[0.21145833333333333,0.1814814814814815],[0.22083333333333333,0.1814814814814815],[0.22708333333333333,0.1814814814814815],[0.23125,0.1814814814814815],[0.234375,0.1814814814814815],[0.23541666666666666,0.1814814814814815],[0.23854166666666668,0.1814814814814815],[0.24375,0.1814814814814815],[0.24791666666666667,0.1814814814814815],[0.25833333333333336,0.17777777777777778],[0.26979166666666665,0.17592592592592593],[0.275,0.17407407407407408],[0.284375,0.17407407407407408],[0.303125,0.17222222222222222],[0.3125,0.17222222222222222],[0.3229166666666667,0.17222222222222222],[0.3302083333333333,0.17222222222222222],[0.3385416666666667,0.17222222222222222],[0.346875,0.17222222222222222],[0.353125,0.17222222222222222],[0.359375,0.17222222222222222],[0.365625,0.17222222222222222],[0.37083333333333335,0.17222222222222222],[0.37604166666666666,0.17222222222222222],[0.38229166666666664,0.1685185185185185],[0.390625,0.16666666666666666],[0.39791666666666664,0.1648148148148148],[0.403125,0.16296296296296298],[0.409375,0.15925925925925927],[0.41354166666666664,0.1574074074074074],[0.4166666666666667,0.1537037037037037],[0.42083333333333334,0.15185185185185185],[0.42291666666666666,0.15],[0.4239583333333333,0.14629629629629629],[0.42604166666666665,0.14444444444444443],[0.428125,0.14074074074074075],[0.42916666666666664,0.14074074074074075],[0.43125,0.13703703703703704],[0.4322916666666667,0.13703703703703704],[0.4322916666666667,0.13703703703703704],[0.43333333333333335,0.13518518518518519],[0.434375,0.13518518518518519],[0.434375,0.13518518518518519],[0.434375,0.13333333333333333],[0.434375,0.13333333333333333],[0.434375,0.13333333333333333],[0.434375,0.13333333333333333],[0.434375,0.13333333333333333],[0.434375,0.12962962962962962],[0.434375,0.12962962962962962],[0.43020833333333336,0.1259259259259259],[0.425,0.1259259259259259],[0.41354166666666664,0.12222222222222222],[0.39895833333333336,0.11666666666666667],[0.3729166666666667,0.11666666666666667],[0.35,0.11666666666666667],[0.32708333333333334,0.11666666666666667],[0.3145833333333333,0.11666666666666667],[0.28229166666666666,0.11666666666666667],[0.25,0.11481481481481481],[0.21770833333333334,0.11481481481481481],[0.171875,0.11481481481481481],[0.13958333333333334,0.11296296296296296],[0.11145833333333334,0.10740740740740741],[0.084375,0.10555555555555556],[0.06041666666666667,0.1037037037037037],[0.035416666666666666,0.09814814814814815],[0.013541666666666667,0.09444444444444444],[-0.007291666666666667,0.08518518518518518],[-0.023958333333333335,0.08333333333333333],[-0.036458333333333336,0.07777777777777778],[-0.04791666666666667,0.07592592592592592],[-0.06041666666666667,0.07407407407407407],[-0.07604166666666666,0.06481481481481481],[-0.08541666666666667,0.05925925925925926],[-0.09270833333333334,0.05740740740740741],[-0.09375,0.053703703703703705],[-0.09479166666666666,0.053703703703703705],[-0.09583333333333334,0.05185185185185185],[-0.096875,0.05],[-0.096875,0.04814814814814815],[-0.09791666666666667,0.04814814814814815],[-0.09791666666666667,0.046296296296296294],[-0.09895833333333333,0.046296296296296294],[-0.1,0.040740740740740744],[-0.10208333333333333,0.03148148148148148],[-0.10208333333333333,0.016666666666666666],[-0.103125,0.005555555555555556],[-0.103125,-0.009259259259259259],[-0.10416666666666667,-0.02962962962962963],[-0.10416666666666667,-0.040740740740740744],[-0.10416666666666667,-0.053703703703703705],[-0.10416666666666667,-0.06666666666666667],[-0.10416666666666667,-0.07407407407407407],[-0.10520833333333333,-0.07962962962962963],[-0.10625,-0.08518518518518518],[-0.10625,-0.08888888888888889],[-0.10729166666666666,-0.09814814814814815],[-0.10729166666666666,-0.10555555555555556],[-0.10833333333333334,-0.11481481481481481],[-0.10833333333333334,-0.12407407407407407],[-0.10833333333333334,-0.13333333333333333],[-0.10833333333333334,-0.1425925925925926],[-0.10833333333333334,-0.15185185185185185],[-0.10833333333333334,-0.15925925925925927],[-0.10833333333333334,-0.1648148148148148],[-0.10833333333333334,-0.17037037037037037],[-0.10833333333333334,-0.17777777777777778],[-0.10833333333333334,-0.17777777777777778],[-0.10833333333333334,-0.1814814814814815],[-0.10625,-0.1925925925925926],[-0.10625,-0.1962962962962963],[-0.10625,-0.2],[-0.10625,-0.20185185185185187],[-0.10625,-0.20185185185185187],[-0.10520833333333333,-0.2037037037037037],[-0.10520833333333333,-0.20555555555555555],[-0.10520833333333333,-0.2074074074074074],[-0.10520833333333333,-0.2074074074074074],[-0.103125,-0.20925925925925926],[-0.103125,-0.20925925925925926],[-0.103125,-0.20925925925925926],[-0.103125,-0.20925925925925926],[-0.103125,-0.20925925925925926],[-0.103125,-0.20925925925925926],[-0.103125,-0.20925925925925926],[-0.103125,-0.20925925925925926],[-0.103125,-0.20925925925925926],[-0.103125,-0.20925925925925926],[-0.103125,-0.20555555555555555],[-0.103125,-0.2037037037037037],[-0.103125,-0.20185185185185187],[-0.10208333333333333,-0.19814814814814816],[-0.10208333333333333,-0.19814814814814816],[-0.10208333333333333,-0.1962962962962963],[-0.10208333333333333,-0.1962962962962963],[-0.10208333333333333,-0.1962962962962963],[-0.10208333333333333,-0.1962962962962963],[-0.10208333333333333,-0.19444444444444445],[-0.10208333333333333,-0.1925925925925926],[-0.1,-0.19074074074074074],[-0.096875,-0.18888888888888888],[-0.09375,-0.18333333333333332],[-0.08333333333333333,-0.17777777777777778],[-0.06458333333333334,-0.1685185185185185],[-0.03854166666666667,-0.16296296296296298],[-0.01875,-0.1574074074074074],[-0.003125,-0.1537037037037037],[0.017708333333333333,-0.14814814814814814],[0.0375,-0.14444444444444443],[0.06145833333333333,-0.13703703703703704],[0.0875,-0.12962962962962962],[0.115625,-0.12407407407407407],[0.14479166666666668,-0.11851851851851852],[0.175,-0.10925925925925926],[0.20208333333333334,-0.1037037037037037],[0.23229166666666667,-0.09444444444444444],[0.26875,-0.08703703703703704],[0.29270833333333335,-0.07777777777777778],[0.31354166666666666,-0.07407407407407407],[0.334375,-0.06851851851851852],[0.35,-0.06481481481481481],[0.36041666666666666,-0.06296296296296296],[0.375,-0.05925925925925926],[0.39166666666666666,-0.05555555555555555],[0.4010416666666667,-0.05185185185185185],[0.403125,-0.05],[0.403125,-0.05],[0.403125,-0.05],[0.403125,-0.046296296296296294],[0.3958333333333333,-0.037037037037037035],[0.390625,-0.027777777777777776],[0.37916666666666665,-0.011111111111111112],[0.3645833333333333,0.005555555555555556],[0.34479166666666666,0.025925925925925925],[0.325,0.03888888888888889],[0.30104166666666665,0.05555555555555555],[0.2708333333333333,0.06851851851851852],[0.240625,0.08333333333333333],[0.20729166666666668,0.09259259259259259],[0.178125,0.10185185185185185],[0.140625,0.10925925925925926],[0.11666666666666667,0.11481481481481481],[0.096875,0.12037037037037036],[0.08125,0.12407407407407407],[0.06979166666666667,0.1259259259259259],[0.06145833333333333,0.12962962962962962],[0.058333333333333334,0.12962962962962962],[0.05416666666666667,0.13333333333333333],[0.053125,0.13333333333333333],[0.051041666666666666,0.13703703703703704],[0.04895833333333333,0.13703703703703704],[0.04375,0.1388888888888889],[0.03958333333333333,0.14074074074074075],[0.03125,0.1425925925925926],[0.01875,0.14444444444444443],[0.007291666666666667,0.14444444444444443],[-0.007291666666666667,0.14444444444444443],[-0.019791666666666666,0.14444444444444443],[-0.03125,0.14444444444444443],[-0.041666666666666664,0.14444444444444443],[-0.053125,0.14444444444444443],[-0.06354166666666666,0.1425925925925926],[-0.065625,0.1425925925925926],[-0.065625,0.1425925925925926],[-0.06875,0.14074074074074075],[-0.07083333333333333,0.14074074074074075],[-0.075,0.13703703703703704],[-0.07604166666666666,0.13703703703703704],[-0.078125,0.13703703703703704],[-0.08020833333333334,0.13518518518518519],[-0.08020833333333334,0.13518518518518519],[-0.08125,0.13333333333333333],[-0.08229166666666667,0.13148148148148148],[-0.08229166666666667,0.13148148148148148],[-0.08333333333333333,0.12962962962962962],[-0.084375,0.12407407407407407],[-0.08541666666666667,0.12407407407407407],[-0.08854166666666667,0.12222222222222222],[-0.09166666666666666,0.12037037037037036],[-0.09270833333333334,0.11851851851851852],[-0.09583333333333334,0.11666666666666667],[-0.09791666666666667,0.11666666666666667],[-0.10104166666666667,0.11296296296296296],[-0.103125,0.11296296296296296],[-0.10625,0.1111111111111111],[-0.10833333333333334,0.1111111111111111],[-0.10833333333333334,0.1111111111111111],[-0.10833333333333334,0.1111111111111111],[-0.10833333333333334,0.1111111111111111],[-0.10833333333333334,0.1111111111111111],[-0.10833333333333334,0.1111111111111111],[-0.10833333333333334,0.1111111111111111],[-0.10833333333333334,0.1111111111111111],[-0.10833333333333334,0.1111111111111111],[-0.10520833333333333,0.10925925925925926],[-0.1,0.10555555555555556],[-0.09479166666666666,0.10555555555555556],[-0.08541666666666667,0.10555555555555556],[-0.08125,0.10555555555555556],[-0.071875,0.10555555555555556],[-0.06041666666666667,0.10555555555555556],[-0.029166666666666667,0.10555555555555556],[-0.009375,0.1111111111111111],[0.0010416666666666667,0.11296296296296296],[0.026041666666666668,0.11851851851851852],[0.04895833333333333,0.1259259259259259],[0.07916666666666666,0.13333333333333333],[0.1,0.1388888888888889],[0.11666666666666667,0.1425925925925926],[0.12291666666666666,0.1425925925925926],[0.13541666666666666,0.14814814814814814],[0.140625,0.14814814814814814],[0.14895833333333333,0.15],[0.15208333333333332,0.15],[0.15416666666666667,0.1537037037037037],[0.15416666666666667,0.1537037037037037],[0.15416666666666667,0.1537037037037037],[0.15416666666666667,0.1537037037037037],[0.15416666666666667,0.1537037037037037],[0.15416666666666667,0.1537037037037037],[0.15416666666666667,0.1537037037037037],[0.15416666666666667,0.1537037037037037],[0.15416666666666667,0.1537037037037037],[0.15416666666666667,0.1537037037037037],[0.15416666666666667,0.1537037037037037],[0.15416666666666667,0.1537037037037037],[0.15416666666666667,0.1537037037037037],[0.15416666666666667,0.1537037037037037],[0.14270833333333333,0.1537037037037037],[0.12604166666666666,0.15],[0.10833333333333334,0.14444444444444443],[0.08645833333333333,0.1388888888888889],[0.06354166666666666,0.13518518518518519],[0.0375,0.13518518518518519],[0.010416666666666666,0.13518518518518519],[-0.017708333333333333,0.13518518518518519],[-0.05520833333333333,0.13518518518518519],[-0.07708333333333334,0.13518518518518519],[-0.09270833333333334,0.13518518518518519],[-0.103125,0.13148148148148148],[-0.10416666666666667,0.13148148148148148],[-0.10416666666666667,0.12962962962962962],[-0.103125,0.1259259259259259],[-0.09895833333333333,0.11851851851851852],[-0.08854166666666667,0.1037037037037037],[-0.08020833333333334,0.09444444444444444],[-0.06666666666666667,0.06851851851851852],[-0.06354166666666666,0.06111111111111111],[-0.057291666666666664,0.037037037037037035],[-0.051041666666666666,-0.005555555555555556],[-0.04895833333333333,-0.03333333333333333],[-0.04479166666666667,-0.06481481481481481],[-0.03958333333333333,-0.10185185185185185],[-0.034375,-0.12962962962962962],[-0.029166666666666667,-0.1574074074074074],[-0.020833333333333332,-0.18333333333333332],[-0.013541666666666667,-0.2],[-0.009375,-0.20555555555555555],[-0.00625,-0.20925925925925926],[-0.00625,-0.20925925925925926],[-0.005208333333333333,-0.20925925925925926],[-0.0010416666666666667,-0.2074074074074074],[0.004166666666666667,-0.1925925925925926],[0.011458333333333333,-0.1648148148148148],[0.020833333333333332,-0.1259259259259259],[0.03125,-0.09259259259259259],[0.042708333333333334,-0.05740740740740741],[0.05625,-0.024074074074074074],[0.06979166666666667,0.009259259259259259],[0.08541666666666667,0.03888888888888889],[0.09479166666666666,0.06111111111111111],[0.09791666666666667,0.07777777777777778],[0.09791666666666667,0.09444444444444444],[0.096875,0.10185185185185185],[0.09375,0.10925925925925926],[0.08645833333333333,0.12037037037037036],[0.07916666666666666,0.12962962962962962],[0.07083333333333333,0.14074074074074075],[0.06145833333333333,0.15185185185185185],[0.05625,0.16296296296296298],[0.051041666666666666,0.17962962962962964],[0.046875,0.20185185185185187],[0.04375,0.22962962962962963],[0.042708333333333334,0.26296296296296295],[0.040625,0.3055555555555556],[0.040625,0.3296296296296296],[0.040625,0.34814814814814815],[0.042708333333333334,0.3592592592592593],[0.04791666666666667,0.3685185185185185],[0.05416666666666667,0.37222222222222223],[0.0625,0.37777777777777777],[0.071875,0.38333333333333336],[0.08125,0.387037037037037],[0.0875,0.3907407407407407],[0.09583333333333334,0.39444444444444443],[0.10625,0.40185185185185185],[0.125,0.40925925925925927],[0.13541666666666666,0.4166666666666667],[0.14375,0.4203703703703704],[0.14895833333333333,0.4222222222222222],[0.15104166666666666,0.42407407407407405],[0.15208333333333332,0.42407407407407405],[0.153125,0.42592592592592593],[0.15416666666666667,0.42592592592592593],[0.15520833333333334,0.42592592592592593],[0.15520833333333334,0.42592592592592593],[0.15625,0.42592592592592593],[0.15625,0.42592592592592593],[0.15625,0.42592592592592593],[0.15625,0.42592592592592593],[0.15625,0.42592592592592593],[0.15625,0.42592592592592593],[0.15416666666666667,0.42777777777777776],[0.13541666666666666,0.42777777777777776],[0.11145833333333334,0.42777777777777776],[0.08958333333333333,0.42777777777777776],[0.06145833333333333,0.42777777777777776],[0.030208333333333334,0.42777777777777776],[0.007291666666666667,0.42777777777777776],[-0.007291666666666667,0.42777777777777776],[-0.027083333333333334,0.42777777777777776],[-0.04375,0.42777777777777776],[-0.06354166666666666,0.42777777777777776],[-0.08020833333333334,0.42777777777777776],[-0.09583333333333334,0.42777777777777776],[-0.10729166666666666,0.4222222222222222],[-0.11458333333333333,0.4203703703703704],[-0.11875,0.4203703703703704],[-0.12083333333333333,0.4203703703703704],[-0.12083333333333333,0.4203703703703704],[-0.121875,0.4203703703703704],[-0.121875,0.4203703703703704],[-0.121875,0.4203703703703704],[-0.121875,0.4203703703703704],[-0.121875,0.4203703703703704],[-0.121875,0.4203703703703704],[-0.121875,0.4203703703703704],[-0.121875,0.4203703703703704],[-0.121875,0.4203703703703704],[-0.121875,0.4203703703703704],[-0.11666666666666667,0.4203703703703704],[-0.10208333333333333,0.42407407407407405],[-0.096875,0.42407407407407405],[-0.08541666666666667,0.42407407407407405],[-0.06875,0.42407407407407405],[-0.059375,0.42407407407407405],[-0.05520833333333333,0.42407407407407405],[-0.052083333333333336,0.42407407407407405],[-0.04791666666666667,0.42407407407407405],[-0.04583333333333333,0.42407407407407405],[-0.041666666666666664,0.42407407407407405],[-0.03854166666666667,0.42407407407407405],[-0.034375,0.42407407407407405],[-0.029166666666666667,0.42407407407407405],[-0.020833333333333332,0.4222222222222222],[-0.008333333333333333,0.4222222222222222],[0.016666666666666666,0.4203703703703704],[0.0375,0.4185185185185185],[0.058333333333333334,0.4185185185185185],[0.07604166666666666,0.4148148148148148],[0.09270833333333334,0.412962962962963],[0.10625,0.412962962962963],[0.11770833333333333,0.412962962962963],[0.12604166666666666,0.412962962962963],[0.12708333333333333,0.412962962962963],[0.12708333333333333,0.412962962962963],[0.12708333333333333,0.412962962962963],[0.12708333333333333,0.412962962962963],[0.12708333333333333,0.412962962962963],[0.12708333333333333,0.412962962962963],[0.12708333333333333,0.412962962962963],[0.12708333333333333,0.412962962962963],[0.12708333333333333,0.412962962962963],[0.12708333333333333,0.412962962962963],[0.12708333333333333,0.412962962962963],[0.12708333333333333,0.412962962962963],[0.12708333333333333,0.412962962962963],[0.12708333333333333,0.412962962962963],[0.12708333333333333,0.412962962962963],[0.12708333333333333,0.412962962962963],[0.12708333333333333,0.412962962962963],[0.12708333333333333,0.412962962962963],[0.12708333333333333,0.412962962962963],[0.12708333333333333,0.412962962962963],[0.12708333333333333,0.412962962962963],[0.125,0.412962962962963],[0.11666666666666667,0.412962962962963],[0.10625,0.412962962962963],[0.08958333333333333,0.412962962962963],[0.08020833333333334,0.412962962962963],[0.058333333333333334,0.412962962962963],[0.0375,0.412962962962963],[0.008333333333333333,0.412962962962963],[-0.011458333333333333,0.412962962962963],[-0.029166666666666667,0.412962962962963],[-0.04791666666666667,0.412962962962963],[-0.06458333333333334,0.412962962962963],[-0.07604166666666666,0.412962962962963],[-0.08645833333333333,0.412962962962963],[-0.09270833333333334,0.412962962962963],[-0.096875,0.412962962962963],[-0.10104166666666667,0.412962962962963],[-0.10520833333333333,0.412962962962963],[-0.10520833333333333,0.412962962962963],[-0.10520833333333333,0.412962962962963],[-0.10520833333333333,0.412962962962963],[-0.10520833333333333,0.412962962962963],[-0.10520833333333333,0.412962962962963],[-0.10520833333333333,0.412962962962963],[-0.10520833333333333,0.412962962962963],[-0.10520833333333333,0.412962962962963],[-0.10520833333333333,0.412962962962963],[-0.10520833333333333,0.412962962962963],[-0.10520833333333333,0.412962962962963],[-0.10520833333333333,0.412962962962963],[-0.10520833333333333,0.412962962962963],[-0.10520833333333333,0.412962962962963],[-0.10520833333333333,0.412962962962963],[-0.10520833333333333,0.412962962962963],[-0.10520833333333333,0.412962962962963],[-0.10520833333333333,0.412962962962963],[-0.10520833333333333,0.412962962962963],[-0.10520833333333333,0.412962962962963],[-0.10520833333333333,0.412962962962963],[-0.10520833333333333,0.412962962962963],[-0.10520833333333333,0.412962962962963],[-0.10520833333333333,0.412962962962963],[-0.10520833333333333,0.412962962962963],[-0.10520833333333333,0.412962962962963],[-0.10520833333333333,0.412962962962963],[-0.10520833333333333,0.412962962962963],[-0.10520833333333333,0.412962962962963],[-0.10520833333333333,0.412962962962963],[-0.10520833333333333,0.412962962962963],[-0.10520833333333333,0.412962962962963],[-0.10520833333333333,0.412962962962963],[-0.10520833333333333,0.412962962962963],[-0.10520833333333333,0.412962962962963],[-0.10520833333333333,0.412962962962963],[-0.10520833333333333,0.412962962962963],[-0.10520833333333333,0.412962962962963],[-0.10520833333333333,0.412962962962963],[-0.10520833333333333,0.412962962962963],[-0.10520833333333333,0.412962962962963],[-0.10520833333333333,0.412962962962963],[-0.10520833333333333,0.412962962962963],[-0.10520833333333333,0.412962962962963],[-0.10520833333333333,0.412962962962963],[-0.10520833333333333,0.412962962962963],[-0.10520833333333333,0.412962962962963],[-0.10520833333333333,0.412962962962963],[-0.10520833333333333,0.412962962962963],[-0.10520833333333333,0.412962962962963],[-0.10520833333333333,0.412962962962963],[-0.10520833333333333,0.412962962962963],[-0.10520833333333333,0.412962962962963],[-0.10520833333333333,0.412962962962963],[-0.10520833333333333,0.412962962962963],[-0.10520833333333333,0.412962962962963],[-0.10520833333333333,0.412962962962963],[-0.10520833333333333,0.412962962962963],[-0.10520833333333333,0.412962962962963],[-0.10520833333333333,0.412962962962963],[-0.10520833333333333,0.412962962962963],[-0.10520833333333333,0.412962962962963],[-0.10520833333333333,0.412962962962963],[-0.10520833333333333,0.412962962962963],[-0.10520833333333333,0.412962962962963],[-0.10520833333333333,0.412962962962963],[-0.10520833333333333,0.412962962962963],[-0.10520833333333333,0.412962962962963],[-0.10520833333333333,0.412962962962963],[-0.10520833333333333,0.412962962962963],[-0.10520833333333333,0.412962962962963],[-0.10520833333333333,0.412962962962963],[-0.10520833333333333,0.412962962962963],[-0.10520833333333333,0.412962962962963],[-0.10520833333333333,0.412962962962963],[-0.10520833333333333,0.412962962962963],[-0.10729166666666666,0.412962962962963],[-0.11770833333333333,0.40925925925925927],[-0.12604166666666666,0.40370370370370373],[-0.13333333333333333,0.40185185185185185],[-0.13645833333333332,0.39814814814814814],[-0.1375,0.39814814814814814],[-0.13854166666666667,0.39814814814814814],[-0.13854166666666667,0.39814814814814814],[-0.13854166666666667,0.39814814814814814],[-0.13854166666666667,0.39814814814814814],[-0.13854166666666667,0.39814814814814814],[-0.13854166666666667,0.39814814814814814],[-0.13854166666666667,0.39814814814814814],[-0.13958333333333334,0.3962962962962963],[-0.140625,0.3925925925925926],[-0.14166666666666666,0.38333333333333336],[-0.14375,0.3685185185185185],[-0.14479166666666668,0.35],[-0.14479166666666668,0.3296296296296296],[-0.14479166666666668,0.30925925925925923],[-0.14479166666666668,0.29444444444444445],[-0.14479166666666668,0.2833333333333333],[-0.14166666666666666,0.26851851851851855],[-0.14166666666666666,0.26666666666666666],[-0.14166666666666666,0.26666666666666666],[-0.14166666666666666,0.26666666666666666],[-0.14166666666666666,0.26666666666666666],[-0.14166666666666666,0.26666666666666666],[-0.14166666666666666,0.26666666666666666],[-0.140625,0.26666666666666666]]","[[-0.12302083333333336,-0.16722222222222224],[-0.12302083333333336,-0.16722222222222224],[-0.12302083333333336,-0.16722222222222224],[-0.13354166666666673,-0.14000000000000004],[-0.13354166666666673,-0.14000000000000004],[-0.153125,-0.17222222222222222],[-0.153125,-0.17222222222222222],[-0.15104166666666666,-0.18722222222222226],[-0.15104166666666666,-0.18722222222222226],[-0.15104166666666666,-0.18722222222222226],[-0.15489583333333337,-0.2140740740740741],[-0.15489583333333337,-0.2140740740740741],[-0.159375,-0.2479629629629629],[-0.159375,-0.2479629629629629],[-0.1688541666666667,-0.28425925925925927],[-0.1688541666666667,-0.28425925925925927],[-0.17083333333333334,-0.29074074074074074],[-0.17083333333333334,-0.29074074074074074],[-0.18635416666666665,-0.3037037037037037],[-0.18635416666666665,-0.3037037037037037],[-0.184375,-0.2940740740740741],[-0.184375,-0.2940740740740741],[-0.17895833333333327,-0.3398148148148148],[-0.17895833333333327,-0.3398148148148148],[-0.17562500000000003,-0.3890740740740741],[-0.17562500000000003,-0.3890740740740741],[-0.1626041666666667,-0.412962962962963],[-0.1626041666666667,-0.412962962962963],[-0.15750000000000006,-0.4477777777777778],[-0.15750000000000006,-0.4477777777777778],[-0.1514583333333333,-0.47259259259259256],[-0.1514583333333333,-0.47259259259259256],[-0.11395833333333331,-0.5127777777777778],[-0.11395833333333331,-0.5127777777777778],[-0.11291666666666664,-0.4946296296296297],[-0.11291666666666664,-0.4946296296296297],[-0.09760416666666671,-0.5185185185185185],[-0.08385416666666666,-0.5253703703703704],[-0.06843750000000005,-0.5503703703703704],[-0.06843750000000005,-0.5503703703703704],[-0.08468749999999996,-0.5344444444444445],[-0.0704166666666667,-0.527962962962963],[-0.0704166666666667,-0.527962962962963],[-0.07885416666666671,-0.5083333333333333],[-0.0858333333333333,-0.4809259259259259],[-0.10375000000000002,-0.4414814814814814],[-0.1295833333333333,-0.4027777777777778],[-0.13479166666666664,-0.4103703703703704],[-0.13999999999999999,-0.4096296296296296],[-0.13656250000000003,-0.38851851851851854],[-0.13656250000000003,-0.38851851851851854],[-0.16312500000000002,-0.38351851851851854],[-0.19593750000000001,-0.355],[-0.22229166666666664,-0.3292592592592593],[-0.24864583333333337,-0.30351851851851847],[-0.26989583333333333,-0.28055555555555556],[-0.29239583333333335,-0.26296296296296295],[-0.2869791666666667,-0.22537037037037036],[-0.2869791666666667,-0.22537037037037036],[-0.2908333333333334,-0.20203703703703707],[-0.3171875,-0.14203703703703702],[-0.3692708333333333,-0.11796296296296294],[-0.3692708333333333,-0.11796296296296294],[-0.3913541666666667,-0.07777777777777778],[-0.3913541666666667,-0.07777777777777778],[-0.4018749999999999,-0.05962962962962961],[-0.4018749999999999,-0.05962962962962961],[-0.41822916666666665,-0.04277777777777782],[-0.41822916666666665,-0.04277777777777782],[-0.39489583333333333,-0.030000000000000086],[-0.39489583333333333,-0.030000000000000086],[-0.37531249999999994,-0.013703703703703662],[-0.37531249999999994,-0.013703703703703662],[-0.3296875,-0.015555555555555513],[-0.3296875,-0.015555555555555513],[-0.32093750000000004,-0.04222222222222214],[-0.30520833333333336,-0.03259259259259263],[-0.30520833333333336,-0.03259259259259263],[-0.26364583333333336,-0.07851851851851847],[-0.18916666666666668,-0.08759259259259261],[-0.11468750000000003,-0.09666666666666665],[-0.04781249999999997,-0.0962962962962963],[0.012812499999999952,-0.0948148148148148],[0.012812499999999952,-0.0948148148148148],[0.015625,-0.11222222222222226],[0.015625,-0.11222222222222226],[0.023958333333333335,-0.16574074074074074],[0.014687500000000023,-0.18203703703703705],[0.014374999999999952,-0.1935185185185185],[0.008437500000000023,-0.23055555555555557],[-0.004479166666666619,-0.24277777777777781],[-0.010104166666666714,-0.2566666666666667],[-0.01572916666666669,-0.2705555555555556],[-0.027291666666666714,-0.27611111111111114],[-0.03114583333333331,-0.2740740740740741],[-0.007187499999999976,-0.2772222222222222],[0.021458333333333357,-0.25388888888888894],[0.041666666666666664,-0.24962962962962965],[0.06666666666666667,-0.22722222222222221],[0.09854166666666657,-0.20925925925925926],[0.12635416666666663,-0.19888888888888884],[0.13635416666666675,-0.21203703703703702],[0.13635416666666675,-0.21203703703703702],[0.14635416666666667,-0.22518518518518524],[0.18604166666666658,-0.24500000000000002],[0.22020833333333342,-0.272037037037037],[0.24468750000000009,-0.27092592592592596],[0.2507291666666667,-0.28351851851851856],[0.25677083333333334,-0.29611111111111105],[0.2561458333333334,-0.2892592592592592],[0.2561458333333334,-0.2892592592592592],[0.25625,-0.26500000000000007],[0.2633333333333333,-0.24462962962962967],[0.2742708333333333,-0.22388888888888886],[0.2852083333333333,-0.20314814814814813],[0.2829166666666666,-0.20314814814814813],[0.2829166666666666,-0.20314814814814813],[0.2546875,-0.13259259259259262],[0.2273958333333333,-0.056851851851851834],[0.19874999999999995,0.04333333333333329],[0.1701041666666666,0.14351851851851852],[0.14333333333333323,0.20611111111111102],[0.1310416666666666,0.25],[0.10541666666666671,0.3274074074074073],[0.07020833333333343,0.40962962962962973],[0.026145833333333358,0.4733333333333334],[-0.014999999999999977,0.5435185185185185],[-0.029270833333333357,0.5537037037037037],[-0.044479166666666715,0.5587037037037038],[-0.05020833333333338,0.5544444444444444],[-0.05593750000000005,0.5501851851851852],[-0.04833333333333331,0.5353703703703704],[-0.05520833333333333,0.5392592592592593],[-0.05520833333333333,0.5392592592592593],[-0.049687500000000044,0.531111111111111],[-0.04781249999999997,0.5372222222222223],[-0.03114583333333331,0.5377777777777777],[-0.011666666666666714,0.5348148148148147],[-0.005520833333333286,0.528888888888889],[-0.008020833333333382,0.5211111111111111],[-0.008020833333333382,0.5211111111111111],[0.005312500000000024,0.5166666666666667],[0.005312500000000024,0.5166666666666667],[0.001145833333333357,0.5061111111111111],[0.001145833333333357,0.5061111111111111],[-0.007083333333333286,0.5477777777777777],[-0.002395833333333286,0.5714814814814815],[0.0003124999999999526,0.5459259259259258],[0.006666666666666643,0.5061111111111111],[0.003958333333333286,0.544074074074074],[-0.0015625,0.5855555555555556],[-0.010520833333333358,0.5398148148148149],[-0.0109375,0.5112962962962964],[-0.03864583333333336,0.4737037037037036],[-0.033645833333333285,0.4335185185185186],[-0.08010416666666664,0.3785185185185185],[-0.12270833333333328,0.34037037037037027],[-0.1772916666666667,0.3205555555555556],[-0.1772916666666667,0.3205555555555556],[-0.18697916666666667,0.3118518518518518],[-0.23322916666666665,0.2857407407407407],[-0.23322916666666665,0.2857407407407407],[-0.24145833333333327,0.21148148148148158],[-0.24145833333333327,0.21148148148148158],[-0.2267708333333334,0.1766666666666666],[-0.2633333333333333,0.16870370370370374],[-0.28802083333333334,0.17240740740740745],[-0.36270833333333335,0.1596296296296297],[-0.36270833333333335,0.1596296296296297],[-0.3263541666666666,0.13574074074074066],[-0.3064583333333334,0.14685185185185176],[-0.27531249999999996,0.14037037037037028],[-0.27531249999999996,0.14037037037037028],[-0.286875,0.11462962962962958],[-0.2828125,0.03037037037037033],[-0.3211458333333333,-0.0012962962962963806],[-0.3211458333333333,-0.0012962962962963806],[-0.34104166666666663,0.021481481481481525],[-0.3012500000000001,0.01055555555555564],[-0.25895833333333335,0.012222222222222264],[-0.19281250000000003,0.01592592592592597],[-0.19281250000000003,0.01592592592592597],[-0.19864583333333338,0.036666666666666584],[-0.19864583333333338,0.036666666666666584],[-0.20239583333333327,-0.007407407407407408],[-0.20239583333333327,-0.007407407407407408],[-0.20499999999999996,-0.03925925925925934],[-0.20499999999999996,-0.03925925925925934],[-0.19468749999999999,-0.002777777777777778],[-0.19468749999999999,-0.002777777777777778],[-0.17052083333333337,0.024074074074074074],[-0.17052083333333337,0.024074074074074074],[-0.1515625,0.00722222222222218],[-0.1515625,0.00722222222222218],[-0.15656249999999997,-0.019259259259259216],[-0.1766666666666667,-0.046481481481481526],[-0.19364583333333332,-0.09277777777777782],[-0.21187499999999998,-0.1403703703703704],[-0.2039583333333333,-0.1824074074074074],[-0.23447916666666668,-0.22370370370370374],[-0.23854166666666668,-0.25],[-0.22770833333333335,-0.27388888888888885],[-0.22770833333333335,-0.27388888888888885],[-0.20583333333333337,-0.2711111111111111],[-0.20583333333333337,-0.2711111111111111],[-0.1814583333333334,-0.2337037037037037],[-0.16687500000000005,-0.1714814814814815],[-0.13708333333333336,-0.1559259259259259],[-0.10541666666666671,-0.1257407407407407],[-0.08854166666666667,-0.06833333333333329],[-0.08885416666666662,-0.06944444444444445],[-0.051041666666666666,-0.046481481481481526],[-0.036458333333333336,-0.018148148148148063],[-0.05802083333333338,-0.01444444444444436],[-0.035625000000000046,0.004074074074074159],[-0.035625000000000046,0.004074074074074159],[-0.010104166666666714,0.0016666666666666245],[0.021458333333333357,-0.030555555555555555],[0.021458333333333357,-0.030555555555555555],[0.03239583333333336,-0.01703703703703712],[0.040625,-0.03037037037037033],[0.09281249999999991,-0.03944444444444436],[0.14177083333333323,-0.003888888888888931],[0.11583333333333339,-0.0001851851851852273],[0.11583333333333339,-0.0001851851851852273],[0.11322916666666671,-0.009814814814814731],[0.0953125,-0.05870370370370368],[0.05531250000000002,-0.1161111111111111],[-0.008958333333333356,-0.11666666666666667],[-0.03572916666666662,-0.13277777777777774],[-0.03572916666666662,-0.13277777777777774],[-0.07052083333333338,-0.13703703703703704],[-0.07052083333333338,-0.13703703703703704],[-0.10260416666666666,-0.11518518518518517],[-0.1779166666666666,-0.15314814814814812],[-0.25677083333333334,-0.20685185185185184],[-0.25895833333333335,-0.2337037037037037],[-0.2603125,-0.23148148148148148],[-0.2603125,-0.23148148148148148],[-0.23541666666666666,-0.20999999999999996],[-0.21781250000000002,-0.23777777777777773],[-0.1898958333333333,-0.2964814814814815],[-0.1898958333333333,-0.2964814814814815],[-0.1794791666666666,-0.32462962962962966],[-0.15895833333333337,-0.3624074074074074],[-0.15843750000000004,-0.37666666666666665],[-0.13166666666666665,-0.3381481481481482],[-0.09729166666666664,-0.3042592592592593],[-0.08218749999999998,-0.3074074074074074],[-0.08062499999999997,-0.30759259259259264],[-0.10020833333333339,-0.35111111111111115],[-0.11333333333333329,-0.3044444444444444],[-0.10718749999999998,-0.2492592592592593],[-0.1397916666666667,-0.24518518518518514],[-0.1546875,-0.2631481481481482],[-0.1546875,-0.2631481481481482],[-0.14249999999999996,-0.23703703703703705],[-0.12354166666666669,-0.20240740740740742],[-0.1421875,-0.16648148148148145],[-0.1295833333333333,-0.09703703703703699],[-0.14968750000000006,-0.06722222222222224],[-0.14708333333333337,-0.005370370370370328],[-0.14708333333333337,-0.005370370370370328],[-0.14114583333333333,0.009629629629629714],[-0.1484375,0.009629629629629714],[-0.1484375,0.009629629629629714],[-0.15427083333333336,0.08777777777777773],[-0.15427083333333336,0.08777777777777773],[-0.15833333333333333,0.1925925925925926],[-0.15833333333333333,0.1925925925925926],[-0.15572916666666667,0.17611111111111116],[-0.15906250000000005,0.1596296296296297],[-0.15906250000000005,0.1596296296296297],[-0.14677083333333332,0.14037037037037028],[-0.17906249999999999,0.12259259259259268],[-0.17635416666666662,0.14074074074074075],[-0.165625,0.15203703703703708],[-0.18406250000000005,0.1638888888888889],[-0.18135416666666668,0.20981481481481473],[-0.18135416666666668,0.20981481481481473],[-0.1538541666666667,0.19907407407407407],[-0.11875,0.19685185185185178],[-0.10489583333333338,0.24092592592592596],[-0.10489583333333338,0.24092592592592596],[-0.11437499999999995,0.24870370370370362],[-0.12895833333333329,0.22962962962962963],[-0.10427083333333335,0.2512962962962964],[-0.08072916666666667,0.2577777777777779],[-0.07156250000000004,0.26444444444444437],[-0.06697916666666662,0.27037037037037037],[-0.07166666666666661,0.24833333333333338],[-0.08197916666666671,0.25388888888888894],[-0.08197916666666671,0.25388888888888894],[-0.11572916666666669,0.22351851851851862],[-0.13468749999999996,0.2242592592592593],[-0.12468750000000005,0.22037037037037038],[-0.12468750000000005,0.22037037037037038],[-0.12114583333333329,0.24148148148148144],[-0.11677083333333335,0.22518518518518524],[-0.11677083333333335,0.22518518518518524],[-0.16458333333333333,0.1844444444444445],[-0.20531250000000004,0.1618518518518518],[-0.2375,0.14425925925925923],[-0.2375,0.14425925925925923],[-0.21468750000000003,0.1111111111111111],[-0.21468750000000003,0.1111111111111111],[-0.19135416666666671,0.0764814814814814],[-0.19135416666666671,0.0764814814814814],[-0.17999999999999997,0.03222222222222218],[-0.17999999999999997,0.03222222222222218],[-0.15343749999999995,-0.012407407407407492],[-0.15343749999999995,-0.012407407407407492],[-0.15718749999999998,-0.02092592592592584],[-0.16833333333333336,-0.06851851851851852],[-0.16833333333333336,-0.06851851851851852],[-0.15697916666666673,-0.127962962962963],[-0.07937500000000004,-0.16148148148148145],[-0.07937500000000004,-0.16148148148148145],[-0.035625000000000046,-0.18277777777777776],[0.024479166666666666,-0.19870370370370372],[0.02958333333333331,-0.19907407407407407],[0.024166666666666715,-0.24981481481481477],[0.024166666666666715,-0.24981481481481477],[0.042499999999999954,-0.2740740740740741],[-0.000833333333333286,-0.3020370370370371],[-0.000833333333333286,-0.3020370370370371],[0.029270833333333357,-0.30888888888888894],[0.0671875,-0.2742592592592593],[0.0671875,-0.2742592592592593],[0.09010416666666667,-0.22555555555555556],[0.08718750000000004,-0.17814814814814814],[0.10968749999999995,-0.16888888888888887],[0.10968749999999995,-0.16888888888888887],[0.11770833333333333,-0.19870370370370372],[0.13239583333333324,-0.22592592592592592],[0.14343750000000005,-0.20666666666666672],[0.1478125000000001,-0.1735185185185185],[0.19500000000000003,-0.15351851851851847],[0.19260416666666677,-0.15833333333333333],[0.19260416666666677,-0.15833333333333333],[0.2101041666666667,-0.1653703703703704],[0.2101041666666667,-0.1766666666666666],[0.2101041666666667,-0.18796296296296297],[0.21208333333333323,-0.18592592592592588],[0.21218750000000006,-0.15018518518518523],[0.19562499999999997,-0.11555555555555551],[0.19562499999999997,-0.11555555555555551],[0.20656249999999995,-0.09870370370370372],[0.20656249999999995,-0.09870370370370372],[0.21906249999999997,-0.10092592592592593],[0.21906249999999997,-0.10092592592592593],[0.21666666666666667,-0.1381481481481482],[0.21166666666666673,-0.16666666666666666],[0.21166666666666673,-0.16666666666666666],[0.2349999999999999,-0.18462962962962962],[0.25906250000000003,-0.19518518518518516],[0.25906250000000003,-0.19518518518518516],[0.27447916666666666,-0.19814814814814816],[0.2898958333333333,-0.18462962962962962],[0.30625,-0.17314814814814813],[0.33322916666666674,-0.18259259259259264],[0.3444791666666667,-0.18185185185185182],[0.35697916666666674,-0.18037037037037032],[0.35697916666666674,-0.18037037037037032],[0.3689583333333334,-0.15685185185185183],[0.3854166666666667,-0.15407407407407406],[0.38010416666666674,-0.16277777777777774],[0.3628124999999999,-0.14777777777777779],[0.3628124999999999,-0.14777777777777779],[0.3689583333333334,-0.13277777777777774],[0.36135416666666675,-0.14333333333333328],[0.3568749999999999,-0.1316666666666667],[0.3568749999999999,-0.1316666666666667],[0.35177083333333337,-0.10055555555555558],[0.34375,-0.0735185185185185],[0.3403125000000001,-0.057777777777777754],[0.3394791666666668,-0.044999999999999915],[0.34249999999999997,-0.009999999999999959],[0.3455208333333334,0.025],[0.35354166666666675,0.017592592592592594],[0.3359375,0.0005555555555554713],[0.33468749999999997,-0.025],[0.33468749999999997,-0.025],[0.3155208333333334,-0.0727777777777778],[0.3155208333333334,-0.0727777777777778],[0.3216666666666666,-0.06222222222222226],[0.3210416666666667,-0.044444444444444446],[0.3210416666666667,-0.044444444444444446],[0.30281250000000004,-0.0507407407407407],[0.2856250000000001,-0.059999999999999956],[0.2856250000000001,-0.059999999999999956],[0.2826041666666666,-0.07759259259259255],[0.2826041666666666,-0.07759259259259255],[0.2828125,-0.07962962962962963],[0.2712500000000001,-0.09129629629629632],[0.2953125,-0.08648148148148146],[0.31760416666666674,-0.07555555555555557],[0.3396874999999999,-0.03833333333333342],[0.33645833333333336,-0.05944444444444449],[0.32937500000000003,-0.09685185185185187],[0.3198958333333332,-0.09870370370370372],[0.31927083333333334,-0.09203703703703701],[0.29874999999999996,-0.08722222222222227],[0.2947916666666667,-0.08499999999999996],[0.2947916666666667,-0.08499999999999996],[0.2703125,-0.06444444444444447],[0.19895833333333332,-0.04314814814814806],[0.19895833333333332,-0.04314814814814806],[0.11177083333333329,-0.0485185185185186],[0.03864583333333336,-0.07814814814814813],[-0.027083333333333334,-0.08407407407407404],[-0.06166666666666672,-0.07370370370370373],[-0.08229166666666667,-0.06222222222222226],[-0.08229166666666667,-0.06222222222222226],[-0.09447916666666671,-0.07148148148148152],[-0.10010416666666669,-0.06222222222222226],[-0.12552083333333333,-0.06592592592592597],[-0.16541666666666663,-0.07240740740740745],[-0.13718750000000005,-0.09685185185185187],[-0.10125000000000005,-0.06629629629629631],[-0.06531250000000005,-0.035740740740740656],[-0.07520833333333338,-0.051666666666666625],[-0.06822916666666666,-0.051666666666666625],[-0.06822916666666666,-0.051666666666666625],[-0.08177083333333333,-0.053703703703703705],[-0.08177083333333333,-0.053703703703703705],[-0.09333333333333335,-0.05388888888888893],[-0.09333333333333335,-0.05388888888888893],[-0.11749999999999995,-0.04203703703703712],[-0.11749999999999995,-0.04203703703703712],[-0.15583333333333335,-0.07796296296296301],[-0.15583333333333335,-0.07796296296296301],[-0.13052083333333328,-0.05333333333333336],[-0.13052083333333328,-0.05333333333333336],[-0.14802083333333335,-0.011111111111111112],[-0.15197916666666664,0.0014814814814813973],[-0.17124999999999999,0.027407407407407325],[-0.16312500000000002,0.0868518518518518],[-0.18947916666666664,0.12722222222222232],[-0.17395833333333333,0.12240740740740745],[-0.17395833333333333,0.12240740740740745],[-0.17250000000000001,0.14611111111111108],[-0.16177083333333328,0.12851851851851848],[-0.16177083333333328,0.12851851851851848],[-0.16291666666666665,0.14388888888888898],[-0.16291666666666665,0.14388888888888898],[-0.16124999999999995,0.1705555555555556],[-0.16510416666666666,0.17037037037037037],[-0.16510416666666666,0.18925925925925935],[-0.16302083333333334,0.1977777777777777],[-0.1498958333333333,0.17814814814814822],[-0.1295833333333333,0.17907407407407416],[-0.13791666666666663,0.23277777777777786],[-0.11124999999999995,0.244074074074074],[-0.10291666666666661,0.2755555555555555],[-0.059583333333333384,0.33481481481481473],[-0.04895833333333333,0.32018518518518513],[-0.030729166666666665,0.3492592592592593],[-0.03697916666666667,0.334074074074074],[-0.028437499999999952,0.3077777777777779],[-0.00604166666666662,0.29018518518518527],[0.01416666666666669,0.2718518518518518],[0.03218749999999997,0.22259259259259268],[0.02666666666666669,0.21388888888888888],[0.018020833333333285,0.18851851851851845],[0.018020833333333285,0.18851851851851845],[0.024583333333333356,0.1633333333333334],[0.03947916666666664,0.15537037037037033],[0.0703125,0.11574074074074074],[0.08270833333333343,0.06833333333333329],[0.08270833333333343,0.06833333333333329],[0.11020833333333328,0.07240740740740745],[0.1087500000000001,0.10166666666666663],[0.13031249999999991,0.09944444444444453],[0.12062499999999995,0.12037037037037036],[0.12062499999999995,0.12037037037037036],[0.10364583333333334,0.13444444444444448],[0.10552083333333329,0.1507407407407407],[0.10552083333333329,0.1507407407407407],[0.07791666666666662,0.1551851851851851],[0.050312499999999954,0.1609259259259259],[0.0014583333333333095,0.16666666666666666],[0.0014583333333333095,0.16666666666666666],[-0.0068750000000000235,0.2035185185185185],[-0.025833333333333285,0.21444444444444435],[-0.004062499999999977,0.20388888888888893],[-0.028437499999999952,0.19592592592592584],[0.0015625,0.19462962962962968],[0.022812499999999975,0.18888888888888888],[0.022812499999999975,0.18888888888888888],[0.05375000000000003,0.20333333333333325],[0.09541666666666657,0.2125925925925925],[0.12687499999999996,0.22833333333333325],[0.15395833333333328,0.2146296296296296],[0.16739583333333338,0.2242592592592593],[0.16739583333333338,0.2242592592592593],[0.19729166666666675,0.21518518518518526],[0.17541666666666675,0.21370370370370367],[0.1716666666666666,0.2212962962962963],[0.14895833333333333,0.2064814814814815],[0.12625000000000006,0.19166666666666668],[0.0900000000000001,0.1411111111111112],[0.0900000000000001,0.1411111111111112],[0.07760416666666667,0.13148148148148148],[0.07760416666666667,0.13148148148148148],[0.08499999999999991,0.11611111111111119],[0.08499999999999991,0.11611111111111119],[0.11020833333333328,0.1227777777777777],[0.12000000000000005,0.09259259259259259],[0.10812499999999996,0.0772222222222223],[0.14010416666666667,0.05333333333333325],[0.14010416666666667,0.05333333333333325],[0.14968750000000006,0.01574074074074074],[0.15593750000000003,0.006851851851851936],[0.1828125,-0.004814814814814857],[0.2195833333333333,0.009999999999999959],[0.21229166666666663,-0.029259259259259176],[0.20812499999999995,-0.06092592592592588],[0.19052083333333342,-0.08518518518518518],[0.18364583333333329,-0.07111111111111107],[0.175,-0.0868518518518518],[0.16979166666666667,-0.10277777777777777],[0.1953125,-0.10111111111111115],[0.19781250000000009,-0.1161111111111111],[0.203125,-0.11537037037037039],[0.17864583333333334,-0.1398148148148148],[0.16895833333333338,-0.14722222222222223],[0.17354166666666657,-0.13518518518518519],[0.178125,-0.12314814814814815],[0.17822916666666658,-0.14962962962962964],[0.17927083333333324,-0.15981481481481483],[0.17927083333333324,-0.15981481481481483],[0.16833333333333325,-0.19092592592592597],[0.15208333333333332,-0.23296296296296298],[0.16749999999999995,-0.2690740740740741],[0.16749999999999995,-0.2690740740740741],[0.1165625000000001,-0.2772222222222222],[0.10635416666666657,-0.2518518518518518],[0.09854166666666657,-0.2448148148148148],[0.09854166666666657,-0.2448148148148148],[0.06864583333333343,-0.26777777777777784],[0.04708333333333338,-0.2609259259259259],[0.01739583333333338,-0.2479629629629629],[0.01739583333333338,-0.2479629629629629],[0.011979166666666667,-0.22925925925925927],[-0.003125,-0.18648148148148147],[-0.003125,-0.18648148148148147],[-0.027083333333333334,-0.14537037037037037],[-0.027083333333333334,-0.14537037037037037],[-0.05249999999999998,-0.10888888888888891],[-0.05249999999999998,-0.10888888888888891],[-0.05249999999999998,-0.10888888888888891],[-0.02645833333333331,-0.09722222222222222],[-0.02645833333333331,-0.09722222222222222],[-0.03937499999999995,-0.10351851851851848],[-0.051979166666666646,-0.09129629629629632],[-0.059895833333333336,-0.07611111111111116],[-0.06541666666666662,-0.08074074074074078],[-0.04833333333333331,-0.06870370370370374],[-0.07416666666666671,-0.053703703703703705],[-0.09947916666666666,-0.035740740740740656],[-0.10437500000000005,-0.02296296296296292],[-0.10437500000000005,-0.02296296296296292],[-0.1078125,-0.005555555555555556],[-0.1078125,-0.005555555555555556],[-0.12614583333333335,-0.00851851851851856],[-0.11260416666666669,-0.011296296296296339],[-0.09750000000000002,-0.00722222222222218],[-0.08468749999999996,-0.003888888888888931],[-0.08666666666666671,-0.020185185185185143],[-0.08864583333333335,-0.036481481481481566],[-0.071875,-0.06092592592592588],[-0.05510416666666664,-0.08537037037037042],[-0.06802083333333328,-0.08259259259259263],[-0.06802083333333328,-0.08259259259259263],[-0.08052083333333329,-0.08222222222222218],[-0.08666666666666671,-0.07759259259259255],[-0.08364583333333328,-0.07370370370370373],[-0.08364583333333328,-0.07370370370370373],[-0.08739583333333331,-0.08074074074074078],[-0.07718750000000002,-0.0868518518518518],[-0.059062500000000046,-0.07611111111111116],[-0.04864583333333338,-0.07481481481481478],[-0.04760416666666671,-0.05907407407407403],[-0.04656250000000005,-0.04333333333333329],[-0.04656250000000005,-0.04333333333333329],[-0.00614583333333331,-0.05925925925925926],[0.024791666666666618,-0.07314814814814814],[0.05572916666666667,-0.08703703703703704],[0.05697916666666671,-0.08222222222222218],[0.0625,-0.075],[0.05135416666666662,-0.0712962962962963],[0.05135416666666662,-0.0712962962962963],[0.036354166666666646,-0.07481481481481478],[0.03354166666666671,-0.0824074074074074],[0.03354166666666671,-0.0824074074074074],[0.033958333333333354,-0.08629629629629634],[0.029791666666666692,-0.11518518518518517],[0.0013541666666666192,-0.1257407407407407],[-0.0010416666666666667,-0.14444444444444443],[-0.0034374999999999527,-0.16314814814814818],[-0.0034374999999999527,-0.16314814814814818],[0.004166666666666667,-0.1962962962962963],[0.004166666666666667,-0.1962962962962963],[0.008333333333333333,-0.24388888888888888],[0.008333333333333333,-0.24388888888888888],[0.015416666666666618,-0.2572222222222222],[0.02354166666666669,-0.2690740740740741],[0.02354166666666669,-0.2690740740740741],[0.029999999999999954,-0.2627777777777777],[0.03322916666666664,-0.2572222222222222],[0.030624999999999975,-0.227962962962963],[0.030624999999999975,-0.227962962962963],[0.03729166666666662,-0.21500000000000005],[0.03302083333333338,-0.18518518518518517],[0.022916666666666665,-0.1655555555555555],[0.00791666666666669,-0.14648148148148152],[-0.024479166666666666,-0.12314814814814815],[-0.05479166666666669,-0.1307407407407408],[-0.07447916666666667,-0.11518518518518517],[-0.09697916666666669,-0.10425925925925927],[-0.1078125,-0.10425925925925927],[-0.10822916666666664,-0.102962962962963],[-0.10822916666666664,-0.102962962962963],[-0.10895833333333335,-0.09907407407407408],[-0.10895833333333335,-0.09907407407407408],[-0.11572916666666669,-0.10351851851851848],[-0.09166666666666666,-0.10111111111111115],[-0.06270833333333338,-0.09814814814814815],[-0.03093750000000005,-0.0727777777777778],[0.000833333333333286,-0.04740740740740745],[0.004791666666666691,-0.03296296296296288],[0.008749999999999977,-0.018518518518518517],[0.009062500000000048,-0.022592592592592678],[0.009375,-0.026666666666666623],[0.014791666666666713,-0.006481481481481481],[0.0005208333333333333,0.011111111111111112],[-0.028541666666666642,0.046296296296296294],[-0.028541666666666642,0.046296296296296294],[-0.06625000000000002,0.06555555555555552],[-0.08510416666666672,0.06777777777777783],[-0.10020833333333339,0.08129629629629626],[-0.08718750000000004,0.07907407407407416],[-0.07854166666666665,0.08222222222222218],[-0.06864583333333331,0.09685185185185177],[-0.051145833333333356,0.08259259259259263],[-0.04583333333333333,0.06796296296296304],[-0.02822916666666669,0.041111111111111195],[-0.020833333333333332,0],[-0.020833333333333332,0],[0.004166666666666667,-0.01592592592592597],[0.020937500000000022,-0.028888888888888933],[0.03843749999999998,-0.05240740740740743],[0.05333333333333338,-0.0809259259259259],[0.07260416666666672,-0.11481481481481481],[0.07364583333333338,-0.14981481481481476],[0.06708333333333343,-0.1559259259259259],[0.05489583333333338,-0.17925925925925928],[0.07114583333333328,-0.17851851851851847],[0.09177083333333323,-0.18759259259259262],[0.10343749999999995,-0.2059259259259259],[0.10968749999999995,-0.21888888888888886],[0.11145833333333334,-0.23259259259259263],[0.10479166666666657,-0.24148148148148144],[0.10479166666666657,-0.24148148148148144],[0.09114583333333333,-0.2581481481481481],[0.09114583333333333,-0.2581481481481481],[0.10947916666666657,-0.2866666666666667],[0.10947916666666657,-0.2866666666666667],[0.11822916666666666,-0.3074074074074074],[0.11822916666666666,-0.3074074074074074],[0.13072916666666667,-0.32111111111111107],[0.13072916666666667,-0.32111111111111107],[0.11812500000000009,-0.3501851851851852],[0.09822916666666662,-0.3718518518518519],[0.09822916666666662,-0.3718518518518519],[0.08864583333333324,-0.37111111111111106],[0.09479166666666666,-0.3901851851851852],[0.1009375000000001,-0.40925925925925927],[0.10281250000000004,-0.4242592592592593],[0.11166666666666672,-0.43148148148148147],[0.10041666666666677,-0.4225925925925926],[0.09874999999999995,-0.4214814814814815],[0.09874999999999995,-0.4214814814814815],[0.1068749999999999,-0.427962962962963],[0.10718750000000009,-0.4235185185185185],[0.10718750000000009,-0.4235185185185185],[0.11041666666666666,-0.4166666666666667],[0.10302083333333342,-0.43925925925925924],[0.09812500000000005,-0.42462962962962963],[0.09322916666666667,-0.41],[0.07708333333333334,-0.39148148148148143],[0.07708333333333334,-0.39148148148148143],[0.0728125000000001,-0.3911111111111111],[0.06770833333333333,-0.39240740740740737],[0.06052083333333336,-0.38370370370370366],[0.043229166666666666,-0.37888888888888894],[0.02822916666666669,-0.36648148148148146],[0.013229166666666714,-0.35407407407407404],[0.013229166666666714,-0.35407407407407404],[0.002499999999999976,-0.34759259259259256],[-0.0203125,-0.36518518518518517],[-0.043124999999999976,-0.3827777777777778],[-0.049687500000000044,-0.3990740740740741],[-0.06812499999999998,-0.3972222222222222],[-0.06645833333333329,-0.3942592592592592],[-0.06270833333333338,-0.40129629629629626],[-0.051770833333333384,-0.3544444444444444],[-0.049479166666666664,-0.3655555555555555],[-0.03427083333333331,-0.3235185185185185],[-0.03802083333333333,-0.3072222222222222],[-0.016354166666666715,-0.25277777777777777],[-0.018437500000000048,-0.19370370370370374],[-0.018437500000000048,-0.19370370370370374],[-0.017916666666666713,-0.15907407407407403],[-0.017916666666666713,-0.15907407407407403],[0.0037500000000000237,-0.10203703703703708],[-0.008749999999999977,-0.07166666666666664],[-0.008749999999999977,-0.07166666666666664],[-0.013437499999999976,-0.05759259259259263],[-0.05520833333333333,-0.10092592592592593],[-0.05520833333333333,-0.10092592592592593],[-0.06864583333333331,-0.0992592592592593],[-0.07239583333333334,-0.12370370370370372],[-0.04885416666666664,-0.11351851851851855],[-0.07239583333333334,-0.15833333333333333],[-0.07239583333333334,-0.15833333333333333],[-0.06072916666666662,-0.21444444444444447],[-0.06072916666666662,-0.21444444444444447],[-0.04697916666666669,-0.24018518518518517],[-0.04697916666666669,-0.24018518518518517],[-0.05479166666666669,-0.30999999999999994],[-0.04041666666666662,-0.35481481481481486],[-0.04041666666666662,-0.35481481481481486],[-0.03927083333333338,-0.37648148148148153],[-0.0034374999999999527,-0.35648148148148145],[0.022291666666666644,-0.3359259259259259],[0.014583333333333334,-0.3520370370370371],[0.00302083333333331,-0.36870370370370376],[0.011354166666666643,-0.3357407407407408],[0.011354166666666643,-0.3357407407407408],[0.024895833333333308,-0.3485185185185185],[0.024895833333333308,-0.3485185185185185],[0.03208333333333328,-0.3742592592592593],[0.027187500000000024,-0.3811111111111111],[0.014583333333333334,-0.3725925925925926],[0.007395833333333357,-0.37092592592592594],[0.017812500000000023,-0.402962962962963],[0.020624999999999952,-0.425],[0.0265625,-0.4594444444444445],[0.024062500000000025,-0.4892592592592592],[0.011666666666666714,-0.5133333333333333],[-0.01739583333333338,-0.48499999999999993],[-0.040625,-0.46425925925925926],[-0.05135416666666662,-0.44074074074074077],[-0.05593750000000005,-0.43148148148148147],[-0.06052083333333336,-0.4222222222222222],[-0.0828125,-0.427962962962963],[-0.09750000000000002,-0.44370370370370377],[-0.12208333333333338,-0.4368518518518518],[-0.1466666666666666,-0.43],[-0.16197916666666667,-0.45037037037037037],[-0.13239583333333335,-0.4624074074074074],[-0.12229166666666665,-0.46518518518518515],[-0.11218750000000005,-0.46796296296296297],[-0.11218750000000005,-0.46796296296296297],[-0.109375,-0.46222222222222226],[-0.07927083333333336,-0.4674074074074074],[-0.05354166666666664,-0.4505555555555556],[-0.05354166666666664,-0.4505555555555556],[-0.06322916666666671,-0.4168518518518519],[-0.03999999999999997,-0.39648148148148155],[-0.016770833333333356,-0.3761111111111112],[0.0012500000000000473,-0.37703703703703706],[0.0012500000000000473,-0.37703703703703706],[-0.025625000000000023,-0.38629629629629636],[-0.025625000000000023,-0.38629629629629636],[-0.027708333333333356,-0.3962962962962963],[-0.042604166666666644,-0.41703703703703704],[-0.042604166666666644,-0.41703703703703704],[-0.041458333333333285,-0.4418518518518519],[-0.04552083333333338,-0.4431481481481482],[-0.04552083333333338,-0.4431481481481482],[-0.04760416666666671,-0.4431481481481482],[-0.04760416666666671,-0.4431481481481482],[-0.02354166666666669,-0.45740740740740743],[-0.02354166666666669,-0.45740740740740743],[-0.010208333333333286,-0.47388888888888886],[-0.0006250000000000236,-0.487962962962963],[0.02510416666666669,-0.49611111111111106],[0.02510416666666669,-0.49611111111111106],[0.029166666666666667,-0.4770370370370371],[0.022083333333333382,-0.4588888888888889],[0.022083333333333382,-0.4588888888888889],[0.02635416666666662,-0.4455555555555556],[0.019687499999999976,-0.41888888888888887],[-0.009062500000000048,-0.40481481481481485],[-0.027395833333333286,-0.3762962962962963],[-0.036458333333333336,-0.35037037037037033],[-0.05416666666666667,-0.3229629629629629],[-0.06447916666666664,-0.28185185185185185],[-0.06645833333333329,-0.2383333333333333],[-0.04677083333333331,-0.222037037037037],[-0.04677083333333331,-0.222037037037037],[-0.01739583333333338,-0.1985185185185185],[-0.01739583333333338,-0.1985185185185185],[0.01427083333333338,-0.1624074074074074],[0.04020833333333336,-0.1383333333333333],[0.06614583333333333,-0.11425925925925924],[0.08427083333333343,-0.10259259259259255],[0.10239583333333328,-0.09092592592592597],[0.1196875000000001,-0.06703703703703702],[0.13333333333333333,-0.05925925925925926],[0.11708333333333343,-0.014074074074074116],[0.11124999999999995,0.018888888888888972],[0.10885416666666667,0.03296296296296288],[0.1056250000000001,0.05],[0.1165625000000001,0.07092592592592584],[0.12750000000000009,0.09185185185185189],[0.1430208333333333,0.10962962962962972],[0.15854166666666672,0.1418518518518519],[0.15854166666666672,0.1418518518518519],[0.15552083333333327,0.17462962962962955],[0.17458333333333323,0.22166666666666676],[0.17458333333333323,0.22166666666666676],[0.19541666666666657,0.20277777777777778],[0.19895833333333332,0.2022222222222223],[0.17510416666666656,0.18777777777777774],[0.16062500000000005,0.1844444444444445],[0.13760416666666658,0.1737037037037036],[0.10489583333333338,0.11481481481481481],[0.06812500000000009,0.04000000000000004],[0.06812500000000009,0.04000000000000004],[0.03135416666666669,-0.0492592592592593],[0.010416666666666666,-0.15629629629629627],[-0.035520833333333356,-0.2616666666666667],[-0.041562499999999974,-0.32944444444444443],[-0.044166666666666646,-0.4177777777777778],[-0.029375000000000047,-0.4607407407407408],[-0.03687499999999998,-0.48259259259259263],[-0.046875,-0.5231481481481481],[-0.04760416666666671,-0.5314814814814814],[-0.05697916666666671,-0.5264814814814816],[-0.05770833333333331,-0.5120370370370371],[-0.050833333333333286,-0.47907407407407404],[-0.034375,-0.4559259259259259],[-0.04666666666666662,-0.4255555555555556],[-0.06166666666666672,-0.40555555555555556],[-0.07979166666666669,-0.4053703703703703],[-0.07979166666666669,-0.4053703703703703],[-0.08093750000000005,-0.4612962962962963],[-0.07104166666666671,-0.4855555555555555],[-0.06072916666666662,-0.4938888888888889],[-0.03322916666666664,-0.48259259259259263],[-0.014374999999999952,-0.4807407407407408],[-0.003958333333333286,-0.49444444444444446],[-0.015208333333333357,-0.4994444444444444],[-0.021458333333333357,-0.5261111111111112],[-0.021562500000000047,-0.527962962962963],[-0.0171875,-0.5092592592592593],[-0.016875000000000046,-0.4666666666666667],[-0.021458333333333357,-0.4444444444444444],[-0.021458333333333357,-0.4444444444444444],[-0.026041666666666668,-0.4222222222222222],[-0.026041666666666668,-0.4222222222222222],[-0.04854166666666669,-0.41074074074074074],[-0.0734375,-0.4148148148148148],[-0.08989583333333329,-0.4033333333333334],[-0.08843749999999997,-0.39462962962962966],[-0.08635416666666665,-0.3894444444444445],[-0.08781249999999995,-0.3896296296296296],[-0.09354166666666662,-0.39962962962962967],[-0.09927083333333328,-0.4096296296296296],[-0.11989583333333335,-0.42018518518518516],[-0.14052083333333332,-0.43074074074074076],[-0.1390625,-0.47685185185185186],[-0.1390625,-0.47685185185185186],[-0.1608333333333333,-0.46111111111111114],[-0.15833333333333333,-0.43499999999999994],[-0.15666666666666665,-0.44666666666666666],[-0.16854166666666662,-0.42111111111111105],[-0.1632291666666667,-0.4027777777777778],[-0.17385416666666664,-0.3888888888888889],[-0.16989583333333336,-0.3737037037037037],[-0.16989583333333336,-0.3737037037037037]]","[[-0.12302083333333336,-0.16722222222222224,0.0003000001907338401],[-0.12302083333333336,-0.16722222222222224,0.051400000095370046],[-0.12302083333333336,-0.16722222222222224,0.05460000038146973],[-0.13354166666666673,-0.14000000000000004,0.08930000019073248],[-0.13354166666666673,-0.14000000000000004,0.0971000003814666],[-0.153125,-0.17222222222222222,0.12299999999999756],[-0.153125,-0.17222222222222222,0.12960000038147257],[-0.15104166666666666,-0.18722222222222226,0.1574000000953646],[-0.15104166666666666,-0.18722222222222226,0.1666000003814716],[-0.15104166666666666,-0.18722222222222226,0.17130000019073321],[-0.15489583333333337,-0.2140740740740741,0.20520000028610497],[-0.15489583333333337,-0.2140740740740741,0.21249999999999858],[-0.159375,-0.2479629629629629,0.23990000009536772],[-0.159375,-0.2479629629629629,0.2469999999999999],[-0.1688541666666667,-0.28425925925925927,0.2719000000953642],[-0.1688541666666667,-0.28425925925925927,0.28040000009536925],[-0.17083333333333334,-0.29074074074074074,0.3064000000953655],[-0.17083333333333334,-0.29074074074074074,0.3130000000000024],[-0.18635416666666665,-0.3037037037037037,0.3397000002861006],[-0.18635416666666665,-0.3037037037037037,0.3467000002860985],[-0.184375,-0.2940740740740741,0.3719000000953656],[-0.184375,-0.2940740740740741,0.38060000038147024],[-0.17895833333333327,-0.3398148148148148,0.405300000190735],[-0.17895833333333327,-0.3398148148148148,0.4131000003814691],[-0.17562500000000003,-0.3890740740740741,0.4401000003814701],[-0.17562500000000003,-0.3890740740740741,0.4480000000000004],[-0.1626041666666667,-0.412962962962963,0.4734000000953671],[-0.1626041666666667,-0.412962962962963,0.4803000001907378],[-0.15750000000000006,-0.4477777777777778,0.5051000003814679],[-0.15750000000000006,-0.4477777777777778,0.5134000000953662],[-0.1514583333333333,-0.47259259259259256,0.5398000001907377],[-0.1514583333333333,-0.47259259259259256,0.5467000002861013],[-0.11395833333333331,-0.5127777777777778,0.5732000002861],[-0.11395833333333331,-0.5127777777777778,0.5798000001907369],[-0.11291666666666664,-0.4946296296296297,0.6144999999999996],[-0.11291666666666664,-0.4946296296296297,0.6223000001907337],[-0.09760416666666671,-0.5185185185185185,0.6379000000953639],[-0.08385416666666666,-0.5253703703703704,0.6544999999999987],[-0.06843750000000005,-0.5503703703703704,0.6712000002860989],[-0.06843750000000005,-0.5503703703703704,0.6878000001907338],[-0.08468749999999996,-0.5344444444444445,0.7044000000953687],[-0.0704166666666667,-0.527962962962963,0.7212000002861032],[-0.0704166666666667,-0.527962962962963,0.737800000190731],[-0.07885416666666671,-0.5083333333333333,0.7545000000000002],[-0.0858333333333333,-0.4809259259259259,0.7711000003814661],[-0.10375000000000002,-0.4414814814814814,0.7878000001907353],[-0.1295833333333333,-0.4027777777777778,0.8049999999999997],[-0.13479166666666664,-0.4103703703703704,0.8212000002861046],[-0.13999999999999999,-0.4096296296296296,0.8384999999999962],[-0.13656250000000003,-0.38851851851851854,0.8551000003814693],[-0.13656250000000003,-0.38851851851851854,0.8711000003814675],[-0.16312500000000002,-0.38351851851851854,0.8878000001907367],[-0.19593750000000001,-0.355,0.9044999999999987],[-0.22229166666666664,-0.3292592592592593,0.9212000002860989],[-0.24864583333333337,-0.30351851851851847,0.9378000001907338],[-0.26989583333333333,-0.28055555555555556,0.9562000002861026],[-0.29239583333333335,-0.26296296296296295,0.9711000003814689],[-0.2869791666666667,-0.22537037037037036,0.9882000002860991],[-0.2869791666666667,-0.22537037037037036,1.0069000000953636],[-0.2908333333333334,-0.20203703703703707,1.0212000002861004],[-0.3171875,-0.14203703703703702,1.0396000003814692],[-0.3692708333333333,-0.11796296296296294,1.0551000003814721],[-0.3692708333333333,-0.11796296296296294,1.0711000003814704],[-0.3913541666666667,-0.07777777777777778,1.0878000001907324],[-0.3913541666666667,-0.07777777777777778,1.1045000000000016],[-0.4018749999999999,-0.05962962962962961,1.1212000002861018],[-0.4018749999999999,-0.05962962962962961,1.1378000001907367],[-0.41822916666666665,-0.04277777777777782,1.1544999999999987],[-0.41822916666666665,-0.04277777777777782,1.171200000286099],[-0.39489583333333333,-0.030000000000000086,1.1878000001907338],[-0.39489583333333333,-0.030000000000000086,1.204500000000003],[-0.37531249999999994,-0.013703703703703662,1.2212000002861032],[-0.37531249999999994,-0.013703703703703662,1.237800000190731],[-0.3296875,-0.015555555555555513,1.2545000000000002],[-0.3296875,-0.015555555555555513,1.2712000002861004],[-0.32093750000000004,-0.04222222222222214,1.2879000000953695],[-0.30520833333333336,-0.03259259259259263,1.3044999999999973],[-0.30520833333333336,-0.03259259259259263,1.3212000002861046],[-0.26364583333333336,-0.07851851851851847,1.3381000003814663],[-0.18916666666666668,-0.08759259259259261,1.3545000000000016],[-0.11468750000000003,-0.09666666666666665,1.3716000003814628],[-0.04781249999999997,-0.0962962962962963,1.3880000000000052],[0.012812499999999952,-0.0948148148148148,1.4088000001907375],[0.012812499999999952,-0.0948148148148148,1.4214999999999947],[0.015625,-0.11222222222222226,1.4379000000953681],[0.015625,-0.11222222222222226,1.4546000003814754],[0.023958333333333335,-0.16574074074074074,1.4712000002861032],[0.014687500000000023,-0.18203703703703705,1.487800000190731],[0.014374999999999952,-0.1935185185185185,1.504400000095373],[0.008437500000000023,-0.23055555555555557,1.5213000001907346],[-0.004479166666666619,-0.24277777777777781,1.5398000001907377],[-0.010104166666666714,-0.2566666666666667,1.5544000000953702],[-0.01572916666666669,-0.2705555555555556,1.5712000002860975],[-0.027291666666666714,-0.27611111111111114,1.5878000001907395],[-0.03114583333333331,-0.2740740740740741,1.6045000000000016],[-0.007187499999999976,-0.2772222222222222,1.6212000002861089],[0.021458333333333357,-0.25388888888888894,1.6378000001907367],[0.041666666666666664,-0.24962962962962965,1.6544000000953645],[0.06666666666666667,-0.22722222222222221,1.6711000003814718],[0.09854166666666657,-0.20925925925925926,1.6887000002861043],[0.12635416666666663,-0.19888888888888884,1.7049999999999983],[0.13635416666666675,-0.21203703703703702,1.7212000002861032],[0.13635416666666675,-0.21203703703703702,1.7377000002860967],[0.14635416666666667,-0.22518518518518524,1.754499999999993],[0.18604166666666658,-0.24500000000000002,1.7712000002861004],[0.22020833333333342,-0.272037037037037,1.7878000001907282],[0.24468750000000009,-0.27092592592592596,1.8044000000953702],[0.2507291666666667,-0.28351851851851856,1.821400000095366],[0.25677083333333334,-0.29611111111111105,1.8378000001907395],[0.2561458333333334,-0.2892592592592592,1.8551000003814693],[0.2561458333333334,-0.2892592592592592,1.8711000003814746],[0.25625,-0.26500000000000007,1.8878000001907367],[0.2633333333333333,-0.24462962962962967,1.9047000002860983],[0.2742708333333333,-0.22388888888888886,1.9211000003814718],[0.2852083333333333,-0.20314814814814813,1.9405000000000001],[0.2829166666666666,-0.20314814814814813,1.9572000002861074],[0.2829166666666666,-0.20314814814814813,1.97480000019074],[0.2546875,-0.13259259259259262,1.987800000190731],[0.2273958333333333,-0.056851851851851834,2.0058000001907317],[0.19874999999999995,0.04333333333333329,2.0213000001907346],[0.1701041666666666,0.14351851851851852,2.037800000190728],[0.14333333333333323,0.20611111111111102,2.0579000000953727],[0.1310416666666666,0.25,2.0752000002861024],[0.10541666666666671,0.3274074074074073,2.090200000286103],[0.07020833333333343,0.40962962962962973,2.1045000000000016],[0.026145833333333358,0.4733333333333334,2.1211000003814746],[-0.014999999999999977,0.5435185185185185,2.1378000001907367],[-0.029270833333333357,0.5537037037037037,2.1569999999999965],[-0.044479166666666715,0.5587037037037038,2.173100000381467],[-0.05020833333333338,0.5544444444444444,2.190400000095366],[-0.05593750000000005,0.5501851851851852,2.206000000000003],[-0.04833333333333331,0.5353703703703704,2.221500000000006],[-0.05520833333333333,0.5392592592592593,2.2413000001907335],[-0.05520833333333333,0.5392592592592593,2.2558000001907317],[-0.049687500000000044,0.531111111111111,2.271400000095369],[-0.04781249999999997,0.5372222222222223,2.290999999999997],[-0.03114583333333331,0.5377777777777777,2.306200000286097],[-0.011666666666666714,0.5348148148148147,2.3212000002860975],[-0.005520833333333286,0.528888888888889,2.337900000095374],[-0.008020833333333382,0.5211111111111111,2.359800000190731],[-0.008020833333333382,0.5211111111111111,2.371300000190729],[0.005312500000000024,0.5166666666666667,2.3880000000000052],[0.005312500000000024,0.5166666666666667,2.404900000095367],[0.001145833333333357,0.5061111111111111,2.426700000286104],[0.001145833333333357,0.5061111111111111,2.438200000286102],[-0.007083333333333286,0.5477777777777777,2.454900000095364],[-0.002395833333333286,0.5714814814814815,2.476700000286101],[0.0003124999999999526,0.5459259259259258,2.49190000009537],[0.006666666666666643,0.5061111111111111,2.5078000001907412],[0.003958333333333286,0.544074074074074,2.5234000000953642],[-0.0015625,0.5855555555555556,2.541800000190733],[-0.010520833333333358,0.5398148148148149,2.558400000095361],[-0.0109375,0.5112962962962964,2.5733000001907413],[-0.03864583333333336,0.4737037037037036,2.587900000095374],[-0.033645833333333285,0.4335185185185186,2.6078000001907355],[-0.08010416666666664,0.3785185185185185,2.6237000002861066],[-0.12270833333333328,0.34037037037037027,2.6414000000953735],[-0.1772916666666667,0.3205555555555556,2.6640000000000015],[-0.1772916666666667,0.3205555555555556,2.6724999999999994],[-0.18697916666666667,0.3118518518518518,2.6885000000000048],[-0.23322916666666665,0.2857407407407407,2.7146000003814663],[-0.23322916666666665,0.2857407407407407,2.72180000019074],[-0.24145833333333327,0.21148148148148158,2.7379999999999995],[-0.24145833333333327,0.21148148148148158,2.7558000001907317],[-0.2267708333333334,0.1766666666666666,2.7746000003814686],[-0.2633333333333333,0.16870370370370374,2.7901000003814715],[-0.28802083333333334,0.17240740740740745,2.806600000381465],[-0.36270833333333335,0.1596296296296297,2.8267000002860954],[-0.36270833333333335,0.1596296296296297,2.8381000003814734],[-0.3263541666666666,0.13574074074074066,2.8548000001907354],[-0.3064583333333334,0.14685185185185176,2.8732000002861042],[-0.27531249999999996,0.14037037037037028,2.8944000000953736],[-0.27531249999999996,0.14037037037037028,2.9044999999999987],[-0.286875,0.11462962962962958,2.9214000000953604],[-0.2828125,0.03037037037037033,2.9403000001907316],[-0.3211458333333333,-0.0012962962962963806,2.961900000095369],[-0.3211458333333333,-0.0012962962962963806,2.9713000001907375],[-0.34104166666666663,0.021481481481481525,2.988100000381465],[-0.3012500000000001,0.01055555555555564,3.0057000002860974],[-0.25895833333333335,0.012222222222222264,3.0249000000953714],[-0.19281250000000003,0.01592592592592597,3.043200000286106],[-0.19281250000000003,0.01592592592592597,3.060200000286102],[-0.19864583333333338,0.036666666666666584,3.0759000000953733],[-0.19864583333333338,0.036666666666666584,3.087999999999994],[-0.20239583333333327,-0.007407407407407408,3.104700000286101],[-0.20239583333333327,-0.007407407407407408,3.1214000000953632],[-0.20499999999999996,-0.03925925925925934,3.1414000000953735],[-0.20499999999999996,-0.03925925925925934,3.1547000002860983],[-0.19468749999999999,-0.002777777777777778,3.1714000000953604],[-0.19468749999999999,-0.002777777777777778,3.195700000286095],[-0.17052083333333337,0.024074074074074074,3.2046000003814754],[-0.17052083333333337,0.024074074074074074,3.2213000001907375],[-0.1515625,0.00722222222222218,3.2379999999999995],[-0.1515625,0.00722222222222218,3.254400000095373],[-0.15656249999999997,-0.019259259259259216,3.2752000002861053],[-0.1766666666666667,-0.046481481481481526,3.290700000286108],[-0.19364583333333332,-0.09277777777777782,3.304700000286104],[-0.21187499999999998,-0.1403703703703704,3.324400000095366],[-0.2039583333333333,-0.1824074074074074,3.3389999999999986],[-0.23447916666666668,-0.22370370370370374,3.3559999999999945],[-0.23854166666666668,-0.25,3.3737000002861066],[-0.22770833333333335,-0.27388888888888885,3.3880000000000052],[-0.22770833333333335,-0.27388888888888885,3.404900000095367],[-0.20583333333333337,-0.2711111111111111,3.4214000000953604],[-0.20583333333333337,-0.2711111111111111,3.4421000003814726],[-0.1814583333333334,-0.2337037037037037,3.4548000001907297],[-0.16687500000000005,-0.1714814814814815,3.4713000001907375],[-0.13708333333333336,-0.1559259259259259,3.4879000000953653],[-0.10541666666666671,-0.1257407407407407,3.506700000286102],[-0.08854166666666667,-0.06833333333333329,3.521100000381466],[-0.08885416666666662,-0.06944444444444445,3.5401000003814715],[-0.051041666666666666,-0.046481481481481526,3.5549999999999926],[-0.036458333333333336,-0.018148148148148063,3.5711000003814632],[-0.05802083333333338,-0.01444444444444436,3.5878000001907395],[-0.035625000000000046,0.004074074074074159,3.6071000003814646],[-0.035625000000000046,0.004074074074074159,3.6211000003814746],[-0.010104166666666714,0.0016666666666666245,3.637900000095371],[0.021458333333333357,-0.030555555555555555,3.656499999999994],[0.021458333333333357,-0.030555555555555555,3.671200000286106],[0.03239583333333336,-0.01703703703703712,3.687800000190734],[0.040625,-0.03037037037037033,3.7062000002861026],[0.09281249999999991,-0.03944444444444436,3.724500000000006],[0.14177083333333323,-0.003888888888888931,3.7423000001907383],[0.11583333333333339,-0.0001851851851852273,3.7583000001907294],[0.11583333333333339,-0.0001851851851852273,3.7717000002861027],[0.11322916666666671,-0.009814814814814731,3.788100000381476],[0.0953125,-0.05870370370370368,3.808499999999995],[0.05531250000000002,-0.1161111111111111,3.8245000000000005],[-0.008958333333333356,-0.11666666666666667,3.840900000095374],[-0.03572916666666662,-0.13277777777777774,3.8603000001907333],[-0.03572916666666662,-0.13277777777777774,3.871200000286109],[-0.07052083333333338,-0.13703703703703704,3.8878000001907367],[-0.07052083333333338,-0.13703703703703704,3.9044999999999987],[-0.10260416666666666,-0.11518518518518517,3.921200000286106],[-0.1779166666666666,-0.15314814814814812,3.939400000095361],[-0.25677083333333334,-0.20685185185185184,3.9569999999999936],[-0.25895833333333335,-0.2337037037037037,3.972600000381476],[-0.2603125,-0.23148148148148148,3.987800000190731],[-0.2603125,-0.23148148148148148,4.007200000286105],[-0.23541666666666666,-0.20999999999999996,4.021300000190735],[-0.21781250000000002,-0.23777777777777773,4.037999999999997],[-0.1898958333333333,-0.2964814814814815,4.058600000381475],[-0.1898958333333333,-0.2964814814814815,4.071300000190732],[-0.1794791666666666,-0.32462962962962966,4.087999999999994],[-0.15895833333333337,-0.3624074074074074,4.107700000286101],[-0.15843750000000004,-0.37666666666666665,4.122500000000002],[-0.13166666666666665,-0.3381481481481482,4.137900000095371],[-0.09729166666666664,-0.3042592592592593,4.160100000381476],[-0.08218749999999998,-0.3074074074074074,4.175600000381465],[-0.08062499999999997,-0.30759259259259264,4.191300000190736],[-0.10020833333333339,-0.35111111111111115,4.209600000381471],[-0.11333333333333329,-0.3044444444444444,4.224300000190738],[-0.10718749999999998,-0.2492592592592593,4.240200000286109],[-0.1397916666666667,-0.24518518518518514,4.256700000286102],[-0.1546875,-0.2631481481481482,4.277600000381469],[-0.1546875,-0.2631481481481482,4.287999999999997],[-0.14249999999999996,-0.23703703703703705,4.304700000286104],[-0.12354166666666669,-0.20240740740740742,4.322000000000003],[-0.1421875,-0.16648148148148145,4.341400000095362],[-0.1295833333333333,-0.09703703703703699,4.358200000286104],[-0.14968750000000006,-0.06722222222222224,4.375600000381468],[-0.14708333333333337,-0.005370370370370328,4.394200000286105],[-0.14708333333333337,-0.005370370370370328,4.407400000095365],[-0.14114583333333333,0.009629629629629714,4.42140000009536],[-0.1484375,0.009629629629629714,4.447400000095371],[-0.1484375,0.009629629629629714,4.457700000286096],[-0.15427083333333336,0.08777777777777773,4.471400000095372],[-0.15427083333333336,0.08777777777777773,4.487900000095365],[-0.15833333333333333,0.1925925925925926,4.509700000286102],[-0.15833333333333333,0.1925925925925926,4.532100000381476],[-0.15572916666666667,0.17611111111111116,4.540200000286106],[-0.15906250000000005,0.1596296296296297,4.5625],[-0.15906250000000005,0.1596296296296297,4.5712000002860975],[-0.14677083333333332,0.14037037037037028,4.587900000095374],[-0.17906249999999999,0.12259259259259268,4.604500000000002],[-0.17635416666666662,0.14074074074074075,4.623900000095361],[-0.165625,0.15203703703703708,4.641900000095362],[-0.18406250000000005,0.1638888888888889,4.6588000001907375],[-0.18135416666666668,0.20981481481481473,4.6773000001907405],[-0.18135416666666668,0.20981481481481473,4.687900000095368],[-0.1538541666666667,0.19907407407407407,4.704600000381475],[-0.11875,0.19685185185185178,4.721600000381471],[-0.10489583333333338,0.24092592592592596,4.743800000190731],[-0.10489583333333338,0.24092592592592596,4.754800000190741],[-0.11437499999999995,0.24870370370370362,4.771300000190735],[-0.12895833333333329,0.22962962962962963,4.790800000190728],[-0.10427083333333335,0.2512962962962964,4.805499999999995],[-0.08072916666666667,0.2577777777777779,4.821100000381463],[-0.07156250000000004,0.26444444444444437,4.841499999999996],[-0.06697916666666662,0.27037037037037037,4.8593000001907285],[-0.07166666666666661,0.24833333333333338,4.875500000000002],[-0.08197916666666671,0.25388888888888894,4.894499999999994],[-0.08197916666666671,0.25388888888888894,4.904700000286098],[-0.11572916666666669,0.22351851851851862,4.921200000286106],[-0.13468749999999996,0.2242592592592593,4.938500000000005],[-0.12468750000000005,0.22037037037037038,4.960400000095362],[-0.12468750000000005,0.22037037037037038,4.971200000286103],[-0.12114583333333329,0.24148148148148144,4.9879999999999995],[-0.11677083333333335,0.22518518518518524,5.017400000095364],[-0.11677083333333335,0.22518518518518524,5.024300000190735],[-0.16458333333333333,0.1844444444444445,5.037900000095362],[-0.20531250000000004,0.1618518518518518,5.055100000381472],[-0.2375,0.14425925925925923,5.0745000000000005],[-0.2375,0.14425925925925923,5.087900000095374],[-0.21468750000000003,0.1111111111111111,5.104600000381467],[-0.21468750000000003,0.1111111111111111,5.121200000286109],[-0.19135416666666671,0.0764814814814814,5.143000000000001],[-0.19135416666666671,0.0764814814814814,5.154700000286098],[-0.17999999999999997,0.03222222222222218,5.17130000019074],[-0.17999999999999997,0.03222222222222218,5.195700000286095],[-0.15343749999999995,-0.012407407407407492,5.204600000381475],[-0.15343749999999995,-0.012407407407407492,5.2213000001907375],[-0.15718749999999998,-0.02092592592592584,5.242300000190738],[-0.16833333333333336,-0.06851851851851852,5.261200000286095],[-0.16833333333333336,-0.06851851851851852,5.2712000002861],[-0.15697916666666673,-0.127962962962963,5.287900000095362],[-0.07937500000000004,-0.16148148148148145,5.312800000190734],[-0.07937500000000004,-0.16148148148148145,5.3212000002860975],[-0.035625000000000046,-0.18277777777777776,5.337999999999994],[0.024479166666666666,-0.19870370370370372,5.354700000286101],[0.02958333333333331,-0.19907407407407407,5.3759000000953705],[0.024166666666666715,-0.24981481481481477,5.392900000095366],[0.024166666666666715,-0.24981481481481477,5.404700000286098],[0.042499999999999954,-0.2740740740740741,5.42140000009536],[-0.000833333333333286,-0.3020370370370371,5.445700000286095],[-0.000833333333333286,-0.3020370370370371,5.456300000190737],[0.029270833333333357,-0.30888888888888894,5.475300000190728],[0.0671875,-0.2742592592592593,5.496200000286109],[0.0671875,-0.2742592592592593,5.504600000381473],[0.09010416666666667,-0.22555555555555556,5.521300000190735],[0.08718750000000004,-0.17814814814814814,5.540000000000006],[0.10968749999999995,-0.16888888888888887,5.561400000095361],[0.10968749999999995,-0.16888888888888887,5.5712000002860975],[0.11770833333333333,-0.19870370370370372,5.5878000001907395],[0.13239583333333324,-0.22592592592592592,5.604500000000002],[0.14343750000000005,-0.20666666666666672,5.6248000001907315],[0.1478125000000001,-0.1735185185185185,5.64230000019073],[0.19500000000000003,-0.15351851851851847,5.659400000095374],[0.19260416666666677,-0.15833333333333333,5.678600000381465],[0.19260416666666677,-0.15833333333333333,5.687900000095368],[0.2101041666666667,-0.1653703703703704,5.70480000019073],[0.2101041666666667,-0.1766666666666666,5.722300000190728],[0.2101041666666667,-0.18796296296296297,5.740700000286097],[0.21208333333333323,-0.18592592592592588,5.757800000190734],[0.21218750000000006,-0.15018518518518523,5.774400000095362],[0.19562499999999997,-0.11555555555555551,5.794200000286089],[0.19562499999999997,-0.11555555555555551,5.804499999999997],[0.20656249999999995,-0.09870370370370372,5.82120000028609],[0.20656249999999995,-0.09870370370370372,5.837900000095367],[0.21906249999999997,-0.10092592592592593,5.859999999999992],[0.21906249999999997,-0.10092592592592593,5.871300000190722],[0.21666666666666667,-0.1381481481481482,5.887900000095364],[0.21166666666666673,-0.16666666666666666,5.907499999999992],[0.21166666666666673,-0.16666666666666666,5.921200000286099],[0.2349999999999999,-0.18462962962962962,5.937900000095361],[0.25906250000000003,-0.19518518518518516,5.960100000381466],[0.25906250000000003,-0.19518518518518516,5.971200000286096],[0.27447916666666666,-0.19814814814814816,5.987900000095358],[0.2898958333333333,-0.18462962962962962,6.004900000095354],[0.30625,-0.17314814814814813,6.025100000381464],[0.33322916666666674,-0.18259259259259264,6.039900000095365],[0.3444791666666667,-0.18185185185185182,6.058400000095354],[0.35697916666666674,-0.18037037037037032,6.078100000381461],[0.35697916666666674,-0.18037037037037032,6.087900000095367],[0.3689583333333334,-0.15685185185185183,6.104700000286094],[0.3854166666666667,-0.15407407407407406,6.121600000381456],[0.38010416666666674,-0.16277777777777774,6.14270000028609