inst1_resp.keys,inst1_resp.rt,calibrationMouse.x,calibrationMouse.y,calibrationMouse.leftButton,calibrationMouse.midButton,calibrationMouse.rightButton,calibrationClick.x,calibrationClick.y,calibrationClick.leftButton,calibrationClick.midButton,calibrationClick.rightButton,trialsc.thisRepN,trialsc.thisTrialN,trialsc.thisN,trialsc.thisIndex,trialsc.ran,calibration_x,calibration_y,participant,session,date,expName,psychopyVersion,OS,frameRate,calibrationClick.clicked_name,ScreenRes_pixels,Camera_pixels,mouse_2.x,mouse_2.y,mouse_2.leftButton,mouse_2.midButton,mouse_2.rightButton,mouse_2.time,mouse_2.clicked_name,mouse.x,mouse.y,mouse.leftButton,mouse.midButton,mouse.rightButton,mouse.time,mouse.clicked_name,Choice,Trial,TrialDuration,MOUSE_GAZE,ET_GAZE,ET_GAZE_x_T,time,unixTime,ET_GAZE_NF,Loc_Bus_label,Loc_Metro_label,Loc_RH_label,Loc_Cost_label,Loc_Travel_label,Loc_Comfort_label,Loc_Bus_cost,Loc_Metro_cost,Loc_RH_cost,Loc_Bus_travel,Loc_Metro_travel,Loc_RH_travel,Loc_Bus_comfort,Loc_Metro_comfort,Loc_RH_comfort,trials.thisRepN,trials.thisTrialN,trials.thisN,trials.thisIndex,trials.ran,Block,Device,RH_cost,RH_travel_time,RH_Comfort,metro_cost,metro_travel_time,metro_Comfort,Bus_cost,Bus_travel_time,Bus_Comfort
space,6.0595,-1,-0.998148148,1,0,0,-0.3375,0.016666667,1,0,0,0,0,0,6,1,-0.33,0,26,001,2024-11-21_12h38.55.155,Attention_exp_legacy,2023.1.0,Win32,59.88023952,,,,,,,,,,,,,,,,,,,,,,,,,,,,,,,,,,,,,,,,,,,,,,,,,,,,,,,,,
,,,,,,,0.336458333,0.012962963,1,0,0,0,1,1,16,1,0.33,0,26,001,2024-11-21_12h38.55.155,Attention_exp_legacy,2023.1.0,Win32,59.88023952,,,,,,,,,,,,,,,,,,,,,,,,,,,,,,,,,,,,,,,,,,,,,,,,,,,,,,,,,
,,,,,,,-0.3375,0.662962963,1,0,0,0,2,2,8,1,-0.33,0.67,26,001,2024-11-21_12h38.55.155,Attention_exp_legacy,2023.1.0,Win32,59.88023952,calibration_square,,,,,,,,,,,,,,,,,,,,,,,,,,,,,,,,,,,,,,,,,,,,,,,,,,,,,,,,
,,,,,,,-0.678125,0.333333333,1,0,0,0,3,3,3,1,-0.67,0.33,26,001,2024-11-21_12h38.55.155,Attention_exp_legacy,2023.1.0,Win32,59.88023952,calibration_square,,,,,,,,,,,,,,,,,,,,,,,,,,,,,,,,,,,,,,,,,,,,,,,,,,,,,,,,
,,,,,,,0,0.337037037,1,0,0,0,4,4,12,1,0,0.33,26,001,2024-11-21_12h38.55.155,Attention_exp_legacy,2023.1.0,Win32,59.88023952,calibration_square,,,,,,,,,,,,,,,,,,,,,,,,,,,,,,,,,,,,,,,,,,,,,,,,,,,,,,,,
,,,,,,,-0.664583333,-0.664814815,1,0,0,0,5,5,0,1,-0.67,-0.67,26,001,2024-11-21_12h38.55.155,Attention_exp_legacy,2023.1.0,Win32,59.88023952,calibration_square,,,,,,,,,,,,,,,,,,,,,,,,,,,,,,,,,,,,,,,,,,,,,,,,,,,,,,,,
,,,,,,,0.332291667,0.327777778,1,0,0,0,6,6,17,1,0.33,0.33,26,001,2024-11-21_12h38.55.155,Attention_exp_legacy,2023.1.0,Win32,59.88023952,calibration_square,,,,,,,,,,,,,,,,,,,,,,,,,,,,,,,,,,,,,,,,,,,,,,,,,,,,,,,,
,,,,,,,-0.666666667,0.003703704,1,0,0,0,7,7,2,1,-0.67,0,26,001,2024-11-21_12h38.55.155,Attention_exp_legacy,2023.1.0,Win32,59.88023952,calibration_square,,,,,,,,,,,,,,,,,,,,,,,,,,,,,,,,,,,,,,,,,,,,,,,,,,,,,,,,
,,,,,,,0.004166667,-0.316666667,1,0,0,0,8,8,10,1,0,-0.33,26,001,2024-11-21_12h38.55.155,Attention_exp_legacy,2023.1.0,Win32,59.88023952,,,,,,,,,,,,,,,,,,,,,,,,,,,,,,,,,,,,,,,,,,,,,,,,,,,,,,,,,
,,,,,,,0.329166667,0.681481481,1,0,0,0,9,9,18,1,0.33,0.67,26,001,2024-11-21_12h38.55.155,Attention_exp_legacy,2023.1.0,Win32,59.88023952,,,,,,,,,,,,,,,,,,,,,,,,,,,,,,,,,,,,,,,,,,,,,,,,,,,,,,,,,
,,,,,,,0,0.696296296,1,0,0,0,10,10,13,1,0,0.67,26,001,2024-11-21_12h38.55.155,Attention_exp_legacy,2023.1.0,Win32,59.88023952,,,,,,,,,,,,,,,,,,,,,,,,,,,,,,,,,,,,,,,,,,,,,,,,,,,,,,,,,
,,,,,,,-0.329166667,-0.666666667,1,0,0,0,11,11,4,1,-0.33,-0.67,26,001,2024-11-21_12h38.55.155,Attention_exp_legacy,2023.1.0,Win32,59.88023952,calibration_square,,,,,,,,,,,,,,,,,,,,,,,,,,,,,,,,,,,,,,,,,,,,,,,,,,,,,,,,
,,,,,,,-0.327083333,-0.32037037,1,0,0,0,12,12,5,1,-0.33,-0.33,26,001,2024-11-21_12h38.55.155,Attention_exp_legacy,2023.1.0,Win32,59.88023952,calibration_square,,,,,,,,,,,,,,,,,,,,,,,,,,,,,,,,,,,,,,,,,,,,,,,,,,,,,,,,
,,,,,,,-0.005208333,-0.659259259,1,0,0,0,13,13,9,1,0,-0.67,26,001,2024-11-21_12h38.55.155,Attention_exp_legacy,2023.1.0,Win32,59.88023952,,,,,,,,,,,,,,,,,,,,,,,,,,,,,,,,,,,,,,,,,,,,,,,,,,,,,,,,,
,,,,,,,-0.679166667,-0.32962963,1,0,0,0,14,14,1,1,-0.67,-0.33,26,001,2024-11-21_12h38.55.155,Attention_exp_legacy,2023.1.0,Win32,59.88023952,calibration_square,,,,,,,,,,,,,,,,,,,,,,,,,,,,,,,,,,,,,,,,,,,,,,,,,,,,,,,,
,,,,,,,0.664583333,0.668518519,1,0,0,0,15,15,19,1,0.67,0.67,26,001,2024-11-21_12h38.55.155,Attention_exp_legacy,2023.1.0,Win32,59.88023952,calibration_square,,,,,,,,,,,,,,,,,,,,,,,,,,,,,,,,,,,,,,,,,,,,,,,,,,,,,,,,
,,,,,,,-0.001041667,0.007407407,1,0,0,0,16,16,11,1,0,0,26,001,2024-11-21_12h38.55.155,Attention_exp_legacy,2023.1.0,Win32,59.88023952,calibration_square,,,,,,,,,,,,,,,,,,,,,,,,,,,,,,,,,,,,,,,,,,,,,,,,,,,,,,,,
,,,,,,,0.333333333,-0.661111111,1,0,0,0,17,17,14,1,0.33,-0.67,26,001,2024-11-21_12h38.55.155,Attention_exp_legacy,2023.1.0,Win32,59.88023952,calibration_square,,,,,,,,,,,,,,,,,,,,,,,,,,,,,,,,,,,,,,,,,,,,,,,,,,,,,,,,
,,,,,,,0.329166667,-0.333333333,1,0,0,0,18,18,15,1,0.33,-0.33,26,001,2024-11-21_12h38.55.155,Attention_exp_legacy,2023.1.0,Win32,59.88023952,calibration_square,,,,,,,,,,,,,,,,,,,,,,,,,,,,,,,,,,,,,,,,,,,,,,,,,,,,,,,,
,,,,,,,-0.333333333,0.333333333,1,0,0,0,19,19,7,1,-0.33,0.33,26,001,2024-11-21_12h38.55.155,Attention_exp_legacy,2023.1.0,Win32,59.88023952,calibration_square,,,,,,,,,,,,,,,,,,,,,,,,,,,,,,,,,,,,,,,,,,,,,,,,,,,,,,,,
,,,,,,,0.677083333,-0.67037037,1,0,0,0,20,20,20,1,0.67,-0.67,26,001,2024-11-21_12h38.55.155,Attention_exp_legacy,2023.1.0,Win32,59.88023952,calibration_square,,,,,,,,,,,,,,,,,,,,,,,,,,,,,,,,,,,,,,,,,,,,,,,,,,,,,,,,
,,,,,,,,,,,,,,,,,,,26,001,2024-11-21_12h38.55.155,Attention_exp_legacy,2023.1.0,Win32,59.88023952,,"[1920,1080]","[640,480]",[0.010416666666666666],[-0.4962962962962963],[1],[0],[0],[18.059900000095368],"[""StartButton""]",[-0.09479166666666666],[0.36666666666666664],[1],[0],[0],[14.540999999999997],"[""Bus_label""]",Bus_label,1,15.5559,"[[0.19479166666666667,-0.25],[0.190625,-0.24814814814814815],[0.18958333333333333,-0.24814814814814815],[0.18958333333333333,-0.24814814814814815],[0.18958333333333333,-0.24814814814814815],[0.1875,-0.24814814814814815],[0.18645833333333334,-0.2462962962962963],[0.18645833333333334,-0.2462962962962963],[0.18645833333333334,-0.2462962962962963],[0.18645833333333334,-0.2462962962962963],[0.18645833333333334,-0.2462962962962963],[0.18645833333333334,-0.2462962962962963],[0.18645833333333334,-0.2462962962962963],[0.18645833333333334,-0.2462962962962963],[0.18645833333333334,-0.2462962962962963],[0.18645833333333334,-0.2462962962962963],[0.18645833333333334,-0.2462962962962963],[0.18645833333333334,-0.2462962962962963],[0.18645833333333334,-0.2462962962962963],[0.18645833333333334,-0.2462962962962963],[0.18645833333333334,-0.2462962962962963],[0.18645833333333334,-0.2462962962962963],[0.18645833333333334,-0.2462962962962963],[0.18645833333333334,-0.2462962962962963],[0.18645833333333334,-0.2462962962962963],[0.18645833333333334,-0.2462962962962963],[0.18645833333333334,-0.2462962962962963],[0.18645833333333334,-0.2462962962962963],[0.18645833333333334,-0.2462962962962963],[0.18645833333333334,-0.2462962962962963],[0.18645833333333334,-0.2462962962962963],[0.18645833333333334,-0.2462962962962963],[0.18645833333333334,-0.2462962962962963],[0.18645833333333334,-0.2462962962962963],[0.18645833333333334,-0.2462962962962963],[0.18645833333333334,-0.2462962962962963],[0.18645833333333334,-0.2462962962962963],[0.18645833333333334,-0.2462962962962963],[0.18645833333333334,-0.2462962962962963],[0.18645833333333334,-0.2462962962962963],[0.18645833333333334,-0.2462962962962963],[0.18645833333333334,-0.2462962962962963],[0.18645833333333334,-0.2462962962962963],[0.18645833333333334,-0.2462962962962963],[0.18645833333333334,-0.2462962962962963],[0.18645833333333334,-0.2462962962962963],[0.18645833333333334,-0.2462962962962963],[0.18645833333333334,-0.2462962962962963],[0.18645833333333334,-0.2462962962962963],[0.18645833333333334,-0.2462962962962963],[0.18645833333333334,-0.2462962962962963],[0.18645833333333334,-0.2462962962962963],[0.18645833333333334,-0.2462962962962963],[0.18645833333333334,-0.2462962962962963],[0.18645833333333334,-0.2462962962962963],[0.18645833333333334,-0.2462962962962963],[0.18645833333333334,-0.2462962962962963],[0.184375,-0.2462962962962963],[0.18229166666666666,-0.24074074074074073],[0.178125,-0.2351851851851852],[0.171875,-0.22592592592592592],[0.165625,-0.21666666666666667],[0.15625,-0.20185185185185187],[0.14583333333333334,-0.18703703703703703],[0.134375,-0.1685185185185185],[0.128125,-0.1574074074074074],[0.12395833333333334,-0.15],[0.10104166666666667,-0.12222222222222222],[0.08645833333333333,-0.10925925925925926],[0.07291666666666667,-0.09259259259259259],[0.06145833333333333,-0.07777777777777778],[0.05520833333333333,-0.06666666666666667],[0.04791666666666667,-0.05925925925925926],[0.035416666666666666,-0.04259259259259259],[0.021875,-0.03148148148148148],[0.009375,-0.016666666666666666],[-0.0020833333333333333,-0.003703703703703704],[-0.011458333333333333,0.011111111111111112],[-0.023958333333333335,0.03148148148148148],[-0.030208333333333334,0.04259259259259259],[-0.035416666666666666,0.05185185185185185],[-0.03854166666666667,0.05740740740740741],[-0.03958333333333333,0.05925925925925926],[-0.03958333333333333,0.05925925925925926],[-0.040625,0.06666666666666667],[-0.040625,0.06666666666666667],[-0.040625,0.06851851851851852],[-0.040625,0.07407407407407407],[-0.041666666666666664,0.07777777777777778],[-0.041666666666666664,0.08333333333333333],[-0.042708333333333334,0.08888888888888889],[-0.042708333333333334,0.09259259259259259],[-0.04479166666666667,0.0962962962962963],[-0.04583333333333333,0.1],[-0.046875,0.1],[-0.046875,0.10185185185185185],[-0.046875,0.10185185185185185],[-0.046875,0.10185185185185185],[-0.046875,0.10185185185185185],[-0.04791666666666667,0.10185185185185185],[-0.04895833333333333,0.10185185185185185],[-0.04895833333333333,0.10185185185185185],[-0.051041666666666666,0.1037037037037037],[-0.053125,0.1111111111111111],[-0.05625,0.12037037037037036],[-0.06145833333333333,0.14444444444444443],[-0.065625,0.16666666666666666],[-0.071875,0.1925925925925926],[-0.07708333333333334,0.21666666666666667],[-0.08125,0.24259259259259258],[-0.084375,0.26296296296296295],[-0.08645833333333333,0.2777777777777778],[-0.090625,0.29259259259259257],[-0.09270833333333334,0.29444444444444445],[-0.09270833333333334,0.29814814814814816],[-0.09375,0.3],[-0.09375,0.3],[-0.09375,0.3],[-0.09375,0.3],[-0.09375,0.30185185185185187],[-0.09375,0.30185185185185187],[-0.09375,0.3055555555555556],[-0.09375,0.3055555555555556],[-0.09479166666666666,0.3074074074074074],[-0.09479166666666666,0.3111111111111111],[-0.09479166666666666,0.31666666666666665],[-0.09479166666666666,0.3296296296296296],[-0.08645833333333333,0.3537037037037037],[-0.07916666666666666,0.36666666666666664],[-0.07604166666666666,0.37407407407407406],[-0.07395833333333333,0.37777777777777777],[-0.07291666666666667,0.37962962962962965],[-0.071875,0.38333333333333336],[-0.071875,0.38333333333333336],[-0.071875,0.3851851851851852],[-0.071875,0.3851851851851852],[-0.071875,0.3851851851851852],[-0.071875,0.3851851851851852],[-0.071875,0.3851851851851852],[-0.071875,0.3851851851851852],[-0.071875,0.3851851851851852],[-0.071875,0.3851851851851852],[-0.071875,0.3851851851851852],[-0.071875,0.3851851851851852],[-0.071875,0.3851851851851852],[-0.071875,0.3851851851851852],[-0.071875,0.3851851851851852],[-0.071875,0.3851851851851852],[-0.071875,0.3851851851851852],[-0.071875,0.3851851851851852],[-0.071875,0.3851851851851852],[-0.071875,0.3851851851851852],[-0.071875,0.3851851851851852],[-0.071875,0.3851851851851852],[-0.071875,0.3851851851851852],[-0.071875,0.3851851851851852],[-0.071875,0.3851851851851852],[-0.071875,0.3851851851851852],[-0.071875,0.3851851851851852],[-0.071875,0.3851851851851852],[-0.071875,0.3851851851851852],[-0.071875,0.3851851851851852],[-0.071875,0.3851851851851852],[-0.071875,0.3851851851851852],[-0.071875,0.3851851851851852],[-0.071875,0.3851851851851852],[-0.071875,0.3851851851851852],[-0.071875,0.3851851851851852],[-0.071875,0.3851851851851852],[-0.071875,0.3851851851851852],[-0.071875,0.3851851851851852],[-0.071875,0.3851851851851852],[-0.071875,0.3851851851851852],[-0.071875,0.3851851851851852],[-0.071875,0.3851851851851852],[-0.071875,0.3851851851851852],[-0.071875,0.3851851851851852],[-0.071875,0.3851851851851852],[-0.071875,0.3851851851851852],[-0.071875,0.3851851851851852],[-0.071875,0.3851851851851852],[-0.071875,0.3851851851851852],[-0.071875,0.3851851851851852],[-0.071875,0.3851851851851852],[-0.071875,0.3851851851851852],[-0.071875,0.3851851851851852],[-0.071875,0.3851851851851852],[-0.071875,0.3851851851851852],[-0.071875,0.3851851851851852],[-0.071875,0.3851851851851852],[-0.071875,0.3851851851851852],[-0.071875,0.3851851851851852],[-0.071875,0.3851851851851852],[-0.071875,0.3851851851851852],[-0.071875,0.3851851851851852],[-0.071875,0.3851851851851852],[-0.071875,0.3851851851851852],[-0.071875,0.3851851851851852],[-0.071875,0.3851851851851852],[-0.071875,0.3851851851851852],[-0.071875,0.3851851851851852],[-0.071875,0.3851851851851852],[-0.071875,0.3851851851851852],[-0.071875,0.3851851851851852],[-0.071875,0.3851851851851852],[-0.071875,0.3851851851851852],[-0.071875,0.3851851851851852],[-0.071875,0.3851851851851852],[-0.071875,0.3851851851851852],[-0.071875,0.3851851851851852],[-0.071875,0.3851851851851852],[-0.071875,0.3851851851851852],[-0.071875,0.3851851851851852],[-0.071875,0.3851851851851852],[-0.071875,0.3851851851851852],[-0.071875,0.3851851851851852],[-0.071875,0.3851851851851852],[-0.071875,0.3851851851851852],[-0.071875,0.3851851851851852],[-0.071875,0.3851851851851852],[-0.071875,0.3851851851851852],[-0.071875,0.3851851851851852],[-0.071875,0.3851851851851852],[-0.071875,0.3851851851851852],[-0.071875,0.3851851851851852],[-0.071875,0.3851851851851852],[-0.071875,0.3851851851851852],[-0.071875,0.3851851851851852],[-0.071875,0.3851851851851852],[-0.071875,0.3851851851851852],[-0.071875,0.3851851851851852],[-0.071875,0.3851851851851852],[-0.071875,0.3851851851851852],[-0.071875,0.3851851851851852],[-0.071875,0.3851851851851852],[-0.071875,0.3851851851851852],[-0.071875,0.3851851851851852],[-0.071875,0.3851851851851852],[-0.071875,0.3851851851851852],[-0.071875,0.3851851851851852],[-0.071875,0.3851851851851852],[-0.071875,0.3851851851851852],[-0.071875,0.3851851851851852],[-0.071875,0.3851851851851852],[-0.071875,0.3851851851851852],[-0.071875,0.3851851851851852],[-0.071875,0.3851851851851852],[-0.071875,0.3851851851851852],[-0.071875,0.3851851851851852],[-0.071875,0.3851851851851852],[-0.071875,0.3851851851851852],[-0.071875,0.3851851851851852],[-0.071875,0.3851851851851852],[-0.071875,0.3851851851851852],[-0.071875,0.3851851851851852],[-0.071875,0.3851851851851852],[-0.071875,0.3851851851851852],[-0.071875,0.3851851851851852],[-0.071875,0.3851851851851852],[-0.071875,0.3851851851851852],[-0.071875,0.3851851851851852],[-0.071875,0.3851851851851852],[-0.071875,0.3851851851851852],[-0.071875,0.3851851851851852],[-0.071875,0.3851851851851852],[-0.071875,0.3851851851851852],[-0.071875,0.3851851851851852],[-0.071875,0.3851851851851852],[-0.071875,0.3851851851851852],[-0.071875,0.3851851851851852],[-0.071875,0.3851851851851852],[-0.071875,0.3851851851851852],[-0.071875,0.3851851851851852],[-0.071875,0.3851851851851852],[-0.071875,0.3851851851851852],[-0.071875,0.3851851851851852],[-0.071875,0.3851851851851852],[-0.071875,0.3851851851851852],[-0.071875,0.3851851851851852],[-0.071875,0.3851851851851852],[-0.071875,0.3851851851851852],[-0.071875,0.3851851851851852],[-0.071875,0.3851851851851852],[-0.071875,0.3851851851851852],[-0.071875,0.3851851851851852],[-0.071875,0.3851851851851852],[-0.071875,0.3851851851851852],[-0.071875,0.3851851851851852],[-0.071875,0.3851851851851852],[-0.071875,0.3851851851851852],[-0.071875,0.3851851851851852],[-0.071875,0.3851851851851852],[-0.071875,0.3851851851851852],[-0.071875,0.3851851851851852],[-0.071875,0.3851851851851852],[-0.071875,0.3851851851851852],[-0.071875,0.3851851851851852],[-0.071875,0.3851851851851852],[-0.071875,0.3851851851851852],[-0.071875,0.3851851851851852],[-0.071875,0.3851851851851852],[-0.071875,0.3851851851851852],[-0.071875,0.3851851851851852],[-0.071875,0.3851851851851852],[-0.071875,0.3851851851851852],[-0.071875,0.3851851851851852],[-0.071875,0.3851851851851852],[-0.071875,0.3851851851851852],[-0.071875,0.3851851851851852],[-0.071875,0.3851851851851852],[-0.071875,0.3851851851851852],[-0.071875,0.3851851851851852],[-0.071875,0.3851851851851852],[-0.071875,0.3851851851851852],[-0.071875,0.3851851851851852],[-0.071875,0.3851851851851852],[-0.071875,0.3851851851851852],[-0.071875,0.3851851851851852],[-0.071875,0.3851851851851852],[-0.071875,0.3851851851851852],[-0.071875,0.3851851851851852],[-0.071875,0.3851851851851852],[-0.071875,0.3851851851851852],[-0.071875,0.3851851851851852],[-0.071875,0.3851851851851852],[-0.071875,0.3851851851851852],[-0.071875,0.3851851851851852],[-0.071875,0.3851851851851852],[-0.071875,0.3851851851851852],[-0.071875,0.3851851851851852],[-0.071875,0.3851851851851852],[-0.071875,0.3851851851851852],[-0.071875,0.3851851851851852],[-0.071875,0.3851851851851852],[-0.071875,0.3851851851851852],[-0.071875,0.3851851851851852],[-0.071875,0.3851851851851852],[-0.071875,0.3851851851851852],[-0.071875,0.3851851851851852],[-0.071875,0.3851851851851852],[-0.071875,0.3851851851851852],[-0.071875,0.3851851851851852],[-0.071875,0.3851851851851852],[-0.071875,0.3851851851851852],[-0.071875,0.3851851851851852],[-0.071875,0.3851851851851852],[-0.071875,0.3851851851851852],[-0.071875,0.3851851851851852],[-0.071875,0.3851851851851852],[-0.071875,0.3851851851851852],[-0.071875,0.3851851851851852],[-0.071875,0.3851851851851852],[-0.071875,0.3851851851851852],[-0.071875,0.3851851851851852],[-0.071875,0.3851851851851852],[-0.071875,0.3851851851851852],[-0.071875,0.3851851851851852],[-0.071875,0.3851851851851852],[-0.071875,0.3851851851851852],[-0.071875,0.3851851851851852],[-0.071875,0.3851851851851852],[-0.071875,0.3851851851851852],[-0.071875,0.3851851851851852],[-0.071875,0.3851851851851852],[-0.071875,0.3851851851851852],[-0.071875,0.3851851851851852],[-0.071875,0.3851851851851852],[-0.071875,0.3851851851851852],[-0.071875,0.3851851851851852],[-0.071875,0.3851851851851852],[-0.071875,0.3851851851851852],[-0.071875,0.3851851851851852],[-0.071875,0.3851851851851852],[-0.071875,0.3851851851851852],[-0.071875,0.3851851851851852],[-0.071875,0.3851851851851852],[-0.071875,0.3851851851851852],[-0.071875,0.3851851851851852],[-0.071875,0.3851851851851852],[-0.071875,0.3851851851851852],[-0.071875,0.3851851851851852],[-0.071875,0.3851851851851852],[-0.071875,0.3851851851851852],[-0.071875,0.3851851851851852],[-0.071875,0.3851851851851852],[-0.071875,0.3851851851851852],[-0.071875,0.3851851851851852],[-0.071875,0.3851851851851852],[-0.071875,0.3851851851851852],[-0.071875,0.3851851851851852],[-0.071875,0.3851851851851852],[-0.071875,0.3851851851851852],[-0.071875,0.3851851851851852],[-0.071875,0.3851851851851852],[-0.071875,0.3851851851851852],[-0.071875,0.3851851851851852],[-0.071875,0.3851851851851852],[-0.071875,0.3851851851851852],[-0.071875,0.3851851851851852],[-0.071875,0.3851851851851852],[-0.071875,0.3851851851851852],[-0.071875,0.3851851851851852],[-0.071875,0.3851851851851852],[-0.071875,0.3851851851851852],[-0.071875,0.3851851851851852],[-0.071875,0.3851851851851852],[-0.071875,0.3851851851851852],[-0.071875,0.3851851851851852],[-0.071875,0.3851851851851852],[-0.071875,0.3851851851851852],[-0.071875,0.3851851851851852],[-0.071875,0.3851851851851852],[-0.071875,0.3851851851851852],[-0.071875,0.3851851851851852],[-0.071875,0.3851851851851852],[-0.071875,0.3851851851851852],[-0.071875,0.3851851851851852],[-0.071875,0.3851851851851852],[-0.071875,0.3851851851851852],[-0.071875,0.3851851851851852],[-0.071875,0.3851851851851852],[-0.071875,0.3851851851851852],[-0.071875,0.3851851851851852],[-0.071875,0.3851851851851852],[-0.071875,0.3851851851851852],[-0.071875,0.3851851851851852],[-0.071875,0.3851851851851852],[-0.071875,0.3851851851851852],[-0.071875,0.3851851851851852],[-0.071875,0.3851851851851852],[-0.071875,0.3851851851851852],[-0.071875,0.3851851851851852],[-0.071875,0.3851851851851852],[-0.071875,0.3851851851851852],[-0.071875,0.3851851851851852],[-0.071875,0.3851851851851852],[-0.071875,0.3851851851851852],[-0.071875,0.3851851851851852],[-0.071875,0.3851851851851852],[-0.071875,0.3851851851851852],[-0.071875,0.3851851851851852],[-0.071875,0.3851851851851852],[-0.071875,0.3851851851851852],[-0.071875,0.3851851851851852],[-0.071875,0.3851851851851852],[-0.071875,0.3851851851851852],[-0.071875,0.3851851851851852],[-0.071875,0.3851851851851852],[-0.071875,0.3851851851851852],[-0.071875,0.3851851851851852],[-0.071875,0.3851851851851852],[-0.071875,0.3851851851851852],[-0.071875,0.3851851851851852],[-0.071875,0.3851851851851852],[-0.071875,0.3851851851851852],[-0.071875,0.3851851851851852],[-0.071875,0.3851851851851852],[-0.071875,0.3851851851851852],[-0.071875,0.3851851851851852],[-0.071875,0.3851851851851852],[-0.071875,0.3851851851851852],[-0.071875,0.3851851851851852],[-0.071875,0.3851851851851852],[-0.071875,0.3851851851851852],[-0.071875,0.3851851851851852],[-0.071875,0.3851851851851852],[-0.071875,0.3851851851851852],[-0.071875,0.3851851851851852],[-0.071875,0.3851851851851852],[-0.071875,0.3851851851851852],[-0.071875,0.3851851851851852],[-0.071875,0.3851851851851852],[-0.071875,0.3851851851851852],[-0.071875,0.3851851851851852],[-0.071875,0.3851851851851852],[-0.071875,0.3851851851851852],[-0.071875,0.3851851851851852],[-0.071875,0.3851851851851852],[-0.071875,0.3851851851851852],[-0.071875,0.3851851851851852],[-0.071875,0.3851851851851852],[-0.071875,0.3851851851851852],[-0.071875,0.3851851851851852],[-0.071875,0.3851851851851852],[-0.071875,0.3851851851851852],[-0.071875,0.3851851851851852],[-0.071875,0.3851851851851852],[-0.071875,0.3851851851851852],[-0.071875,0.3851851851851852],[-0.071875,0.3851851851851852],[-0.071875,0.3851851851851852],[-0.071875,0.3851851851851852],[-0.071875,0.3851851851851852],[-0.071875,0.3851851851851852],[-0.071875,0.3851851851851852],[-0.071875,0.3851851851851852],[-0.071875,0.3851851851851852],[-0.071875,0.3851851851851852],[-0.071875,0.3851851851851852],[-0.071875,0.3851851851851852],[-0.071875,0.3851851851851852],[-0.071875,0.3851851851851852],[-0.071875,0.3851851851851852],[-0.071875,0.3851851851851852],[-0.071875,0.3851851851851852],[-0.071875,0.3851851851851852],[-0.071875,0.3851851851851852],[-0.071875,0.3851851851851852],[-0.071875,0.3851851851851852],[-0.071875,0.3851851851851852],[-0.071875,0.3851851851851852],[-0.071875,0.3851851851851852],[-0.071875,0.3851851851851852],[-0.071875,0.3851851851851852],[-0.071875,0.3851851851851852],[-0.071875,0.3851851851851852],[-0.071875,0.3851851851851852],[-0.071875,0.3851851851851852],[-0.071875,0.3851851851851852],[-0.071875,0.3851851851851852],[-0.071875,0.3851851851851852],[-0.071875,0.3851851851851852],[-0.071875,0.3851851851851852],[-0.071875,0.3851851851851852],[-0.071875,0.3851851851851852],[-0.071875,0.3851851851851852],[-0.071875,0.3851851851851852],[-0.071875,0.3851851851851852],[-0.071875,0.3851851851851852],[-0.071875,0.3851851851851852],[-0.071875,0.3851851851851852],[-0.07083333333333333,0.3851851851851852],[-0.06979166666666667,0.3888888888888889],[-0.06979166666666667,0.3907407407407407],[-0.06666666666666667,0.3925925925925926],[-0.06354166666666666,0.39444444444444443],[-0.06145833333333333,0.3962962962962963],[-0.06041666666666667,0.3962962962962963],[-0.06041666666666667,0.3962962962962963],[-0.058333333333333334,0.39814814814814814],[-0.058333333333333334,0.39814814814814814],[-0.057291666666666664,0.39814814814814814],[-0.05625,0.39814814814814814],[-0.05416666666666667,0.39814814814814814],[-0.051041666666666666,0.39814814814814814],[-0.04479166666666667,0.40185185185185185],[-0.0375,0.40370370370370373],[-0.028125,0.40555555555555556],[-0.007291666666666667,0.4185185185185185],[0.014583333333333334,0.4222222222222222],[0.04375,0.43148148148148147],[0.078125,0.44074074074074077],[0.103125,0.4444444444444444],[0.121875,0.4462962962962963],[0.134375,0.45185185185185184],[0.13958333333333334,0.4537037037037037],[0.140625,0.4537037037037037],[0.140625,0.4537037037037037],[0.140625,0.4537037037037037],[0.140625,0.4537037037037037],[0.140625,0.4537037037037037],[0.140625,0.4537037037037037],[0.140625,0.4537037037037037],[0.140625,0.4537037037037037],[0.140625,0.4537037037037037],[0.14375,0.45185185185185184],[0.14375,0.45185185185185184],[0.14479166666666668,0.4462962962962963],[0.14791666666666667,0.43703703703703706],[0.15416666666666667,0.4166666666666667],[0.15625,0.4111111111111111],[0.15833333333333333,0.4074074074074074],[0.16041666666666668,0.40370370370370373],[0.16041666666666668,0.40370370370370373],[0.16041666666666668,0.40370370370370373],[0.16041666666666668,0.40370370370370373],[0.16041666666666668,0.40370370370370373],[0.16041666666666668,0.40370370370370373],[0.16041666666666668,0.40370370370370373],[0.16041666666666668,0.40370370370370373],[0.16041666666666668,0.40370370370370373],[0.16041666666666668,0.40370370370370373],[0.16041666666666668,0.40370370370370373],[0.16041666666666668,0.40370370370370373],[0.16041666666666668,0.40370370370370373],[0.16041666666666668,0.40370370370370373],[0.16041666666666668,0.40370370370370373],[0.16041666666666668,0.40370370370370373],[0.16041666666666668,0.40370370370370373],[0.16041666666666668,0.40370370370370373],[0.16041666666666668,0.40370370370370373],[0.16041666666666668,0.40370370370370373],[0.16041666666666668,0.40370370370370373],[0.16354166666666667,0.40370370370370373],[0.165625,0.40370370370370373],[0.16666666666666666,0.40370370370370373],[0.16666666666666666,0.40370370370370373],[0.16666666666666666,0.40370370370370373],[0.16770833333333332,0.40370370370370373],[0.16770833333333332,0.40370370370370373],[0.16770833333333332,0.40370370370370373],[0.16770833333333332,0.40370370370370373],[0.16770833333333332,0.40370370370370373],[0.16770833333333332,0.40370370370370373],[0.16770833333333332,0.40370370370370373],[0.16770833333333332,0.40370370370370373],[0.16770833333333332,0.40370370370370373],[0.16770833333333332,0.40370370370370373],[0.16770833333333332,0.40370370370370373],[0.16770833333333332,0.40370370370370373],[0.16770833333333332,0.40370370370370373],[0.16770833333333332,0.40370370370370373],[0.16770833333333332,0.40370370370370373],[0.16770833333333332,0.40370370370370373],[0.16770833333333332,0.40370370370370373],[0.16770833333333332,0.40370370370370373],[0.16770833333333332,0.40370370370370373],[0.16770833333333332,0.40370370370370373],[0.16770833333333332,0.40370370370370373],[0.16770833333333332,0.40370370370370373],[0.16770833333333332,0.40370370370370373],[0.16770833333333332,0.40370370370370373],[0.16770833333333332,0.40370370370370373],[0.16770833333333332,0.40370370370370373],[0.16770833333333332,0.40370370370370373],[0.16770833333333332,0.40370370370370373],[0.16770833333333332,0.40370370370370373],[0.16770833333333332,0.40370370370370373],[0.16770833333333332,0.40370370370370373],[0.16770833333333332,0.40370370370370373],[0.16770833333333332,0.40370370370370373],[0.16770833333333332,0.40370370370370373],[0.16770833333333332,0.40370370370370373],[0.16770833333333332,0.40370370370370373],[0.16770833333333332,0.40370370370370373],[0.16770833333333332,0.40370370370370373],[0.16770833333333332,0.40370370370370373],[0.16770833333333332,0.40370370370370373],[0.16770833333333332,0.40370370370370373],[0.16770833333333332,0.40370370370370373],[0.16770833333333332,0.40370370370370373],[0.16770833333333332,0.40370370370370373],[0.16770833333333332,0.40370370370370373],[0.16770833333333332,0.40370370370370373],[0.16770833333333332,0.40370370370370373],[0.16770833333333332,0.40370370370370373],[0.16770833333333332,0.40370370370370373],[0.16770833333333332,0.40370370370370373],[0.16770833333333332,0.40370370370370373],[0.16770833333333332,0.40370370370370373],[0.16770833333333332,0.40370370370370373],[0.16770833333333332,0.40370370370370373],[0.16770833333333332,0.40370370370370373],[0.16770833333333332,0.40370370370370373],[0.16770833333333332,0.40370370370370373],[0.16770833333333332,0.40370370370370373],[0.16770833333333332,0.40370370370370373],[0.16770833333333332,0.40370370370370373],[0.16770833333333332,0.40370370370370373],[0.16770833333333332,0.40370370370370373],[0.16770833333333332,0.40370370370370373],[0.16770833333333332,0.40370370370370373],[0.16770833333333332,0.40370370370370373],[0.16770833333333332,0.40370370370370373],[0.16770833333333332,0.40370370370370373],[0.16770833333333332,0.40370370370370373],[0.16770833333333332,0.40370370370370373],[0.16770833333333332,0.40370370370370373],[0.16770833333333332,0.40370370370370373],[0.16875,0.40370370370370373],[0.175,0.40370370370370373],[0.18854166666666666,0.40925925925925927],[0.2125,0.42407407407407405],[0.23958333333333334,0.4351851851851852],[0.26458333333333334,0.4462962962962963],[0.28125,0.45555555555555555],[0.29375,0.46111111111111114],[0.303125,0.4648148148148148],[0.30625,0.4666666666666667],[0.30833333333333335,0.4685185185185185],[0.309375,0.4685185185185185],[0.309375,0.4685185185185185],[0.309375,0.4685185185185185],[0.3104166666666667,0.4685185185185185],[0.3104166666666667,0.4685185185185185],[0.31145833333333334,0.4685185185185185],[0.31145833333333334,0.4685185185185185],[0.31354166666666666,0.4685185185185185],[0.315625,0.4685185185185185],[0.31666666666666665,0.4685185185185185],[0.32395833333333335,0.4685185185185185],[0.3333333333333333,0.4685185185185185],[0.35,0.46296296296296297],[0.3645833333333333,0.45555555555555555],[0.37604166666666666,0.45],[0.38645833333333335,0.4444444444444444],[0.39375,0.44074074074074077],[0.396875,0.4388888888888889],[0.4010416666666667,0.4351851851851852],[0.40208333333333335,0.43333333333333335],[0.403125,0.43333333333333335],[0.4041666666666667,0.43148148148148147],[0.4041666666666667,0.43148148148148147],[0.4041666666666667,0.43148148148148147],[0.4041666666666667,0.43148148148148147],[0.4041666666666667,0.43148148148148147],[0.4041666666666667,0.43148148148148147],[0.4041666666666667,0.43148148148148147],[0.4041666666666667,0.43148148148148147],[0.4041666666666667,0.43148148148148147],[0.4041666666666667,0.43148148148148147],[0.4041666666666667,0.43148148148148147],[0.4041666666666667,0.43148148148148147],[0.4041666666666667,0.43148148148148147],[0.4041666666666667,0.43148148148148147],[0.4041666666666667,0.43148148148148147],[0.4041666666666667,0.43148148148148147],[0.4041666666666667,0.43148148148148147],[0.4041666666666667,0.43148148148148147],[0.4041666666666667,0.43148148148148147],[0.4041666666666667,0.42962962962962964],[0.4041666666666667,0.42962962962962964],[0.40625,0.42777777777777776],[0.40625,0.42592592592592593],[0.40729166666666666,0.42407407407407405],[0.40729166666666666,0.42407407407407405],[0.409375,0.4222222222222222],[0.409375,0.4203703703703704],[0.41041666666666665,0.4203703703703704],[0.4125,0.4185185185185185],[0.4125,0.4166666666666667],[0.41458333333333336,0.4166666666666667],[0.415625,0.4148148148148148],[0.4166666666666667,0.4148148148148148],[0.4166666666666667,0.4148148148148148],[0.4166666666666667,0.4148148148148148],[0.4166666666666667,0.4148148148148148],[0.4166666666666667,0.4148148148148148],[0.4166666666666667,0.4148148148148148],[0.4166666666666667,0.4148148148148148],[0.4166666666666667,0.4148148148148148],[0.4166666666666667,0.4148148148148148],[0.4166666666666667,0.4148148148148148],[0.4166666666666667,0.4148148148148148],[0.4166666666666667,0.4148148148148148],[0.4166666666666667,0.4148148148148148],[0.4166666666666667,0.4148148148148148],[0.4166666666666667,0.4148148148148148],[0.4166666666666667,0.4148148148148148],[0.4166666666666667,0.4148148148148148],[0.4166666666666667,0.4148148148148148],[0.4166666666666667,0.4148148148148148],[0.4166666666666667,0.4148148148148148],[0.4166666666666667,0.4148148148148148],[0.4166666666666667,0.4148148148148148],[0.4166666666666667,0.4148148148148148],[0.4166666666666667,0.4148148148148148],[0.4166666666666667,0.4148148148148148],[0.4166666666666667,0.4148148148148148],[0.4166666666666667,0.4148148148148148],[0.4166666666666667,0.4148148148148148],[0.4166666666666667,0.4148148148148148],[0.4166666666666667,0.4148148148148148],[0.4166666666666667,0.4148148148148148],[0.4166666666666667,0.4148148148148148],[0.4166666666666667,0.4148148148148148],[0.4166666666666667,0.4148148148148148],[0.4166666666666667,0.4148148148148148],[0.4166666666666667,0.4148148148148148],[0.4166666666666667,0.4148148148148148],[0.4166666666666667,0.4148148148148148],[0.4166666666666667,0.4148148148148148],[0.4166666666666667,0.4148148148148148],[0.4166666666666667,0.4148148148148148],[0.4166666666666667,0.4148148148148148],[0.4166666666666667,0.4148148148148148],[0.4166666666666667,0.4148148148148148],[0.4166666666666667,0.4148148148148148],[0.4166666666666667,0.4148148148148148],[0.4166666666666667,0.4148148148148148],[0.4166666666666667,0.4148148148148148],[0.4166666666666667,0.4148148148148148],[0.4166666666666667,0.4148148148148148],[0.4166666666666667,0.4148148148148148],[0.4166666666666667,0.4148148148148148],[0.4166666666666667,0.4148148148148148],[0.4166666666666667,0.4148148148148148],[0.4166666666666667,0.4148148148148148],[0.4166666666666667,0.4148148148148148],[0.4166666666666667,0.4148148148148148],[0.4166666666666667,0.4148148148148148],[0.4166666666666667,0.4148148148148148],[0.4166666666666667,0.4148148148148148],[0.4166666666666667,0.4148148148148148],[0.4166666666666667,0.4148148148148148],[0.4166666666666667,0.4148148148148148],[0.4166666666666667,0.4148148148148148],[0.4166666666666667,0.4148148148148148],[0.4166666666666667,0.4148148148148148],[0.4166666666666667,0.4148148148148148],[0.4166666666666667,0.4148148148148148],[0.4166666666666667,0.4148148148148148],[0.4166666666666667,0.4148148148148148],[0.4166666666666667,0.4148148148148148],[0.4166666666666667,0.4148148148148148],[0.4166666666666667,0.4148148148148148],[0.4166666666666667,0.4148148148148148],[0.415625,0.4148148148148148],[0.40208333333333335,0.40555555555555556],[0.378125,0.39814814814814814],[0.2989583333333333,0.3814814814814815],[0.2604166666666667,0.3685185185185185],[0.13541666666666666,0.3388888888888889],[0.06979166666666667,0.32037037037037036],[0.026041666666666668,0.30925925925925923],[-0.0010416666666666667,0.3037037037037037],[-0.017708333333333333,0.3],[-0.029166666666666667,0.3],[-0.042708333333333334,0.3],[-0.04583333333333333,0.3],[-0.05,0.3],[-0.052083333333333336,0.3],[-0.059375,0.30185185185185187],[-0.06354166666666666,0.30185185185185187],[-0.07395833333333333,0.31296296296296294],[-0.07708333333333334,0.31666666666666665],[-0.08333333333333333,0.3277777777777778],[-0.084375,0.3296296296296296],[-0.08958333333333333,0.34074074074074073],[-0.08958333333333333,0.34444444444444444],[-0.09270833333333334,0.35555555555555557],[-0.09270833333333334,0.3574074074074074],[-0.09479166666666666,0.362962962962963],[-0.09479166666666666,0.36666666666666664],[-0.09479166666666666,0.36666666666666664],[-0.09479166666666666,0.36666666666666664],[-0.09479166666666666,0.36666666666666664],[-0.09479166666666666,0.36666666666666664],[-0.09479166666666666,0.36666666666666664],[-0.09479166666666666,0.36666666666666664],[-0.09479166666666666,0.36666666666666664],[-0.09479166666666666,0.36666666666666664],[-0.09479166666666666,0.36666666666666664],[-0.09479166666666666,0.36666666666666664],[-0.09479166666666666,0.36666666666666664],[-0.09479166666666666,0.36666666666666664],[-0.09479166666666666,0.36666666666666664],[-0.09479166666666666,0.36666666666666664],[-0.09479166666666666,0.36666666666666664],[-0.09479166666666666,0.36666666666666664],[-0.09479166666666666,0.36666666666666664],[-0.09479166666666666,0.36666666666666664],[-0.09479166666666666,0.36666666666666664],[-0.09479166666666666,0.36666666666666664],[-0.09479166666666666,0.36666666666666664],[-0.09479166666666666,0.36666666666666664],[-0.09479166666666666,0.36666666666666664],[-0.09479166666666666,0.36666666666666664],[-0.09479166666666666,0.36666666666666664],[-0.09479166666666666,0.36666666666666664],[-0.09479166666666666,0.36666666666666664],[-0.09479166666666666,0.36666666666666664],[-0.09479166666666666,0.36666666666666664],[-0.09479166666666666,0.36666666666666664],[-0.09479166666666666,0.36666666666666664],[-0.09479166666666666,0.36666666666666664],[-0.09479166666666666,0.36666666666666664],[-0.09479166666666666,0.36666666666666664],[-0.09479166666666666,0.36666666666666664],[-0.09479166666666666,0.36666666666666664],[-0.09479166666666666,0.36666666666666664],[-0.09479166666666666,0.36666666666666664],[-0.09479166666666666,0.36666666666666664],[-0.09479166666666666,0.36666666666666664],[-0.09479166666666666,0.36666666666666664],[-0.09479166666666666,0.36666666666666664],[-0.09479166666666666,0.36666666666666664],[-0.09479166666666666,0.36666666666666664],[-0.09479166666666666,0.36666666666666664],[-0.09479166666666666,0.36666666666666664],[-0.09479166666666666,0.36666666666666664],[-0.09479166666666666,0.36666666666666664],[-0.09479166666666666,0.36666666666666664],[-0.09479166666666666,0.36666666666666664],[-0.09479166666666666,0.36666666666666664],[-0.09479166666666666,0.36666666666666664],[-0.09479166666666666,0.36666666666666664],[-0.09479166666666666,0.36666666666666664],[-0.09479166666666666,0.36666666666666664],[-0.09479166666666666,0.36666666666666664],[-0.09479166666666666,0.36666666666666664],[-0.09479166666666666,0.36666666666666664],[-0.09479166666666666,0.36666666666666664],[-0.09479166666666666,0.36666666666666664],[-0.09479166666666666,0.36666666666666664],[-0.09479166666666666,0.36666666666666664],[-0.09479166666666666,0.36666666666666664],[-0.09479166666666666,0.36666666666666664],[-0.09479166666666666,0.36666666666666664],[-0.09479166666666666,0.36666666666666664],[-0.09479166666666666,0.36666666666666664],[-0.09479166666666666,0.36666666666666664],[-0.09479166666666666,0.36666666666666664],[-0.09479166666666666,0.36666666666666664],[-0.09479166666666666,0.36666666666666664],[-0.09479166666666666,0.36666666666666664],[-0.09479166666666666,0.36666666666666664],[-0.09479166666666666,0.36666666666666664],[-0.09479166666666666,0.36666666666666664],[-0.09479166666666666,0.36666666666666664],[-0.09479166666666666,0.36666666666666664],[-0.09479166666666666,0.36666666666666664],[-0.09479166666666666,0.36666666666666664],[-0.09479166666666666,0.36666666666666664],[-0.09479166666666666,0.36666666666666664],[-0.09479166666666666,0.36666666666666664],[-0.09479166666666666,0.36666666666666664],[-0.09479166666666666,0.36666666666666664],[-0.09479166666666666,0.36666666666666664],[-0.09479166666666666,0.36666666666666664],[-0.09479166666666666,0.36666666666666664],[-0.09479166666666666,0.36666666666666664],[-0.09479166666666666,0.36666666666666664],[-0.09479166666666666,0.36666666666666664],[-0.09479166666666666,0.36666666666666664],[-0.09479166666666666,0.36666666666666664],[-0.09479166666666666,0.36666666666666664],[-0.09479166666666666,0.36666666666666664],[-0.09479166666666666,0.36666666666666664],[-0.09479166666666666,0.36666666666666664],[-0.09479166666666666,0.36666666666666664]]","[[0.17895833333333327,0.25],[0.18854166666666666,0.22370370370370363],[0.18854166666666666,0.22370370370370363],[0.13833333333333328,0.24833333333333338],[0.13833333333333328,0.24833333333333338],[0.09958333333333323,0.25277777777777777],[0.08312499999999995,0.26740740740740737],[0.058854166666666666,0.2844444444444445],[0.034375,0.3012962962962964],[0.035312499999999976,0.31129629629629635],[0.036249999999999956,0.3212962962962963],[0.029791666666666692,0.3357407407407407],[0.02958333333333331,0.3418518518518519],[-0.007187499999999976,0.36944444444444446],[0.03135416666666669,0.3761111111111112],[0.05520833333333333,0.3846296296296297],[0.07604166666666666,0.3992592592592593],[0.0743750000000001,0.40370370370370373],[0.07291666666666667,0.4083333333333333],[0.11552083333333343,0.38370370370370377],[0.15812499999999996,0.35907407407407405],[0.14833333333333343,0.362962962962963],[0.13020833333333334,0.3737037037037036],[0.1330208333333334,0.3661111111111112],[0.0875,0.3625925925925925],[0.008854166666666666,0.39444444444444443],[-0.05656249999999995,0.38851851851851843],[-0.08989583333333329,0.4016666666666666],[-0.11927083333333334,0.4064814814814815],[-0.18020833333333333,0.4433333333333333],[-0.2358333333333333,0.4766666666666666],[-0.2669791666666666,0.475],[-0.2669791666666666,0.475],[-0.29812500000000003,0.4733333333333334],[-0.3129166666666666,0.4737037037037036],[-0.29739583333333336,0.4594444444444445],[-0.25583333333333336,0.43129629629629623],[-0.24281250000000001,0.43148148148148147],[-0.24375,0.4083333333333333],[-0.24864583333333337,0.39351851851851855],[-0.27677083333333335,0.3844444444444445],[-0.32614583333333336,0.39740740740740743],[-0.30187499999999995,0.39462962962962966],[-0.29093749999999996,0.3987037037037036],[-0.2808333333333334,0.41722222222222216],[-0.2604166666666667,0.40407407407407414],[-0.22145833333333337,0.3774074074074073],[-0.18635416666666665,0.3566666666666667],[-0.1390625,0.3479629629629629],[-0.11677083333333335,0.35],[-0.09447916666666671,0.3520370370370371],[-0.05645833333333338,0.3418518518518519],[-0.07062499999999995,0.34740740740740744],[-0.07541666666666665,0.3483333333333334],[-0.09718749999999995,0.34037037037037027],[-0.1421875,0.37537037037037047],[-0.19010416666666666,0.412962962962963],[-0.19010416666666666,0.412962962962963],[-0.17083333333333334,0.3987037037037036],[-0.17083333333333334,0.3987037037037036],[-0.17999999999999997,0.40407407407407414],[-0.12770833333333337,0.3731481481481482],[-0.05166666666666669,0.3453703703703704],[0.024583333333333356,0.31129629629629635],[0.10083333333333329,0.2772222222222223],[0.11614583333333334,0.26129629629629636],[0.1287499999999999,0.2566666666666667],[0.16135416666666677,0.23351851851851857],[0.1931250000000001,0.1962962962962963],[0.19458333333333327,0.2103703703703704],[0.23791666666666675,0.19407407407407398],[0.19781250000000009,0.23055555555555557],[0.146875,0.22833333333333325],[0.12458333333333324,0.22185185185185177],[0.10125000000000005,0.22018518518518515],[0.10125000000000005,0.22018518518518515],[0.12958333333333344,0.17518518518518522],[0.1658333333333334,0.12462962962962955],[0.2013541666666666,0.08111111111111102],[0.24770833333333328,0.049074074074074076],[0.24635416666666668,0.019259259259259216],[0.24427083333333333,0.01722222222222214],[0.28916666666666657,-0.012037037037037037],[0.3068749999999999,-0.0257407407407407],[0.2959374999999999,-0.03518518518518519],[0.28937499999999994,-0.043703703703703745],[0.2960416666666667,-0.029259259259259176],[0.2795833333333334,-0.004259259259259175],[0.25499999999999995,0.017407407407407365],[0.19677083333333342,0.02907407407407416],[0.1368750000000001,0.057777777777777865],[0.1368750000000001,0.057777777777777865],[0.08260416666666662,0.09037037037037028],[0.08260416666666662,0.09037037037037028],[0.02166666666666662,0.10203703703703708],[0.02166666666666662,0.10203703703703708],[-0.005624999999999976,0.12888888888888894],[-0.005624999999999976,0.12888888888888894],[-0.027083333333333334,0.14574074074074084],[-0.027083333333333334,0.14574074074074084],[-0.06343749999999998,0.12185185185185177],[-0.06343749999999998,0.12185185185185177],[-0.05552083333333328,0.06999999999999991],[-0.05791666666666669,0.05314814814814823],[-0.04822916666666662,0.022037037037036994],[-0.013333333333333286,0.009259259259259259],[0.01572916666666669,-0.029814814814814856],[0.0109375,-0.07907407407407405],[0.017499999999999953,-0.1259259259259259],[0.017499999999999953,-0.1259259259259259],[0.013854166666666619,-0.16740740740740737],[-0.009062500000000048,-0.17444444444444443],[0.013541666666666667,-0.15962962962962962],[0.013541666666666667,-0.15962962962962962],[-0.04906250000000002,-0.12148148148148152],[-0.08770833333333337,-0.12888888888888894],[-0.140625,-0.1316666666666667],[-0.12843749999999995,-0.14500000000000002],[-0.12843749999999995,-0.14500000000000002],[-0.08822916666666672,-0.16296296296296298],[-0.06479166666666672,-0.14833333333333337],[-0.03218749999999997,-0.12129629629629629],[-0.008749999999999977,-0.0948148148148148],[-0.011874999999999976,-0.051111111111111156],[-0.034166666666666616,-0.07148148148148152],[-0.034166666666666616,-0.07148148148148152],[0.007604166666666619,-0.09296296296296294],[0.025937499999999978,-0.10574074074074079],[0.025937499999999978,-0.10574074074074079],[0.04583333333333333,-0.10777777777777775],[0.020833333333333332,-0.11629629629629631],[-0.04812500000000005,-0.07296296296296292],[-0.08854166666666667,-0.08592592592592588],[-0.1304166666666667,-0.11351851851851855],[-0.20187499999999994,-0.10129629629629627],[-0.20187499999999994,-0.10129629629629627],[-0.17593749999999997,-0.17962962962962964],[-0.17260416666666673,-0.19574074074074072],[-0.21031249999999999,-0.19759259259259257],[-0.24249999999999997,-0.22722222222222221],[-0.2694791666666667,-0.2588888888888889],[-0.3271875,-0.24074074074074073],[-0.3133333333333333,-0.25999999999999995],[-0.27885416666666674,-0.2862962962962963],[-0.2727083333333333,-0.2770370370370371],[-0.25104166666666666,-0.3031481481481481],[-0.2867708333333333,-0.2803703703703703],[-0.2990625,-0.28296296296296297],[-0.29020833333333335,-0.29962962962962963],[-0.2733333333333333,-0.15851851851851856],[-0.2704166666666667,-0.01703703703703712],[-0.19239583333333338,0.08185185185185194],[-0.19395833333333337,0.17018518518518513],[-0.19489583333333335,0.29444444444444445],[-0.20677083333333332,0.42962962962962964],[-0.21927083333333333,0.5474074074074075],[-0.21437499999999995,0.6307407407407408],[-0.22614583333333335,0.7761111111111112],[-0.24114583333333334,0.9270370370370369],[-0.22062499999999996,0.8642592592592594],[-0.18062499999999998,0.7862962962962964],[-0.12333333333333331,0.6507407407407407],[-0.08104166666666662,0.5553703703703703],[-0.017604166666666643,0.43499999999999994],[0.07270833333333329,0.28888888888888886],[0.1408333333333334,0.18944444444444436],[0.19166666666666668,0.12129629629629629],[0.19166666666666668,0.12129629629629629],[0.26291666666666674,0.001851851851851852],[0.35031249999999997,-0.1398148148148148],[0.40114583333333326,-0.18888888888888888],[0.4183333333333332,-0.19611111111111107],[0.3549999999999999,-0.14425925925925923],[0.3634375000000001,-0.15166666666666662],[0.3455208333333334,-0.16074074074074077],[0.33447916666666655,-0.16296296296296298],[0.3603125000000001,-0.19888888888888884],[0.3603125000000001,-0.19888888888888884],[0.3948958333333332,-0.2337037037037037],[0.3948958333333332,-0.2337037037037037],[0.4192708333333333,-0.2403703703703704],[0.4048958333333334,-0.2051851851851852],[0.4226041666666667,-0.1896296296296296],[0.4638541666666666,-0.20018518518518522],[0.49895833333333334,-0.18666666666666668],[0.5368750000000001,-0.1838888888888889],[0.565625,-0.1911111111111111],[0.5585416666666667,-0.1594444444444445],[0.5569791666666667,-0.1294444444444444],[0.5465625000000001,-0.08925925925925923],[0.5269791666666668,-0.04759259259259268],[0.5486458333333334,-0.056666666666666705],[0.5663541666666667,-0.07296296296296292],[0.5663541666666667,-0.07296296296296292],[0.5412499999999999,-0.06407407407407412],[0.47239583333333335,-0.025185185185185227],[0.38260416666666663,0.05981481481481473],[0.2991666666666667,0.1544444444444444],[0.24468750000000009,0.20333333333333325],[0.18218750000000009,0.25870370370370377],[0.1196875000000001,0.305925925925926],[0.060104166666666715,0.3487037037037036],[-0.018124999999999978,0.4225925925925927],[-0.09197916666666663,0.47759259259259257],[-0.13250000000000003,0.5255555555555554],[-0.15395833333333328,0.5335185185185186],[-0.15395833333333328,0.5335185185185186],[-0.1492708333333333,0.49962962962962953],[-0.14791666666666667,0.4837037037037038],[-0.12250000000000003,0.44833333333333336],[-0.11864583333333331,0.43796296296296294],[-0.11864583333333331,0.43796296296296294],[-0.10968749999999995,0.4107407407407407],[-0.10968749999999995,0.4107407407407407],[-0.11520833333333336,0.3705555555555556],[-0.11520833333333336,0.3705555555555556],[-0.19437500000000002,0.39518518518518514],[-0.19437500000000002,0.39518518518518514],[-0.2851041666666667,0.4492592592592593],[-0.2851041666666667,0.4492592592592593],[-0.3344791666666667,0.4427777777777778],[-0.3344791666666667,0.4427777777777778],[-0.3544791666666666,0.425],[-0.40437500000000004,0.45500000000000007],[-0.46041666666666664,0.4781481481481482],[-0.5338541666666666,0.5],[-0.5338541666666666,0.5],[-0.5976041666666667,0.5151851851851853],[-0.5976041666666667,0.5151851851851853],[-0.6325000000000001,0.525],[-0.6598958333333333,0.5577777777777778],[-0.5709375,0.5485185185185186],[-0.4873958333333333,0.5359259259259259],[-0.43468749999999995,0.5555555555555556],[-0.38708333333333333,0.5724074074074075],[-0.3237499999999999,0.5703703703703704],[-0.2604166666666667,0.5683333333333332],[-0.21875,0.6031481481481482],[-0.16270833333333337,0.6148148148148148],[-0.14500000000000005,0.6429629629629631],[-0.14500000000000005,0.6429629629629631],[-0.12322916666666663,0.6655555555555556],[-0.13864583333333336,0.643888888888889],[-0.18166666666666664,0.65],[-0.2257291666666667,0.6662962962962962],[-0.2467708333333333,0.668888888888889],[-0.2467708333333333,0.668888888888889],[-0.2717708333333333,0.6718518518518518],[-0.25510416666666663,0.647962962962963],[-0.1922916666666667,0.6],[-0.12947916666666662,0.5520370370370371],[-0.10958333333333338,0.5401851851851853],[-0.08968750000000002,0.5283333333333332],[-0.07322916666666662,0.5381481481481482],[-0.029166666666666667,0.5201851851851852],[0.003854166666666714,0.5022222222222223],[0.02041666666666669,0.49796296296296294],[0.035208333333333286,0.5031481481481482],[0.008333333333333333,0.5351851851851852],[-0.05625,0.5762962962962964],[-0.12083333333333333,0.6174074074074074],[-0.14052083333333332,0.6312962962962962],[-0.16833333333333336,0.6557407407407407],[-0.17937500000000003,0.6692592592592592],[-0.18489583333333334,0.6672222222222222],[-0.17291666666666666,0.6683333333333333],[-0.16531250000000006,0.6887037037037037],[-0.12833333333333338,0.6687037037037038],[-0.09135416666666671,0.6487037037037037],[-0.06468750000000002,0.6324074074074074],[-0.03802083333333333,0.6161111111111112],[0.0003124999999999526,0.606111111111111],[0.04510416666666662,0.5777777777777777],[0.071875,0.5527777777777778],[0.0931250000000001,0.5433333333333333],[0.11802083333333328,0.5412962962962962],[0.14729166666666677,0.5199999999999999],[0.15791666666666657,0.5290740740740741],[0.16854166666666662,0.5381481481481482],[0.20041666666666677,0.5183333333333333],[0.23229166666666667,0.4985185185185186],[0.2542708333333332,0.4838888888888888],[0.27791666666666665,0.4770370370370371],[0.29270833333333335,0.4783333333333332],[0.30750000000000005,0.47962962962962963],[0.3086458333333333,0.4692592592592592],[0.3185416666666666,0.4524074074074073],[0.30020833333333335,0.44962962962962955],[0.28187499999999993,0.4468518518518518],[0.2743750000000001,0.46296296296296297],[0.26687500000000003,0.47907407407407415],[0.25760416666666663,0.4844444444444445],[0.24833333333333343,0.4898148148148148],[0.24677083333333344,0.4866666666666666],[0.24677083333333344,0.4866666666666666],[0.2685416666666666,0.47907407407407415],[0.27291666666666664,0.49537037037037035],[0.27291666666666664,0.49537037037037035],[0.2873958333333334,0.49685185185185177],[0.2873958333333334,0.49685185185185177],[0.31572916666666656,0.48574074074074064],[0.31572916666666656,0.48574074074074064],[0.3267708333333334,0.46574074074074073],[0.30270833333333325,0.45685185185185195],[0.2625,0.47185185185185174],[0.25812499999999994,0.46407407407407414],[0.23177083333333334,0.4705555555555556],[0.2341666666666666,0.4524074074074073],[0.21322916666666672,0.43870370370370365],[0.18427083333333344,0.4162962962962962],[0.11895833333333337,0.44055555555555553],[0.08333333333333333,0.4420370370370371],[0.08333333333333333,0.4420370370370371],[0.06770833333333333,0.4609259259259259],[0.09156250000000009,0.46037037037037043],[0.10958333333333338,0.4474074074074075],[0.09416666666666676,0.45333333333333325],[0.09416666666666676,0.45333333333333325],[0.08979166666666671,0.4553703703703703],[0.0515625,0.48814814814814816],[0.0515625,0.48814814814814816],[0.03718750000000005,0.5040740740740741],[0.04468749999999998,0.5124074074074075],[0.08302083333333338,0.4959259259259258],[0.09458333333333328,0.5048148148148148],[0.09500000000000004,0.5122222222222222],[0.09500000000000004,0.5122222222222222],[0.08010416666666677,0.5290740740740741],[0.08718750000000004,0.5344444444444445],[0.08718750000000004,0.5351851851851852],[0.09812500000000005,0.5255555555555554],[0.09812500000000005,0.5255555555555554],[0.11500000000000009,0.5238888888888888],[0.11500000000000009,0.5238888888888888],[0.07937500000000004,0.5464814814814816],[0.07937500000000004,0.5464814814814816],[0.07854166666666676,0.5481481481481482],[0.07854166666666676,0.5481481481481482],[0.06906249999999996,0.5366666666666666],[0.06906249999999996,0.5366666666666666],[0.0655208333333333,0.5387037037037037],[0.0655208333333333,0.5387037037037037],[0.036562500000000026,0.5681481481481481],[0.002395833333333286,0.6224074074074074],[-0.03177083333333333,0.6766666666666666],[-0.036562500000000026,0.7057407407407408],[-0.036562500000000026,0.7057407407407408],[-0.04135416666666671,0.7348148148148147],[-0.05270833333333336,0.7620370370370371],[-0.049270833333333285,0.7800000000000001],[-0.008020833333333382,0.7696296296296297],[0.01906249999999995,0.7807407407407407],[0.042708333333333334,0.7748148148148147],[0.06468750000000002,0.7292592592592592],[0.08760416666666657,0.662962962962963],[0.09645833333333324,0.6087037037037037],[0.09645833333333324,0.6087037037037037],[0.08302083333333338,0.5842592592592593],[0.08302083333333338,0.5842592592592593],[0.07333333333333343,0.5577777777777778],[0.08125,0.5251851851851852],[0.08125,0.5251851851851852],[0.0853125000000001,0.5035185185185185],[0.06927083333333334,0.5035185185185185],[0.06270833333333338,0.4946296296296297],[0.03239583333333336,0.4905555555555555],[0.03760416666666669,0.49166666666666664],[0.03104166666666662,0.5055555555555555],[0.04541666666666669,0.49833333333333335],[0.025625000000000023,0.5055555555555555],[0.0020833333333333333,0.5148148148148148],[-0.034895833333333334,0.5277777777777778],[-0.041875000000000044,0.5257407407407407],[-0.06322916666666671,0.5388888888888889],[-0.1359375,0.5792592592592591],[-0.19177083333333336,0.605185185185185],[-0.18041666666666673,0.6048148148148148],[-0.15729166666666666,0.5916666666666667],[-0.15916666666666662,0.5948148148148149],[-0.10125000000000005,0.5738888888888889],[-0.0390625,0.5503703703703705],[0.013437499999999976,0.5300000000000001],[0.06062500000000005,0.5077777777777779],[0.058749999999999976,0.5007407407407407],[0.10822916666666677,0.46648148148148144],[0.19604166666666673,0.4300000000000001],[0.21666666666666667,0.4198148148148149],[0.22239583333333332,0.42296296296296293],[0.22239583333333332,0.42296296296296293],[0.2462500000000001,0.418888888888889],[0.22854166666666675,0.42833333333333323],[0.19885416666666675,0.43037037037037035],[0.18072916666666666,0.4272222222222223],[0.1875,0.4081481481481481],[0.1875,0.4081481481481481],[0.18791666666666676,0.4168518518518519],[0.18791666666666676,0.4168518518518519],[0.1883333333333333,0.42555555555555546],[0.20104166666666667,0.4075925925925926],[0.21375000000000005,0.3896296296296296],[0.21416666666666656,0.38185185185185194],[0.2048958333333334,0.3896296296296296],[0.2009375000000001,0.3877777777777777],[0.23624999999999996,0.35833333333333334],[0.27156250000000004,0.32888888888888895],[0.2530208333333334,0.3257407407407407],[0.2648958333333333,0.2953703703703704],[0.2695833333333333,0.25870370370370377],[0.2178124999999999,0.27259259259259266],[0.19145833333333329,0.28666666666666657],[0.19229166666666658,0.2772222222222223],[0.20166666666666658,0.2507407407407407],[0.19145833333333329,0.24370370370370376],[0.16197916666666667,0.27537037037037043],[0.14093749999999997,0.3051851851851851],[0.13416666666666663,0.33796296296296297],[0.12010416666666662,0.35851851851851857],[0.13739583333333344,0.37240740740740746],[0.13739583333333344,0.37240740740740746],[0.1642708333333334,0.3551851851851851],[0.1642708333333334,0.3551851851851851],[0.16572916666666657,0.33777777777777773],[0.16572916666666657,0.33777777777777773],[0.14187500000000006,0.3588888888888888],[0.12374999999999996,0.36129629629629634],[0.13729166666666662,0.3418518518518519],[0.13854166666666667,0.3212962962962963],[0.1146874999999999,0.33611111111111114],[0.09854166666666657,0.3453703703703704],[0.08416666666666663,0.34203703703703714],[0.03895833333333331,0.37777777777777777],[0.0002083333333333807,0.4155555555555555],[-0.051874999999999956,0.47481481481481475],[-0.058749999999999976,0.4607407407407407],[-0.0702083333333333,0.4668518518518519],[-0.022708333333333285,0.5138888888888888],[-0.022708333333333285,0.5138888888888888],[0.024791666666666618,0.5609259259259259],[0.04760416666666671,0.5931481481481481],[0.08989583333333329,0.5974074074074075],[0.12802083333333342,0.6203703703703703],[0.20927083333333343,0.6079629629629629],[0.28718750000000004,0.6125925925925925],[0.32614583333333325,0.5762962962962964],[0.3412499999999999,0.5722222222222222],[0.3663541666666667,0.5712962962962963],[0.3663541666666667,0.5712962962962963],[0.33583333333333343,0.527962962962963],[0.33583333333333343,0.527962962962963],[0.27854166666666674,0.5040740740740741],[0.26020833333333326,0.4703703703703704],[0.26020833333333326,0.4703703703703704],[0.2205208333333334,0.44907407407407407],[0.2205208333333334,0.44907407407407407],[0.1646874999999999,0.43925925925925935],[0.07979166666666657,0.4140740740740741],[0.07979166666666657,0.4140740740740741],[-0.005104166666666643,0.3888888888888889],[-0.005104166666666643,0.3888888888888889],[-0.035208333333333286,0.3890740740740741],[-0.035208333333333286,0.3890740740740741],[-0.09041666666666662,0.41351851851851845],[-0.09041666666666662,0.41351851851851845],[-0.13708333333333336,0.4346296296296297],[-0.19239583333333338,0.4566666666666667],[-0.19781249999999997,0.43259259259259264],[-0.20083333333333328,0.39962962962962956],[-0.20416666666666666,0.38851851851851843],[-0.1877083333333334,0.3622222222222223],[-0.15739583333333335,0.33722222222222226],[-0.13541666666666666,0.3218518518518518],[-0.13541666666666666,0.3218518518518518],[-0.11593749999999996,0.30055555555555546],[-0.06927083333333334,0.2514814814814814],[-0.06354166666666666,0.22111111111111106],[-0.06354166666666666,0.22111111111111106],[-0.0421875,0.19499999999999992],[-0.0421875,0.19499999999999992],[-0.05395833333333329,0.19796296296296292],[-0.05395833333333329,0.19796296296296292],[-0.06645833333333329,0.2037037037037037],[-0.0859375,0.202962962962963],[-0.10541666666666671,0.2022222222222223],[-0.11864583333333331,0.22611111111111115],[-0.12354166666666669,0.2403703703703703],[-0.10739583333333336,0.2661111111111112],[-0.08937499999999995,0.29796296296296293],[-0.06885416666666669,0.3133333333333334],[-0.060104166666666715,0.3331481481481481],[-0.010625000000000048,0.36444444444444435],[0.016770833333333356,0.3962962962962963],[0.016770833333333356,0.3962962962962963],[0.052291666666666715,0.45],[0.052291666666666715,0.45],[0.03354166666666671,0.5285185185185185],[0.03354166666666671,0.5285185185185185],[0.0078125,0.5933333333333333],[0.0078125,0.5933333333333333],[0.001145833333333357,0.6555555555555556],[0.009791666666666643,0.6829629629629629],[0.003854166666666714,0.7185185185185186],[0.01604166666666664,0.772037037037037],[0.04854166666666669,0.8072222222222222],[0.07718749999999991,0.8218518518518517],[0.12395833333333334,0.8327777777777778],[0.1728125000000001,0.8174074074074074],[0.2759375000000001,0.7772222222222223],[0.359375,0.7333333333333333],[0.359375,0.7333333333333333],[0.42510416666666656,0.6998148148148148],[0.4631249999999999,0.6729629629629629],[0.49343750000000003,0.64],[0.49343750000000003,0.64],[0.5255208333333333,0.587037037037037],[0.5319791666666667,0.547037037037037],[0.4527083333333332,0.5387037037037037],[0.4013541666666666,0.5174074074074073],[0.32625000000000004,0.5179629629629631],[0.24031250000000004,0.5285185185185185],[0.24031250000000004,0.5285185185185185],[0.15354166666666677,0.5551851851851851],[0.07802083333333343,0.5627777777777777],[0.07802083333333343,0.5627777777777777],[-0.00614583333333331,0.587037037037037],[-0.00614583333333331,0.587037037037037],[-0.09177083333333336,0.6224074074074074],[-0.1578125,0.6522222222222223],[-0.19427083333333334,0.6553703703703704],[-0.20750000000000005,0.6544444444444444],[-0.20750000000000005,0.6544444444444444],[-0.21031249999999999,0.6312962962962962],[-0.1944791666666667,0.612037037037037],[-0.15843750000000004,0.49796296296296294],[-0.15895833333333337,0.40796296296296286],[-0.17781250000000004,0.32444444444444454],[-0.17124999999999999,0.2638888888888889],[-0.09500000000000004,0.1925925925925926],[-0.09500000000000004,0.1925925925925926],[-0.04375,0.1111111111111111],[-0.04375,0.1111111111111111],[-0.01260416666666669,0.07925925925925917],[-0.01260416666666669,0.07925925925925917],[0.05249999999999998,-0.03796296296296296],[0.05656249999999995,-0.0977777777777778],[0.05656249999999995,-0.0977777777777778],[0.0921875,-0.1794444444444444],[0.08208333333333329,-0.18222222222222217],[0.08208333333333329,-0.18222222222222217],[0.10802083333333339,-0.2175925925925926],[0.14979166666666663,-0.23870370370370367],[0.16614583333333333,-0.28277777777777774],[0.13677083333333329,-0.3022222222222222],[0.13677083333333329,-0.3022222222222222],[0.11520833333333323,-0.33777777777777773],[0.07791666666666662,-0.3814814814814815],[0.07791666666666662,-0.3814814814814815],[0.06187499999999998,-0.39944444444444444],[0.03343750000000002,-0.39296296296296296],[-0.019687499999999976,-0.3864814814814815],[-0.03239583333333336,-0.4053703703703703],[-0.04458333333333329,-0.41574074074074074],[-0.07895833333333328,-0.4057407407407408],[-0.11864583333333331,-0.4059259259259259],[-0.15010416666666668,-0.4348148148148148],[-0.19812500000000005,-0.4318518518518518],[-0.20125000000000004,-0.4372222222222223],[-0.20125000000000004,-0.4372222222222223],[-0.21510416666666668,-0.4096296296296296],[-0.16499999999999998,-0.4546296296296296],[-0.11770833333333333,-0.4988888888888888],[-0.11770833333333333,-0.4988888888888888],[-0.08510416666666672,-0.4816666666666667],[-0.08510416666666672,-0.4816666666666667],[-0.0704166666666667,-0.4468518518518519],[-0.0704166666666667,-0.4468518518518519],[-0.03760416666666669,-0.43148148148148147],[-0.03760416666666669,-0.43148148148148147],[-0.016354166666666715,-0.41074074074074074],[-0.016354166666666715,-0.41074074074074074],[-0.016458333333333287,-0.3803703703703703],[-0.016458333333333287,-0.3803703703703703],[0.02677083333333338,-0.38],[0.02677083333333338,-0.38],[0.030729166666666665,-0.3551851851851852],[0.013437499999999976,-0.30111111111111116],[0.006979166666666714,-0.2577777777777778],[0.007395833333333357,-0.22888888888888892],[0.013541666666666667,-0.17925925925925928],[0.03322916666666664,-0.13499999999999995],[0.035416666666666666,-0.10777777777777775],[0.05447916666666662,-0.07574074074074069],[0.05447916666666662,-0.07574074074074069],[0.09833333333333343,-0.05555555555555555],[0.1196875000000001,-0.016851851851851896],[0.1390625,-0.04203703703703712],[0.1837500000000001,-0.11666666666666667],[0.20437500000000006,-0.14962962962962964],[0.1868750000000001,-0.1618518518518518],[0.1868750000000001,-0.1618518518518518],[0.20510416666666675,-0.21796296296296294],[0.20510416666666675,-0.21796296296296294],[0.21875,-0.2753703703703704],[0.24572916666666675,-0.3248148148148148],[0.27374999999999994,-0.37166666666666665],[0.29812500000000003,-0.4177777777777778],[0.2946875000000001,-0.41462962962962957],[0.29572916666666677,-0.3811111111111111],[0.2946875000000001,-0.32999999999999996],[0.2946875000000001,-0.32999999999999996],[0.28093750000000006,-0.32333333333333336],[0.2984375,-0.3229629629629629],[0.33229166666666665,-0.26185185185185184],[0.3709374999999999,-0.18555555555555553],[0.31749999999999995,-0.020555555555555598],[0.2618750000000001,0.12240740740740745],[0.19385416666666658,0.29981481481481476],[0.18822916666666673,0.36944444444444446],[0.17718749999999991,0.41944444444444445],[0.16416666666666657,0.5053703703703704],[0.17833333333333337,0.6064814814814815],[0.19249999999999995,0.7075925925925927],[0.14395833333333338,0.7225925925925927],[0.14395833333333338,0.7225925925925927],[0.07989583333333337,0.7233333333333334],[0.11624999999999991,0.6087037037037037],[0.14093749999999997,0.4918518518518519],[0.1712500000000001,0.34],[0.15333333333333338,0.25092592592592594],[0.14427083333333332,0.18944444444444436],[0.1421875,0.0794444444444444],[0.11510416666666666,-0.005555555555555556],[0.09145833333333328,-0.09185185185185189],[0.08333333333333333,-0.15981481481481483],[0.09458333333333328,-0.22611111111111115],[0.09458333333333328,-0.22611111111111115],[0.09364583333333343,-0.27814814814814814],[0.10552083333333329,-0.3085185185185186],[0.12020833333333343,-0.3162962962962963],[0.14187500000000006,-0.3168518518518519],[0.16875,-0.325],[0.19031250000000005,-0.3111111111111111],[0.18802083333333333,-0.3140740740740741],[0.18302083333333338,-0.30111111111111116],[0.1818749999999999,-0.272037037037037],[0.18104166666666663,-0.2564814814814815],[0.19572916666666676,-0.2512962962962963],[0.21041666666666667,-0.24611111111111106],[0.18291666666666656,-0.22148148148148153],[0.15125000000000005,-0.19092592592592597],[0.10510416666666676,-0.15981481481481483],[0.042708333333333334,-0.1264814814814815],[0.05260416666666667,-0.13481481481481483],[0.016562499999999977,-0.11888888888888886],[-0.008333333333333333,-0.11870370370370374],[-0.05270833333333336,-0.09370370370370375],[-0.10822916666666664,-0.043703703703703745],[-0.18166666666666664,-0.004814814814814857],[-0.18166666666666664,-0.004814814814814857],[-0.24249999999999997,0.01703703703703712],[-0.24249999999999997,0.01703703703703712],[-0.32270833333333326,0.0787037037037037],[-0.3532291666666667,0.12370370370370362],[-0.359375,0.15611111111111103],[-0.41437499999999994,0.24666666666666676],[-0.4384375,0.3235185185185186],[-0.4775,0.4],[-0.4970833333333333,0.4516666666666666],[-0.5430208333333333,0.5009259259259259],[-0.5430208333333333,0.5009259259259259],[-0.5710416666666667,0.5612962962962963],[-0.5028125,0.5153703703703703],[-0.3980208333333334,0.422037037037037],[-0.3336458333333333,0.35240740740740734],[-0.2796875,0.2740740740740741],[-0.2796875,0.2740740740740741],[-0.2219791666666667,0.19018518518518526],[-0.16520833333333335,0.10055555555555547],[-0.11197916666666667,0.011666666666666582],[-0.033645833333333285,-0.10037037037037035],[0.07843749999999995,-0.21074074074074076],[0.19052083333333342,-0.32111111111111107],[0.19052083333333342,-0.32111111111111107],[0.20645833333333338,-0.3359259259259259],[0.2118750000000001,-0.34759259259259256],[0.21729166666666658,-0.3592592592592593],[0.18635416666666677,-0.3381481481481482],[0.22364583333333338,-0.3653703703703704],[0.2709374999999999,-0.40314814814814814],[0.2709374999999999,-0.40314814814814814],[0.3164583333333333,-0.44296296296296295],[0.3368750000000001,-0.4596296296296296],[0.3368750000000001,-0.4596296296296296],[0.3071875000000001,-0.4381481481481482],[0.3071875000000001,-0.4381481481481482],[0.315625,-0.4468518518518519],[0.315625,-0.4468518518518519],[0.3393749999999999,-0.46592592592592597],[0.3393749999999999,-0.46592592592592597],[0.37687499999999996,-0.490925925925926],[0.37687499999999996,-0.490925925925926],[0.38604166666666656,-0.4987037037037037],[0.38604166666666656,-0.4987037037037037],[0.4683333333333332,-0.5007407407407407],[0.4818749999999999,-0.42407407407407405],[0.4818749999999999,-0.42407407407407405],[0.46510416666666665,-0.32462962962962966],[0.46854166666666663,-0.24166666666666667],[0.4353125000000001,-0.12629629629629627],[0.4423958333333334,-0.05185185185185185],[0.43125,0.027037037037037078],[0.42999999999999994,0.10574074074074079],[0.44562499999999994,0.15722222222222218],[0.4943749999999999,0.22074074074074082],[0.49812500000000004,0.26370370370370366],[0.49812500000000004,0.26370370370370366],[0.4986458333333334,0.2818518518518519],[0.5248958333333335,0.2542592592592592],[0.5248958333333335,0.2542592592592592],[0.5444791666666667,0.24462962962962967],[0.6114583333333333,0.1883333333333334],[0.6784374999999999,0.13203703703703695],[0.6597916666666668,0.08944444444444435],[0.6597916666666668,0.08944444444444435],[0.6657291666666666,0.03425925925925926],[0.6133333333333333,0.018518518518518517],[0.6133333333333333,0.018518518518518517],[0.5457291666666667,-0.020555555555555598],[0.5025000000000001,-0.06314814814814819],[0.5025000000000001,-0.06314814814814819],[0.4501041666666666,-0.10240740740740743],[0.4501041666666666,-0.10240740740740743],[0.40750000000000003,-0.12759259259259256],[0.36604166666666677,-0.09129629629629632],[0.3006249999999999,-0.03129629629629625],[0.29583333333333334,-0.001851851851851852],[0.3042708333333332,0.06425925925925935],[0.3042708333333332,0.06425925925925935],[0.32958333333333345,0.09870370370370361],[0.38010416666666674,0.12537037037037047],[0.44468750000000007,0.12462962962962955],[0.48489583333333336,0.12740740740740733],[0.48489583333333336,0.12740740740740733],[0.5375,0.10703703703703696],[0.5375,0.10703703703703696],[0.5181250000000001,0.17111111111111107],[0.3771874999999999,0.2572222222222222],[0.24802083333333325,0.3338888888888888],[0.16281249999999994,0.369074074074074],[0.13010416666666677,0.37962962962962965],[0.006979166666666714,0.4762962962962964],[-0.11614583333333334,0.5729629629629629],[-0.14375,0.6109259259259259],[-0.17875000000000002,0.6444444444444445],[-0.20708333333333329,0.6935185185185185],[-0.20708333333333329,0.6935185185185185],[-0.16343749999999999,0.6581481481481481],[0.0048958333333333805,0.5348148148148147],[0.20281250000000003,0.3798148148148149],[0.24229166666666657,0.31574074074074077],[0.29718749999999994,0.2492592592592593],[0.4002083333333334,0.12833333333333324],[0.5032291666666666,0.05222222222222231],[0.5070833333333333,0.011481481481481566],[0.5211458333333333,-0.0257407407407407],[0.5253125,-0.05870370370370368],[0.5045833333333334,-0.0809259259259259],[0.4713541666666667,-0.09888888888888885],[0.39791666666666664,-0.07981481481481485],[0.39479166666666665,-0.08555555555555554],[0.3696875000000001,-0.06462962962962959],[0.3658333333333334,-0.03925925925925934],[0.3720833333333334,-0.06944444444444445],[0.3785416666666668,-0.07999999999999997],[0.36708333333333343,-0.08962962962962959],[0.35812499999999997,-0.09370370370370375],[0.38406250000000003,-0.09351851851851851],[0.4099999999999999,-0.0933333333333333],[0.41260416666666655,-0.07629629629629628],[0.39874999999999994,-0.05333333333333336],[0.39895833333333336,-0.04666666666666675],[0.3993750000000001,-0.06092592592592588],[0.3923958333333334,-0.05944444444444449],[0.3923958333333334,-0.05944444444444449],[0.38520833333333326,-0.032777777777777864],[0.3645833333333333,0.014629629629629588],[0.34343750000000006,0.053703703703703705],[0.31229166666666663,0.07777777777777778],[0.2929166666666667,0.08888888888888889],[0.31187500000000007,0.07962962962962963],[0.3493750000000001,0.06537037037037029],[0.3793750000000001,0.04314814814814806],[0.3819791666666667,0.050370370370370454],[0.37229166666666674,0.09092592592592597],[0.3553124999999999,0.15537037037037033],[0.35947916666666657,0.19611111111111107],[0.36124999999999996,0.24000000000000005],[0.36302083333333335,0.2838888888888888],[0.3259375000000001,0.36055555555555563],[0.2865624999999999,0.42740740740740735],[0.2582291666666668,0.4903703703703703],[0.22989583333333338,0.5533333333333332],[0.21541666666666662,0.6033333333333333],[0.21052083333333324,0.615],[0.22218749999999995,0.5998148148148148],[0.2412499999999999,0.5875925925925926],[0.23156249999999995,0.5968518518518517],[0.221875,0.606111111111111],[0.2171875,0.6127777777777778],[0.2873958333333334,0.4818518518518519],[0.32802083333333343,0.35981481481481475],[0.36864583333333345,0.23777777777777773],[0.36864583333333345,0.23777777777777773],[0.37958333333333344,0.15981481481481474],[0.37958333333333344,0.15981481481481474],[0.3474999999999999,0.08907407407407411],[0.3474999999999999,0.08907407407407411],[0.32999999999999996,0.009444444444444486],[0.32999999999999996,0.009444444444444486],[0.2789583333333333,-0.05388888888888893],[0.2789583333333333,-0.05388888888888893],[0.2864583333333333,-0.15925925925925927],[0.2864583333333333,-0.15925925925925927],[0.2747916666666666,-0.2662962962962963],[0.2747916666666666,-0.2662962962962963],[0.3067708333333333,-0.4153703703703704],[0.3067708333333333,-0.4153703703703704],[0.20885416666666667,-0.37],[0.20885416666666667,-0.37],[0.10885416666666667,-0.3164814814814814],[0.10885416666666667,-0.3164814814814814],[0.041458333333333285,-0.30333333333333334],[0.041458333333333285,-0.30333333333333334],[0.027291666666666714,-0.33055555555555555],[0.027291666666666714,-0.33055555555555555],[0.016770833333333356,-0.3461111111111111],[0.016770833333333356,-0.3461111111111111],[-0.06885416666666669,-0.32462962962962966],[-0.06885416666666669,-0.32462962962962966],[-0.11072916666666661,-0.3242592592592593],[-0.11072916666666661,-0.3242592592592593],[-0.16968749999999996,-0.3066666666666667],[-0.16968749999999996,-0.3066666666666667],[-0.20052083333333334,-0.28944444444444445],[-0.20052083333333334,-0.28944444444444445],[-0.21510416666666668,-0.21574074074074073],[-0.21510416666666668,-0.21574074074074073],[-0.17156250000000003,-0.182962962962963],[-0.17156250000000003,-0.182962962962963],[-0.10489583333333338,-0.16592592592592598],[-0.10489583333333338,-0.16592592592592598],[-0.06114583333333338,-0.11777777777777781],[-0.06114583333333338,-0.11777777777777781],[-0.10135416666666662,-0.015000000000000043],[-0.10135416666666662,-0.015000000000000043],[-0.041666666666666664,0.019444444444444445],[-0.041666666666666664,0.019444444444444445],[0.051770833333333384,0.05722222222222218],[0.051770833333333384,0.05722222222222218],[0.1349999999999999,0.09981481481481477],[0.1349999999999999,0.09981481481481477],[0.21708333333333343,0.13203703703703695],[0.21708333333333343,0.13203703703703695],[0.29229166666666656,0.16314814814814818],[0.29229166666666656,0.16314814814814818],[0.3142708333333334,0.19981481481481478],[0.3142708333333334,0.19981481481481478],[0.34364583333333343,0.21370370370370367],[0.34364583333333343,0.21370370370370367],[0.3667708333333332,0.22481481481481477],[0.3667708333333332,0.22481481481481477],[0.3958333333333333,0.23851851851851844],[0.3958333333333333,0.23851851851851844],[0.3958333333333333,0.23851851851851844],[0.3958333333333333,0.23851851851851844],[0.4616666666666667,0.20796296296296288],[0.4616666666666667,0.20796296296296288],[0.48447916666666657,0.21055555555555563],[0.48447916666666657,0.21055555555555563],[0.5135416666666667,0.20037037037037045],[0.5135416666666667,0.20037037037037045],[0.53625,0.19722222222222222],[0.53625,0.19722222222222222],[0.5541666666666667,0.20333333333333325],[0.5541666666666667,0.20333333333333325],[0.5515625,0.20574074074074078],[0.5515625,0.20574074074074078],[0.5863541666666667,0.17481481481481478],[0.5863541666666667,0.17481481481481478],[0.5626041666666666,0.1705555555555556],[0.5626041666666666,0.1705555555555556],[0.5423958333333334,0.15388888888888894],[0.5423958333333334,0.15388888888888894],[0.5246875000000001,0.15166666666666662],[0.5246875000000001,0.15166666666666662],[0.5041666666666667,0.19222222222222213],[0.5041666666666667,0.19222222222222213],[0.4671875,0.2272222222222223],[0.4671875,0.2272222222222223],[0.42208333333333337,0.2579629629629629],[0.42208333333333337,0.2579629629629629],[0.39385416666666656,0.28111111111111103],[0.39385416666666656,0.28111111111111103],[0.3629166666666668,0.3037037037037037],[0.3629166666666668,0.3037037037037037],[0.3467708333333334,0.34592592592592586],[0.3467708333333334,0.34592592592592586],[0.3086458333333333,0.38425925925925924],[0.3086458333333333,0.38425925925925924],[0.31302083333333336,0.41462962962962957],[0.31302083333333336,0.41462962962962957],[0.3132291666666667,0.4542592592592592],[0.3132291666666667,0.4542592592592592],[0.27291666666666664,0.5003703703703705],[0.27291666666666664,0.5003703703703705],[0.2685416666666666,0.49148148148148146],[0.2685416666666666,0.49148148148148146],[0.2777083333333332,0.5114814814814815],[0.2777083333333332,0.5114814814814815],[0.29270833333333335,0.532037037037037],[0.29270833333333335,0.532037037037037],[0.29666666666666663,0.5377777777777777],[0.29666666666666663,0.5377777777777777],[0.3194791666666667,0.5412962962962962],[0.3194791666666667,0.5412962962962962],[0.3194791666666667,0.5412962962962962],[0.3194791666666667,0.5412962962962962],[0.3519791666666668,0.5325925925925926],[0.3519791666666668,0.5325925925925926],[0.3484375,0.522037037037037],[0.3484375,0.522037037037037],[0.36385416666666665,0.4994444444444445]]","[[0.17895833333333327,0.25,0.00040000009536811376],[0.18854166666666666,0.22370370370370363,0.06130000019072668],[0.18854166666666666,0.22370370370370363,0.08050000000000068],[0.13833333333333328,0.24833333333333338,0.09799999999999898],[0.13833333333333328,0.24833333333333338,0.10420000028609877],[0.09958333333333323,0.25277777777777777,0.1207000002861065],[0.08312499999999995,0.26740740740740737,0.13530000019073896],[0.058854166666666666,0.2844444444444445,0.15200000000000102],[0.034375,0.3012962962962964,0.16980000019073316],[0.035312499999999976,0.31129629629629635,0.18510000038146757],[0.036249999999999956,0.3212962962962963,0.20180000019072963],[0.029791666666666692,0.3357407407407407,0.21840000009537164],[0.02958333333333331,0.3418518518518519,0.23510000038146472],[-0.007187499999999976,0.36944444444444446,0.25190000009536107],[0.03135416666666669,0.3761111111111112,0.2689000000953712],[0.05520833333333333,0.3846296296296297,0.2851000003814619],[0.07604166666666666,0.3992592592592593,0.30180000019073816],[0.0743750000000001,0.40370370370370373,0.31840000009536595],[0.07291666666666667,0.4083333333333333,0.33510000038147325],[0.11552083333333343,0.38370370370370377,0.3519000000953696],[0.15812499999999996,0.35907407407407405,0.3684999999999974],[0.14833333333333343,0.362962962962963,0.3851000003814704],[0.13020833333333334,0.3737037037037036,0.40190000009536675],[0.1330208333333334,0.3661111111111112,0.41849999999999454],[0.0875,0.3625925925925925,0.43510000038146757],[0.008854166666666666,0.39444444444444443,0.4519000000953639],[-0.05656249999999995,0.38851851851851843,0.4684999999999917],[-0.08989583333333329,0.4016666666666666,0.4851000003814647],[-0.11927083333333334,0.4064814814814815,0.5048000001907269],[-0.18020833333333333,0.4433333333333333,0.5185000000000031],[-0.2358333333333333,0.4766666666666666,0.5351000003814619],[-0.2669791666666666,0.475,0.5518000001907382],[-0.2669791666666666,0.475,0.5699999999999932],[-0.29812500000000003,0.4733333333333334,0.5851000003814733],[-0.3129166666666666,0.4737037037037036,0.6019000000953696],[-0.29739583333333336,0.4594444444444445,0.6184999999999974],[-0.25583333333333336,0.43129629629629623,0.6351000003814704],[-0.24281250000000001,0.43148148148148147,0.6519000000953667],[-0.24375,0.4083333333333333,0.6698000001907332],[-0.24864583333333337,0.39351851851851855,0.6851000003814676],[-0.27677083333333335,0.3844444444444445,0.7018000001907296],[-0.32614583333333336,0.39740740740740743,0.7184000000953716],[-0.30187499999999995,0.39462962962962966,0.7351000003814647],[-0.29093749999999996,0.3987037037037036,0.7519999999999953],[-0.2808333333333334,0.41722222222222216,0.7685000000000031],[-0.2604166666666667,0.40407407407407414,0.7852000002860962],[-0.22145833333333337,0.3774074074074073,0.8018000001907382],[-0.18635416666666665,0.3566666666666667,0.818400000095366],[-0.1390625,0.3479629629629629,0.8351000003814733],[-0.11677083333333335,0.35,0.8519000000953696],[-0.09447916666666671,0.3520370370370371,0.8684999999999974],[-0.05645833333333338,0.3418518518518519,0.8851000003814704],[-0.07062499999999995,0.34740740740740744,0.9021000003814663],[-0.07541666666666665,0.3483333333333334,0.9184999999999945],[-0.09718749999999995,0.34037037037037027,0.9353000001907361],[-0.1421875,0.37537037037037047,0.9542000002861073],[-0.19010416666666666,0.412962962962963,0.9712000002861032],[-0.19010416666666666,0.412962962962963,0.9883000001907334],[-0.17083333333333334,0.3987037037037036,1.0019999999999953],[-0.17083333333333334,0.3987037037037036,1.018800000190737],[-0.17999999999999997,0.40407407407407414,1.0354000000953647],[-0.12770833333333337,0.3731481481481482,1.054700000286104],[-0.05166666666666669,0.3453703703703704,1.071400000095366],[0.024583333333333356,0.31129629629629635,1.087600000381471],[0.10083333333333329,0.2772222222222223,1.1067000002860965],[0.11614583333333334,0.26129629629629636,1.1207000002861065],[0.1287499999999999,0.2566666666666667,1.1361000003814752],[0.16135416666666677,0.23351851851851857,1.153900000095362],[0.1931250000000001,0.1962962962962963,1.171200000286106],[0.19458333333333327,0.2103703703703704,1.1853000001907361],[0.23791666666666675,0.19407407407407398,1.2019999999999982],[0.19781250000000009,0.23055555555555557,1.2218000001907399],[0.146875,0.22833333333333325,1.2390000000000043],[0.12458333333333324,0.22185185185185177,1.2539000000953706],[0.10125000000000005,0.22018518518518515,1.269200000286105],[0.10125000000000005,0.22018518518518515,1.2879999999999967],[0.12958333333333344,0.17518518518518522,1.3019000000953724],[0.1658333333333334,0.12462962962962955,1.3186000003814655],[0.2013541666666666,0.08111111111111102,1.3393000001907325],[0.24770833333333328,0.049074074074074076,1.3544000000953673],[0.24635416666666668,0.019259259259259216,1.368700000286097],[0.24427083333333333,0.01722222222222214,1.3856000003814728],[0.28916666666666657,-0.012037037037037037,1.4049000000953669],[0.3068749999999999,-0.0257407407407407,1.4184999999999945],[0.2959374999999999,-0.03518518518518519,1.4353000001907361],[0.28937499999999994,-0.043703703703703745,1.4527000002861001],[0.2960416666666667,-0.029259259259259176,1.4703000001907327],[0.2795833333333334,-0.004259259259259175,1.4853000001907333],[0.25499999999999995,0.017407407407407365,1.5041000003814702],[0.19677083333333342,0.02907407407407416,1.5210000000000008],[0.1368750000000001,0.057777777777777865,1.536600000381469],[0.1368750000000001,0.057777777777777865,1.552100000381472],[0.08260416666666662,0.09037037037037028,1.5689000000953683],[0.08260416666666662,0.09037037037037028,1.5899000000953691],[0.02166666666666662,0.10203703703703708,1.6021000003814692],[0.02166666666666662,0.10203703703703708,1.6186000003814627],[-0.005624999999999976,0.12888888888888894,1.6351000003814704],[-0.005624999999999976,0.12888888888888894,1.6518000001907325],[-0.027083333333333334,0.14574074074074084,1.6684999999999945],[-0.027083333333333334,0.14574074074074084,1.6893000001907268],[-0.06343749999999998,0.12185185185185177,1.7019999999999982],[-0.06343749999999998,0.12185185185185177,1.7184999999999917],[-0.05552083333333328,0.06999999999999991,1.7386000003814672],[-0.05791666666666669,0.05314814814814823,1.7531000003814654],[-0.04822916666666662,0.022037037037036994,1.7704999999999984],[-0.013333333333333286,0.009259259259259259,1.7884000000953648],[0.01572916666666669,-0.029814814814814856,1.8059999999999974],[0.0109375,-0.07907407407407405,1.822800000190739],[0.017499999999999953,-0.1259259259259259,1.8408000001907396],[0.017499999999999953,-0.1259259259259259,1.8520000000000039],[0.013854166666666619,-0.16740740740740737,1.868700000286097],[-0.009062500000000048,-0.17444444444444443,1.8878000001907367],[0.013541666666666667,-0.15962962962962962,1.906800000190728],[0.013541666666666667,-0.15962962962962962,1.918600000381474],[-0.04906250000000002,-0.12148148148148152,1.9354000000953704],[-0.08770833333333337,-0.12888888888888894,1.9519999999999982],[-0.140625,-0.1316666666666667,1.9716000003814713],[-0.12843749999999995,-0.14500000000000002,1.9901000003814744],[-0.12843749999999995,-0.14500000000000002,2.001900000095361],[-0.08822916666666672,-0.16296296296296298,2.022100000381471],[-0.06479166666666672,-0.14833333333333337,2.038800000190733],[-0.03218749999999997,-0.12129629629629629,2.0552000002861064],[-0.008749999999999977,-0.0948148148148148,2.070200000286107],[-0.011874999999999976,-0.051111111111111156,2.089500000000001],[-0.034166666666666616,-0.07148148148148152,2.108300000190738],[-0.034166666666666616,-0.07148148148148152,2.118700000286097],[0.007604166666666619,-0.09296296296296294,2.1354000000953732],[0.025937499999999978,-0.10574074074074079,2.159700000286108],[0.025937499999999978,-0.10574074074074079,2.168600000381474],[0.04583333333333333,-0.10777777777777775,2.185300000190736],[0.020833333333333332,-0.11629629629629631,2.201900000095364],[-0.04812500000000005,-0.07296296296296292,2.221200000286103],[-0.08854166666666667,-0.08592592592592588,2.235600000381467],[-0.1304166666666667,-0.11351851851851855,2.254700000286107],[-0.20187499999999994,-0.10129629629629627,2.2752000002861053],[-0.20187499999999994,-0.10129629629629627,2.285200000286096],[-0.17593749999999997,-0.17962962962962964,2.301800000190738],[-0.17260416666666673,-0.19574074074074072,2.3185000000000002],[-0.21031249999999999,-0.19759259259259257,2.3352000002861075],[-0.24249999999999997,-0.22722222222222221,2.3523000001907377],[-0.2694791666666667,-0.2588888888888889,2.370200000286104],[-0.3271875,-0.24074074074074073,2.386499999999998],[-0.3133333333333333,-0.25999999999999995,2.4047000002860983],[-0.27885416666666674,-0.2862962962962963,2.418600000381474],[-0.2727083333333333,-0.2770370370370371,2.4350000000000023],[-0.25104166666666666,-0.3031481481481481,2.4532000002861025],[-0.2867708333333333,-0.2803703703703703,2.4684999999999917],[-0.2990625,-0.28296296296296297,2.4853000001907333],[-0.29020833333333335,-0.29962962962962963,2.5031000003814654],[-0.2733333333333333,-0.15851851851851856,2.518500000000003],[-0.2704166666666667,-0.01703703703703712,2.5356000003814643],[-0.19239583333333338,0.08185185185185194,2.551700000286104],[-0.19395833333333337,0.17018518518518513,2.5686000003814655],[-0.19489583333333335,0.29444444444444445,2.5849999999999937],[-0.20677083333333332,0.42962962962962964,2.6018000001907353],[-0.21927083333333333,0.5474074074074075,2.618400000095363],[-0.21437499999999995,0.6307407407407408,2.6351000003814704],[-0.22614583333333335,0.7761111111111112,2.651700000286098],[-0.24114583333333334,0.9270370370370369,2.6684000000953603],[-0.22062499999999996,0.8642592592592594,2.6851000003814676],[-0.18062499999999998,0.7862962962962964,2.7018000001907296],[-0.12333333333333331,0.6507407407407407,2.718600000381471],[-0.08104166666666662,0.5553703703703703,2.7351000003814647],[-0.017604166666666643,0.43499999999999994,2.7539000000953706],[0.07270833333333329,0.28888888888888886,2.768800000190737],[0.1408333333333334,0.18944444444444436,2.785100000381462],[0.19166666666666668,0.12129629629629629,2.80440000009537],[0.19166666666666668,0.12129629629629629,2.8196000003814703],[0.26291666666666674,0.001851851851851852,2.8351000003814733],[0.35031249999999997,-0.1398148148148148,2.852400000095372],[0.40114583333333326,-0.18888888888888888,2.8689999999999998],[0.4183333333333332,-0.19611111111111107,2.8851000003814704],[0.3549999999999999,-0.14425925925925923,2.9032000002861054],[0.3634375000000001,-0.15166666666666662,2.9184999999999945],[0.3455208333333334,-0.16074074074074077,2.93560000038147],[0.33447916666666655,-0.16296296296296298,2.953700000286105],[0.3603125000000001,-0.19888888888888884,2.9716000003814713],[0.3603125000000001,-0.19888888888888884,2.9853000001907333],[0.3948958333333332,-0.2337037037037037,3.001900000095361],[0.3948958333333332,-0.2337037037037037,3.018500000000003],[0.4192708333333333,-0.2403703703703704,3.035200000286096],[0.4048958333333334,-0.2051851851851852,3.053600000381465],[0.4226041666666667,-0.1896296296296296,3.0697000002861046],[0.4638541666666666,-0.20018518518518522,3.0849999999999937],[0.49895833333333334,-0.18666666666666668,3.101700000286101],[0.5368750000000001,-0.1838888888888889,3.12010000038147],[0.565625,-0.1911111111111111,3.1373000001907343],[0.5585416666666667,-0.1594444444444445,3.155700000286103],[0.5569791666666667,-0.1294444444444444,3.1714000000953604],[0.5465625000000001,-0.08925925925925923,3.186800000190729],[0.5269791666666668,-0.04759259259259268,3.2031000003814682],[0.5486458333333334,-0.056666666666666705,3.2184000000953716],[0.5663541666666667,-0.07296296296296292,3.2351000003814647],[0.5663541666666667,-0.07296296296296292,3.2519999999999953],[0.5412499999999999,-0.06407407407407412,3.268500000000003],[0.47239583333333335,-0.025185185185185227,3.285100000381462],[0.38260416666666663,0.05981481481481473,3.301700000286104],[0.2991666666666667,0.1544444444444444,3.3185000000000002],[0.24468750000000009,0.20333333333333325,3.3351000003814733],[0.18218750000000009,0.25870370370370377,3.3519000000953696],[0.1196875000000001,0.305925925925926,3.368400000095363],[0.060104166666666715,0.3487037037037036,3.385300000190739],[-0.018124999999999978,0.4225925925925927,3.4018000001907325],[-0.09197916666666663,0.47759259259259257,3.4184999999999945],[-0.13250000000000003,0.5255555555555554,3.4364999999999952],[-0.15395833333333328,0.5335185185185186,3.4546000003814754],[-0.15395833333333328,0.5335185185185186,3.4684000000953716],[-0.1492708333333333,0.49962962962962953,3.4851000003814647],[-0.14791666666666667,0.4837037037037038,3.501800000190727],[-0.12250000000000003,0.44833333333333336,3.5186000003814684],[-0.11864583333333331,0.43796296296296294,3.535100000381462],[-0.11864583333333331,0.43796296296296294,3.5519000000953724],[-0.10968749999999995,0.4107407407407407,3.5689000000953683],[-0.10968749999999995,0.4107407407407407,3.5851000003814733],[-0.11520833333333336,0.3705555555555556,3.6018000001907353],[-0.11520833333333336,0.3705555555555556,3.618400000095363],[-0.19437500000000002,0.39518518518518514,3.6351000003814704],[-0.19437500000000002,0.39518518518518514,3.6519000000953667],[-0.2851041666666667,0.4492592592592593,3.668600000381474],[-0.2851041666666667,0.4492592592592593,3.6894999999999953],[-0.3344791666666667,0.4427777777777778,3.701999999999998],[-0.3344791666666667,0.4427777777777778,3.7184000000953716],[-0.3544791666666666,0.425,3.7351000003814647],[-0.40437500000000004,0.45500000000000007,3.7546000003814726],[-0.46041666666666664,0.4781481481481482,3.7699000000953617],[-0.5338541666666666,0.5,3.78730000019074],[-0.5338541666666666,0.5,3.8134000000953705],[-0.5976041666666667,0.5151851851851853,3.829900000095364],[-0.5976041666666667,0.5151851851851853,3.836100000381464],[-0.6325000000000001,0.525,3.8519000000953696],[-0.6598958333333333,0.5577777777777778,3.868400000095363],[-0.5709375,0.5485185185185186,3.8851000003814704],[-0.4873958333333333,0.5359259259259259,3.9018000001907325],[-0.43468749999999995,0.5555555555555556,3.9184999999999945],[-0.38708333333333333,0.5724074074074075,3.9351000003814676],[-0.3237499999999999,0.5703703703703704,3.951999999999998],[-0.2604166666666667,0.5683333333333332,3.9684999999999917],[-0.21875,0.6031481481481482,3.988200000286099],[-0.16270833333333337,0.6148148148148148,4.004400000095373],[-0.14500000000000005,0.6429629629629631,4.020700000286098],[-0.14500000000000005,0.6429629629629631,4.035100000381462],[-0.12322916666666663,0.6655555555555556,4.051800000190738],[-0.13864583333333336,0.643888888888889,4.068400000095366],[-0.18166666666666664,0.65,4.085100000381473],[-0.2257291666666667,0.6662962962962962,4.101800000190735],[-0.2467708333333333,0.668888888888889,4.118400000095363],[-0.2467708333333333,0.668888888888889,4.13510000038147],[-0.2717708333333333,0.6718518518518518,4.1518000001907325],[-0.25510416666666663,0.647962962962963,4.16840000009536],[-0.1922916666666667,0.6,4.185100000381468],[-0.12947916666666662,0.5520370370370371,4.201700000286095],[-0.10958333333333338,0.5401851851851853,4.218499999999992],[-0.08968750000000002,0.5283333333333332,4.235100000381465],[-0.07322916666666662,0.5381481481481482,4.251800000190727],[-0.029166666666666667,0.5201851851851852,4.268500000000003],[0.003854166666666714,0.5022222222222223,4.286600000381469],[0.02041666666666669,0.49796296296296294,4.30460000038147],[0.035208333333333286,0.5031481481481482,4.320900000095364],[0.008333333333333333,0.5351851851851852,4.335100000381473],[-0.05625,0.5762962962962964,4.351800000190735],[-0.12083333333333333,0.6174074074074074,4.368400000095363],[-0.14052083333333332,0.6312962962962962,4.38510000038147],[-0.16833333333333336,0.6557407407407407,4.401700000286098],[-0.17937500000000003,0.6692592592592592,4.42140000009536],[-0.18489583333333334,0.6672222222222222,4.435100000381468],[-0.17291666666666666,0.6683333333333333,4.451900000095364],[-0.16531250000000006,0.6887037037037037,4.468400000095372],[-0.12833333333333338,0.6687037037037038,4.485100000381465],[-0.09135416666666671,0.6487037037037037,4.501700000286107],[-0.06468750000000002,0.6324074074074074,4.518900000095371],[-0.03802083333333333,0.6161111111111112,4.535100000381462],[0.0003124999999999526,0.606111111111111,4.551900000095372],[0.04510416666666662,0.5777777777777777,4.568400000095366],[0.071875,0.5527777777777778,4.585100000381473],[0.0931250000000001,0.5433333333333333,4.601800000190735],[0.11802083333333328,0.5412962962962962,4.618499999999997],[0.14729166666666677,0.5199999999999999,4.63510000038147],[0.15791666666666657,0.5290740740740741,4.651700000286098],[0.16854166666666662,0.5381481481481482,4.66840000009536],[0.20041666666666677,0.5183333333333333,4.685100000381468],[0.23229166666666667,0.4985185185185186,4.701700000286095],[0.2542708333333332,0.4838888888888888,4.718499999999992],[0.27791666666666665,0.4770370370370371,4.735100000381465],[0.29270833333333335,0.4783333333333332,4.751800000190727],[0.30750000000000005,0.47962962962962963,4.768400000095369],[0.3086458333333333,0.4692592592592592,4.785100000381462],[0.3185416666666666,0.4524074074074073,4.801700000286104],[0.30020833333333335,0.44962962962962955,4.8185],[0.28187499999999993,0.4468518518518518,4.835100000381473],[0.2743750000000001,0.46296296296296297,4.851800000190735],[0.26687500000000003,0.47907407407407415,4.868400000095363],[0.25760416666666663,0.4844444444444445,4.88510000038147],[0.24833333333333343,0.4898148148148148,4.901700000286098],[0.24677083333333344,0.4866666666666666,4.91840000009536],[0.24677083333333344,0.4866666666666666,4.935999999999993],[0.2685416666666666,0.47907407407407415,4.953400000095371],[0.27291666666666664,0.49537037037037035,4.970100000381464],[0.27291666666666664,0.49537037037037035,4.985100000381465],[0.2873958333333334,0.49685185185185177,5.001900000095361],[0.2873958333333334,0.49685185185185177,5.018500000000003],[0.31572916666666656,0.48574074074074064,5.035100000381462],[0.31572916666666656,0.48574074074074064,5.051800000190738],[0.3267708333333334,0.46574074074074073,5.068400000095366],[0.30270833333333325,0.45685185185185195,5.084999999999994],[0.2625,0.47185185185185174,5.101800000190735],[0.25812499999999994,0.46407407407407414,5.118400000095363],[0.23177083333333334,0.4705555555555556,5.13510000038147],[0.2341666666666666,0.4524074074074073,5.152100000381466],[0.21322916666666672,0.43870370370370365,5.16840000009536],[0.18427083333333344,0.4162962962962962,5.185100000381468],[0.11895833333333337,0.44055555555555553,5.2032000002861025],[0.08333333333333333,0.4420370370370371,5.219300000190728],[0.08333333333333333,0.4420370370370371,5.235100000381465],[0.06770833333333333,0.4609259259259259,5.251800000190727],[0.09156250000000009,0.46037037037037043,5.2690000000000055],[0.10958333333333338,0.4474074074074075,5.285800000190733],[0.09416666666666676,0.45333333333333325,5.306900000095368],[0.09416666666666676,0.45333333333333325,5.3185],[0.08979166666666671,0.4553703703703703,5.335100000381473],[0.0515625,0.48814814814814816,5.370300000190738],[0.0515625,0.48814814814814816,5.378],[0.03718750000000005,0.5040740740740741,5.38510000038147],[0.04468749999999998,0.5124074074074075,5.402000000000001],[0.08302083333333338,0.4959259259259258,5.423300000190736],[0.09458333333333328,0.5048148148148148,5.439400000095361],[0.09500000000000004,0.5122222222222222,5.4573000001907275],[0.09500000000000004,0.5122222222222222,5.468499999999992],[0.08010416666666677,0.5290740740740741,5.485100000381465],[0.08718750000000004,0.5344444444444445,5.504000000000005],[0.08718750000000004,0.5351851851851852,5.521000000000001],[0.09812500000000005,0.5255555555555554,5.539300000190735],[0.09812500000000005,0.5255555555555554,5.551800000190738],[0.11500000000000009,0.5238888888888888,5.568400000095366],[0.11500000000000009,0.5238888888888888,5.585100000381473],[0.07937500000000004,0.5464814814814816,5.601800000190735],[0.07937500000000004,0.5464814814814816,5.618499999999997],[0.07854166666666676,0.5481481481481482,5.63510000038147],[0.07854166666666676,0.5481481481481482,5.6518000001907325],[0.06906249999999996,0.5366666666666666,5.6684999999999945],[0.06906249999999996,0.5366666666666666,5.6858000001907385],[0.0655208333333333,0.5387037037037037,5.70180000019073],[0.0655208333333333,0.5387037037037037,5.718400000095372],[0.036562500000000026,0.5681481481481481,5.735100000381465],[0.002395833333333286,0.6224074074074074,5.754700000286107],[-0.03177083333333333,0.6766666666666666,5.771000000000001],[-0.036562500000000026,0.7057407407407408,5.787200000286106],[-0.036562500000000026,0.7057407407407408,5.801800000190738],[-0.04135416666666671,0.7348148148148147,5.818400000095366],[-0.05270833333333336,0.7620370370370371,5.836100000381464],[-0.049270833333333285,0.7800000000000001,5.853300000190728],[-0.008020833333333382,0.7696296296296297,5.871300000190729],[0.01906249999999995,0.7807407407407407,5.885200000286105],[0.042708333333333334,0.7748148148148147,5.902300000190735],[0.06468750000000002,0.7292592592592592,5.91840000009536],[0.08760416666666657,0.662962962962963,5.935999999999993],[0.09645833333333324,0.6087037037037037,5.955300000190732],[0.09645833333333324,0.6087037037037037,5.968499999999992],[0.08302083333333338,0.5842592592592593,5.985200000286099],[0.08302083333333338,0.5842592592592593,6.001800000190727],[0.07333333333333343,0.5577777777777778,6.018500000000003],[0.08125,0.5251851851851852,6.041800000190733],[0.08125,0.5251851851851852,6.052499999999995],[0.0853125000000001,0.5035185185185185,6.068400000095366],[0.06927083333333334,0.5035185185185185,6.085100000381473],[0.06270833333333338,0.4946296296296297,6.103700000286096],[0.03239583333333336,0.4905555555555555,6.121100000381475],[0.03760416666666669,0.49166666666666664,6.136400000095364],[0.03104166666666662,0.5055555555555555,6.152200000286101],[0.04541666666666669,0.49833333333333335,6.169400000095365],[0.025625000000000023,0.5055555555555555,6.185200000286102],[0.0020833333333333333,0.5148148148148148,6.201700000286095],[-0.034895833333333334,0.5277777777777778,6.218400000095372],[-0.041875000000000044,0.5257407407407407,6.235300000190733],[-0.06322916666666671,0.5388888888888889,6.252600000381463],[-0.1359375,0.5792592592592591,6.269100000381471],[-0.19177083333333336,0.605185185185185,6.285200000286096],[-0.18041666666666673,0.6048148148148148,6.301800000190738],[-0.15729166666666666,0.5916666666666667,6.320100000381473],[-0.15916666666666662,0.594814814814