inst1_resp.keys,inst1_resp.rt,calibrationMouse.x,calibrationMouse.y,calibrationMouse.leftButton,calibrationMouse.midButton,calibrationMouse.rightButton,calibrationClick.x,calibrationClick.y,calibrationClick.leftButton,calibrationClick.midButton,calibrationClick.rightButton,calibrationClick.clicked_name,trialsc.thisRepN,trialsc.thisTrialN,trialsc.thisN,trialsc.thisIndex,trialsc.ran,calibration_x,calibration_y,participant,session,date,expName,psychopyVersion,OS,frameRate,ScreenRes_pixels,Camera_pixels,mouse_2.x,mouse_2.y,mouse_2.leftButton,mouse_2.midButton,mouse_2.rightButton,mouse_2.time,mouse_2.clicked_name,mouse.x,mouse.y,mouse.leftButton,mouse.midButton,mouse.rightButton,mouse.time,mouse.clicked_name,Choice,Trial,TrialDuration,MOUSE_GAZE,ET_GAZE,ET_GAZE_x_T,time,unixTime,ET_GAZE_NF,Loc_Bus_label,Loc_Metro_label,Loc_RH_label,Loc_Cost_label,Loc_Travel_label,Loc_Comfort_label,Loc_Bus_cost,Loc_Metro_cost,Loc_RH_cost,Loc_Bus_travel,Loc_Metro_travel,Loc_RH_travel,Loc_Bus_comfort,Loc_Metro_comfort,Loc_RH_comfort,trials.thisRepN,trials.thisTrialN,trials.thisN,trials.thisIndex,trials.ran,Block,Device,RH_cost,RH_travel_time,RH_Comfort,metro_cost,metro_travel_time,metro_Comfort,Bus_cost,Bus_travel_time,Bus_Comfort
space,9.0921,0.290625,0.253703704,1,0,0,0.663541667,0.668518519,1,0,0,calibration_square,0,0,0,19,1,0.67,0.67,06,001,2024-11-21_11h45.56.388,Attention_exp_legacy,2023.1.0,Win32,59.88023952,,,,,,,,,,,,,,,,,,,,,,,,,,,,,,,,,,,,,,,,,,,,,,,,,,,,,,,,
,,,,,,,-0.332291667,0.672222222,1,0,0,calibration_square,0,1,1,8,1,-0.33,0.67,06,001,2024-11-21_11h45.56.388,Attention_exp_legacy,2023.1.0,Win32,59.88023952,,,,,,,,,,,,,,,,,,,,,,,,,,,,,,,,,,,,,,,,,,,,,,,,,,,,,,,,
,,,,,,,-0.68125,0.005555556,1,0,0,,0,2,2,2,1,-0.67,0,06,001,2024-11-21_11h45.56.388,Attention_exp_legacy,2023.1.0,Win32,59.88023952,,,,,,,,,,,,,,,,,,,,,,,,,,,,,,,,,,,,,,,,,,,,,,,,,,,,,,,,
,,,,,,,0,0.335185185,1,0,0,calibration_square,0,3,3,12,1,0,0.33,06,001,2024-11-21_11h45.56.388,Attention_exp_legacy,2023.1.0,Win32,59.88023952,,,,,,,,,,,,,,,,,,,,,,,,,,,,,,,,,,,,,,,,,,,,,,,,,,,,,,,,
,,,,,,,-0.339583333,0.005555556,1,0,0,calibration_square,0,4,4,6,1,-0.33,0,06,001,2024-11-21_11h45.56.388,Attention_exp_legacy,2023.1.0,Win32,59.88023952,,,,,,,,,,,,,,,,,,,,,,,,,,,,,,,,,,,,,,,,,,,,,,,,,,,,,,,,
,,,,,,,0.321875,-0.327777778,1,0,0,calibration_square,0,5,5,15,1,0.33,-0.33,06,001,2024-11-21_11h45.56.388,Attention_exp_legacy,2023.1.0,Win32,59.88023952,,,,,,,,,,,,,,,,,,,,,,,,,,,,,,,,,,,,,,,,,,,,,,,,,,,,,,,,
,,,,,,,0.005208333,-0.668518519,1,0,0,calibration_square,0,6,6,9,1,0,-0.67,06,001,2024-11-21_11h45.56.388,Attention_exp_legacy,2023.1.0,Win32,59.88023952,,,,,,,,,,,,,,,,,,,,,,,,,,,,,,,,,,,,,,,,,,,,,,,,,,,,,,,,
,,,,,,,0.335416667,0.32037037,1,0,0,calibration_square,0,7,7,17,1,0.33,0.33,06,001,2024-11-21_11h45.56.388,Attention_exp_legacy,2023.1.0,Win32,59.88023952,,,,,,,,,,,,,,,,,,,,,,,,,,,,,,,,,,,,,,,,,,,,,,,,,,,,,,,,
,,,,,,,-0.002083333,-0.009259259,1,0,0,calibration_square,0,8,8,11,1,0,0,06,001,2024-11-21_11h45.56.388,Attention_exp_legacy,2023.1.0,Win32,59.88023952,,,,,,,,,,,,,,,,,,,,,,,,,,,,,,,,,,,,,,,,,,,,,,,,,,,,,,,,
,,,,,,,0.673958333,-0.661111111,1,0,0,calibration_square,0,9,9,20,1,0.67,-0.67,06,001,2024-11-21_11h45.56.388,Attention_exp_legacy,2023.1.0,Win32,59.88023952,,,,,,,,,,,,,,,,,,,,,,,,,,,,,,,,,,,,,,,,,,,,,,,,,,,,,,,,
,,,,,,,0,0.687037037,1,0,0,,0,10,10,13,1,0,0.67,06,001,2024-11-21_11h45.56.388,Attention_exp_legacy,2023.1.0,Win32,59.88023952,,,,,,,,,,,,,,,,,,,,,,,,,,,,,,,,,,,,,,,,,,,,,,,,,,,,,,,,
,,,,,,,-0.667708333,-0.331481481,1,0,0,calibration_square,0,11,11,1,1,-0.67,-0.33,06,001,2024-11-21_11h45.56.388,Attention_exp_legacy,2023.1.0,Win32,59.88023952,,,,,,,,,,,,,,,,,,,,,,,,,,,,,,,,,,,,,,,,,,,,,,,,,,,,,,,,
,,,,,,,-0.33125,-0.67037037,1,0,0,calibration_square,0,12,12,4,1,-0.33,-0.67,06,001,2024-11-21_11h45.56.388,Attention_exp_legacy,2023.1.0,Win32,59.88023952,,,,,,,,,,,,,,,,,,,,,,,,,,,,,,,,,,,,,,,,,,,,,,,,,,,,,,,,
,,,,,,,0.320833333,0.677777778,1,0,0,calibration_square,0,13,13,18,1,0.33,0.67,06,001,2024-11-21_11h45.56.388,Attention_exp_legacy,2023.1.0,Win32,59.88023952,,,,,,,,,,,,,,,,,,,,,,,,,,,,,,,,,,,,,,,,,,,,,,,,,,,,,,,,
,,,,,,,-0.336458333,0.322222222,1,0,0,calibration_square,0,14,14,7,1,-0.33,0.33,06,001,2024-11-21_11h45.56.388,Attention_exp_legacy,2023.1.0,Win32,59.88023952,,,,,,,,,,,,,,,,,,,,,,,,,,,,,,,,,,,,,,,,,,,,,,,,,,,,,,,,
,,,,,,,0.323958333,0.007407407,1,0,0,calibration_square,0,15,15,16,1,0.33,0,06,001,2024-11-21_11h45.56.388,Attention_exp_legacy,2023.1.0,Win32,59.88023952,,,,,,,,,,,,,,,,,,,,,,,,,,,,,,,,,,,,,,,,,,,,,,,,,,,,,,,,
,,,,,,,0.332291667,-0.668518519,1,0,0,calibration_square,0,16,16,14,1,0.33,-0.67,06,001,2024-11-21_11h45.56.388,Attention_exp_legacy,2023.1.0,Win32,59.88023952,,,,,,,,,,,,,,,,,,,,,,,,,,,,,,,,,,,,,,,,,,,,,,,,,,,,,,,,
,,,,,,,-0.658333333,0.333333333,1,0,0,,0,17,17,3,1,-0.67,0.33,06,001,2024-11-21_11h45.56.388,Attention_exp_legacy,2023.1.0,Win32,59.88023952,,,,,,,,,,,,,,,,,,,,,,,,,,,,,,,,,,,,,,,,,,,,,,,,,,,,,,,,
,,,,,,,-0.009375,-0.324074074,1,0,0,calibration_square,0,18,18,10,1,0,-0.33,06,001,2024-11-21_11h45.56.388,Attention_exp_legacy,2023.1.0,Win32,59.88023952,,,,,,,,,,,,,,,,,,,,,,,,,,,,,,,,,,,,,,,,,,,,,,,,,,,,,,,,
,,,,,,,-0.336458333,-0.335185185,1,0,0,calibration_square,0,19,19,5,1,-0.33,-0.33,06,001,2024-11-21_11h45.56.388,Attention_exp_legacy,2023.1.0,Win32,59.88023952,,,,,,,,,,,,,,,,,,,,,,,,,,,,,,,,,,,,,,,,,,,,,,,,,,,,,,,,
,,,,,,,-0.66875,-0.674074074,1,0,0,calibration_square,0,20,20,0,1,-0.67,-0.67,06,001,2024-11-21_11h45.56.388,Attention_exp_legacy,2023.1.0,Win32,59.88023952,,,,,,,,,,,,,,,,,,,,,,,,,,,,,,,,,,,,,,,,,,,,,,,,,,,,,,,,
,,,,,,,,,,,,,,,,,,,,06,001,2024-11-21_11h45.56.388,Attention_exp_legacy,2023.1.0,Win32,59.88023952,"[1920,1080]","[640,480]",[0.026041666666666668],[-0.4962962962962963],[1],[0],[0],[26.122099999904634],"[""StartButton""]","[-0.05520833333333333,-0.06979166666666667]","[0.17592592592592593,0.05925925925925926]","[1,1]","[0,0]","[0,0]","[13.666399999618534,14.63300000000001]","[""Bus_label""]",Bus_label,1,14.6769,"[[0.026041666666666668,-0.4962962962962963],[0.026041666666666668,-0.4962962962962963],[0.026041666666666668,-0.4962962962962963],[0.026041666666666668,-0.4962962962962963],[0.026041666666666668,-0.4962962962962963],[0.026041666666666668,-0.4962962962962963],[0.026041666666666668,-0.4962962962962963],[0.026041666666666668,-0.4962962962962963],[0.026041666666666668,-0.4962962962962963],[0.026041666666666668,-0.4962962962962963],[0.026041666666666668,-0.4962962962962963],[0.026041666666666668,-0.4962962962962963],[0.026041666666666668,-0.4962962962962963],[0.026041666666666668,-0.4962962962962963],[0.026041666666666668,-0.4962962962962963],[0.026041666666666668,-0.4962962962962963],[0.026041666666666668,-0.4962962962962963],[0.026041666666666668,-0.4962962962962963],[0.026041666666666668,-0.4962962962962963],[0.026041666666666668,-0.4962962962962963],[0.026041666666666668,-0.4962962962962963],[0.026041666666666668,-0.4962962962962963],[0.026041666666666668,-0.4962962962962963],[0.026041666666666668,-0.4962962962962963],[0.026041666666666668,-0.4962962962962963],[0.026041666666666668,-0.4962962962962963],[0.026041666666666668,-0.4962962962962963],[0.026041666666666668,-0.4962962962962963],[0.026041666666666668,-0.4962962962962963],[0.026041666666666668,-0.4962962962962963],[0.026041666666666668,-0.4962962962962963],[0.026041666666666668,-0.4962962962962963],[0.026041666666666668,-0.4962962962962963],[0.026041666666666668,-0.4962962962962963],[0.026041666666666668,-0.4962962962962963],[0.026041666666666668,-0.4962962962962963],[0.026041666666666668,-0.4962962962962963],[0.026041666666666668,-0.4962962962962963],[0.026041666666666668,-0.4962962962962963],[0.026041666666666668,-0.4962962962962963],[0.026041666666666668,-0.4962962962962963],[0.026041666666666668,-0.4962962962962963],[0.026041666666666668,-0.4962962962962963],[0.026041666666666668,-0.4962962962962963],[0.026041666666666668,-0.4962962962962963],[0.026041666666666668,-0.4962962962962963],[0.026041666666666668,-0.4962962962962963],[0.026041666666666668,-0.4962962962962963],[0.026041666666666668,-0.4962962962962963],[0.026041666666666668,-0.4962962962962963],[0.026041666666666668,-0.4962962962962963],[0.026041666666666668,-0.4962962962962963],[0.026041666666666668,-0.4962962962962963],[0.026041666666666668,-0.4962962962962963],[0.026041666666666668,-0.4962962962962963],[0.026041666666666668,-0.4962962962962963],[0.026041666666666668,-0.4962962962962963],[0.026041666666666668,-0.4962962962962963],[0.026041666666666668,-0.4962962962962963],[0.026041666666666668,-0.4962962962962963],[0.026041666666666668,-0.4962962962962963],[0.026041666666666668,-0.4962962962962963],[0.026041666666666668,-0.4962962962962963],[0.026041666666666668,-0.4962962962962963],[0.026041666666666668,-0.4962962962962963],[0.026041666666666668,-0.4962962962962963],[0.026041666666666668,-0.4962962962962963],[0.026041666666666668,-0.4962962962962963],[0.026041666666666668,-0.4962962962962963],[0.026041666666666668,-0.4962962962962963],[0.026041666666666668,-0.4962962962962963],[0.026041666666666668,-0.4962962962962963],[0.026041666666666668,-0.4962962962962963],[0.026041666666666668,-0.4962962962962963],[0.026041666666666668,-0.4962962962962963],[0.026041666666666668,-0.4962962962962963],[0.026041666666666668,-0.4962962962962963],[0.026041666666666668,-0.4962962962962963],[0.026041666666666668,-0.4962962962962963],[0.026041666666666668,-0.4962962962962963],[0.026041666666666668,-0.4962962962962963],[0.026041666666666668,-0.4962962962962963],[0.026041666666666668,-0.4962962962962963],[0.026041666666666668,-0.4962962962962963],[0.026041666666666668,-0.4962962962962963],[0.026041666666666668,-0.4962962962962963],[0.026041666666666668,-0.4962962962962963],[0.026041666666666668,-0.4962962962962963],[0.026041666666666668,-0.4962962962962963],[0.026041666666666668,-0.4962962962962963],[0.026041666666666668,-0.4962962962962963],[0.026041666666666668,-0.4962962962962963],[0.026041666666666668,-0.4962962962962963],[0.026041666666666668,-0.4962962962962963],[0.026041666666666668,-0.4962962962962963],[0.026041666666666668,-0.4962962962962963],[0.026041666666666668,-0.4962962962962963],[0.026041666666666668,-0.4962962962962963],[0.026041666666666668,-0.4962962962962963],[0.026041666666666668,-0.4962962962962963],[0.026041666666666668,-0.4962962962962963],[0.026041666666666668,-0.4962962962962963],[0.026041666666666668,-0.4962962962962963],[0.026041666666666668,-0.4962962962962963],[0.026041666666666668,-0.4962962962962963],[0.026041666666666668,-0.4962962962962963],[0.026041666666666668,-0.4962962962962963],[0.026041666666666668,-0.4962962962962963],[0.026041666666666668,-0.4962962962962963],[0.026041666666666668,-0.4962962962962963],[0.026041666666666668,-0.4962962962962963],[0.026041666666666668,-0.4962962962962963],[0.026041666666666668,-0.4962962962962963],[0.026041666666666668,-0.4962962962962963],[0.026041666666666668,-0.4962962962962963],[0.026041666666666668,-0.4962962962962963],[0.026041666666666668,-0.4962962962962963],[0.026041666666666668,-0.4962962962962963],[0.026041666666666668,-0.4962962962962963],[0.026041666666666668,-0.4962962962962963],[0.026041666666666668,-0.4962962962962963],[0.026041666666666668,-0.4962962962962963],[0.026041666666666668,-0.4962962962962963],[0.026041666666666668,-0.4962962962962963],[0.026041666666666668,-0.4962962962962963],[0.026041666666666668,-0.4962962962962963],[0.026041666666666668,-0.4962962962962963],[0.026041666666666668,-0.4962962962962963],[0.026041666666666668,-0.4962962962962963],[0.026041666666666668,-0.4962962962962963],[0.026041666666666668,-0.4962962962962963],[0.026041666666666668,-0.4962962962962963],[0.026041666666666668,-0.4962962962962963],[0.026041666666666668,-0.4962962962962963],[0.026041666666666668,-0.4962962962962963],[0.026041666666666668,-0.4962962962962963],[0.026041666666666668,-0.4962962962962963],[0.026041666666666668,-0.4962962962962963],[0.026041666666666668,-0.4962962962962963],[0.026041666666666668,-0.4962962962962963],[0.026041666666666668,-0.4962962962962963],[0.026041666666666668,-0.4962962962962963],[0.026041666666666668,-0.4962962962962963],[0.026041666666666668,-0.4962962962962963],[0.026041666666666668,-0.4962962962962963],[0.026041666666666668,-0.4962962962962963],[0.026041666666666668,-0.4962962962962963],[0.026041666666666668,-0.4962962962962963],[0.026041666666666668,-0.4962962962962963],[0.026041666666666668,-0.4962962962962963],[0.026041666666666668,-0.4962962962962963],[0.026041666666666668,-0.4962962962962963],[0.026041666666666668,-0.4962962962962963],[0.026041666666666668,-0.4962962962962963],[0.026041666666666668,-0.4962962962962963],[0.026041666666666668,-0.4962962962962963],[0.026041666666666668,-0.4962962962962963],[0.026041666666666668,-0.4962962962962963],[0.026041666666666668,-0.4962962962962963],[0.026041666666666668,-0.4962962962962963],[0.026041666666666668,-0.4962962962962963],[0.026041666666666668,-0.4962962962962963],[0.026041666666666668,-0.4962962962962963],[0.026041666666666668,-0.4962962962962963],[0.026041666666666668,-0.4962962962962963],[0.026041666666666668,-0.4962962962962963],[0.026041666666666668,-0.4962962962962963],[0.026041666666666668,-0.4962962962962963],[0.026041666666666668,-0.4962962962962963],[0.026041666666666668,-0.4962962962962963],[0.026041666666666668,-0.4962962962962963],[0.026041666666666668,-0.4962962962962963],[0.026041666666666668,-0.4962962962962963],[0.026041666666666668,-0.4962962962962963],[0.026041666666666668,-0.4962962962962963],[0.026041666666666668,-0.4962962962962963],[0.026041666666666668,-0.4962962962962963],[0.026041666666666668,-0.4962962962962963],[0.026041666666666668,-0.4962962962962963],[0.026041666666666668,-0.4962962962962963],[0.026041666666666668,-0.4962962962962963],[0.026041666666666668,-0.4962962962962963],[0.026041666666666668,-0.4962962962962963],[0.026041666666666668,-0.4962962962962963],[0.026041666666666668,-0.4962962962962963],[0.026041666666666668,-0.4962962962962963],[0.026041666666666668,-0.4962962962962963],[0.026041666666666668,-0.4962962962962963],[0.026041666666666668,-0.4962962962962963],[0.026041666666666668,-0.4962962962962963],[0.026041666666666668,-0.4962962962962963],[0.026041666666666668,-0.4962962962962963],[0.026041666666666668,-0.4962962962962963],[0.026041666666666668,-0.4962962962962963],[0.026041666666666668,-0.4962962962962963],[0.026041666666666668,-0.4962962962962963],[0.026041666666666668,-0.4962962962962963],[0.026041666666666668,-0.4962962962962963],[0.026041666666666668,-0.4962962962962963],[0.026041666666666668,-0.4962962962962963],[0.026041666666666668,-0.4962962962962963],[0.026041666666666668,-0.4962962962962963],[0.026041666666666668,-0.4962962962962963],[0.026041666666666668,-0.4962962962962963],[0.026041666666666668,-0.4962962962962963],[0.026041666666666668,-0.4962962962962963],[0.026041666666666668,-0.4962962962962963],[0.026041666666666668,-0.4962962962962963],[0.026041666666666668,-0.4962962962962963],[0.026041666666666668,-0.4962962962962963],[0.026041666666666668,-0.4962962962962963],[0.026041666666666668,-0.4962962962962963],[0.026041666666666668,-0.4962962962962963],[0.026041666666666668,-0.4962962962962963],[0.026041666666666668,-0.4962962962962963],[0.026041666666666668,-0.4962962962962963],[0.026041666666666668,-0.4962962962962963],[0.026041666666666668,-0.4962962962962963],[0.026041666666666668,-0.4962962962962963],[0.026041666666666668,-0.4962962962962963],[0.026041666666666668,-0.4962962962962963],[0.026041666666666668,-0.4962962962962963],[0.026041666666666668,-0.4962962962962963],[0.026041666666666668,-0.4962962962962963],[0.026041666666666668,-0.4962962962962963],[0.026041666666666668,-0.4962962962962963],[0.026041666666666668,-0.4962962962962963],[0.026041666666666668,-0.4962962962962963],[0.026041666666666668,-0.4962962962962963],[0.026041666666666668,-0.4962962962962963],[0.026041666666666668,-0.4962962962962963],[0.026041666666666668,-0.4962962962962963],[0.026041666666666668,-0.4962962962962963],[0.026041666666666668,-0.4962962962962963],[0.026041666666666668,-0.4962962962962963],[0.026041666666666668,-0.4962962962962963],[0.026041666666666668,-0.4962962962962963],[0.026041666666666668,-0.4962962962962963],[0.026041666666666668,-0.4962962962962963],[0.026041666666666668,-0.4962962962962963],[0.026041666666666668,-0.4962962962962963],[0.026041666666666668,-0.4962962962962963],[0.026041666666666668,-0.4962962962962963],[0.026041666666666668,-0.4962962962962963],[0.026041666666666668,-0.4962962962962963],[0.026041666666666668,-0.4962962962962963],[0.026041666666666668,-0.4962962962962963],[0.026041666666666668,-0.4962962962962963],[0.026041666666666668,-0.4962962962962963],[0.026041666666666668,-0.4962962962962963],[0.026041666666666668,-0.4962962962962963],[0.026041666666666668,-0.4962962962962963],[0.026041666666666668,-0.4962962962962963],[0.026041666666666668,-0.4962962962962963],[0.026041666666666668,-0.4962962962962963],[0.026041666666666668,-0.4962962962962963],[0.026041666666666668,-0.4962962962962963],[0.026041666666666668,-0.4962962962962963],[0.026041666666666668,-0.4962962962962963],[0.026041666666666668,-0.4962962962962963],[0.026041666666666668,-0.4962962962962963],[0.026041666666666668,-0.4962962962962963],[0.026041666666666668,-0.4962962962962963],[0.026041666666666668,-0.4962962962962963],[0.026041666666666668,-0.4962962962962963],[0.026041666666666668,-0.4962962962962963],[0.026041666666666668,-0.4962962962962963],[0.026041666666666668,-0.4962962962962963],[0.026041666666666668,-0.4962962962962963],[0.026041666666666668,-0.4962962962962963],[0.026041666666666668,-0.4962962962962963],[0.026041666666666668,-0.4962962962962963],[0.026041666666666668,-0.4962962962962963],[0.026041666666666668,-0.4962962962962963],[0.026041666666666668,-0.4962962962962963],[0.026041666666666668,-0.4962962962962963],[0.026041666666666668,-0.4962962962962963],[0.026041666666666668,-0.4962962962962963],[0.026041666666666668,-0.4962962962962963],[0.026041666666666668,-0.4962962962962963],[0.026041666666666668,-0.4962962962962963],[0.026041666666666668,-0.4962962962962963],[0.026041666666666668,-0.4962962962962963],[0.026041666666666668,-0.4962962962962963],[0.026041666666666668,-0.4962962962962963],[0.026041666666666668,-0.4962962962962963],[0.026041666666666668,-0.4962962962962963],[0.026041666666666668,-0.4962962962962963],[0.026041666666666668,-0.4962962962962963],[0.026041666666666668,-0.4962962962962963],[0.026041666666666668,-0.4962962962962963],[0.026041666666666668,-0.4962962962962963],[0.026041666666666668,-0.4962962962962963],[0.026041666666666668,-0.4962962962962963],[0.026041666666666668,-0.4962962962962963],[0.026041666666666668,-0.4962962962962963],[0.026041666666666668,-0.4962962962962963],[0.026041666666666668,-0.4962962962962963],[0.026041666666666668,-0.4962962962962963],[0.026041666666666668,-0.4962962962962963],[0.026041666666666668,-0.4962962962962963],[0.026041666666666668,-0.4962962962962963],[0.026041666666666668,-0.4962962962962963],[0.026041666666666668,-0.4962962962962963],[0.026041666666666668,-0.4962962962962963],[0.026041666666666668,-0.4962962962962963],[0.026041666666666668,-0.4962962962962963],[0.026041666666666668,-0.4962962962962963],[0.026041666666666668,-0.4962962962962963],[0.026041666666666668,-0.4962962962962963],[0.026041666666666668,-0.4962962962962963],[0.026041666666666668,-0.4962962962962963],[0.026041666666666668,-0.4962962962962963],[0.026041666666666668,-0.4962962962962963],[0.026041666666666668,-0.4962962962962963],[0.026041666666666668,-0.4962962962962963],[0.026041666666666668,-0.4962962962962963],[0.026041666666666668,-0.4962962962962963],[0.026041666666666668,-0.4962962962962963],[0.026041666666666668,-0.4962962962962963],[0.026041666666666668,-0.4962962962962963],[0.026041666666666668,-0.4962962962962963],[0.026041666666666668,-0.4962962962962963],[0.026041666666666668,-0.4962962962962963],[0.026041666666666668,-0.4962962962962963],[0.026041666666666668,-0.4962962962962963],[0.026041666666666668,-0.4962962962962963],[0.026041666666666668,-0.4962962962962963],[0.026041666666666668,-0.4962962962962963],[0.026041666666666668,-0.4962962962962963],[0.026041666666666668,-0.4962962962962963],[0.026041666666666668,-0.4962962962962963],[0.026041666666666668,-0.4962962962962963],[0.026041666666666668,-0.4962962962962963],[0.026041666666666668,-0.4962962962962963],[0.026041666666666668,-0.4962962962962963],[0.026041666666666668,-0.4962962962962963],[0.026041666666666668,-0.4962962962962963],[0.026041666666666668,-0.4962962962962963],[0.026041666666666668,-0.4962962962962963],[0.026041666666666668,-0.4962962962962963],[0.026041666666666668,-0.4962962962962963],[0.026041666666666668,-0.4962962962962963],[0.026041666666666668,-0.4962962962962963],[0.026041666666666668,-0.4962962962962963],[0.026041666666666668,-0.4962962962962963],[0.026041666666666668,-0.4962962962962963],[0.026041666666666668,-0.4962962962962963],[0.026041666666666668,-0.4962962962962963],[0.026041666666666668,-0.4962962962962963],[0.026041666666666668,-0.4962962962962963],[0.026041666666666668,-0.4962962962962963],[0.026041666666666668,-0.4962962962962963],[0.026041666666666668,-0.4962962962962963],[0.026041666666666668,-0.4962962962962963],[0.026041666666666668,-0.4962962962962963],[0.026041666666666668,-0.4962962962962963],[0.026041666666666668,-0.4962962962962963],[0.026041666666666668,-0.4962962962962963],[0.026041666666666668,-0.4962962962962963],[0.026041666666666668,-0.4962962962962963],[0.026041666666666668,-0.4962962962962963],[0.026041666666666668,-0.4962962962962963],[0.026041666666666668,-0.4962962962962963],[0.026041666666666668,-0.4962962962962963],[0.026041666666666668,-0.4962962962962963],[0.026041666666666668,-0.4962962962962963],[0.026041666666666668,-0.4962962962962963],[0.026041666666666668,-0.4962962962962963],[0.026041666666666668,-0.4962962962962963],[0.026041666666666668,-0.4962962962962963],[0.026041666666666668,-0.4962962962962963],[0.026041666666666668,-0.4962962962962963],[0.026041666666666668,-0.4962962962962963],[0.026041666666666668,-0.4962962962962963],[0.026041666666666668,-0.4962962962962963],[0.026041666666666668,-0.4962962962962963],[0.026041666666666668,-0.4962962962962963],[0.026041666666666668,-0.4962962962962963],[0.026041666666666668,-0.4962962962962963],[0.026041666666666668,-0.4962962962962963],[0.026041666666666668,-0.4962962962962963],[0.026041666666666668,-0.4962962962962963],[0.026041666666666668,-0.4962962962962963],[0.026041666666666668,-0.4962962962962963],[0.026041666666666668,-0.4962962962962963],[0.026041666666666668,-0.4962962962962963],[0.026041666666666668,-0.4962962962962963],[0.026041666666666668,-0.4962962962962963],[0.026041666666666668,-0.4962962962962963],[0.026041666666666668,-0.4962962962962963],[0.026041666666666668,-0.4962962962962963],[0.026041666666666668,-0.4962962962962963],[0.026041666666666668,-0.4962962962962963],[0.026041666666666668,-0.4962962962962963],[0.026041666666666668,-0.4962962962962963],[0.026041666666666668,-0.4962962962962963],[0.026041666666666668,-0.4962962962962963],[0.026041666666666668,-0.4962962962962963],[0.026041666666666668,-0.4962962962962963],[0.026041666666666668,-0.4962962962962963],[0.026041666666666668,-0.4962962962962963],[0.026041666666666668,-0.4962962962962963],[0.026041666666666668,-0.4962962962962963],[0.026041666666666668,-0.4962962962962963],[0.026041666666666668,-0.4962962962962963],[0.026041666666666668,-0.4962962962962963],[0.026041666666666668,-0.4962962962962963],[0.026041666666666668,-0.4962962962962963],[0.026041666666666668,-0.4962962962962963],[0.026041666666666668,-0.4962962962962963],[0.026041666666666668,-0.4962962962962963],[0.026041666666666668,-0.4962962962962963],[0.026041666666666668,-0.4962962962962963],[0.026041666666666668,-0.4962962962962963],[0.026041666666666668,-0.4962962962962963],[0.026041666666666668,-0.4962962962962963],[0.026041666666666668,-0.4962962962962963],[0.026041666666666668,-0.4962962962962963],[0.026041666666666668,-0.4962962962962963],[0.026041666666666668,-0.4962962962962963],[0.026041666666666668,-0.4962962962962963],[0.026041666666666668,-0.4962962962962963],[0.026041666666666668,-0.4962962962962963],[0.026041666666666668,-0.4962962962962963],[0.026041666666666668,-0.4962962962962963],[0.026041666666666668,-0.4962962962962963],[0.026041666666666668,-0.4962962962962963],[0.026041666666666668,-0.4962962962962963],[0.026041666666666668,-0.4962962962962963],[0.026041666666666668,-0.4962962962962963],[0.026041666666666668,-0.4962962962962963],[0.026041666666666668,-0.4962962962962963],[0.026041666666666668,-0.4962962962962963],[0.026041666666666668,-0.4962962962962963],[0.026041666666666668,-0.4962962962962963],[0.026041666666666668,-0.4962962962962963],[0.026041666666666668,-0.4962962962962963],[0.026041666666666668,-0.4962962962962963],[0.026041666666666668,-0.4962962962962963],[0.026041666666666668,-0.4962962962962963],[0.026041666666666668,-0.4962962962962963],[0.026041666666666668,-0.4962962962962963],[0.026041666666666668,-0.4962962962962963],[0.026041666666666668,-0.4962962962962963],[0.026041666666666668,-0.4962962962962963],[0.026041666666666668,-0.4962962962962963],[0.026041666666666668,-0.4962962962962963],[0.026041666666666668,-0.4962962962962963],[0.026041666666666668,-0.4962962962962963],[0.026041666666666668,-0.4962962962962963],[0.026041666666666668,-0.4962962962962963],[0.026041666666666668,-0.4962962962962963],[0.026041666666666668,-0.4962962962962963],[0.026041666666666668,-0.4962962962962963],[0.026041666666666668,-0.4962962962962963],[0.026041666666666668,-0.4962962962962963],[0.026041666666666668,-0.4962962962962963],[0.026041666666666668,-0.4962962962962963],[0.026041666666666668,-0.4962962962962963],[0.026041666666666668,-0.4962962962962963],[0.026041666666666668,-0.4962962962962963],[0.026041666666666668,-0.4962962962962963],[0.026041666666666668,-0.4962962962962963],[0.026041666666666668,-0.4962962962962963],[0.026041666666666668,-0.4962962962962963],[0.026041666666666668,-0.4962962962962963],[0.026041666666666668,-0.4962962962962963],[0.026041666666666668,-0.4962962962962963],[0.026041666666666668,-0.4962962962962963],[0.026041666666666668,-0.4962962962962963],[0.026041666666666668,-0.4962962962962963],[0.026041666666666668,-0.4962962962962963],[0.026041666666666668,-0.4962962962962963],[0.026041666666666668,-0.4962962962962963],[0.026041666666666668,-0.4962962962962963],[0.026041666666666668,-0.4962962962962963],[0.026041666666666668,-0.4962962962962963],[0.026041666666666668,-0.4962962962962963],[0.026041666666666668,-0.4962962962962963],[0.026041666666666668,-0.4962962962962963],[0.026041666666666668,-0.4962962962962963],[0.026041666666666668,-0.4962962962962963],[0.026041666666666668,-0.4962962962962963],[0.026041666666666668,-0.4962962962962963],[0.026041666666666668,-0.4962962962962963],[0.026041666666666668,-0.4962962962962963],[0.026041666666666668,-0.4962962962962963],[0.026041666666666668,-0.4962962962962963],[0.026041666666666668,-0.4962962962962963],[0.026041666666666668,-0.4962962962962963],[0.026041666666666668,-0.4962962962962963],[0.026041666666666668,-0.4962962962962963],[0.026041666666666668,-0.4962962962962963],[0.026041666666666668,-0.4962962962962963],[0.026041666666666668,-0.4962962962962963],[0.026041666666666668,-0.4962962962962963],[0.026041666666666668,-0.4962962962962963],[0.026041666666666668,-0.4962962962962963],[0.026041666666666668,-0.4962962962962963],[0.026041666666666668,-0.4962962962962963],[0.026041666666666668,-0.4962962962962963],[0.026041666666666668,-0.4962962962962963],[0.026041666666666668,-0.4962962962962963],[0.026041666666666668,-0.4962962962962963],[0.026041666666666668,-0.4962962962962963],[0.026041666666666668,-0.4962962962962963],[0.026041666666666668,-0.4962962962962963],[0.026041666666666668,-0.4962962962962963],[0.026041666666666668,-0.4962962962962963],[0.026041666666666668,-0.4962962962962963],[0.026041666666666668,-0.4962962962962963],[0.026041666666666668,-0.4962962962962963],[0.026041666666666668,-0.4962962962962963],[0.026041666666666668,-0.4962962962962963],[0.026041666666666668,-0.4962962962962963],[0.026041666666666668,-0.4962962962962963],[0.026041666666666668,-0.4962962962962963],[0.026041666666666668,-0.4962962962962963],[0.026041666666666668,-0.4962962962962963],[0.026041666666666668,-0.4962962962962963],[0.026041666666666668,-0.4962962962962963],[0.026041666666666668,-0.4962962962962963],[0.026041666666666668,-0.4962962962962963],[0.026041666666666668,-0.4962962962962963],[0.026041666666666668,-0.4962962962962963],[0.026041666666666668,-0.4962962962962963],[0.026041666666666668,-0.4962962962962963],[0.026041666666666668,-0.4962962962962963],[0.026041666666666668,-0.4962962962962963],[0.026041666666666668,-0.4962962962962963],[0.026041666666666668,-0.4962962962962963],[0.026041666666666668,-0.4962962962962963],[0.026041666666666668,-0.4962962962962963],[0.026041666666666668,-0.4962962962962963],[0.026041666666666668,-0.4962962962962963],[0.026041666666666668,-0.4962962962962963],[0.026041666666666668,-0.4962962962962963],[0.026041666666666668,-0.4962962962962963],[0.026041666666666668,-0.4962962962962963],[0.026041666666666668,-0.4962962962962963],[0.026041666666666668,-0.4962962962962963],[0.026041666666666668,-0.4962962962962963],[0.026041666666666668,-0.4962962962962963],[0.026041666666666668,-0.4962962962962963],[0.026041666666666668,-0.4962962962962963],[0.026041666666666668,-0.4962962962962963],[0.026041666666666668,-0.4962962962962963],[0.026041666666666668,-0.4962962962962963],[0.026041666666666668,-0.4962962962962963],[0.026041666666666668,-0.4962962962962963],[0.026041666666666668,-0.4962962962962963],[0.026041666666666668,-0.4962962962962963],[0.026041666666666668,-0.4962962962962963],[0.026041666666666668,-0.4962962962962963],[0.026041666666666668,-0.4962962962962963],[0.026041666666666668,-0.4962962962962963],[0.026041666666666668,-0.4962962962962963],[0.026041666666666668,-0.4962962962962963],[0.026041666666666668,-0.4962962962962963],[0.026041666666666668,-0.4962962962962963],[0.026041666666666668,-0.4962962962962963],[0.026041666666666668,-0.4962962962962963],[0.026041666666666668,-0.4962962962962963],[0.026041666666666668,-0.4962962962962963],[0.026041666666666668,-0.4962962962962963],[0.026041666666666668,-0.4962962962962963],[0.026041666666666668,-0.4962962962962963],[0.026041666666666668,-0.4962962962962963],[0.026041666666666668,-0.4962962962962963],[0.026041666666666668,-0.4962962962962963],[0.026041666666666668,-0.4962962962962963],[0.026041666666666668,-0.4962962962962963],[0.026041666666666668,-0.4962962962962963],[0.026041666666666668,-0.4962962962962963],[0.026041666666666668,-0.4962962962962963],[0.026041666666666668,-0.4962962962962963],[0.026041666666666668,-0.4962962962962963],[0.026041666666666668,-0.4962962962962963],[0.026041666666666668,-0.4962962962962963],[0.026041666666666668,-0.4962962962962963],[0.026041666666666668,-0.4962962962962963],[0.026041666666666668,-0.4962962962962963],[0.026041666666666668,-0.4962962962962963],[0.026041666666666668,-0.4962962962962963],[0.026041666666666668,-0.4962962962962963],[0.026041666666666668,-0.4962962962962963],[0.026041666666666668,-0.4962962962962963],[0.026041666666666668,-0.4962962962962963],[0.026041666666666668,-0.4962962962962963],[0.026041666666666668,-0.4962962962962963],[0.026041666666666668,-0.4962962962962963],[0.026041666666666668,-0.4962962962962963],[0.026041666666666668,-0.4962962962962963],[0.026041666666666668,-0.4962962962962963],[0.026041666666666668,-0.4962962962962963],[0.026041666666666668,-0.4962962962962963],[0.026041666666666668,-0.4962962962962963],[0.026041666666666668,-0.4962962962962963],[0.026041666666666668,-0.4962962962962963],[0.026041666666666668,-0.4962962962962963],[0.026041666666666668,-0.4962962962962963],[0.026041666666666668,-0.4962962962962963],[0.026041666666666668,-0.4962962962962963],[0.026041666666666668,-0.4962962962962963],[0.026041666666666668,-0.4962962962962963],[0.026041666666666668,-0.4962962962962963],[0.026041666666666668,-0.4962962962962963],[0.026041666666666668,-0.4962962962962963],[0.026041666666666668,-0.4962962962962963],[0.026041666666666668,-0.4962962962962963],[0.026041666666666668,-0.4962962962962963],[0.026041666666666668,-0.4962962962962963],[0.026041666666666668,-0.4962962962962963],[0.026041666666666668,-0.4962962962962963],[0.026041666666666668,-0.4962962962962963],[0.026041666666666668,-0.4962962962962963],[0.026041666666666668,-0.4962962962962963],[0.026041666666666668,-0.4962962962962963],[0.026041666666666668,-0.4962962962962963],[0.026041666666666668,-0.4962962962962963],[0.026041666666666668,-0.4962962962962963],[0.026041666666666668,-0.4962962962962963],[0.026041666666666668,-0.4962962962962963],[0.026041666666666668,-0.4962962962962963],[0.026041666666666668,-0.4962962962962963],[0.026041666666666668,-0.4962962962962963],[0.026041666666666668,-0.4962962962962963],[0.026041666666666668,-0.4962962962962963],[0.026041666666666668,-0.4962962962962963],[0.026041666666666668,-0.4962962962962963],[0.026041666666666668,-0.4962962962962963],[0.026041666666666668,-0.4962962962962963],[0.026041666666666668,-0.4962962962962963],[0.026041666666666668,-0.4962962962962963],[0.026041666666666668,-0.4962962962962963],[0.026041666666666668,-0.4962962962962963],[0.026041666666666668,-0.4962962962962963],[0.026041666666666668,-0.4962962962962963],[0.026041666666666668,-0.4962962962962963],[0.026041666666666668,-0.4962962962962963],[0.026041666666666668,-0.4962962962962963],[0.026041666666666668,-0.4962962962962963],[0.026041666666666668,-0.4962962962962963],[0.026041666666666668,-0.4962962962962963],[0.026041666666666668,-0.4962962962962963],[0.026041666666666668,-0.4962962962962963],[0.026041666666666668,-0.4962962962962963],[0.026041666666666668,-0.4962962962962963],[0.026041666666666668,-0.4962962962962963],[0.026041666666666668,-0.4962962962962963],[0.026041666666666668,-0.4962962962962963],[0.026041666666666668,-0.4962962962962963],[0.026041666666666668,-0.4962962962962963],[0.026041666666666668,-0.4962962962962963],[0.026041666666666668,-0.4962962962962963],[0.026041666666666668,-0.4962962962962963],[0.026041666666666668,-0.4962962962962963],[0.026041666666666668,-0.4962962962962963],[0.026041666666666668,-0.4962962962962963],[0.026041666666666668,-0.4962962962962963],[0.026041666666666668,-0.4962962962962963],[0.026041666666666668,-0.4962962962962963],[0.026041666666666668,-0.4962962962962963],[0.026041666666666668,-0.4962962962962963],[0.026041666666666668,-0.4962962962962963],[0.026041666666666668,-0.4962962962962963],[0.026041666666666668,-0.4962962962962963],[0.026041666666666668,-0.4962962962962963],[0.026041666666666668,-0.4962962962962963],[0.026041666666666668,-0.4962962962962963],[0.026041666666666668,-0.4962962962962963],[0.026041666666666668,-0.4962962962962963],[0.026041666666666668,-0.4962962962962963],[0.026041666666666668,-0.4962962962962963],[0.026041666666666668,-0.4962962962962963],[0.026041666666666668,-0.4962962962962963],[0.026041666666666668,-0.4962962962962963],[0.026041666666666668,-0.4962962962962963],[0.026041666666666668,-0.4962962962962963],[0.026041666666666668,-0.49444444444444446],[0.025,-0.47962962962962963],[0.021875,-0.45740740740740743],[0.019791666666666666,-0.4222222222222222],[0.015625,-0.38333333333333336],[0.015625,-0.35185185185185186],[0.015625,-0.32222222222222224],[0.014583333333333334,-0.29814814814814816],[0.010416666666666666,-0.2611111111111111],[0.00625,-0.24259259259259258],[0.0020833333333333333,-0.21666666666666667],[-0.0010416666666666667,-0.18333333333333332],[-0.003125,-0.15925925925925927],[-0.003125,-0.13703703703703704],[-0.004166666666666667,-0.11666666666666667],[-0.00625,-0.1],[-0.009375,-0.07777777777777778],[-0.011458333333333333,-0.06296296296296296],[-0.014583333333333334,-0.044444444444444446],[-0.019791666666666666,-0.027777777777777776],[-0.023958333333333335,-0.011111111111111112],[-0.027083333333333334,0.005555555555555556],[-0.03229166666666667,0.025925925925925925],[-0.035416666666666666,0.046296296296296294],[-0.0375,0.06481481481481481],[-0.03958333333333333,0.07962962962962963],[-0.04375,0.09444444444444444],[-0.04375,0.10185185185185185],[-0.04583333333333333,0.1111111111111111],[-0.046875,0.11851851851851852],[-0.04791666666666667,0.12777777777777777],[-0.04895833333333333,0.13148148148148148],[-0.05,0.13518518518518519],[-0.05,0.13518518518518519],[-0.05,0.13703703703703704],[-0.051041666666666666,0.13703703703703704],[-0.051041666666666666,0.13703703703703704],[-0.051041666666666666,0.13703703703703704],[-0.051041666666666666,0.13703703703703704],[-0.051041666666666666,0.13703703703703704],[-0.051041666666666666,0.13703703703703704],[-0.051041666666666666,0.13703703703703704],[-0.051041666666666666,0.13703703703703704],[-0.051041666666666666,0.13703703703703704],[-0.051041666666666666,0.13703703703703704],[-0.051041666666666666,0.13703703703703704],[-0.051041666666666666,0.13703703703703704],[-0.051041666666666666,0.13703703703703704],[-0.051041666666666666,0.13703703703703704],[-0.051041666666666666,0.13703703703703704],[-0.051041666666666666,0.13703703703703704],[-0.052083333333333336,0.1388888888888889],[-0.053125,0.1388888888888889],[-0.053125,0.1388888888888889],[-0.053125,0.1388888888888889],[-0.053125,0.1388888888888889],[-0.053125,0.1388888888888889],[-0.053125,0.1388888888888889],[-0.053125,0.1388888888888889],[-0.053125,0.1388888888888889],[-0.053125,0.1388888888888889],[-0.053125,0.1388888888888889],[-0.053125,0.1388888888888889],[-0.053125,0.1388888888888889],[-0.053125,0.1388888888888889],[-0.053125,0.1388888888888889],[-0.053125,0.1388888888888889],[-0.053125,0.1388888888888889],[-0.053125,0.1388888888888889],[-0.053125,0.1388888888888889],[-0.053125,0.1388888888888889],[-0.053125,0.1388888888888889],[-0.053125,0.1388888888888889],[-0.053125,0.1388888888888889],[-0.053125,0.1388888888888889],[-0.053125,0.1388888888888889],[-0.053125,0.1388888888888889],[-0.053125,0.1388888888888889],[-0.053125,0.1388888888888889],[-0.053125,0.1388888888888889],[-0.053125,0.1388888888888889],[-0.053125,0.1388888888888889],[-0.053125,0.1388888888888889],[-0.053125,0.1388888888888889],[-0.053125,0.1388888888888889],[-0.053125,0.1388888888888889],[-0.053125,0.1388888888888889],[-0.053125,0.1388888888888889],[-0.053125,0.1388888888888889],[-0.053125,0.1388888888888889],[-0.053125,0.1388888888888889],[-0.053125,0.1388888888888889],[-0.053125,0.1388888888888889],[-0.053125,0.1388888888888889],[-0.053125,0.1388888888888889],[-0.053125,0.1388888888888889],[-0.053125,0.1388888888888889],[-0.053125,0.1388888888888889],[-0.053125,0.1388888888888889],[-0.053125,0.1388888888888889],[-0.053125,0.1388888888888889],[-0.053125,0.1388888888888889],[-0.053125,0.1388888888888889],[-0.053125,0.1388888888888889],[-0.053125,0.1388888888888889],[-0.053125,0.1388888888888889],[-0.053125,0.1388888888888889],[-0.053125,0.1388888888888889],[-0.053125,0.1388888888888889],[-0.053125,0.1388888888888889],[-0.053125,0.1388888888888889],[-0.053125,0.1388888888888889],[-0.053125,0.1388888888888889],[-0.053125,0.1388888888888889],[-0.053125,0.1388888888888889],[-0.053125,0.1388888888888889],[-0.053125,0.1388888888888889],[-0.053125,0.1388888888888889],[-0.053125,0.1388888888888889],[-0.05416666666666667,0.14074074074074075],[-0.05416666666666667,0.15185185185185185],[-0.05416666666666667,0.16111111111111112],[-0.05416666666666667,0.1648148148148148],[-0.05416666666666667,0.1685185185185185],[-0.05416666666666667,0.17407407407407408],[-0.05416666666666667,0.17407407407407408],[-0.05520833333333333,0.17592592592592593],[-0.05520833333333333,0.17592592592592593],[-0.05520833333333333,0.17592592592592593],[-0.05520833333333333,0.17592592592592593],[-0.05520833333333333,0.17592592592592593],[-0.05520833333333333,0.17592592592592593],[-0.05520833333333333,0.17592592592592593],[-0.05520833333333333,0.17592592592592593],[-0.05520833333333333,0.17592592592592593],[-0.05520833333333333,0.17592592592592593],[-0.05520833333333333,0.17592592592592593],[-0.05520833333333333,0.17592592592592593],[-0.05520833333333333,0.17592592592592593],[-0.05520833333333333,0.17592592592592593],[-0.05520833333333333,0.17592592592592593],[-0.05520833333333333,0.17592592592592593],[-0.05520833333333333,0.17592592592592593],[-0.05520833333333333,0.17592592592592593],[-0.05520833333333333,0.17592592592592593],[-0.05520833333333333,0.17592592592592593],[-0.05520833333333333,0.17592592592592593],[-0.05520833333333333,0.17592592592592593],[-0.05520833333333333,0.17592592592592593],[-0.05520833333333333,0.17592592592592593],[-0.05520833333333333,0.17592592592592593],[-0.05520833333333333,0.17592592592592593],[-0.05520833333333333,0.17592592592592593],[-0.05520833333333333,0.17592592592592593],[-0.05520833333333333,0.17592592592592593],[-0.05520833333333333,0.17592592592592593],[-0.05520833333333333,0.17592592592592593],[-0.05520833333333333,0.17592592592592593],[-0.05520833333333333,0.17592592592592593],[-0.05520833333333333,0.17592592592592593],[-0.05520833333333333,0.17592592592592593],[-0.05520833333333333,0.17407407407407408],[-0.05520833333333333,0.16666666666666666],[-0.05520833333333333,0.15925925925925927],[-0.05520833333333333,0.1537037037037037],[-0.05520833333333333,0.14629629629629629],[-0.05520833333333333,0.1388888888888889],[-0.05520833333333333,0.13703703703703704],[-0.05520833333333333,0.13518518518518519],[-0.05520833333333333,0.13518518518518519],[-0.05520833333333333,0.13518518518518519],[-0.05520833333333333,0.13518518518518519],[-0.05520833333333333,0.13518518518518519],[-0.05520833333333333,0.13518518518518519],[-0.05520833333333333,0.13518518518518519],[-0.05520833333333333,0.13518518518518519],[-0.05520833333333333,0.13518518518518519],[-0.05520833333333333,0.13518518518518519],[-0.05520833333333333,0.13333333333333333],[-0.05520833333333333,0.12037037037037036],[-0.06041666666666667,0.10740740740740741],[-0.06458333333333334,0.09444444444444444],[-0.065625,0.08518518518518518],[-0.06666666666666667,0.07962962962962963],[-0.06875,0.07407407407407407],[-0.06979166666666667,0.07037037037037037],[-0.06979166666666667,0.06666666666666667],[-0.06979166666666667,0.06111111111111111],[-0.06979166666666667,0.05925925925925926],[-0.06979166666666667,0.05925925925925926],[-0.06979166666666667,0.05925925925925926],[-0.06979166666666667,0.05925925925925926],[-0.06979166666666667,0.05925925925925926],[-0.06979166666666667,0.05925925925925926],[-0.06979166666666667,0.05925925925925926]]","[[-0.022187499999999954,0.07444444444444454],[-0.022187499999999954,0.07444444444444454],[-0.014479166666666644,0.062037037037037036],[-0.014479166666666644,0.062037037037037036],[-0.022083333333333382,0.03425925925925926],[-0.022083333333333382,0.03425925925925926],[-0.0021875000000000236,0.016851851851851896],[0.006979166666666714,0.0005555555555554713],[0.006979166666666714,0.0005555555555554713],[0.010416666666666666,-0.03185185185185194],[0.016354166666666715,-0.06833333333333329],[-0.005520833333333286,-0.12000000000000002],[-0.027395833333333286,-0.17166666666666663],[-0.06385416666666661,-0.2235185185185185],[-0.09458333333333328,-0.27611111111111114],[-0.11739583333333338,-0.3188888888888889],[-0.12635416666666663,-0.3277777777777778],[-0.14562499999999995,-0.3374074074074074],[-0.1484375,-0.34592592592592597],[-0.1375,-0.3287037037037037],[-0.1375,-0.3287037037037037],[-0.1265625,-0.31148148148148147],[-0.1265625,-0.31148148148148147],[-0.08802083333333334,-0.29314814814814816],[-0.08802083333333334,-0.29314814814814816],[-0.04489583333333336,-0.2566666666666667],[-0.04489583333333336,-0.2566666666666667],[0.007083333333333286,-0.21296296296296297],[0.03864583333333336,-0.17462962962962966],[0.03864583333333336,-0.17462962962962966],[0.06020833333333329,-0.15],[0.06020833333333329,-0.15],[0.08718750000000004,-0.14981481481481476],[0.10885416666666667,-0.15314814814814812],[0.12291666666666666,-0.14962962962962964],[0.12291666666666666,-0.14962962962962964],[0.13156249999999994,-0.14685185185185187],[0.14020833333333324,-0.1440740740740741],[0.1368750000000001,-0.14166666666666666],[0.13385416666666666,-0.14333333333333328],[0.12135416666666667,-0.15629629629629627],[0.1212500000000001,-0.15129629629629626],[0.13114583333333343,-0.13259259259259262],[0.1040625000000001,-0.04537037037037037],[0.09072916666666657,0.027222222222222307],[0.11583333333333339,0.16314814814814818],[0.13708333333333325,0.29518518518518516],[0.19760416666666672,0.43148148148148147],[0.2730208333333332,0.5611111111111111],[0.32479166666666665,0.6890740740740741],[0.3819791666666667,0.8196296296296297],[0.42374999999999996,0.9333333333333333],[0.46552083333333344,1.0470370370370372],[0.5152083333333333,1.102037037037037],[0.5152083333333333,1.102037037037037],[0.5469791666666666,1.1614814814814816],[0.5235416666666666,1.1192592592592594],[0.5235416666666666,1.1192592592592594],[0.4847916666666668,1.0540740740740742],[0.4847916666666668,1.0540740740740742],[0.42218749999999994,0.988148148148148],[0.35604166666666665,0.9416666666666667],[0.28708333333333325,0.8842592592592593],[0.2133333333333333,0.8283333333333333],[0.16666666666666666,0.7679629629629631],[0.12000000000000005,0.7075925925925927],[0.08645833333333333,0.6477777777777777],[0.06729166666666657,0.5814814814814815],[0.06489583333333329,0.5535185185185185],[0.0796875,0.5324074074074074],[0.07906250000000009,0.5077777777777779],[0.07760416666666667,0.4783333333333332],[0.09770833333333329,0.4474074074074075],[0.09968750000000005,0.40629629629629627],[0.09229166666666658,0.37462962962962953],[0.09302083333333329,0.3374074074074075],[0.09479166666666666,0.3007407407407407],[0.10229166666666671,0.25277777777777777],[0.10229166666666671,0.25277777777777777],[0.10499999999999995,0.20777777777777787],[0.1078125,0.17296296296296293],[0.10958333333333338,0.13555555555555565],[0.10958333333333338,0.13555555555555565],[0.1134375000000001,0.10407407407407415],[0.1134375000000001,0.10407407407407415],[0.11760416666666676,0.05907407407407403],[0.1099999999999999,0.04351851851851852],[0.10239583333333328,0.027962962962963005],[0.08875000000000005,0.0198148148148149],[0.07885416666666671,0.012407407407407492],[0.051250000000000046,0.021296296296296296],[0.027083333333333334,0.018518518518518517],[0.0021875000000000236,0.016666666666666666],[-0.007395833333333357,0.03462962962962971],[-0.01906249999999995,0.026851851851851852],[-0.027395833333333286,0.034444444444444486],[0.003541666666666643,0.01777777777777782],[0.01864583333333331,0.00722222222222218],[0.03166666666666664,-0.005185185185185101],[0.03843749999999998,-0.012777777777777735],[0.05281250000000005,-0.028703703703703703],[0.07781250000000005,-0.027962962962963005],[0.07781250000000005,-0.027962962962963005],[0.10281250000000004,-0.027222222222222307],[0.11416666666666657,-0.0418518518518519],[0.12635416666666663,-0.034999999999999955],[0.13489583333333333,-0.030000000000000086],[0.13697916666666668,-0.03296296296296288],[0.13697916666666668,-0.03296296296296288],[0.1443749999999999,-0.042407407407407366],[0.1443749999999999,-0.042407407407407366],[0.16416666666666657,-0.0477777777777777],[0.16416666666666657,-0.0477777777777777],[0.17354166666666657,-0.05722222222222218],[0.17354166666666657,-0.05722222222222218],[0.18312499999999995,-0.051111111111111156],[0.18312499999999995,-0.051111111111111156],[0.18135416666666657,-0.06166666666666669],[0.18135416666666657,-0.06166666666666669],[0.18552083333333325,-0.07685185185185185],[0.18552083333333325,-0.07685185185185185],[0.18041666666666673,-0.08962962962962959],[0.18041666666666673,-0.08962962962962959],[0.17312500000000006,-0.10111111111111115],[0.17312500000000006,-0.10111111111111115],[0.1671875,-0.11462962962962958],[0.1671875,-0.11462962962962958],[0.15739583333333323,-0.11092592592592589],[0.15739583333333323,-0.11092592592592589],[0.16062500000000005,-0.10203703703703708],[0.16062500000000005,-0.10203703703703708],[0.14447916666666671,-0.10333333333333336],[0.14447916666666671,-0.10333333333333336],[0.1412499999999999,-0.10611111111111113],[0.1412499999999999,-0.10611111111111113],[0.1352083333333333,-0.12074074074074072],[0.1352083333333333,-0.12074074074074072],[0.13812499999999991,-0.11351851851851855],[0.13812499999999991,-0.11351851851851855],[0.13895833333333343,-0.10314814814814813],[0.13895833333333343,-0.10314814814814813],[0.14031250000000003,-0.09222222222222225],[0.14031250000000003,-0.09222222222222225],[0.1423958333333334,-0.07740740740740742],[0.1423958333333334,-0.07740740740740742],[0.14208333333333342,-0.06111111111111111],[0.14208333333333342,-0.06111111111111111],[0.14385416666666656,-0.049074074074074076],[0.14385416666666656,-0.049074074074074076],[0.14458333333333329,0.03796296296296296],[0.14458333333333329,0.03796296296296296],[0.19802083333333323,0.1977777777777777],[0.19802083333333323,0.1977777777777777],[0.26062500000000005,0.3764814814814814],[0.26062500000000005,0.3764814814814814],[0.31124999999999997,0.5318518518518519],[0.31124999999999997,0.5318518518518519],[0.35489583333333335,0.6614814814814816],[0.35489583333333335,0.6614814814814816],[0.35489583333333335,0.6614814814814816],[0.3757291666666667,0.7761111111111112],[0.3757291666666667,0.7761111111111112],[0.3836458333333333,0.8703703703703703],[0.3836458333333333,0.8703703703703703],[0.38385416666666666,0.9466666666666668],[0.38385416666666666,0.9466666666666668],[0.3828125,1.0081481481481482],[0.3828125,1.0081481481481482],[0.3642708333333334,1.0596296296296297],[0.3642708333333334,1.0596296296296297],[0.35281250000000003,1.0279629629629627],[0.35281250000000003,1.0279629629629627],[0.2926041666666668,0.926111111111111],[0.2926041666666668,0.926111111111111],[0.22260416666666671,0.7874074074074074],[0.22260416666666671,0.7874074074074074],[0.15364583333333334,0.6998148148148148],[0.15364583333333334,0.6998148148148148],[0.09197916666666663,0.6085185185185186],[0.09197916666666663,0.6085185185185186],[0.049270833333333285,0.5337037037037038],[0.049270833333333285,0.5337037037037038],[0.03208333333333328,0.4583333333333333],[0.03208333333333328,0.4583333333333333],[0.023958333333333335,0.39537037037037037],[0.023958333333333335,0.39537037037037037],[0.01427083333333338,0.35555555555555557],[0.01427083333333338,0.35555555555555557],[-0.0014583333333333095,0.3122222222222223],[-0.0014583333333333095,0.3122222222222223],[-0.026145833333333358,0.2874074074074075],[-0.026145833333333358,0.2874074074074075],[-0.03958333333333333,0.26074074074074066],[-0.03958333333333333,0.26074074074074066],[-0.057604166666666616,0.24888888888888885],[-0.057604166666666616,0.24888888888888885],[-0.05333333333333338,0.21074074074074065],[-0.05333333333333338,0.21074074074074065],[-0.04854166666666669,0.20833333333333334],[-0.04854166666666669,0.20833333333333334],[-0.04822916666666662,0.2205555555555556],[-0.04822916666666662,0.2205555555555556],[-0.053125,0.23129629629629625],[-0.053125,0.23129629629629625],[-0.05791666666666669,0.2455555555555556],[-0.05791666666666669,0.2455555555555556],[-0.04614583333333329,0.25462962962962965],[-0.04614583333333329,0.25462962962962965],[-0.021145833333333287,0.2616666666666666],[-0.021145833333333287,0.2616666666666666],[0.001145833333333357,0.26740740740740737],[0.001145833333333357,0.26740740740740737],[0.025416666666666643,0.2662962962962962],[0.025416666666666643,0.2662962962962962],[0.04041666666666662,0.2755555555555555],[0.04041666666666662,0.2755555555555555],[0.04364583333333331,0.2803703703703703],[0.04364583333333331,0.2803703703703703],[0.04833333333333331,0.26962962962962966],[0.04833333333333331,0.26962962962962966],[0.051979166666666646,0.2368518518518518],[0.051979166666666646,0.2368518518518518],[0.03770833333333338,0.23944444444444435],[0.03770833333333338,0.23944444444444435],[0.030624999999999975,0.2390740740740741],[0.030624999999999975,0.2390740740740741],[0.017708333333333333,0.24259259259259258],[0.017708333333333333,0.24259259259259258],[0.004270833333333357,0.25388888888888894],[0.004270833333333357,0.25388888888888894],[0.008749999999999977,0.24296296296296305],[0.008749999999999977,0.24296296296296305],[0.012812499999999952,0.22740740740740734],[0.012812499999999952,0.22740740740740734],[0.029062499999999977,0.21888888888888897],[0.029062499999999977,0.21888888888888897],[0.03916666666666669,0.19962962962962955],[0.03916666666666669,0.19962962962962955],[0.041979166666666616,0.20981481481481473],[0.041979166666666616,0.20981481481481473],[0.0775000000000001,0.2824074074074074],[0.0775000000000001,0.2824074074074074],[0.1412499999999999,0.3798148148148149],[0.1412499999999999,0.3798148148148149],[0.20562500000000009,0.4964814814814815],[0.20562500000000009,0.4964814814814815],[0.25364583333333335,0.5837037037037038],[0.25364583333333335,0.5837037037037038],[0.2994791666666667,0.668888888888889],[0.2994791666666667,0.668888888888889],[0.3185416666666666,0.7577777777777779],[0.3185416666666666,0.7577777777777779],[0.3423958333333334,0.8661111111111112],[0.3423958333333334,0.8661111111111112],[0.3380208333333333,0.9114814814814816],[0.3380208333333333,0.9114814814814816],[0.33468749999999997,0.9792592592592592],[0.33468749999999997,0.9792592592592592],[0.34343750000000006,0.9975925925925927],[0.34343750000000006,0.9975925925925927],[0.3441666666666668,0.9733333333333332],[0.3441666666666668,0.9733333333333332],[0.3321875000000001,0.9038888888888887],[0.3321875000000001,0.9038888888888887],[0.31145833333333334,0.8162962962962962],[0.31145833333333334,0.8162962962962962],[0.26677083333333323,0.725925925925926],[0.26677083333333323,0.725925925925926],[0.24364583333333342,0.6520370370370371],[0.24364583333333342,0.6520370370370371],[0.22989583333333338,0.5835185185185185],[0.22989583333333338,0.5835185185185185],[0.22989583333333338,0.5835185185185185],[0.2257291666666667,0.5201851851851852],[0.2257291666666667,0.5201851851851852],[0.23083333333333325,0.4875925925925925],[0.23083333333333325,0.4875925925925925],[0.25010416666666657,0.4677777777777778],[0.25010416666666657,0.4677777777777778],[0.25114583333333323,0.4329629629629629],[0.25114583333333323,0.4329629629629629],[0.2443749999999999,0.4324074074074074],[0.23020833333333332,0.3931481481481481],[0.2169791666666666,0.3557407407407408],[0.23479166666666676,0.34740740740740744],[0.24291666666666673,0.33240740740740743],[0.23947916666666677,0.3199999999999999],[0.23947916666666677,0.3199999999999999],[0.2118750000000001,0.29981481481481476],[0.209375,0.2975925925925927],[0.19479166666666667,0.2803703703703703],[0.18447916666666658,0.2942592592592592],[0.12625000000000006,0.25037037037037047],[0.12625000000000006,0.25037037037037047],[0.07854166666666676,0.24777777777777768],[0.050416666666666644,0.24074074074074073],[0.02520833333333338,0.23185185185185195],[-0.0013541666666666192,0.2081481481481481],[-0.012395833333333309,0.19592592592592584],[-0.024791666666666618,0.17814814814814822],[-0.03822916666666672,0.175],[-0.05291666666666662,0.1479629629629629],[-0.05291666666666662,0.1479629629629629],[-0.0640625,0.152962962962963],[-0.036354166666666646,0.1455555555555556],[-0.008645833333333287,0.1381481481481482],[-0.009062500000000048,0.1527777777777778],[-0.010000000000000024,0.16592592592592598],[0.003854166666666714,0.2022222222222223],[0.001979166666666643,0.21185185185185182],[0.005104166666666643,0.21870370370370373],[0.005416666666666714,0.21092592592592588],[0.005416666666666714,0.21092592592592588],[0.0140625,0.227962962962963],[0.019270833333333334,0.22296296296296292],[0.019270833333333334,0.22296296296296292],[0.01864583333333331,0.24685185185185177],[0.02364583333333338,0.26648148148148143],[0.03854166666666667,0.2705555555555556],[0.05343749999999995,0.27462962962962956],[0.06208333333333336,0.27092592592592585],[0.08510416666666672,0.27907407407407414],[0.10447916666666662,0.29555555555555557],[0.11447916666666676,0.325],[0.11583333333333339,0.3516666666666666],[0.11583333333333339,0.3516666666666666],[0.10583333333333324,0.3485185185185186],[0.10583333333333324,0.3485185185185186],[0.115625,0.34814814814814815],[0.12697916666666675,0.3453703703703704],[0.15489583333333337,0.3405555555555555],[0.18489583333333334,0.3411111111111112],[0.19395833333333337,0.3177777777777778],[0.19395833333333337,0.3177777777777778],[0.20302083333333343,0.29444444444444445],[0.21124999999999997,0.2766666666666666],[0.21989583333333323,0.2412962962962962],[0.21989583333333323,0.2412962962962962],[0.22854166666666675,0.205925925925926],[0.24291666666666673,0.1868518518518518],[0.24885416666666677,0.16999999999999993],[0.2476041666666667,0.15981481481481474],[0.23302083333333337,0.15259259259259256],[0.21427083333333338,0.147037037037037],[0.2146874999999999,0.19814814814814816],[0.22083333333333333,0.2553703703703703],[0.22781250000000006,0.30703703703703694],[0.22781250000000006,0.30703703703703694],[0.25770833333333343,0.4233333333333334],[0.32020833333333343,0.5548148148148149],[0.37260416666666674,0.6861111111111111],[0.4171875,0.807037037037037],[0.46124999999999994,0.9318518518518519],[0.4901041666666667,1.0424074074074077],[0.5254166666666668,1.1185185185185185],[0.534375,1.1755555555555555],[0.5313541666666666,1.242037037037037],[0.5366666666666667,1.3020370370370369],[0.5236458333333334,1.2594444444444444],[0.47802083333333345,1.2016666666666669],[0.4540625000000001,1.1444444444444444],[0.4254166666666668,1.0842592592592593],[0.4254166666666668,1.0842592592592593],[0.3923958333333334,1.0074074074074073],[0.359375,0.9407407407407408],[0.3219791666666666,0.9014814814814814],[0.30343749999999997,0.8492592592592593],[0.2911458333333333,0.7814814814814814],[0.26541666666666663,0.7161111111111111],[0.25052083333333336,0.6857407407407407],[0.2390625,0.6616666666666666],[0.24635416666666668,0.6553703703703704],[0.25010416666666657,0.6459259259259258],[0.2765625,0.6455555555555555],[0.31364583333333323,0.6462962962962963],[0.31260416666666657,0.6312962962962962],[0.3385416666666667,0.6274074074074073],[0.36447916666666674,0.6235185185185186],[0.38729166666666665,0.6196296296296296],[0.4036458333333333,0.6233333333333334],[0.42208333333333337,0.6164814814814814],[0.41354166666666664,0.5953703703703703],[0.41072916666666665,0.5587037037037038],[0.39645833333333325,0.5312962962962963],[0.3711458333333333,0.49129629629629623],[0.38395833333333323,0.46703703703703714],[0.36770833333333336,0.4337037037037038],[0.35145833333333343,0.40037037037037043],[0.34489583333333323,0.3424074074074074],[0.34489583333333323,0.3424074074074074],[0.34489583333333323,0.3424074074074074],[0.33833333333333326,0.2844444444444445],[0.33833333333333326,0.2844444444444445],[0.3310416666666666,0.23555555555555563],[0.3310416666666666,0.23555555555555563],[0.3178124999999999,0.18796296296296297],[0.3178124999999999,0.18796296296296297],[0.3178124999999999,0.18796296296296297],[0.30364583333333334,0.1646296296296296],[0.30364583333333334,0.1646296296296296],[0.2764583333333334,0.14203703703703713],[0.2764583333333334,0.14203703703703713],[0.2777083333333332,0.1235185185185186],[0.2777083333333332,0.1235185185185186],[0.26666666666666666,0.09166666666666666],[0.26666666666666666,0.09166666666666666],[0.26666666666666666,0.09166666666666666],[0.26843750000000005,0.09166666666666666],[0.26843750000000005,0.09166666666666666],[0.27458333333333323,0.07925925925925917],[0.27458333333333323,0.07925925925925917],[0.26666666666666666,0.10759259259259263],[0.26666666666666666,0.10759259259259263],[0.26666666666666666,0.10759259259259263],[0.265625,0.16129629629629633],[0.265625,0.16129629629629633],[0.31218750000000006,0.32444444444444454],[0.31218750000000006,0.32444444444444454],[0.35875000000000007,0.4722222222222222],[0.35875000000000007,0.4722222222222222],[0.39739583333333334,0.6048148148148148],[0.39739583333333334,0.6048148148148148],[0.43291666666666656,0.7292592592592592],[0.43291666666666656,0.7292592592592592],[0.44416666666666677,0.8320370370370369],[0.44416666666666677,0.8320370370370369],[0.46687500000000004,0.9420370370370371],[0.46687500000000004,0.9420370370370371],[0.4743750000000001,0.9807407407407406],[0.4743750000000001,0.9807407407407406],[0.46906249999999994,1.0364814814814816],[0.46906249999999994,1.0364814814814816],[0.48718750000000005,1.080925925925926],[0.48718750000000005,1.080925925925926],[0.4869791666666667,1.0888888888888888],[0.4869791666666667,1.0888888888888888],[0.4358333333333334,0.980925925925926],[0.4358333333333334,0.980925925925926],[0.39052083333333343,0.8822222222222221],[0.39052083333333343,0.8822222222222221],[0.3619791666666667,0.7957407407407409],[0.3619791666666667,0.7957407407407409],[0.34322916666666664,0.7111111111111111],[0.34322916666666664,0.7111111111111111],[0.33562500000000006,0.6457407407407408],[0.33562500000000006,0.6457407407407408],[0.3164583333333333,0.5881481481481482],[0.3164583333333333,0.5881481481481482],[0.3168750000000001,0.5746296296296295],[0.3168750000000001,0.5746296296296295],[0.3219791666666666,0.5488888888888889],[0.3219791666666666,0.5488888888888889],[0.31145833333333334,0.5212962962962963],[0.31145833333333334,0.5212962962962963],[0.2951041666666666,0.5057407407407408],[0.2951041666666666,0.5057407407407408],[0.2919791666666666,0.4729629629629629],[0.2919791666666666,0.4729629629629629],[0.2796875,0.45388888888888895],[0.2796875,0.45388888888888895],[0.2703125,0.4427777777777778],[0.2703125,0.4427777777777778],[0.2698958333333332,0.4361111111111111],[0.2698958333333332,0.4361111111111111],[0.2642708333333334,0.4383333333333334],[0.2642708333333334,0.4383333333333334],[0.27104166666666674,0.4388888888888889],[0.27104166666666674,0.4388888888888889],[0.2625,0.4294444444444444],[0.2625,0.4294444444444444],[0.2543750000000001,0.425],[0.2543750000000001,0.425],[0.24552083333333338,0.4020370370370371],[0.24552083333333338,0.4020370370370371],[0.24260416666666676,0.3772222222222223],[0.24260416666666676,0.3772222222222223],[0.21708333333333343,0.35907407407407405],[0.21708333333333343,0.35907407407407405],[0.20562500000000009,0.3405555555555555],[0.20562500000000009,0.3405555555555555],[0.19729166666666675,0.305925925925926],[0.19729166666666675,0.305925925925926],[0.19729166666666675,0.305925925925926],[0.17864583333333334,0.2609259259259259],[0.17864583333333334,0.2609259259259259],[0.15270833333333325,0.2153703703703703],[0.15270833333333325,0.2153703703703703],[0.13666666666666671,0.22851851851851848],[0.13666666666666671,0.22851851851851848],[0.1642708333333334,0.33537037037037043],[0.1642708333333334,0.33537037037037043],[0.20437500000000006,0.44518518518518513],[0.20437500000000006,0.44518518518518513],[0.23604166666666657,0.5792592592592591],[0.23604166666666657,0.5792592592592591],[0.2693749999999999,0.7040740740740742],[0.2693749999999999,0.7040740740740742],[0.3067708333333333,0.7864814814814816],[0.3067708333333333,0.7864814814814816],[0.33479166666666677,0.8431481481481481],[0.33479166666666677,0.8431481481481481],[0.3289583333333333,0.8929629629629631],[0.3289583333333333,0.8929629629629631],[0.3419791666666666,0.9372222222222221],[0.3419791666666666,0.9372222222222221],[0.35052083333333334,0.9866666666666666],[0.35052083333333334,0.9866666666666666],[0.35104166666666664,0.9557407407407406],[0.35104166666666664,0.9557407407407406],[0.3107291666666666,0.8383333333333334],[0.3107291666666666,0.8383333333333334],[0.27406249999999993,0.7135185185185184],[0.27406249999999993,0.7135185185185184],[0.2553124999999999,0.5968518518518517],[0.2553124999999999,0.5968518518518517],[0.23395833333333324,0.48703703703703705],[0.23395833333333324,0.48703703703703705],[0.21760416666666677,0.4251851851851852],[0.21760416666666677,0.4251851851851852],[0.21427083333333338,0.3774074074074073],[0.21427083333333338,0.3774074074074073],[0.2306250000000001,0.3516666666666666],[0.2306250000000001,0.3516666666666666],[0.2273958333333333,0.32944444444444443],[0.2273958333333333,0.32944444444444443],[0.23697916666666666,0.3116666666666666],[0.23697916666666666,0.3116666666666666],[0.24500000000000005,0.3161111111111112],[0.24500000000000005,0.3161111111111112],[0.24854166666666658,0.3116666666666666],[0.24854166666666658,0.3116666666666666],[0.2419791666666666,0.3151851851851853],[0.2419791666666666,0.3151851851851853],[0.2179166666666667,0.3085185185185186],[0.2179166666666667,0.3085185185185186],[0.2115624999999999,0.29907407407407405],[0.2115624999999999,0.29907407407407405],[0.2040625000000001,0.2962962962962963],[0.2040625000000001,0.2962962962962963],[0.1877083333333334,0.29518518518518516],[0.1877083333333334,0.29518518518518516],[0.18614583333333337,0.2890740740740741],[0.18614583333333337,0.2890740740740741],[0.1859375,0.2609259259259259],[0.1859375,0.2609259259259259],[0.1794791666666666,0.23777777777777773],[0.1794791666666666,0.23777777777777773],[0.18197916666666672,0.1911111111111112],[0.18197916666666672,0.1911111111111112],[0.184375,0.16796296296296304],[0.184375,0.16796296296296304],[0.1724999999999999,0.11574074074074074],[0.1724999999999999,0.11574074074074074],[0.1724999999999999,0.11574074074074074],[0.17479166666666662,0.058333333333333334],[0.17479166666666662,0.058333333333333334],[0.17260416666666673,0.01629629629629621],[0.17260416666666673,0.01629629629629621],[0.1720833333333334,-0.02388888888888885],[0.1720833333333334,-0.02388888888888885],[0.17416666666666672,-0.05592592592592591],[0.17416666666666672,-0.05592592592592591],[0.15854166666666672,-0.09703703703703699],[0.15854166666666672,-0.09703703703703699],[0.1553124999999999,-0.10648148148148148],[0.1553124999999999,-0.10648148148148148],[0.14572916666666677,-0.12537037037037035],[0.14572916666666677,-0.12537037037037035],[0.12937500000000005,-0.12407407407407407],[0.12937500000000005,-0.12407407407407407],[0.12770833333333323,-0.1527777777777778],[0.12770833333333323,-0.1527777777777778],[0.1415625000000001,-0.1331481481481481],[0.1415625000000001,-0.1331481481481481],[0.15104166666666666,-0.11425925925925924],[0.15104166666666666,-0.11425925925925924],[0.1638541666666666,-0.09462962962962967],[0.1638541666666666,-0.09462962962962967],[0.1756249999999999,-0.08814814814814818],[0.1756249999999999,-0.08814814814814818],[0.16416666666666657,-0.09685185185185187],[0.16416666666666657,-0.09685185185185187],[0.15010416666666657,-0.09240740740740737],[0.15010416666666657,-0.09240740740740737],[0.1375,-0.07555555555555557],[0.1375,-0.07555555555555557],[0.1415625000000001,-0.06722222222222224],[0.1415625000000001,-0.06722222222222224],[0.1421875,-0.05351851851851848],[0.1421875,-0.05351851851851848],[0.15114583333333323,0.03555555555555564],[0.15114583333333323,0.03555555555555564],[0.18291666666666656,0.1772222222222223],[0.18291666666666656,0.1772222222222223],[0.22864583333333333,0.3522222222222223],[0.22864583333333333,0.3522222222222223],[0.26614583333333336,0.5016666666666666],[0.26614583333333336,0.5016666666666666],[0.29677083333333343,0.6314814814814815],[0.29677083333333343,0.6314814814814815],[0.35031249999999997,0.7731481481481481],[0.35031249999999997,0.7731481481481481],[0.40302083333333344,0.8766666666666666],[0.40302083333333344,0.8766666666666666],[0.40354166666666674,0.9314814814814815],[0.40354166666666674,0.9314814814814815],[0.41468749999999993,1.0153703703703703],[0.41468749999999993,1.0153703703703703],[0.4196875000000001,1.0633333333333335],[0.4196875000000001,1.0633333333333335],[0.40812499999999996,1.0509259259259258],[0.40812499999999996,1.0509259259259258],[0.3554166666666667,0.9259259259259259],[0.3554166666666667,0.9259259259259259],[0.2928124999999999,0.7925925925925926],[0.2928124999999999,0.7925925925925926],[0.2381249999999999,0.6599999999999999],[0.2381249999999999,0.6599999999999999],[0.19375,0.5390740740740741],[0.19375,0.5390740740740741],[0.1553124999999999,0.40555555555555556],[0.1553124999999999,0.40555555555555556],[0.12895833333333329,0.32092592592592584],[0.12895833333333329,0.32092592592592584],[0.13447916666666657,0.27685185185185185],[0.13447916666666657,0.27685185185185185],[0.1171875,0.2012962962962964],[0.1171875,0.2012962962962964],[0.10604166666666662,0.15222222222222231],[0.10604166666666662,0.15222222222222231],[0.10187499999999995,0.10703703703703696],[0.10187499999999995,0.10703703703703696],[0.09791666666666667,0.09907407407407408],[0.09791666666666667,0.09907407407407408],[0.11218750000000005,0.07685185185185185],[0.11218750000000005,0.07685185185185185],[0.11020833333333328,0.08074074074074078],[0.11020833333333328,0.08074074074074078],[0.11604166666666677,0.10833333333333334],[0.11604166666666677,0.10833333333333334],[0.13927083333333337,0.2257407407407407],[0.13927083333333337,0.2257407407407407],[0.17822916666666658,0.38685185185185184],[0.17822916666666658,0.38685185185185184],[0.23166666666666677,0.5353703703703704],[0.23166666666666677,0.5353703703703704],[0.27281250000000007,0.6599999999999999],[0.27281250000000007,0.6599999999999999],[0.3133333333333333,0.784074074074074],[0.3133333333333333,0.784074074074074],[0.2990624999999999,0.8424074074074074],[0.2990624999999999,0.8424074074074074],[0.30458333333333343,0.8964814814814813],[0.30458333333333343,0.8964814814814813],[0.30458333333333343,0.8964814814814813],[0.3,0.9212962962962963],[0.3,0.9212962962962963],[0.3,0.9212962962962963],[0.3285416666666668,0.9579629629629629],[0.3285416666666668,0.9579629629629629],[0.3182291666666667,0.9848148148148147],[0.3182291666666667,0.9848148148148147],[0.2955208333333334,0.943888888888889],[0.2955208333333334,0.943888888888889],[0.2462500000000001,0.8403703703703703],[0.2462500000000001,0.8403703703703703],[0.19364583333333343,0.7414814814814814],[0.19364583333333343,0.7414814814814814],[0.19364583333333343,0.7414814814814814],[0.16354166666666667,0.6607407407407406],[0.16354166666666667,0.6607407407407406],[0.1326041666666666,0.580925925925926],[0.1326041666666666,0.580925925925926],[0.15166666666666656,0.5555555555555556],[0.15166666666666656,0.5555555555555556],[0.1525000000000001,0.5346296296296297],[0.1525000000000001,0.5346296296296297],[0.1443749999999999,0.5349999999999999],[0.1443749999999999,0.5349999999999999],[0.11458333333333333,0.5083333333333333],[0.11177083333333329,0.48703703703703705],[0.11177083333333329,0.48703703703703705],[0.11166666666666672,0.44888888888888884],[0.10729166666666666,0.4046296296296296],[0.09895833333333333,0.3624074074074075],[0.08875000000000005,0.34222222222222215],[0.09541666666666657,0.34981481481481475],[0.0974999999999999,0.35999999999999993],[0.0974999999999999,0.35999999999999993],[0.09604166666666672,0.3387037037037037],[0.09708333333333338,0.31240740740740747],[0.09604166666666672,0.2959259259259258],[0.09604166666666672,0.2959259259259258],[0.1,0.2766666666666666],[0.08083333333333324,0.2455555555555556],[0.08083333333333324,0.2455555555555556],[0.07447916666666667,0.23425925925925925],[0.090625,0.25166666666666665],[0.09458333333333328,0.25685185185185194],[0.07083333333333333,0.2324074074074074],[0.059687499999999956,0.19740740740740745],[0.06468750000000002,0.1962962962962963],[0.06468750000000002,0.1962962962962963],[0.0578125,0.19518518518518516],[0.05395833333333329,0.19370370370370374],[0.04708333333333338,0.19981481481481478],[0.05,0.22148148148148153],[0.06510416666666667,0.24444444444444444],[0.029999999999999954,0.23870370370370367],[0.008958333333333356,0.225],[0.008958333333333356,0.225],[0.005520833333333286,0.2161111111111112],[0.005520833333333286,0.2161111111111112],[-0.0006250000000000236,0.2116666666666666],[-0.0021875000000000236,0.22037037037037038],[-0.0067708333333333336,0.19518518518518516],[-0.012395833333333309,0.18092592592592602],[-0.02000000000000005,0.1618518518518518],[-0.029999999999999954,0.1264814814814814],[-0.06281249999999995,0.10314814814814824],[-0.05677083333333333,0.06703703703703712],[-0.05291666666666662,0.04314814814814806],[-0.04666666666666662,0.03833333333333342],[-0.051145833333333356,0.04296296296296305],[-0.06895833333333339,0.016666666666666666],[-0.07385416666666664,0.029814814814814856],[-0.07895833333333328,0.011111111111111112],[-0.08395833333333336,-0.0012962962962963806],[-0.08656250000000003,0.0025925925925925505],[-0.09093749999999995,-0.015000000000000043],[-0.10322916666666669,-0.025],[-0.10083333333333329,-0.022592592592592678],[-0.10489583333333338,-0.04148148148148144],[-0.10812499999999996,-0.06370370370370367],[-0.09479166666666666,-0.07314814814814814],[-0.09249999999999996,-0.08259259259259263],[-0.08312499999999995,-0.07370370370370373],[-0.08312499999999995,-0.07370370370370373],[-0.07385416666666664,-0.07111111111111107],[-0.05322916666666669,-0.046296296296296294],[-0.017499999999999953,-0.029814814814814856],[0.014999999999999977,-0.008148148148148106],[0.0265625,0.022222222222222223],[0.03781249999999995,0.058333333333333334],[0.05010416666666669,0.08222222222222218],[0.05458333333333331,0.1111111111111111],[0.05572916666666667,0.09981481481481477],[0.06479166666666672,0.10703703703703696],[0.057500000000000044,0.11500000000000005],[0.04614583333333329,0.09499999999999992],[0.04562499999999995,0.08814814814814818],[0.04562499999999995,0.08814814814814818],[0.03312499999999995,0.07370370370370362],[0.025833333333333285,0.039074074074074115],[0.01854166666666662,0.004444444444444402],[0.011979166666666667,-0.03425925925925926],[0.005520833333333286,-0.0742592592592593],[0.017916666666666713,-0.06925925925925921],[0.017916666666666713,-0.06925925925925921],[0.021041666666666715,-0.09222222222222225],[0.021041666666666715,-0.09222222222222225],[0.042604166666666644,-0.075],[0.05666666666666664,-0.05129629629629638],[0.057187499999999974,-0.039629629629629584],[0.057187499999999974,-0.039629629629629584],[0.06385416666666661,-0.025],[0.10666666666666676,0.12462962962962955],[0.1603125000000001,0.2579629629629629],[0.22885416666666672,0.4398148148148148],[0.22885416666666672,0.4398148148148148],[0.2972916666666668,0.6229629629629629],[0.2972916666666668,0.6229629629629629],[0.3719791666666666,0.8014814814814814],[0.4210416666666667,0.9707407407407408],[0.4210416666666667,0.9707407407407408],[0.45583333333333326,1.0770370370370368],[0.4908333333333334,1.1825925925925924],[0.5141666666666665,1.2535185185185187],[0.5141666666666665,1.2535185185185187],[0.5067708333333333,1.298888888888889],[0.5056250000000001,1.2496296296296296],[0.4696875000000001,1.1851851851851851],[0.4165625000000001,1.0712962962962962],[0.3706249999999999,0.9603703703703702],[0.30416666666666664,0.8233333333333334],[0.2635416666666667,0.712037037037037],[0.23510416666666673,0.6259259259259259],[0.20666666666666675,0.5398148148148149],[0.184375,0.4898148148148148],[0.19791666666666666,0.4714814814814815],[0.17520833333333338,0.42592592592592593],[0.17645833333333344,0.4118518518518518],[0.18916666666666657,0.40037037037037043],[0.1946875000000001,0.3859259259259259],[0.19302083333333328,0.407037037037037],[0.1865624999999999,0.41814814814814805],[0.1929166666666667,0.4105555555555556],[0.19927083333333329,0.402962962962963],[0.20499999999999996,0.3787037037037037],[0.2091666666666666,0.3698148148148149],[0.18520833333333328,0.3044444444444444],[0.18520833333333328,0.3044444444444444],[0.16010416666666671,0.247037037037037],[0.12802083333333342,0.20925925925925926],[0.10072916666666672,0.172037037037037],[0.08458333333333339,0.12851851851851848],[0.07593750000000009,0.08555555555555563],[0.03718750000000005,0.039074074074074115],[0.0109375,-0.016666666666666666],[-0.009895833333333333,-0.053148148148148125],[-0.0359375,-0.11185185185185181],[-0.03895833333333331,-0.12814814814814812],[-0.042916666666666714,-0.15203703703703708],[-0.050833333333333286,-0.1809259259259259],[-0.05791666666666669,-0.21500000000000005],[-0.05916666666666662,-0.2524074074074074],[-0.07072916666666665,-0.2942592592592592],[-0.06499999999999997,-0.317037037037037],[-0.0671875,-0.3133333333333333],[-0.0671875,-0.3133333333333333],[-0.06479166666666672,-0.3301851851851852],[-0.06104166666666669,-0.3190740740740741],[-0.05770833333333331,-0.32814814814814813],[-0.052291666666666715,-0.3375925925925926],[-0.046875,-0.347037037037037],[-0.04354166666666662,-0.3453703703703704],[-0.04020833333333336,-0.34370370370370373],[-0.04239583333333338,-0.33851851851851855],[-0.04468749999999998,-0.3357407407407408],[-0.04500000000000005,-0.355],[-0.051770833333333384,-0.3381481481481482],[-0.05239583333333329,-0.36666666666666664],[-0.053125,-0.36870370370370376],[-0.05385416666666672,-0.3707407407407407],[-0.05354166666666664,-0.3574074074074074],[-0.05677083333333333,-0.35055555555555556],[-0.05604166666666662,-0.3551851851851852],[-0.04697916666666669,-0.3594444444444445],[-0.041979166666666616,-0.3696296296296297],[-0.04354166666666662,-0.375],[-0.04458333333333329,-0.37351851851851847],[-0.040625,-0.3514814814814815],[-0.04833333333333331,-0.34574074074074074],[-0.05604166666666662,-0.34],[-0.042708333333333334,-0.3198148148148148],[-0.029375000000000047,-0.29962962962962963],[-0.04010416666666667,-0.2801851851851852],[-0.051145833333333356,-0.2640740740740741],[-0.05802083333333338,-0.23962962962962958],[-0.06427083333333337,-0.20092592592592592],[-0.06270833333333338,-0.18259259259259264],[-0.06270833333333338,-0.18259259259259264],[-0.07489583333333331,-0.18944444444444447],[-0.06302083333333333,-0.16796296296296295],[-0.05395833333333329,-0.14351851851851852],[-0.0671875,-0.15203703703703708],[-0.07572916666666671,-0.16740740740740737],[-0.059375,-0.15907407407407403],[-0.050833333333333286,-0.15185185185185185],[-0.044479166666666715,-0.14388888888888887],[-0.04083333333333338,-0.15185185185185185],[-0.03947916666666664,-0.15759259259259265],[-0.027083333333333334,-0.1374074074074074],[-0.027083333333333334,-0.1374074074074074],[-0.02635416666666662,-0.13444444444444448],[-0.02635416666666662,-0.13537037037037042],[-0.028854166666666715,-0.13629629629629633],[-0.03885416666666662,-0.13351851851851856],[-0.05458333333333331,-0.13925925925925925],[-0.05333333333333338,-0.12259259259259257],[-0.046875,-0.12259259259259257],[-0.02822916666666669,-0.11629629629629631],[-0.013437499999999976,-0.11314814814814819],[-0.015104166666666667,-0.11462962962962958],[-0.01885416666666669,-0.11259259259259262]]","[[-0.022187499999999954,0.07444444444444454,0.00040000009536811376],[-0.022187499999999954,0.07444444444444454,0.052800000190742935],[-0.014479166666666644,0.062037037037037036,0.06660000038147018],[-0.014479166666666644,0.062037037037037036,0.08410000038148269],[-0.022083333333333382,0.03425925925925926,0.09980000019073998],[-0.022083333333333382,0.03425925925925926,0.10999999999999943],[-0.0021875000000000236,0.016851851851851896,0.12660000038147246],[0.006979166666666714,0.0005555555555554713,0.1543000001907444],[0.006979166666666714,0.0005555555555554713,0.1613000001907352],[0.010416666666666666,-0.03185185185185194,0.1767000002861039],[0.016354166666666715,-0.06833333333333329,0.1933000001907459],[-0.005520833333333286,-0.12000000000000002,0.20990000009537368],[-0.027395833333333286,-0.17166666666666663,0.22660000038148098],[-0.06385416666666661,-0.2235185185185185,0.24330000019074305],[-0.09458333333333328,-0.27611111111111114,0.2600000000000051],[-0.11739583333333338,-0.3188888888888889,0.27660000038147814],[-0.12635416666666663,-0.3277777777777778,0.29670000028610843],[-0.14562499999999995,-0.3374074074074074,0.3130000000000024],[-0.1484375,-0.34592592592592597,0.3266000003814753],[-0.1375,-0.3287037037037037,0.34330000019073736],[-0.1375,-0.3287037037037037,0.35999999999999943],[-0.1265625,-0.31148148148148147,0.37670000028610673],[-0.1265625,-0.31148148148148147,0.3933000001907345],[-0.08802083333333334,-0.29314814814814816,0.4100000000000108],[-0.08802083333333334,-0.29314814814814816,0.4267000002861039],[-0.04489583333333336,-0.2566666666666667,0.4435000000000002],[-0.04489583333333336,-0.2566666666666667,0.4599000000953737],[0.007083333333333286,-0.21296296296296297,0.47670000028611526],[0.03864583333333336,-0.17462962962962966,0.5012000002861043],[0.03864583333333336,-0.17462962962962966,0.5100000000000051],[0.06020833333333329,-0.15,0.5266000003814781],[0.06020833333333329,-0.15,0.5433000001907402],[0.08718750000000004,-0.14981481481481476,0.559900000095368],[0.10885416666666667,-0.15314814814814812,0.5766000003814753],[0.12291666666666666,-0.14962962962962964,0.5934000000953716],[0.12291666666666666,-0.14962962962962964,0.6099999999999994],[0.13156249999999994,-0.14685185185185187,0.6266000003814725],[0.14020833333333324,-0.1440740740740741,0.6432000002861145],[0.1368750000000001,-0.14166666666666666,0.6600000000000108],[0.13385416666666666,-0.14333333333333328,0.6766000003814696],[0.12135416666666667,-0.15629629629629627,0.6933000001907459],[0.1212500000000001,-0.15129629629629626,0.7122000002861029],[0.13114583333333343,-0.13259259259259262,0.7267000002861153],[0.1040625000000001,-0.04537037037037037,0.7432000002861088],[0.09072916666666657,0.027222222222222307,0.7599000000953708],[0.11583333333333339,0.16314814814814818,0.7767000002861124],[0.13708333333333325,0.29518518518518516,0.7933000001907402],[0.19760416666666672,0.43148148148148147,0.8100000000000023],[0.2730208333333332,0.5611111111111111,0.8307000002861145],[0.32479166666666665,0.6890740740740741,0.8463000001907375],[0.3819791666666667,0.8196296296296297,0.8599999999999994],[0.42374999999999996,0.9333333333333333,0.8766000003814725],[0.46552083333333344,1.0470370370370372,0.8933000001907345],[0.5152083333333333,1.102037037037037,0.9099000000953765],[0.5152083333333333,1.102037037037037,0.9267000002861039],[0.5469791666666666,1.1614814814814816,0.9434000000953802],[0.5235416666666666,1.1192592592592594,0.9599000000953737],[0.5235416666666666,1.1192592592592594,0.976600000381481],[0.4847916666666668,1.0540740740740742,0.993300000190743],[0.4847916666666668,1.0540740740740742,1.0100000000000051],[0.42218749999999994,0.988148148148148,1.0267000002861124],[0.35604166666666665,0.9416666666666667,1.0440000000000111],[0.28708333333333325,0.8842592592592593,1.0600000000000023],[0.2133333333333333,0.8283333333333333,1.0766000003814753],[0.16666666666666666,0.7679629629629631,1.0934000000953716],[0.12000000000000005,0.7075925925925927,1.1099999999999994],[0.08645833333333333,0.6477777777777777,1.126800000190741],[0.06729166666666657,0.5814814814814815,1.1433000001907345],[0.06489583333333329,0.5535185185185185,1.1638000001907471],[0.0796875,0.5324074074074074,1.1800000000000068],[0.07906250000000009,0.5077777777777779,1.1965000000000003],[0.07760416666666667,0.4783333333333332,1.213300000190742],[0.09770833333333329,0.4474074074074075,1.2309000000953745],[0.09968750000000005,0.40629629629629627,1.245900000095375],[0.09229166666666658,0.37462962962962953,1.2606000003814728],[0.09302083333333329,0.3374074074074075,1.2766000003814781],[0.09479166666666666,0.3007407407407407,1.2933000001907402],[0.10229166666666671,0.25277777777777777,1.309900000095368],[0.10229166666666671,0.25277777777777777,1.3267000002861096],[0.10499999999999995,0.20777777777777787,1.3433000001907374],[0.1078125,0.17296296296296293,1.3603000001907475],[0.10958333333333338,0.13555555555555565,1.3766000003814725],[0.10958333333333338,0.13555555555555565,1.3933000001907345],[0.1134375000000001,0.10407407407407415,1.4100000000000108],[0.1134375000000001,0.10407407407407415,1.4266000003814696],[0.11760416666666676,0.05907407407407403,1.443300000190746],[0.1099999999999999,0.04351851851851852,1.4599000000953737],[0.10239583333333328,0.027962962962963005,1.4767000002861153],[0.08875000000000005,0.0198148148148149,1.4943000001907478],[0.07885416666666671,0.012407407407407492,1.5115000000000123],[0.051250000000000046,0.021296296296296296,1.5266000003814781],[0.027083333333333334,0.018518518518518517,1.5435000000000088],[0.0021875000000000236,0.016666666666666666,1.5600000000000023],[-0.007395833333333357,0.03462962962962971,1.57650000000001],[-0.01906249999999995,0.026851851851851852,1.5936000003814712],[-0.027395833333333286,0.034444444444444486,1.6117000002861062],[0.003541666666666643,0.01777777777777782,1.6269000000953753],[0.01864583333333331,0.00722222222222218,1.6433000001907345],[0.03166666666666664,-0.005185185185185101,1.6600000000000108],[0.03843749999999998,-0.012777777777777735,1.6766000003814696],[0.05281250000000005,-0.028703703703703703,1.6934000000953802],[0.07781250000000005,-0.027962962962963005,1.7118000001907347],[0.07781250000000005,-0.027962962962963005,1.726600000381481],[0.10281250000000004,-0.027222222222222307,1.743300000190743],[0.11416666666666657,-0.0418518518518519,1.7624000000953686],[0.12635416666666663,-0.034999999999999955,1.7785000000000082],[0.13489583333333333,-0.030000000000000086,1.794700000286113],[0.13697916666666668,-0.03296296296296288,1.8325000000000102],[0.13697916666666668,-0.03296296296296288,1.8392000002861124],[0.1443749999999999,-0.042407407407407366,1.8625000000000114],[0.1443749999999999,-0.042407407407407366,1.8699000000953703],[0.16416666666666657,-0.0477777777777777,1.8965000000000032],[0.16416666666666657,-0.0477777777777777,1.9048000001907468],[0.17354166666666657,-0.05722222222222218,1.9296000003814697],[0.17354166666666657,-0.05722222222222218,1.9366000003814747],[0.18312499999999995,-0.051111111111111156,1.9632000002861076],[0.18312499999999995,-0.051111111111111156,1.9698000001907445],[0.18135416666666657,-0.06166666666666669,1.9939000000953797],[0.18135416666666657,-0.06166666666666669,2.0019000000953753],[0.18552083333333325,-0.07685185185185185,2.0293000001907444],[0.18552083333333325,-0.07685185185185185,2.035800000190747],[0.18041666666666673,-0.08962962962962959,2.0607000002861042],[0.18041666666666673,-0.08962962962962959,2.068800000190734],[0.17312500000000006,-0.10111111111111115,2.0959000000953694],[0.17312500000000006,-0.10111111111111115,2.104600000381481],[0.1671875,-0.11462962962962958,2.129400000095373],[0.1671875,-0.11462962962962958,2.1362000002861095],[0.15739583333333323,-0.11092592592592589,2.1628000001907424],[0.15739583333333323,-0.11092592592592589,2.1694000000953793],[0.16062500000000005,-0.10203703703703708,2.1940000000000026],[0.16062500000000005,-0.10203703703703708,2.20260000038148],[0.14447916666666671,-0.10333333333333336,2.2293000001907473],[0.14447916666666671,-0.10333333333333336,2.236300000190738],[0.1412499999999999,-0.10611111111111113,2.2626000003814823],[0.1412499999999999,-0.10611111111111113,2.2698000001907417],[0.1352083333333333,-0.12074074074074072,2.294000000000011],[0.1352083333333333,-0.12074074074074072,2.3030000000000115],[0.13812499999999991,-0.11351851851851855,2.3337000002861146],[0.13812499999999991,-0.11351851851851855,2.3408000001907396],[0.13895833333333343,-0.10314814814814813,2.380500000000012],[0.13895833333333343,-0.10314814814814813,2.388200000286105],[0.14031250000000003,-0.09222222222222225,2.415700000286108],[0.14031250000000003,-0.09222222222222225,2.4239000000953723],[0.1423958333333334,-0.07740740740740742,2.4491000003814776],[0.1423958333333334,-0.07740740740740742,2.457100000381473],[0.14208333333333342,-0.06111111111111111,2.4824000000953674],[0.14208333333333342,-0.06111111111111111,2.4916000003814815],[0.14385416666666656,-0.049074074074074076,2.5156000003814825],[0.14385416666666656,-0.049074074074074076,2.5230000000000103],[0.14458333333333329,0.03796296296296296,2.5461000003814718],[0.14458333333333329,0.03796296296296296,2.5542000002861016],[0.19802083333333323,0.1977777777777777,2.5790000000000077],[0.19802083333333323,0.1977777777777777,2.5856000003814756],[0.26062500000000005,0.3764814814814814,2.6107000002861014],[0.26062500000000005,0.3764814814814814,2.6181000003814745],[0.31124999999999997,0.5318518518518519,2.646000000000001],[0.31124999999999997,0.5318518518518519,2.6529000000953715],[0.35489583333333335,0.6614814814814816,2.677400000095375],[0.35489583333333335,0.6614814814814816,2.6851000003814818],[0.35489583333333335,0.6614814814814816,2.693300000190746],[0.3757291666666667,0.7761111111111112,2.7339000000953746],[0.3757291666666667,0.7761111111111112,2.7417000002861016],[0.3836458333333333,0.8703703703703703,2.763600000381473],[0.3836458333333333,0.8703703703703703,2.7708000001907465],[0.38385416666666666,0.9466666666666668,2.7968000001907427],[0.38385416666666666,0.9466666666666668,2.8075000000000045],[0.3828125,1.0081481481481482,2.829800000190744],[0.3828125,1.0081481481481482,2.8378000001907395],[0.3642708333333334,1.0596296296296297,2.863500000000002],[0.3642708333333334,1.0596296296296297,2.8707000002861065],[0.35281250000000003,1.0279629629629627,2.8941000003814707],[0.35281250000000003,1.0279629629629627,2.902300000190735],[0.2926041666666668,0.926111111111111,2.9299000000953725],[0.2926041666666668,0.926111111111111,2.9373000001907457],[0.22260416666666671,0.7874074074074074,2.9631000003814734],[0.22260416666666671,0.7874074074074074,2.9705000000000013],[0.15364583333333334,0.6998148148148148,2.9961000003814746],[0.15364583333333334,0.6998148148148148,3.0046000003814726],[0.09197916666666663,0.6085185185185186,3.027300000190735],[0.09197916666666663,0.6085185185185186,3.035000000000011],[0.049270833333333285,0.5337037037037038,3.062900000095368],[0.049270833333333285,0.5337037037037038,3.069800000190739],[0.03208333333333328,0.4583333333333333,3.0964000000953718],[0.03208333333333328,0.4583333333333333,3.1045000000000016],[0.023958333333333335,0.39537037037037037,3.1274000000953777],[0.023958333333333335,0.39537037037037037,3.1392000002861096],[0.01427083333333338,0.35555555555555557,3.163499999999999],[0.01427083333333338,0.35555555555555557,3.1707000002861037],[-0.0014583333333333095,0.3122222222222223,3.1962000002861117],[-0.0014583333333333095,0.3122222222222223,3.203400000095371],[-0.026145833333333358,0.2874074074074075,3.2273000001907377],[-0.026145833333333358,0.2874074074074075,3.234800000190745],[-0.03958333333333333,0.26074074074074066,3.262900000095371],[-0.03958333333333333,0.26074074074074066,3.2697000002861074],[-0.057604166666666616,0.24888888888888885,3.294000000000011],[-0.057604166666666616,0.24888888888888885,3.3016000003814696],[-0.05333333333333338,0.21074074074074065,3.3274000000953663],[-0.05333333333333338,0.21074074074074065,3.3349000000953737],[-0.04854166666666669,0.20833333333333334,3.3629000000953795],[-0.04854166666666669,0.20833333333333334,3.369500000000002],[-0.04822916666666662,0.2205555555555556,3.3969000000953713],[-0.04822916666666662,0.2205555555555556,3.405300000190735],[-0.053125,0.23129629629629625,3.4298000001907383],[-0.053125,0.23129629629629625,3.4369000000953775],[-0.05791666666666669,0.2455555555555556,3.4632000002861076],[-0.05791666666666669,0.2455555555555556,3.469999999999999],[-0.04614583333333329,0.25462962962962965,3.4965000000000117],[-0.04614583333333329,0.25462962962962965,3.5049000000953754],[-0.021145833333333287,0.2616666666666666,3.5297000002861125],[-0.021145833333333287,0.2616666666666666,3.5374000000953743],[0.001145833333333357,0.26740740740740737,3.566500000000005],[0.001145833333333357,0.26740740740740737,3.573100000381473],[0.025416666666666643,0.2662962962962962,3.5960000000000036],[0.025416666666666643,0.2662962962962962,3.6044000000953673],[0.04041666666666662,0.2755555555555555,3.6295000000000073],[0.04041666666666662,0.2755555555555555,3.6366000003814776],[0.04364583333333331,0.2803703703703703,3.6629000000953766],[0.04364583333333331,0.2803703703703703,3.6694000000953793],[0.04833333333333331,0.26962962962962966,3.694100000381482],[0.04833333333333331,0.26962962962962966,3.703000000000003],[0.051979166666666646,0.2368518518518518,3.7273000001907377],[0.051979166666666646,0.2368518518518518,3.7353000001907475],[0.03770833333333338,0.23944444444444435,3.7628000001907367],[0.03770833333333338,0.23944444444444435,3.769500000000008],[0.030624999999999975,0.2390740740740741,3.796600000381474],[0.030624999999999975,0.2390740740740741,3.805100000381472],[0.017708333333333333,0.24259259259259258,3.8273000001907462],[0.017708333333333333,0.24259259259259258,3.8349000000953737],[0.004270833333333357,0.25388888888888894,3.8629999999999995],[0.004270833333333357,0.25388888888888894,3.869800000190736],[0.008749999999999977,0.24296296296296305,3.8999000000953714],[0.008749999999999977,0.24296296296296305,3.9073000001907445],[0.012812499999999952,0.22740740740740734,3.9296000003814697],[0.012812499999999952,0.22740740740740734,3.936400000095375],[0.029062499999999977,0.21888888888888897,3.9624000000953714],[0.029062499999999977,0.21888888888888897,3.9688000001907398],[0.03916666666666669,0.19962962962962955,3.9939000000953797],[0.03916666666666669,0.19962962962962955,4.001500000000007],[0.041979166666666616,0.20981481481481473,4.029100000381476],[0.041979166666666616,0.20981481481481473,4.036100000381481],[0.0775000000000001,0.2824074074074074,4.0634000000953705],[0.0775000000000001,0.2824074074074074,4.07050000000001],[0.1412499999999999,0.3798148148148149,4.094000000000008],[0.1412499999999999,0.3798148148148149,4.102100000381469],[0.20562500000000009,0.4964814814814815,4.1292000002861045],[0.20562500000000009,0.4964814814814815,4.1362000002861095],[0.25364583333333335,0.5837037037037038,4.162600000381474],[0.25364583333333335,0.5837037037037038,4.170100000381481],[0.2994791666666667,0.668888888888889,4.196000000000012],[0.2994791666666667,0.668888888888889,4.203300000190737],[0.3185416666666666,0.7577777777777779,4.229200000286113],[0.3185416666666666,0.7577777777777779,4.236300000190738],[0.3423958333333334,0.8661111111111112,4.262700000286102],[0.3423958333333334,0.8661111111111112,4.269600000381473],[0.3380208333333333,0.9114814814814816,4.293900000095377],[0.3380208333333333,0.9114814814814816,4.301900000095372],[0.33468749999999997,0.9792592592592592,4.327300000190746],[0.33468749999999997,0.9792592592592592,4.33570000028611],[0.34343750000000006,0.9975925925925927,4.366300000190748],[0.34343750000000006,0.9975925925925927,4.373700000286107],[0.3441666666666668,0.9733333333333332,4.399900000095371],[0.3441666666666668,0.9733333333333332,4.408000000000001],[0.3321875000000001,0.9038888888888887,4.448100000381473],[0.3321875000000001,0.9038888888888887,4.456100000381483],[0.31145833333333334,0.8162962962962962,4.482300000190747],[0.31145833333333334,0.8162962962962962,4.489900000095375],[0.26677083333333323,0.725925925925926,4.515800000190737],[0.26677083333333323,0.725925925925926,4.52320000028611],[0.24364583333333342,0.6520370370370371,4.548700000286104],[0.24364583333333342,0.6520370370370371,4.5575000000000045],[0.22989583333333338,0.5835185185185185,4.582400000095376],[0.22989583333333338,0.5835185185185185,4.591000000000008],[0.22989583333333338,0.5835185185185185,4.602300000190738],[0.2257291666666667,0.5201851851851852,4.632800000190741],[0.2257291666666667,0.5201851851851852,4.639800000190746],[0.23083333333333325,0.4875925925925925,4.666000000000011],[0.23083333333333325,0.4875925925925925,4.673800000190738],[0.25010416666666657,0.4677777777777778,4.703500000000005],[0.25010416666666657,0.4677777777777778,4.71160000038148],[0.25114583333333323,0.4329629629629629,4.726600000381481],[0.25114583333333323,0.4329629629629629,4.743200000286109],[0.2443749999999999,0.4324074074074074,4.759900000095371],[0.23020833333333332,0.3931481481481481,4.776800000190747],[0.2169791666666666,0.3557407407407408,4.793800000190743],[0.23479166666666676,0.34740740740740744,4.812800000190734],[0.24291666666666673,0.33240740740740743,4.828400000095371],[0.23947916666666677,0.3199999999999999,4.847000000000008],[0.23947916666666677,0.3199999999999999,4.859999999999999],[0.2118750000000001,0.29981481481481476,4.88110000038148],[0.209375,0.2975925925925927,4.897600000381473],[0.19479166666666667,0.2803703703703703,4.914100000381481],[0.18447916666666658,0.2942592592592592,4.931100000381477],[0.12625000000000006,0.25037037037037047,4.9480000000000075],[0.12625000000000006,0.25037037037037047,4.959900000095374],[0.07854166666666676,0.24777777777777768,4.976600000381481],[0.050416666666666644,0.24074074074074073,4.993300000190743],[0.02520833333333338,0.23185185185185195,5.01420000028611],[-0.0013541666666666192,0.2081481481481481,5.0297000002861125],[-0.012395833333333309,0.19592592592592584,5.045900000095372],[-0.024791666666666618,0.17814814814814822,5.064300000190741],[-0.03822916666666672,0.175,5.080500000000001],[-0.05291666666666662,0.1479629629629629,5.097200000286108],[-0.05291666666666662,0.1479629629629629,5.109900000095379],[-0.0640625,0.152962962962963,5.1266000003814725],[-0.036354166666666646,0.1455555555555556,5.1451000003814755],[-0.008645833333333287,0.1381481481481482,5.160000000000011],[-0.009062500000000048,0.1527777777777778,5.177000000000007],[-0.010000000000000024,0.16592592592592598,5.194700000286105],[0.003854166666666714,0.2022222222222223,5.212600000381471],[0.001979166666666643,0.21185185185185182,5.229200000286113],[0.005104166666666643,0.21870370370370373,5.24510000038147],[0.005416666666666714,0.21092592592592588,5.273900000095367],[0.005416666666666714,0.21092592592592588,5.283400000095369],[0.0140625,0.227962962962963,5.293200000286106],[0.019270833333333334,0.22296296296296292,5.311700000286109],[0.019270833333333334,0.22296296296296292,5.326600000381475],[0.01864583333333331,0.24685185185185177,5.343200000286103],[0.02364583333333338,0.26648148148148143,5.362400000095377],[0.03854166666666667,0.2705555555555556,5.37910000038147],[0.05343749999999995,0.27462962962962956,5.393500000000003],[0.06208333333333336,0.27092592592592585,5.410400000095379],[0.08510416666666672,0.27907407407407414,5.42660000038147],[0.10447916666666662,0.29555555555555557,5.443300000190746],[0.11447916666666676,0.325,5.459900000095374],[0.11583333333333339,0.3516666666666666,5.478400000095377],[0.11583333333333339,0.3516666666666666,5.502400000095378],[0.10583333333333324,0.3485185185185186,5.519600000381473],[0.10583333333333324,0.3485185185185186,5.526600000381478],[0.115625,0.34814814814814815,5.543200000286106],[0.12697916666666675,0.3453703703703704,5.560100000381482],[0.15489583333333337,0.3405555555555555,5.580200000286112],[0.18489583333333334,0.3411111111111112,5.594900000095379],[0.19395833333333337,0.3177777777777778,5.612800000190745],[0.19395833333333337,0.3177777777777778,5.6266000003814725],[0.20302083333333343,0.29444444444444445,5.6433000001907345],[0.21124999999999997,0.2766666666666666,5.660000000000011],[0.21989583333333323,0.2412962962962962,5.67660000038147],[0.21989583333333323,0.2412962962962962,5.693200000286112],[0.22854166666666675,0.205925925925926,5.709900000095374],[0.24291666666666673,0.1868518518518518,5.726600000381481],[0.24885416666666677,0.16999999999999993,5.743200000286109],[0.2476041666666667,0.15981481481481474,5.759900000095371],[0.23302083333333337,0.15259259259259256,5.776600000381478],[0.21427083333333338,0.147037037037037,5.793200000286106],[0.2146874999999999,0.19814814814814816,5.809900000095368],[0.22083333333333333,0.2553703703703703,5.826600000381475],[0.22781250000000006,0.30703703703703694,5.843400000095372],[0.22781250000000006,0.30703703703703694,5.859900000095379],[0.25770833333333343,0.4233333333333334,5.8766000003814725],[0.32020833333333343,0.5548148148148149,5.893400000095369],[0.37260416666666674,0.6861111111111111,5.914300000190735],[0.4171875,0.807037037037037,5.928700000286113],[0.46124999999999994,0.9318518518518519,5.944800000190739],[0.4901041666666667,1.0424074074074077,5.961500000000001],[0.5254166666666668,1.1185185185185185,5.9765000000000015],[0.534375,1.1755555555555555,5.993200000286109],[0.5313541666666666,1.242037037037037,6.010300000190739],[0.5366666666666667,1.3020370370370369,6.026600000381478],[0.5236458333333334,1.2594444444444444,6.043200000286106],[0.47802083333333345,1.2016666666666669,6.059800000190734],[0.4540625000000001,1.1444444444444444,6.07650000000001],[0.4254166666666668,1.0