inst1_resp.keys,inst1_resp.rt,calibrationMouse.x,calibrationMouse.y,calibrationMouse.leftButton,calibrationMouse.midButton,calibrationMouse.rightButton,calibrationClick.x,calibrationClick.y,calibrationClick.leftButton,calibrationClick.midButton,calibrationClick.rightButton,calibrationClick.clicked_name,trialsc.thisRepN,trialsc.thisTrialN,trialsc.thisN,trialsc.thisIndex,trialsc.ran,calibration_x,calibration_y,participant,session,date,expName,psychopyVersion,OS,frameRate,ScreenRes_pixels,Camera_pixels,mouse_2.x,mouse_2.y,mouse_2.leftButton,mouse_2.midButton,mouse_2.rightButton,mouse_2.time,mouse_2.clicked_name,mouse.x,mouse.y,mouse.leftButton,mouse.midButton,mouse.rightButton,mouse.time,mouse.clicked_name,Choice,Trial,TrialDuration,MOUSE_GAZE,ET_GAZE,ET_GAZE_x_T,time,unixTime,ET_GAZE_NF,Loc_Bus_label,Loc_Metro_label,Loc_RH_label,Loc_Cost_label,Loc_Travel_label,Loc_Comfort_label,Loc_Bus_cost,Loc_Metro_cost,Loc_RH_cost,Loc_Bus_travel,Loc_Metro_travel,Loc_RH_travel,Loc_Bus_comfort,Loc_Metro_comfort,Loc_RH_comfort,trials.thisRepN,trials.thisTrialN,trials.thisN,trials.thisIndex,trials.ran,Block,Device,RH_cost,RH_travel_time,RH_Comfort,metro_cost,metro_travel_time,metro_Comfort,Bus_cost,Bus_travel_time,Bus_Comfort
space,3.11,-0.039583333,-0.177777778,1,0,0,0.330208333,-0.32037037,1,0,0,calibration_square,0,0,0,15,1,0.33,-0.33,08,001,2024-11-21_10h55.21.063,Attention_exp_legacy,2023.1.0,Win32,60.24096386,,,,,,,,,,,,,,,,,,,,,,,,,,,,,,,,,,,,,,,,,,,,,,,,,,,,,,,,
,,,,,,,-0.333333333,0.338888889,1,0,0,calibration_square,0,1,1,7,1,-0.33,0.33,08,001,2024-11-21_10h55.21.063,Attention_exp_legacy,2023.1.0,Win32,60.24096386,,,,,,,,,,,,,,,,,,,,,,,,,,,,,,,,,,,,,,,,,,,,,,,,,,,,,,,,
,,,,,,,-0.669791667,-0.668518519,1,0,0,calibration_square,0,2,2,0,1,-0.67,-0.67,08,001,2024-11-21_10h55.21.063,Attention_exp_legacy,2023.1.0,Win32,60.24096386,,,,,,,,,,,,,,,,,,,,,,,,,,,,,,,,,,,,,,,,,,,,,,,,,,,,,,,,
,,,,,,,0.319791667,0.331481481,1,0,0,,0,3,3,17,1,0.33,0.33,08,001,2024-11-21_10h55.21.063,Attention_exp_legacy,2023.1.0,Win32,60.24096386,,,,,,,,,,,,,,,,,,,,,,,,,,,,,,,,,,,,,,,,,,,,,,,,,,,,,,,,
,,,,,,,0.672916667,-0.662962963,1,0,0,calibration_square,0,4,4,20,1,0.67,-0.67,08,001,2024-11-21_10h55.21.063,Attention_exp_legacy,2023.1.0,Win32,60.24096386,,,,,,,,,,,,,,,,,,,,,,,,,,,,,,,,,,,,,,,,,,,,,,,,,,,,,,,,
,,,,,,,-0.666666667,0.011111111,1,0,0,,0,5,5,2,1,-0.67,0,08,001,2024-11-21_10h55.21.063,Attention_exp_legacy,2023.1.0,Win32,60.24096386,,,,,,,,,,,,,,,,,,,,,,,,,,,,,,,,,,,,,,,,,,,,,,,,,,,,,,,,
,,,,,,,0.338541667,0.001851852,1,0,0,calibration_square,0,6,6,16,1,0.33,0,08,001,2024-11-21_10h55.21.063,Attention_exp_legacy,2023.1.0,Win32,60.24096386,,,,,,,,,,,,,,,,,,,,,,,,,,,,,,,,,,,,,,,,,,,,,,,,,,,,,,,,
,,,,,,,-0.327083333,0.668518519,1,0,0,calibration_square,0,7,7,8,1,-0.33,0.67,08,001,2024-11-21_10h55.21.063,Attention_exp_legacy,2023.1.0,Win32,60.24096386,,,,,,,,,,,,,,,,,,,,,,,,,,,,,,,,,,,,,,,,,,,,,,,,,,,,,,,,
,,,,,,,0.675,0.664814815,1,0,0,calibration_square,0,8,8,19,1,0.67,0.67,08,001,2024-11-21_10h55.21.063,Attention_exp_legacy,2023.1.0,Win32,60.24096386,,,,,,,,,,,,,,,,,,,,,,,,,,,,,,,,,,,,,,,,,,,,,,,,,,,,,,,,
,,,,,,,0.002083333,0.677777778,1,0,0,calibration_square,0,9,9,13,1,0,0.67,08,001,2024-11-21_10h55.21.063,Attention_exp_legacy,2023.1.0,Win32,60.24096386,,,,,,,,,,,,,,,,,,,,,,,,,,,,,,,,,,,,,,,,,,,,,,,,,,,,,,,,
,,,,,,,-0.335416667,-0.67037037,1,0,0,calibration_square,0,10,10,4,1,-0.33,-0.67,08,001,2024-11-21_10h55.21.063,Attention_exp_legacy,2023.1.0,Win32,60.24096386,,,,,,,,,,,,,,,,,,,,,,,,,,,,,,,,,,,,,,,,,,,,,,,,,,,,,,,,
,,,,,,,-0.003125,-0.674074074,1,0,0,calibration_square,0,11,11,9,1,0,-0.67,08,001,2024-11-21_10h55.21.063,Attention_exp_legacy,2023.1.0,Win32,60.24096386,,,,,,,,,,,,,,,,,,,,,,,,,,,,,,,,,,,,,,,,,,,,,,,,,,,,,,,,
,,,,,,,0.330208333,0.67037037,1,0,0,calibration_square,0,12,12,18,1,0.33,0.67,08,001,2024-11-21_10h55.21.063,Attention_exp_legacy,2023.1.0,Win32,60.24096386,,,,,,,,,,,,,,,,,,,,,,,,,,,,,,,,,,,,,,,,,,,,,,,,,,,,,,,,
,,,,,,,0.011458333,-0.32962963,1,0,0,,0,13,13,10,1,0,-0.33,08,001,2024-11-21_10h55.21.063,Attention_exp_legacy,2023.1.0,Win32,60.24096386,,,,,,,,,,,,,,,,,,,,,,,,,,,,,,,,,,,,,,,,,,,,,,,,,,,,,,,,
,,,,,,,-0.34375,-0.337037037,1,0,0,,0,14,14,5,1,-0.33,-0.33,08,001,2024-11-21_10h55.21.063,Attention_exp_legacy,2023.1.0,Win32,60.24096386,,,,,,,,,,,,,,,,,,,,,,,,,,,,,,,,,,,,,,,,,,,,,,,,,,,,,,,,
,,,,,,,-0.341666667,0.007407407,1,0,0,,0,15,15,6,1,-0.33,0,08,001,2024-11-21_10h55.21.063,Attention_exp_legacy,2023.1.0,Win32,60.24096386,,,,,,,,,,,,,,,,,,,,,,,,,,,,,,,,,,,,,,,,,,,,,,,,,,,,,,,,
,,,,,,,0.008333333,0.012962963,1,0,0,,0,16,16,11,1,0,0,08,001,2024-11-21_10h55.21.063,Attention_exp_legacy,2023.1.0,Win32,60.24096386,,,,,,,,,,,,,,,,,,,,,,,,,,,,,,,,,,,,,,,,,,,,,,,,,,,,,,,,
,,,,,,,0.328125,-0.67037037,1,0,0,calibration_square,0,17,17,14,1,0.33,-0.67,08,001,2024-11-21_10h55.21.063,Attention_exp_legacy,2023.1.0,Win32,60.24096386,,,,,,,,,,,,,,,,,,,,,,,,,,,,,,,,,,,,,,,,,,,,,,,,,,,,,,,,
,,,,,,,-0.673958333,-0.322222222,1,0,0,calibration_square,0,18,18,1,1,-0.67,-0.33,08,001,2024-11-21_10h55.21.063,Attention_exp_legacy,2023.1.0,Win32,60.24096386,,,,,,,,,,,,,,,,,,,,,,,,,,,,,,,,,,,,,,,,,,,,,,,,,,,,,,,,
,,,,,,,-0.001041667,0.32037037,1,0,0,calibration_square,0,19,19,12,1,0,0.33,08,001,2024-11-21_10h55.21.063,Attention_exp_legacy,2023.1.0,Win32,60.24096386,,,,,,,,,,,,,,,,,,,,,,,,,,,,,,,,,,,,,,,,,,,,,,,,,,,,,,,,
,,,,,,,-0.670833333,0.331481481,1,0,0,calibration_square,0,20,20,3,1,-0.67,0.33,08,001,2024-11-21_10h55.21.063,Attention_exp_legacy,2023.1.0,Win32,60.24096386,,,,,,,,,,,,,,,,,,,,,,,,,,,,,,,,,,,,,,,,,,,,,,,,,,,,,,,,
,,,,,,,,,,,,,,,,,,,,08,001,2024-11-21_10h55.21.063,Attention_exp_legacy,2023.1.0,Win32,60.24096386,"[1920,1080]","[640,480]",[0.020833333333333332],[-0.5055555555555555],[1],[0],[0],[5.579900000095364],"[""StartButton""]",[0.14583333333333334],[0.412962962962963],[1],[0],[0],[6.869500000000009],"[""Metro_label""]",Metro_label,1,7.8815,"[[0.035416666666666666,-0.23333333333333334],[0.035416666666666666,-0.23333333333333334],[0.035416666666666666,-0.23333333333333334],[0.035416666666666666,-0.23333333333333334],[0.035416666666666666,-0.23333333333333334],[0.035416666666666666,-0.23333333333333334],[0.035416666666666666,-0.23333333333333334],[0.035416666666666666,-0.23333333333333334],[0.035416666666666666,-0.23333333333333334],[0.035416666666666666,-0.23333333333333334],[0.035416666666666666,-0.23333333333333334],[0.035416666666666666,-0.23333333333333334],[0.035416666666666666,-0.23333333333333334],[0.035416666666666666,-0.23333333333333334],[0.035416666666666666,-0.23333333333333334],[0.035416666666666666,-0.23333333333333334],[0.035416666666666666,-0.23333333333333334],[0.035416666666666666,-0.23333333333333334],[0.035416666666666666,-0.23333333333333334],[0.035416666666666666,-0.23333333333333334],[0.035416666666666666,-0.23333333333333334],[0.035416666666666666,-0.23333333333333334],[0.035416666666666666,-0.23333333333333334],[0.035416666666666666,-0.23333333333333334],[0.035416666666666666,-0.23333333333333334],[0.035416666666666666,-0.23333333333333334],[0.035416666666666666,-0.23333333333333334],[0.035416666666666666,-0.23333333333333334],[0.035416666666666666,-0.23333333333333334],[0.035416666666666666,-0.23333333333333334],[0.035416666666666666,-0.23333333333333334],[0.035416666666666666,-0.23333333333333334],[0.035416666666666666,-0.23333333333333334],[0.035416666666666666,-0.23333333333333334],[0.035416666666666666,-0.23333333333333334],[0.035416666666666666,-0.23333333333333334],[0.035416666666666666,-0.23333333333333334],[0.035416666666666666,-0.23333333333333334],[0.035416666666666666,-0.23333333333333334],[0.035416666666666666,-0.23333333333333334],[0.035416666666666666,-0.23333333333333334],[0.035416666666666666,-0.23333333333333334],[0.035416666666666666,-0.23333333333333334],[0.035416666666666666,-0.23333333333333334],[0.035416666666666666,-0.23333333333333334],[0.035416666666666666,-0.23333333333333334],[0.035416666666666666,-0.23333333333333334],[0.035416666666666666,-0.23333333333333334],[0.035416666666666666,-0.23333333333333334],[0.035416666666666666,-0.23333333333333334],[0.035416666666666666,-0.23333333333333334],[0.035416666666666666,-0.23333333333333334],[0.035416666666666666,-0.23333333333333334],[0.035416666666666666,-0.23333333333333334],[0.035416666666666666,-0.23333333333333334],[0.035416666666666666,-0.23333333333333334],[0.035416666666666666,-0.23333333333333334],[0.035416666666666666,-0.23333333333333334],[0.035416666666666666,-0.23333333333333334],[0.035416666666666666,-0.23333333333333334],[0.035416666666666666,-0.23333333333333334],[0.035416666666666666,-0.23333333333333334],[0.035416666666666666,-0.23333333333333334],[0.035416666666666666,-0.23333333333333334],[0.035416666666666666,-0.23333333333333334],[0.035416666666666666,-0.23333333333333334],[0.035416666666666666,-0.23333333333333334],[0.035416666666666666,-0.23333333333333334],[0.035416666666666666,-0.23333333333333334],[0.035416666666666666,-0.23333333333333334],[0.035416666666666666,-0.23333333333333334],[0.035416666666666666,-0.23333333333333334],[0.035416666666666666,-0.23333333333333334],[0.035416666666666666,-0.23333333333333334],[0.035416666666666666,-0.23333333333333334],[0.035416666666666666,-0.23333333333333334],[0.035416666666666666,-0.23333333333333334],[0.035416666666666666,-0.23333333333333334],[0.035416666666666666,-0.23333333333333334],[0.035416666666666666,-0.23333333333333334],[0.035416666666666666,-0.23333333333333334],[0.035416666666666666,-0.23333333333333334],[0.035416666666666666,-0.23333333333333334],[0.035416666666666666,-0.23333333333333334],[0.035416666666666666,-0.23333333333333334],[0.035416666666666666,-0.23333333333333334],[0.035416666666666666,-0.23333333333333334],[0.035416666666666666,-0.23333333333333334],[0.035416666666666666,-0.23333333333333334],[0.035416666666666666,-0.23333333333333334],[0.035416666666666666,-0.23333333333333334],[0.035416666666666666,-0.23333333333333334],[0.035416666666666666,-0.23333333333333334],[0.035416666666666666,-0.23333333333333334],[0.035416666666666666,-0.23333333333333334],[0.035416666666666666,-0.23333333333333334],[0.035416666666666666,-0.23333333333333334],[0.035416666666666666,-0.23333333333333334],[0.035416666666666666,-0.23333333333333334],[0.035416666666666666,-0.23333333333333334],[0.035416666666666666,-0.2351851851851852],[0.034375,-0.2351851851851852],[0.034375,-0.2351851851851852],[0.034375,-0.2351851851851852],[0.034375,-0.2351851851851852],[0.034375,-0.2351851851851852],[0.034375,-0.2351851851851852],[0.034375,-0.2351851851851852],[0.034375,-0.2351851851851852],[0.034375,-0.2351851851851852],[0.034375,-0.2351851851851852],[0.034375,-0.2351851851851852],[0.034375,-0.2351851851851852],[0.034375,-0.2351851851851852],[0.034375,-0.2351851851851852],[0.034375,-0.2351851851851852],[0.034375,-0.2351851851851852],[0.034375,-0.2351851851851852],[0.034375,-0.2351851851851852],[0.034375,-0.2351851851851852],[0.034375,-0.2351851851851852],[0.034375,-0.2351851851851852],[0.034375,-0.2351851851851852],[0.034375,-0.2351851851851852],[0.034375,-0.2351851851851852],[0.034375,-0.2351851851851852],[0.034375,-0.2351851851851852],[0.034375,-0.2351851851851852],[0.034375,-0.2351851851851852],[0.034375,-0.2351851851851852],[0.034375,-0.2351851851851852],[0.034375,-0.2351851851851852],[0.034375,-0.2351851851851852],[0.034375,-0.2351851851851852],[0.034375,-0.2351851851851852],[0.034375,-0.2351851851851852],[0.034375,-0.2351851851851852],[0.034375,-0.2351851851851852],[0.034375,-0.2351851851851852],[0.034375,-0.2351851851851852],[0.034375,-0.2351851851851852],[0.034375,-0.2351851851851852],[0.034375,-0.2351851851851852],[0.034375,-0.2351851851851852],[0.034375,-0.2351851851851852],[0.034375,-0.2351851851851852],[0.034375,-0.2351851851851852],[0.034375,-0.2351851851851852],[0.034375,-0.2351851851851852],[0.034375,-0.2351851851851852],[0.034375,-0.2351851851851852],[0.034375,-0.2351851851851852],[0.034375,-0.2351851851851852],[0.034375,-0.2351851851851852],[0.034375,-0.2351851851851852],[0.034375,-0.2351851851851852],[0.034375,-0.2351851851851852],[0.034375,-0.2351851851851852],[0.034375,-0.2351851851851852],[0.034375,-0.2351851851851852],[0.034375,-0.2351851851851852],[0.034375,-0.2351851851851852],[0.034375,-0.2351851851851852],[0.034375,-0.2351851851851852],[0.034375,-0.2351851851851852],[0.034375,-0.2351851851851852],[0.034375,-0.2351851851851852],[0.034375,-0.2351851851851852],[0.034375,-0.2351851851851852],[0.034375,-0.2351851851851852],[0.034375,-0.2351851851851852],[0.034375,-0.2351851851851852],[0.034375,-0.2351851851851852],[0.034375,-0.2351851851851852],[0.034375,-0.2351851851851852],[0.034375,-0.2351851851851852],[0.034375,-0.2351851851851852],[0.034375,-0.2351851851851852],[0.034375,-0.2351851851851852],[0.034375,-0.2351851851851852],[0.034375,-0.2351851851851852],[0.034375,-0.2351851851851852],[0.034375,-0.2351851851851852],[0.034375,-0.2351851851851852],[0.034375,-0.2351851851851852],[0.034375,-0.2351851851851852],[0.034375,-0.2351851851851852],[0.034375,-0.2351851851851852],[0.034375,-0.2351851851851852],[0.034375,-0.2351851851851852],[0.034375,-0.2351851851851852],[0.034375,-0.2351851851851852],[0.034375,-0.2351851851851852],[0.034375,-0.2351851851851852],[0.034375,-0.2351851851851852],[0.034375,-0.2351851851851852],[0.034375,-0.2351851851851852],[0.034375,-0.2351851851851852],[0.034375,-0.2351851851851852],[0.034375,-0.2351851851851852],[0.034375,-0.2351851851851852],[0.034375,-0.2351851851851852],[0.034375,-0.2351851851851852],[0.034375,-0.2351851851851852],[0.034375,-0.2351851851851852],[0.034375,-0.2351851851851852],[0.034375,-0.2351851851851852],[0.034375,-0.2351851851851852],[0.034375,-0.2351851851851852],[0.034375,-0.2351851851851852],[0.034375,-0.2351851851851852],[0.034375,-0.2351851851851852],[0.034375,-0.2351851851851852],[0.034375,-0.2351851851851852],[0.034375,-0.2351851851851852],[0.034375,-0.2351851851851852],[0.034375,-0.2351851851851852],[0.034375,-0.2351851851851852],[0.034375,-0.2351851851851852],[0.034375,-0.2351851851851852],[0.034375,-0.2351851851851852],[0.034375,-0.2351851851851852],[0.034375,-0.2351851851851852],[0.03854166666666667,-0.24074074074074073],[0.051041666666666666,-0.2518518518518518],[0.06145833333333333,-0.26481481481481484],[0.06979166666666667,-0.27037037037037037],[0.08020833333333334,-0.2759259259259259],[0.09479166666666666,-0.2777777777777778],[0.128125,-0.2777777777777778],[0.16770833333333332,-0.2574074074074074],[0.19270833333333334,-0.23703703703703705],[0.225,-0.18888888888888888],[0.23229166666666667,-0.15925925925925927],[0.23333333333333334,-0.1425925925925926],[0.23958333333333334,-0.06481481481481481],[0.24166666666666667,-0.04814814814814815],[0.24375,0.005555555555555556],[0.24375,0.022222222222222223],[0.24375,0.08148148148148149],[0.24375,0.1],[0.24375,0.15185185185185185],[0.24375,0.17037037037037037],[0.234375,0.22777777777777777],[0.23125,0.24444444444444444],[0.21875,0.29259259259259257],[0.21666666666666667,0.30925925925925923],[0.20104166666666667,0.3574074074074074],[0.196875,0.3648148148148148],[0.18229166666666666,0.38333333333333336],[0.18229166666666666,0.38333333333333336],[0.16458333333333333,0.3925925925925926],[0.16145833333333334,0.3962962962962963],[0.15625,0.4],[0.15416666666666667,0.4],[0.15,0.40185185185185185],[0.14895833333333333,0.40370370370370373],[0.14791666666666667,0.40555555555555556],[0.146875,0.40555555555555556],[0.146875,0.40555555555555556],[0.146875,0.40555555555555556],[0.14583333333333334,0.4074074074074074],[0.14583333333333334,0.4074074074074074],[0.14583333333333334,0.40925925925925927],[0.14583333333333334,0.4111111111111111],[0.14583333333333334,0.412962962962963],[0.14583333333333334,0.412962962962963],[0.14583333333333334,0.412962962962963],[0.14583333333333334,0.412962962962963],[0.14583333333333334,0.412962962962963],[0.14583333333333334,0.412962962962963],[0.14583333333333334,0.412962962962963],[0.14583333333333334,0.412962962962963],[0.14583333333333334,0.412962962962963],[0.14583333333333334,0.412962962962963],[0.14583333333333334,0.412962962962963],[0.14583333333333334,0.412962962962963],[0.14583333333333334,0.412962962962963],[0.14583333333333334,0.412962962962963],[0.14583333333333334,0.412962962962963],[0.14583333333333334,0.412962962962963],[0.14583333333333334,0.412962962962963],[0.14583333333333334,0.412962962962963],[0.14583333333333334,0.412962962962963],[0.14583333333333334,0.412962962962963],[0.14583333333333334,0.412962962962963],[0.14583333333333334,0.412962962962963],[0.14583333333333334,0.412962962962963],[0.14583333333333334,0.412962962962963],[0.14583333333333334,0.412962962962963],[0.14583333333333334,0.412962962962963],[0.14583333333333334,0.412962962962963],[0.14583333333333334,0.412962962962963],[0.14583333333333334,0.412962962962963],[0.14583333333333334,0.412962962962963],[0.14583333333333334,0.412962962962963],[0.14583333333333334,0.412962962962963],[0.14583333333333334,0.412962962962963],[0.14583333333333334,0.412962962962963],[0.14583333333333334,0.412962962962963],[0.14583333333333334,0.412962962962963],[0.14583333333333334,0.412962962962963],[0.14583333333333334,0.412962962962963],[0.14583333333333334,0.412962962962963],[0.14583333333333334,0.412962962962963],[0.14583333333333334,0.412962962962963],[0.14583333333333334,0.412962962962963],[0.14583333333333334,0.412962962962963],[0.14583333333333334,0.412962962962963],[0.14583333333333334,0.412962962962963],[0.14583333333333334,0.412962962962963],[0.14583333333333334,0.412962962962963],[0.14583333333333334,0.412962962962963],[0.14583333333333334,0.412962962962963],[0.14583333333333334,0.412962962962963],[0.14583333333333334,0.412962962962963],[0.14583333333333334,0.412962962962963],[0.14583333333333334,0.412962962962963],[0.14583333333333334,0.412962962962963],[0.14583333333333334,0.412962962962963],[0.14583333333333334,0.412962962962963],[0.14583333333333334,0.412962962962963],[0.14583333333333334,0.412962962962963],[0.14583333333333334,0.412962962962963],[0.14583333333333334,0.412962962962963],[0.14583333333333334,0.412962962962963],[0.14583333333333334,0.412962962962963],[0.14583333333333334,0.412962962962963],[0.14583333333333334,0.412962962962963],[0.14583333333333334,0.412962962962963],[0.14583333333333334,0.412962962962963],[0.14583333333333334,0.412962962962963],[0.14583333333333334,0.412962962962963],[0.14583333333333334,0.412962962962963],[0.14583333333333334,0.412962962962963],[0.14583333333333334,0.412962962962963],[0.14583333333333334,0.412962962962963],[0.14583333333333334,0.412962962962963],[0.14583333333333334,0.412962962962963],[0.14583333333333334,0.412962962962963],[0.14583333333333334,0.412962962962963],[0.14583333333333334,0.412962962962963],[0.14583333333333334,0.412962962962963],[0.14583333333333334,0.412962962962963],[0.14583333333333334,0.412962962962963],[0.14583333333333334,0.412962962962963],[0.14583333333333334,0.412962962962963],[0.14583333333333334,0.412962962962963],[0.14583333333333334,0.412962962962963],[0.14583333333333334,0.412962962962963],[0.14583333333333334,0.412962962962963],[0.14583333333333334,0.412962962962963],[0.14583333333333334,0.412962962962963],[0.14583333333333334,0.412962962962963],[0.14583333333333334,0.412962962962963],[0.14583333333333334,0.412962962962963],[0.14583333333333334,0.412962962962963],[0.14583333333333334,0.412962962962963],[0.14583333333333334,0.412962962962963],[0.14583333333333334,0.412962962962963],[0.14583333333333334,0.412962962962963],[0.14583333333333334,0.412962962962963],[0.14583333333333334,0.412962962962963],[0.14583333333333334,0.412962962962963],[0.14583333333333334,0.412962962962963],[0.14583333333333334,0.412962962962963],[0.14583333333333334,0.412962962962963],[0.14583333333333334,0.412962962962963],[0.14583333333333334,0.412962962962963],[0.14583333333333334,0.412962962962963],[0.14583333333333334,0.412962962962963],[0.14583333333333334,0.412962962962963],[0.14583333333333334,0.412962962962963],[0.14583333333333334,0.412962962962963],[0.14583333333333334,0.412962962962963],[0.14583333333333334,0.412962962962963],[0.14583333333333334,0.412962962962963],[0.14583333333333334,0.412962962962963],[0.14583333333333334,0.412962962962963],[0.14583333333333334,0.412962962962963],[0.14583333333333334,0.412962962962963],[0.14583333333333334,0.412962962962963],[0.14583333333333334,0.412962962962963],[0.14583333333333334,0.412962962962963],[0.14583333333333334,0.412962962962963],[0.14583333333333334,0.412962962962963],[0.14583333333333334,0.412962962962963],[0.14583333333333334,0.412962962962963],[0.14583333333333334,0.412962962962963],[0.14583333333333334,0.412962962962963],[0.14583333333333334,0.412962962962963],[0.14583333333333334,0.412962962962963],[0.14583333333333334,0.412962962962963],[0.14583333333333334,0.412962962962963],[0.14583333333333334,0.412962962962963],[0.14583333333333334,0.412962962962963],[0.14583333333333334,0.412962962962963],[0.14583333333333334,0.412962962962963],[0.14583333333333334,0.412962962962963],[0.14583333333333334,0.412962962962963],[0.14583333333333334,0.412962962962963],[0.14583333333333334,0.412962962962963],[0.14583333333333334,0.412962962962963],[0.14583333333333334,0.412962962962963],[0.14583333333333334,0.412962962962963],[0.14583333333333334,0.412962962962963],[0.14583333333333334,0.412962962962963],[0.14583333333333334,0.412962962962963],[0.14583333333333334,0.412962962962963],[0.14583333333333334,0.412962962962963],[0.14583333333333334,0.412962962962963],[0.14583333333333334,0.412962962962963],[0.14583333333333334,0.412962962962963],[0.14583333333333334,0.412962962962963],[0.14583333333333334,0.412962962962963],[0.14583333333333334,0.412962962962963],[0.14583333333333334,0.412962962962963],[0.14583333333333334,0.412962962962963],[0.14583333333333334,0.412962962962963],[0.14583333333333334,0.412962962962963],[0.14583333333333334,0.412962962962963],[0.14583333333333334,0.412962962962963],[0.14583333333333334,0.412962962962963],[0.14583333333333334,0.412962962962963],[0.14583333333333334,0.412962962962963],[0.14583333333333334,0.412962962962963],[0.14583333333333334,0.412962962962963],[0.14583333333333334,0.412962962962963],[0.14583333333333334,0.412962962962963],[0.14583333333333334,0.412962962962963],[0.14583333333333334,0.412962962962963],[0.14583333333333334,0.412962962962963],[0.14583333333333334,0.412962962962963],[0.14583333333333334,0.412962962962963],[0.14583333333333334,0.40185185185185185],[0.146875,0.3888888888888889],[0.146875,0.37407407407407406],[0.15,0.3574074074074074],[0.153125,0.34074074074074073],[0.15520833333333334,0.3277777777777778],[0.15729166666666666,0.31296296296296294],[0.16145833333333334,0.2962962962962963],[0.1625,0.28703703703703703],[0.16458333333333333,0.2777777777777778],[0.165625,0.26481481481481484],[0.16666666666666666,0.26481481481481484],[0.16666666666666666,0.2611111111111111],[0.16666666666666666,0.2611111111111111],[0.16666666666666666,0.2611111111111111],[0.16666666666666666,0.2611111111111111],[0.16666666666666666,0.2611111111111111],[0.16666666666666666,0.25925925925925924],[0.16666666666666666,0.2537037037037037],[0.16666666666666666,0.24259259259259258],[0.16458333333333333,0.22962962962962963],[0.16354166666666667,0.21481481481481482],[0.15833333333333333,0.18888888888888888],[0.15833333333333333,0.18333333333333332],[0.15729166666666666,0.17037037037037037],[0.15520833333333334,0.16111111111111112],[0.153125,0.1425925925925926],[0.153125,0.1388888888888889],[0.15208333333333332,0.13333333333333333],[0.15104166666666666,0.12222222222222222],[0.15104166666666666,0.11666666666666667],[0.15104166666666666,0.10740740740740741],[0.15104166666666666,0.10185185185185185],[0.15104166666666666,0.0962962962962963],[0.15104166666666666,0.09074074074074075],[0.15104166666666666,0.08888888888888889]]","[[0.25447916666666665,0.40962962962962973],[0.25447916666666665,0.40962962962962973],[0.2648958333333333,0.43574074074074065],[0.2648958333333333,0.43574074074074065],[0.2631249999999999,0.4155555555555555],[0.2631249999999999,0.4155555555555555],[0.25322916666666656,0.38685185185185184],[0.2616666666666667,0.3483333333333334],[0.24406249999999996,0.3151851851851853],[0.22291666666666668,0.27444444444444455],[0.21885416666666657,0.22611111111111115],[0.20864583333333328,0.19203703703703712],[0.1970833333333334,0.15759259259259265],[0.20593750000000005,0.1764814814814814],[0.20354166666666676,0.19277777777777783],[0.2107291666666666,0.20277777777777778],[0.21218750000000006,0.20796296296296288],[0.21322916666666672,0.2175925925925926],[0.21427083333333338,0.2272222222222223],[0.21281249999999996,0.22907407407407415],[0.19604166666666673,0.24277777777777781],[0.19604166666666673,0.24277777777777781],[0.18875000000000006,0.25462962962962965],[0.16843750000000005,0.2735185185185186],[0.15197916666666675,0.26296296296296295],[0.1287499999999999,0.2862962962962963],[0.1196875000000001,0.2977777777777777],[0.10510416666666676,0.3072222222222222],[0.1053124999999999,0.30462962962962964],[0.07447916666666667,0.31500000000000006],[0.049687500000000044,0.34074074074074073],[0.02666666666666669,0.3537037037037037],[-0.005833333333333357,0.3685185185185185],[-0.02020833333333331,0.3883333333333334],[-0.02020833333333331,0.3883333333333334],[-0.040625,0.4227777777777777],[-0.08458333333333339,0.43925925925925935],[-0.10687500000000003,0.44648148148148153],[-0.14072916666666668,0.4281481481481482],[-0.15437500000000004,0.39388888888888896],[-0.15989583333333332,0.37814814814814823],[-0.1608333333333333,0.3653703703703703],[-0.16635416666666672,0.32759259259259255],[-0.15718749999999998,0.3037037037037037],[-0.153125,0.26777777777777784],[-0.14718749999999994,0.22148148148148153],[-0.14718749999999994,0.22148148148148153],[-0.12239583333333333,0.1675925925925926],[-0.12552083333333333,0.10277777777777777],[-0.09312499999999997,0.07611111111111116],[-0.10677083333333333,0.07388888888888885],[-0.10770833333333331,0.0301851851851851],[-0.11322916666666671,-0.01648148148148144],[-0.11427083333333338,0.027222222222222307],[-0.12999999999999995,0.057037037037036956],[-0.12208333333333338,0.048333333333333374],[-0.11000000000000003,0.03537037037037041],[-0.10020833333333339,0.023333333333333376],[-0.08197916666666671,0.04944444444444453],[-0.08218749999999998,0.06500000000000004],[-0.0671875,0.08796296296296297],[-0.02791666666666662,0.07981481481481485],[0.011354166666666643,0.07166666666666675],[0.011354166666666643,0.07166666666666675],[0.043229166666666666,0.018148148148148063],[0.043229166666666666,0.018148148148148063],[0.07291666666666667,-0.031111111111111027],[0.07052083333333338,-0.0294444444444444],[0.07052083333333338,-0.0294444444444444],[0.07677083333333339,-0.04203703703703712],[0.07677083333333339,-0.04203703703703712],[0.08239583333333324,-0.0485185185185186],[0.08239583333333324,-0.0485185185185186],[0.08229166666666667,-0.08666666666666668],[0.10250000000000009,-0.10203703703703708],[0.11729166666666657,-0.10037037037037035],[0.11802083333333328,-0.05759259259259263],[0.11500000000000009,-0.03537037037037041],[0.11770833333333333,-0.020370370370370372],[0.11895833333333337,0.019259259259259216],[0.12864583333333332,0.046481481481481526],[0.12864583333333332,0.046481481481481526],[0.14385416666666656,0.10277777777777777],[0.15187499999999995,0.12629629629629638],[0.1634375000000001,0.16351851851851842],[0.14208333333333342,0.18555555555555564],[0.12614583333333323,0.1905555555555555],[0.146875,0.16999999999999993],[0.1540625000000001,0.1883333333333334],[0.1716666666666666,0.23537037037037042],[0.18895833333333342,0.23296296296296287],[0.1935416666666666,0.277962962962963],[0.2256249999999999,0.2507407407407407],[0.22531249999999994,0.3079629629629629],[0.20510416666666675,0.3624074074074075],[0.23989583333333328,0.334074074074074],[0.27468750000000003,0.30574074074074076],[0.27468750000000003,0.30574074074074076],[0.2953125,0.35907407407407405],[0.3484375,0.3979629629629629],[0.39791666666666664,0.3962962962962963],[0.3720833333333334,0.42777777777777776],[0.3589583333333332,0.4118518518518518],[0.3589583333333332,0.4118518518518518],[0.3042708333333332,0.41944444444444445],[0.31697916666666665,0.3888888888888889],[0.36864583333333345,0.33796296296296297],[0.3779166666666666,0.3622222222222223],[0.4133333333333333,0.4242592592592593],[0.4133333333333333,0.4242592592592593],[0.39645833333333325,0.41814814814814805],[0.39645833333333325,0.41814814814814805],[0.3445833333333333,0.34888888888888886],[0.2691666666666668,0.33000000000000007],[0.2795833333333334,0.2609259259259259],[0.2859375,0.20500000000000007],[0.2621875000000001,0.21851851851851853],[0.26020833333333326,0.18722222222222226],[0.20572916666666666,0.25259259259259254],[0.16552083333333342,0.20259259259259255],[0.09916666666666671,0.11481481481481481],[0.06812500000000009,0.08296296296296288],[0.05687500000000002,0.11037037037037041],[0.05687500000000002,0.11037037037037041],[0.07427083333333329,0.09648148148148153],[0.07770833333333324,0.17111111111111107],[0.08937499999999995,0.175],[0.11885416666666657,0.13444444444444448],[0.10166666666666657,0.11814814814814806],[0.11958333333333329,0.13203703703703695],[0.12218749999999995,0.17481481481481478],[0.11166666666666672,0.23555555555555563],[0.11166666666666672,0.23555555555555563],[0.12822916666666656,0.25259259259259254],[0.1243750000000001,0.2175925925925926],[0.12229166666666676,0.16722222222222213],[0.12760416666666666,0.06592592592592597],[0.11770833333333333,0.04537037037037037],[0.10927083333333343,0.04685185185185177],[0.0953125,0.04425925925925922],[0.0796875,-0.062037037037037036],[0.10114583333333324,-0.04314814814814806],[0.1131249999999999,-0.1],[0.10885416666666667,-0.10888888888888891],[0.11520833333333323,-0.09574074074074072],[0.11520833333333323,-0.09574074074074072],[0.12760416666666666,-0.03592592592592588],[0.11916666666666677,-0.010370370370370412],[0.14572916666666677,0.02555555555555547],[0.18802083333333333,0.04685185185185177],[0.1962500000000001,0.08277777777777787],[0.21375000000000005,0.09240740740740737],[0.18583333333333343,0.0455555555555556],[0.22843749999999996,0.09814814814814815],[0.22260416666666671,0.09203703703703713],[0.24739583333333334,0.17851851851851847],[0.23166666666666677,0.17388888888888884],[0.2509375000000001,0.27814814814814826],[0.23604166666666657,0.28648148148148156],[0.22374999999999995,0.38333333333333336],[0.25104166666666666,0.4696296296296297],[0.26614583333333336,0.5657407407407408],[0.31437499999999996,0.7012962962962964],[0.3172916666666666,0.7724074074074074],[0.35822916666666677,0.7979629629629629],[0.36604166666666677,0.8170370370370371],[0.36604166666666677,0.8170370370370371],[0.36843750000000003,0.819074074074074],[0.3632291666666667,0.8124074074074075],[0.3632291666666667,0.8124074074074075],[0.36520833333333325,0.8288888888888889],[0.36520833333333325,0.8288888888888889],[0.35177083333333337,0.7951851851851851],[0.32270833333333326,0.7324074074074074],[0.28114583333333343,0.7055555555555556],[0.1896874999999999,0.643148148148148],[0.10489583333333338,0.5949999999999999],[0.040625,0.5742592592592592],[0.040625,0.5742592592592592],[0.013229166666666714,0.5303703703703704],[0.012083333333333357,0.5661111111111112],[0.012083333333333357,0.5661111111111112],[0.0026041666666666665,0.5068518518518519],[0.0026041666666666665,0.5068518518518519],[-0.0018749999999999527,0.49907407407407406],[-0.0018749999999999527,0.49907407407407406],[-0.00625,0.4751851851851852],[-0.03843749999999998,0.49740740740740746],[-0.03843749999999998,0.49740740740740746],[-0.05520833333333333,0.5001851851851852],[-0.05520833333333333,0.5001851851851852],[-0.04520833333333331,0.5205555555555555],[-0.005104166666666643,0.522962962962963],[0.03812500000000003,0.5551851851851851],[0.05249999999999998,0.55],[0.06489583333333329,0.5748148148148148],[0.07906250000000009,0.6287037037037037],[0.05354166666666664,0.6587037037037038],[0.06291666666666665,0.6670370370370371],[0.10666666666666676,0.6572222222222222],[0.16437499999999997,0.6568518518518519],[0.20302083333333343,0.6631481481481482],[0.22927083333333323,0.6655555555555556],[0.22927083333333323,0.6655555555555556],[0.2259375000000001,0.6668518518518519],[0.2205208333333334,0.7229629629629629],[0.21708333333333343,0.7490740740740741],[0.2241666666666667,0.7461111111111111],[0.26895833333333335,0.7548148148148148],[0.2716666666666666,0.7701851851851852],[0.2834374999999999,0.7866666666666666],[0.2727083333333333,0.7829629629629629],[0.2820833333333333,0.7618518518518518],[0.22802083333333342,0.7561111111111111],[0.17395833333333333,0.7503703703703705],[0.1736458333333334,0.7227777777777777],[0.2040625000000001,0.7064814814814815],[0.16510416666666666,0.669074074074074],[0.12614583333333323,0.6316666666666667],[0.11322916666666671,0.6290740740740741],[0.10187499999999995,0.6085185185185186],[0.10864583333333329,0.6098148148148147],[0.11020833333333328,0.602962962962963],[0.13697916666666668,0.6103703703703705],[0.18416666666666662,0.5972222222222222],[0.18072916666666666,0.5653703703703703],[0.14614583333333328,0.5172222222222221],[0.14593749999999991,0.5005555555555554],[0.15322916666666658,0.4898148148148148],[0.11895833333333337,0.4087037037037038],[0.11895833333333337,0.4087037037037038],[0.13802083333333334,0.39296296296296307],[0.13802083333333334,0.39296296296296307],[0.13447916666666657,0.3587037037037038],[0.13447916666666657,0.3587037037037038],[0.1140625,0.3448148148148149],[0.1140625,0.3448148148148149],[0.1397916666666667,0.2994444444444445],[0.1397916666666667,0.2994444444444445],[0.12385416666666677,0.2737037037037036],[0.12385416666666677,0.2737037037037036],[0.15041666666666675,0.24685185185185177],[0.15041666666666675,0.24685185185185177],[0.175,0.2146296296296296],[0.175,0.2146296296296296],[0.17374999999999996,0.20277777777777778],[0.17374999999999996,0.20277777777777778],[0.1650000000000001,0.18499999999999997],[0.1650000000000001,0.18499999999999997],[0.21677083333333325,0.1427777777777778],[0.21677083333333325,0.1427777777777778],[0.22104166666666672,0.023333333333333376],[0.22104166666666672,0.023333333333333376],[0.22729166666666673,-0.034074074074074034],[0.22729166666666673,-0.034074074074074034],[0.27333333333333343,-0.1255555555555556],[0.27333333333333343,-0.1255555555555556],[0.2660416666666668,-0.20018518518518522],[0.2660416666666668,-0.20018518518518522],[0.2976041666666667,-0.26592592592592595],[0.2976041666666667,-0.26592592592592595],[0.2846874999999999,-0.32537037037037037],[0.2846874999999999,-0.32537037037037037],[0.2756249999999999,-0.40555555555555556],[0.2756249999999999,-0.40555555555555556],[0.28958333333333336,-0.46518518518518515],[0.28958333333333336,-0.46518518518518515],[0.31270833333333337,-0.5375925925925926],[0.31270833333333337,-0.5375925925925926],[0.30447916666666663,-0.5344444444444445],[0.30447916666666663,-0.5344444444444445],[0.33833333333333326,-0.5311111111111111],[0.33833333333333326,-0.5311111111111111],[0.34249999999999997,-0.5898148148148148],[0.34249999999999997,-0.5898148148148148],[0.3272916666666667,-0.6196296296296296],[0.3272916666666667,-0.6196296296296296],[0.3407291666666666,-0.6361111111111111],[0.3407291666666666,-0.6361111111111111],[0.31666666666666665,-0.6425925925925926],[0.31666666666666665,-0.6425925925925926],[0.29010416666666666,-0.6599999999999999],[0.29010416666666666,-0.6599999999999999],[0.2630208333333333,-0.6711111111111111],[0.2630208333333333,-0.6711111111111111],[0.2738541666666668,-0.6905555555555555],[0.2738541666666668,-0.6905555555555555],[0.2747916666666666,-0.7031481481481481],[0.2747916666666666,-0.7031481481481481],[0.2594791666666666,-0.7212962962962963],[0.2594791666666666,-0.7212962962962963],[0.2193749999999999,-0.6946296296296297],[0.2193749999999999,-0.6946296296296297],[0.19479166666666667,-0.6838888888888889],[0.19479166666666667,-0.6838888888888889],[0.15260416666666668,-0.6392592592592592],[0.15260416666666668,-0.6392592592592592],[0.13291666666666657,-0.5977777777777779],[0.13291666666666657,-0.5977777777777779],[0.13312499999999997,-0.5742592592592592],[0.13312499999999997,-0.5742592592592592],[0.12531249999999997,-0.5712962962962963],[0.12531249999999997,-0.5712962962962963],[0.11875,-0.5235185185185185],[0.11875,-0.5235185185185185],[0.11739583333333338,-0.4874074074074074],[0.11739583333333338,-0.4874074074074074],[0.11812500000000009,-0.4487037037037037],[0.11812500000000009,-0.4487037037037037],[0.13947916666666677,-0.38],[0.13947916666666677,-0.38],[0.1388541666666666,-0.32111111111111107],[0.1388541666666666,-0.32111111111111107],[0.16333333333333327,-0.23851851851851855],[0.16333333333333327,-0.23851851851851855],[0.1603125000000001,-0.22814814814814813],[0.1603125000000001,-0.22814814814814813],[0.1252083333333334,-0.20092592592592592],[0.1252083333333334,-0.20092592592592592],[0.09552083333333337,-0.11425925925925924],[0.09552083333333337,-0.11425925925925924],[0.07104166666666671,-0.10333333333333336],[0.07104166666666671,-0.10333333333333336],[0.04385416666666669,-0.11222222222222226],[0.004270833333333357,-0.13351851851851856],[-0.01906249999999995,-0.13092592592592592],[-0.01906249999999995,-0.13092592592592592],[-0.059062500000000046,-0.1559259259259259],[-0.05666666666666664,-0.1257407407407407],[-0.10979166666666665,-0.21203703703703702],[-0.10979166666666665,-0.21203703703703702],[-0.11781250000000003,-0.25999999999999995],[-0.12062499999999995,-0.19685185185185186],[-0.11666666666666667,-0.24740740740740744],[-0.10375000000000002,-0.21722222222222223],[-0.09354166666666662,-0.15537037037037033],[-0.08052083333333329,-0.08777777777777773],[-0.08562500000000005,-0.06314814814814819],[-0.0828125,-0.07462962962962966],[-0.078125,-0.10259259259259255],[-0.015625,0.005555555555555556],[0.059583333333333384,0.10981481481481473],[0.0931250000000001,0.025370370370370456],[0.0978125000000001,0.007407407407407408],[0.1134375000000001,0.0011111111111111532],[0.13229166666666667,-0.037037037037037035],[0.14489583333333325,-0.07074074074074072],[0.1554166666666667,-0.0868518518518518],[0.16302083333333334,-0.06759259259259259],[0.1474999999999999,-0.05185185185185185],[0.1474999999999999,-0.05185185185185185],[0.11260416666666657,-0.062407407407407384],[0.07729166666666672,-0.06870370370370374],[0.06989583333333324,-0.029814814814814856],[0.09614583333333329,0.027962962962963005],[0.09979166666666663,0.06092592592592588],[0.09614583333333329,0.06870370370370374],[0.10499999999999995,0.07629629629629638],[0.11124999999999995,0.07333333333333338],[0.13229166666666667,0.09351851851851851],[0.12947916666666662,0.07314814814814814],[0.13697916666666668,0.08407407407407404],[0.1267708333333334,0.09962962962962954],[0.125,0.07611111111111116],[0.1296875,0.05722222222222218],[0.12479166666666662,0.05333333333333325],[0.12156250000000005,0.06481481481481481],[0.12156250000000005,0.06481481481481481],[0.14072916666666657,0.10851851851851856],[0.14802083333333324,0.19203703703703712],[0.1490624999999999,0.23499999999999996],[0.1794791666666666,0.25333333333333324],[0.21677083333333325,0.24666666666666676],[0.20239583333333327,0.18925925925925935],[0.1875,0.19166666666666668],[0.17843749999999994,0.15537037037037033],[0.17843749999999994,0.15537037037037033],[0.18760416666666657,0.19037037037037027],[0.20239583333333327,0.2351851851851852],[0.18250000000000005,0.2540740740740742],[0.1796875,0.2485185185185186],[0.19197916666666662,0.24296296296296305],[0.17156250000000003,0.24222222222222214],[0.12635416666666663,0.1955555555555556],[0.1382291666666667,0.19462962962962968],[0.15479166666666658,0.18185185185185193],[0.14208333333333342,0.172037037037037],[0.12635416666666663,0.11185185185185181],[0.11062500000000004,0.051666666666666625],[0.09500000000000004,-0.0003703703703704546],[0.07937500000000004,-0.05240740740740743],[0.07458333333333324,-0.12092592592592595],[0.07177083333333342,-0.13037037037037033],[0.09375,-0.09388888888888887],[0.11572916666666658,-0.05740740740740741],[0.14802083333333324,-0.06370370370370367],[0.1803124999999999,-0.07000000000000002],[0.20927083333333343,-0.08481481481481483],[0.2127083333333334,-0.08592592592592588],[0.22927083333333323,-0.11425925925925924],[0.23114583333333344,-0.10555555555555556],[0.22322916666666662,-0.09518518518518514],[0.22322916666666662,-0.09518518518518514],[0.21875,-0.10999999999999996],[0.21427083333333338,-0.12481481481481477],[0.1837500000000001,-0.16148148148148145],[0.1382291666666667,-0.14351851851851852],[0.09197916666666663,-0.10907407407407403],[0.05666666666666664,-0.07740740740740742],[0.07072916666666676,-0.075],[0.07072916666666676,-0.075],[0.07249999999999991,-0.019999999999999917],[0.09333333333333324,-0.0020370370370370794],[0.09239583333333339,0.024629629629629547],[0.0775000000000001,0.005370370370370328],[0.0626041666666667,-0.013888888888888888],[0.09572916666666677,-0.005555555555555556],[0.12885416666666671,0.002777777777777778],[0.16270833333333337,-0.005370370370370328],[0.2055208333333333,-0.003703703703703704],[0.20968749999999994,-0.009444444444444486],[0.22583333333333327,-0.03629629629629634],[0.21770833333333334,-0.08518518518518518],[0.1974999999999999,-0.1544444444444444],[0.18916666666666657,-0.19185185185185188],[0.19541666666666657,-0.22555555555555556],[0.18458333333333338,-0.24000000000000005],[0.14895833333333333,-0.2796296296296296],[0.11333333333333329,-0.31925925925925924],[0.11333333333333329,-0.31925925925925924],[0.04645833333333336,-0.3244444444444444],[0.04645833333333336,-0.3244444444444444],[0.027604166666666666,-0.3446296296296297],[0.027604166666666666,-0.3446296296296297],[-0.011666666666666714,-0.3907407407407407],[-0.022083333333333382,-0.4222222222222222],[-0.022083333333333382,-0.4222222222222222],[-0.03802083333333333,-0.39166666666666666],[-0.03802083333333333,-0.39166666666666666],[-0.04125000000000002,-0.37092592592592594],[-0.04125000000000002,-0.37092592592592594],[-0.06187499999999998,-0.36500000000000005],[-0.06187499999999998,-0.36500000000000005],[-0.06239583333333331,-0.3718518518518519],[-0.05260416666666667,-0.3701851851851851],[-0.05260416666666667,-0.3701851851851851],[-0.014374999999999952,-0.3707407407407407],[0.042604166666666644,-0.40129629629629626],[0.0626041666666667,-0.3940740740740741],[0.09645833333333324,-0.3948148148148148],[0.12135416666666667,-0.3881481481481482],[0.19406249999999994,-0.40314814814814814],[0.22468750000000004,-0.42481481481481476],[0.2553124999999999,-0.4096296296296296],[0.2609375,-0.40666666666666673],[0.2794791666666666,-0.4057407407407408],[0.26114583333333335,-0.37648148148148153],[0.26114583333333335,-0.37648148148148153],[0.24989583333333343,-0.3461111111111111],[0.24645833333333325,-0.34870370370370374],[0.2543750000000001,-0.287962962962963],[0.26229166666666665,-0.22722222222222221],[0.24562499999999995,-0.18037037037037032],[0.24020833333333325,-0.12462962962962965],[0.22958333333333342,-0.08407407407407404],[0.23229166666666667,-0.09351851851851851],[0.21375000000000005,-0.007962962962962878],[0.21375000000000005,-0.007962962962962878],[0.21875,0.014814814814814815],[0.18677083333333327,-0.003888888888888931]]","[[0.25447916666666665,0.40962962962962973,0.00020000028610667187],[0.25447916666666665,0.40962962962962973,0.05300000000000438],[0.2648958333333333,0.43574074074074065,0.06470000028610201],[0.2648958333333333,0.43574074074074065,0.08400000000000318],[0.2631249999999999,0.4155555555555555,0.09890000009536948],[0.2631249999999999,0.4155555555555555,0.10790000009536982],[0.25322916666666656,0.38685185185185184,0.12450000000000472],[0.2616666666666667,0.3483333333333334,0.1410999999046325],[0.24406249999999996,0.3151851851851853,0.15800000000000125],[0.22291666666666668,0.27444444444444455,0.17450000000000188],[0.21885416666666657,0.22611111111111115,0.19109999990463677],[0.20864583333333328,0.19203703703703712,0.2079999999999984],[0.1970833333333334,0.15759259259259265,0.2259999999999991],[0.20593750000000005,0.1764814814814814,0.24120000028610633],[0.20354166666666676,0.19277777777777783,0.2578000001907341],[0.2107291666666666,0.20277777777777778,0.274400000095369],[0.21218750000000006,0.20796296296296288,0.2912000002861035],[0.21322916666666672,0.2175925925925926,0.3078000001907384],[0.21427083333333338,0.2272222222222223,0.32450000000000045],[0.21281249999999996,0.22907407407407415,0.34120000028610065],[0.19604166666666673,0.24277777777777781,0.3580000000000041],[0.19604166666666673,0.24277777777777781,0.3745000000000047],[0.18875000000000006,0.25462962962962965,0.3912000002861049],[0.16843750000000005,0.2735185185185186,0.4078000001907327],[0.15197916666666675,0.26296296296296295,0.42590000009536766],[0.1287499999999999,0.2862962962962963,0.44120000028610207],[0.1196875000000001,0.2977777777777777,0.45780000019073697],[0.10510416666666676,0.3072222222222222,0.47449999999999903],[0.1053124999999999,0.30462962962962964,0.49120000028610633],[0.07447916666666667,0.31500000000000006,0.5078000001907341],[0.049687500000000044,0.34074074074074073,0.5249000000953714],[0.02666666666666669,0.3537037037037037,0.541400000095372],[-0.005833333333333357,0.3685185185185185,0.5583000001907337],[-0.02020833333333331,0.3883333333333334,0.5752000002861024],[-0.02020833333333331,0.3883333333333334,0.5913000001907349],[-0.040625,0.4227777777777777,0.6079000000953698],[-0.08458333333333339,0.43925925925925935,0.6254000000953681],[-0.10687500000000003,0.44648148148148153,0.6438000001907369],[-0.14072916666666668,0.4281481481481482,0.6615999999046309],[-0.15437500000000004,0.39388888888888896,0.6779000000953701],[-0.15989583333333332,0.37814814814814823,0.6935999999046345],[-0.1608333333333333,0.3653703703703703,0.7079000000953712],[-0.16635416666666672,0.32759259259259255,0.724499999999999],[-0.15718749999999998,0.3037037037037037,0.7412000002861063],[-0.153125,0.26777777777777784,0.7594000000953685],[-0.14718749999999994,0.22148148148148153,0.774400000095369],[-0.14718749999999994,0.22148148148148153,0.7910999999046311],[-0.12239583333333333,0.1675925925925926,0.8078000001907384],[-0.12552083333333333,0.10277777777777777,0.8248000001907343],[-0.09312499999999997,0.07611111111111116,0.8412000002861006],[-0.10677083333333333,0.07388888888888885,0.8605000000000018],[-0.10770833333333331,0.0301851851851851,0.8769000000953682],[-0.11322916666666671,-0.01648148148148144,0.8929000000953664],[-0.11427083333333338,0.027222222222222307,0.9078000001907327],[-0.12999999999999995,0.057037037037036956,0.9245000000000019],[-0.12208333333333338,0.048333333333333374,0.9412000002861021],[-0.11000000000000003,0.03537037037037041,0.957800000190737],[-0.10020833333333339,0.023333333333333376,0.974499999999999],[-0.08197916666666671,0.04944444444444453,0.9913000001907335],[-0.08218749999999998,0.06500000000000004,1.0082000002861022],[-0.0671875,0.08796296296296297,1.0245000000000033],[-0.02791666666666662,0.07981481481481485,1.0450000000000017],[0.011354166666666643,0.07166666666666675,1.0629000000953681],[0.011354166666666643,0.07166666666666675,1.0744000000953662],[0.043229166666666666,0.018148148148148063,1.0910999999046354],[0.043229166666666666,0.018148148148148063,1.1079000000953698],[0.07291666666666667,-0.031111111111111027,1.1245999999046319],[0.07052083333333338,-0.0294444444444444,1.1439999999999984],[0.07052083333333338,-0.0294444444444444,1.1580000000000013],[0.07677083333333339,-0.04203703703703712,1.1745000000000019],[0.07677083333333339,-0.04203703703703712,1.1910999999046368],[0.08239583333333324,-0.0485185185185186,1.207800000190737],[0.08239583333333324,-0.0485185185185186,1.2244000000953719],[0.08229166666666667,-0.08666666666666668,1.241099999904634],[0.10250000000000009,-0.10203703703703708,1.2579000000953684],[0.11729166666666657,-0.10037037037037035,1.274400000095369],[0.11802083333333328,-0.05759259259259263,1.2912000002861035],[0.11500000000000009,-0.03537037037037041,1.3078000001907384],[0.11770833333333333,-0.020370370370370372,1.3273000001907391],[0.11895833333333337,0.019259259259259216,1.3425999999046354],[0.12864583333333332,0.046481481481481526,1.358700000286106],[0.12864583333333332,0.046481481481481526,1.3744000000953704],[0.14385416666666656,0.10277777777777777,1.3910999999046325],[0.15187499999999995,0.12629629629629638,1.4078000001907327],[0.1634375000000001,0.16351851851851842,1.4244000000953676],[0.14208333333333342,0.18555555555555564,1.441200000286102],[0.12614583333333323,0.1905555555555555,1.4579000000953712],[0.146875,0.16999999999999993,1.474499999999999],[0.1540625000000001,0.1883333333333334,1.4913000001907335],[0.1716666666666666,0.23537037037037042,1.5078000001907341],[0.18895833333333342,0.23296296296296287,1.5245000000000033],[0.1935416666666666,0.277962962962963,1.541099999904631],[0.2256249999999999,0.2507407407407407,1.5595999999046342],[0.22531249999999994,0.3079629629629629,1.5744000000953662],[0.20510416666666675,0.3624074074074075,1.591300000190735],[0.23989583333333328,0.334074074074074,1.6077000002861013],[0.27468750000000003,0.30574074074074076,1.6352000002861047],[0.27468750000000003,0.30574074074074076,1.6417000002861002],[0.2953125,0.35907407407407405,1.657900000095367],[0.3484375,0.3979629629629629,1.6745000000000019],[0.39791666666666664,0.3962962962962963,1.697099999904637],[0.3720833333333334,0.42777777777777776,1.7109999999999985],[0.3589583333333332,0.4118518518518518,1.7272000002861034],[0.3589583333333332,0.4118518518518518,1.741099999904634],[0.3042708333333332,0.41944444444444445,1.7578000001907341],[0.31697916666666665,0.3888888888888889,1.7779999999999987],[0.36864583333333345,0.33796296296296297,1.7950000000000017],[0.3779166666666666,0.3622222222222223,1.8103000001907361],[0.4133333333333333,0.4242592592592593,1.8284999999999982],[0.4133333333333333,0.4242592592592593,1.8414000000953692],[0.39645833333333325,0.41814814814814805,1.8579000000953698],[0.39645833333333325,0.41814814814814805,1.8745000000000047],[0.3445833333333333,0.34888888888888886,1.8910999999046325],[0.2691666666666668,0.33000000000000007,1.9078000001907327],[0.2795833333333334,0.2609259259259259,1.9245000000000019],[0.2859375,0.20500000000000007,1.941200000286102],[0.2621875000000001,0.21851851851851853,1.9609999999999985],[0.26020833333333326,0.18722222222222226,1.976700000286101],[0.20572916666666666,0.25259259259259254,1.993000000000002],[0.16552083333333342,0.20259259259259255,2.007800000190734],[0.09916666666666671,0.11481481481481481,2.0257000002861005],[0.06812500000000009,0.08296296296296288,2.041099999904631],[0.05687500000000002,0.11037037037037041,2.058],[0.05687500000000002,0.11037037037037041,2.074400000095366],[0.07427083333333329,0.09648148148148153,2.0912000002861006],[0.07770833333333324,0.17111111111111107,2.1078000001907355],[0.08937499999999995,0.175,2.1248000001907386],[0.11885416666666657,0.13444444444444448,2.1410999999046325],[0.10166666666666657,0.11814814814814806,2.1588000001907375],[0.11958333333333329,0.13203703703703695,2.17490000009537],[0.12218749999999995,0.17481481481481478,2.1917000002861045],[0.11166666666666672,0.23555555555555563,2.2079000000953712],[0.11166666666666672,0.23555555555555563,2.224499999999999],[0.12822916666666656,0.25259259259259254,2.241099999904634],[0.1243750000000001,0.2175925925925926,2.259200000286107],[0.12229166666666676,0.16722222222222213,2.2745000000000033],[0.12760416666666666,0.06592592592592597,2.2912000002861035],[0.11770833333333333,0.04537037037037037,2.308099999904634],[0.10927083333333343,0.04685185185185177,2.3245999999046347],[0.0953125,0.04425925925925922,2.3410999999046354],[0.0796875,-0.062037037037037036,2.3608000001907357],[0.10114583333333324,-0.04314814814814806,2.376099999904632],[0.1131249999999999,-0.1,2.3910999999046325],[0.10885416666666667,-0.10888888888888891,2.4077000002861055],[0.11520833333333323,-0.09574074074074072,2.4258000001907334],[0.11520833333333323,-0.09574074074074072,2.4410999999046368],[0.12760416666666666,-0.03592592592592588,2.4579000000953712],[0.11916666666666677,-0.010370370370370412,2.4757000002861034],[0.14572916666666677,0.02555555555555547,2.4912000002861063],[0.18802083333333333,0.04685185185185177,2.507800000190734],[0.1962500000000001,0.08277777777777787,2.524400000095369],[0.21375000000000005,0.09240740740740737,2.544800000190733],[0.18583333333333343,0.0455555555555556,2.5609000000953657],[0.22843749999999996,0.09814814814814815,2.5768000001907367],[0.22260416666666671,0.09203703703703713,2.5912000002861006],[0.24739583333333334,0.17851851851851847,2.6078000001907355],[0.23166666666666677,0.17388888888888884,2.6244000000953704],[0.2509375000000001,0.27814814814814826,2.6410999999046325],[0.23604166666666657,0.28648148148148156,2.658300000190735],[0.22374999999999995,0.38333333333333336,2.6758000001907334],[0.25104166666666666,0.4696296296296297,2.6917000002861045],[0.26614583333333336,0.5657407407407408,2.7077000002861027],[0.31437499999999996,0.7012962962962964,2.724800000190733],[0.3172916666666666,0.7724074074074074,2.741099999904634],[0.35822916666666677,0.7979629629629629,2.7594000000953685],[0.36604166666666677,0.8170370370370371,2.7808000001907374],[0.36604166666666677,0.8170370370370371,2.791099999904631],[0.36843750000000003,0.819074074074074,2.8079000000953656],[0.3632291666666667,0.8124074074074075,2.826599999904637],[0.3632291666666667,0.8124074074074075,2.8412000002861006],[0.36520833333333325,0.8288888888888889,2.8580999999046313],[0.36520833333333325,0.8288888888888889,2.8745000000000047],[0.35177083333333337,0.7951851851851851,2.8910999999046325],[0.32270833333333326,0.7324074074074074,2.9078000001907327],[0.28114583333333343,0.7055555555555556,2.924500000000002],[0.1896874999999999,0.643148148148148,2.941200000286102],[0.10489583333333338,0.5949999999999999,2.960099999904635],[0.040625,0.5742592592592592,2.975999999999999],[0.040625,0.5742592592592592,2.991099999904634],[0.013229166666666714,0.5303703703703704,3.007800000190734],[0.012083333333333357,0.5661111111111112,3.0245000000000033],[0.012083333333333357,0.5661111111111112,3.0412000002861035],[0.0026041666666666665,0.5068518518518519,3.0578000001907384],[0.0026041666666666665,0.5068518518518519,3.0745000000000005],[-0.0018749999999999527,0.49907407407407406,3.0910999999046354],[-0.0018749999999999527,0.49907407407407406,3.1078000001907355],[-0.00625,0.4751851851851852,3.1245000000000047],[-0.03843749999999998,0.49740740740740746,3.1473000001907394],[-0.03843749999999998,0.49740740740740746,3.1578000001907327],[-0.05520833333333333,0.5001851851851852,3.174500000000002],[-0.05520833333333333,0.5001851851851852,3.1910999999046368],[-0.04520833333333331,0.5205555555555555,3.207800000190737],[-0.005104166666666643,0.522962962962963,3.228999999999999],[0.03812500000000003,0.5551851851851851,3.2442000002861064],[0.05249999999999998,0.55,3.2622000002861],[0.06489583333333329,0.5748148148148148,3.278099999904633],[0.07906250000000009,0.6287037037037037,3.294300000190738],[0.05354166666666664,0.6587037037037038,3.3112000002861066],[0.06291666666666665,0.6670370370370371,3.328400000095371],[0.10666666666666676,0.6572222222222222,3.343900000095367],[0.16437499999999997,0.6568518518518519,3.3615999999046338],[0.20302083333333343,0.6631481481481482,3.378300000190734],[0.22927083333333323,0.6655555555555556,3.3944000000953665],[0.22927083333333323,0.6655555555555556,3.4078000001907327],[0.2259375000000001,0.6668518518518519,3.4244000000953676],[0.2205208333333334,0.7229629629629629,3.441599999904632],[0.21708333333333343,0.7490740740740741,3.4599000000953666],[0.2241666666666667,0.7461111111111111,3.474400000095372],[0.26895833333333335,0.7548148148148148,3.4909999999999997],[0.2716666666666666,0.7701851851851852,3.507700000286107],[0.2834374999999999,0.7866666666666666,3.5249000000953714],[0.2727083333333333,0.7829629629629629,3.541000000000004],[0.2820833333333333,0.7618518518518518,3.5633000001907362],[0.22802083333333342,0.7561111111111111,3.5784999999999982],[0.17395833333333333,0.7503703703703705,3.594999999999999],[0.1736458333333334,0.7227777777777777,3.6095999999046313],[0.2040625000000001,0.7064814814814815,3.6244000000953704],[0.16510416666666666,0.669074074074074,3.6410999999046325],[0.12614583333333323,0.6316666666666667,3.6595999999046356],[0.11322916666666671,0.6290740740740741,3.6769999999999996],[0.10187499999999995,0.6085185185185186,3.691200000286102],[0.10864583333333329,0.6098148148148147,3.707800000190737],[0.11020833333333328,0.602962962962963,3.724400000095372],[0.13697916666666668,0.6103703703703705,3.7439000000953655],[0.18416666666666662,0.5972222222222222,3.761499999999998],[0.18072916666666666,0.5653703703703703,3.7787000002861006],[0.14614583333333328,0.5172222222222221,3.796200000286106],[0.14593749999999991,0.5005555555555554,3.8115000000000023],[0.15322916666666658,0.4898148148148148,3.827200000286105],[0.11895833333333337,0.4087037037037038,3.8545000000000016],[0.11895833333333337,0.4087037037037038,3.878999999999998],[0.13802083333333334,0.39296296296296307,3.894900000095369],[0.13802083333333334,0.39296296296296307,3.9254000000953653],[0.13447916666666657,0.3587037037037038,3.943099999904632],[0.13447916666666657,0.3587037037037038,3.9505000000000052],[0.1140625,0.3448148148148149,3.978999999999999],[0.1140625,0.3448148148148149,3.9872000002861085],[0.1397916666666667,0.2994444444444445,4.009700000286102],[0.1397916666666667,0.2994444444444445,4.017400000095364],[0.12385416666666677,0.2737037037037036,4.043900000095363],[0.12385416666666677,0.2737037037037036,4.051500000000004],[0.15041666666666675,0.24685185185185177,4.076400000095376],[0.15041666666666675,0.24685185185185177,4.084400000095371],[0.175,0.2146296296296296,4.111200000286104],[0.175,0.2146296296296296,4.119700000286102],[0.17374999999999996,0.20277777777777778,4.143000000000001],[0.17374999999999996,0.20277777777777778,4.149900000095371],[0.1650000000000001,0.18499999999999997,4.177800000190743],[0.1650000000000001,0.18499999999999997,4.1847000002860995],[0.21677083333333325,0.1427777777777778,4.209500000000006],[0.21677083333333325,0.1427777777777778,4.21559999990464],[0.22104166666666672,0.023333333333333376,4.244099999904634],[0.22104166666666672,0.023333333333333376,4.251599999904627],[0.22729166666666673,-0.034074074074074034,4.2753000001907395],[0.22729166666666673,-0.034074074074074034,4.2830999999046355],[0.27333333333333343,-0.1255555555555556,4.310700000286104],[0.27333333333333343,-0.1255555555555556,4.318099999904632],[0.2660416666666668,-0.20018518518518522,4.3430000000000035],[0.2660416666666668,-0.20018518518518522,4.34980000019074],[0.2976041666666667,-0.26592592592592595,4.376200000286104],[0.2976041666666667,-0.26592592592592595,4.383499999999998],[0.2846874999999999,-0.32537037037037037,4.411000000000001],[0.2846874999999999,-0.32537037037037037,4.4184000000953745],[0.2756249999999999,-0.40555555555555556,4.445499999999996],[0.2756249999999999,-0.40555555555555556,4.452900000095369],[0.28958333333333336,-0.46518518518518515,4.4783000001907425],[0.28958333333333336,-0.46518518518518515,4.485599999904636],[0.31270833333333337,-0.5375925925925926,4.509700000286102],[0.31270833333333337,-0.5375925925925926,4.516599999904628],[0.30447916666666663,-0.5344444444444445,4.541800000190733],[0.30447916666666663,-0.5344444444444445,4.549000000000007],[0.33833333333333326,-0.5311111111111111,4.576400000095376],[0.33833333333333326,-0.5311111111111111,4.583900000095369],[0.34249999999999997,-0.5898148148148148,4.609599999904631],[0.34249999999999997,-0.5898148148148148,4.616],[0.3272916666666667,-0.6196296296296296,4.641800000190742],[0.3272916666666667,-0.6196296296296296,4.648800000190732],[0.3407291666666666,-0.6361111111111111,4.67640000009537],[0.3407291666666666,-0.6361111111111111,4.683499999999995],[0.31666666666666665,-0.6425925925925926,4.709500000000006],[0.31666666666666665,-0.6425925925925926,4.71670000028611],[0.29010416666666666,-0.6599999999999999,4.743200000286109],[0.29010416666666666,-0.6599999999999999,4.750800000190736],[0.2630208333333333,-0.6711111111111111,4.776700000286098],[0.2630208333333333,-0.6711111111111111,4.785400000095365],[0.2738541666666668,-0.6905555555555555,4.810000000000002],[0.2738541666666668,-0.6905555555555555,4.820900000095364],[0.2747916666666666,-0.7031481481481481,4.843200000286103],[0.2747916666666666,-0.7031481481481481,4.856200000286108],[0.2594791666666666,-0.7212962962962963,4.877200000286109],[0.2594791666666666,-0.7212962962962963,4.888900000095376],[0.2193749999999999,-0.6946296296296297,4.909800000190742],[0.2193749999999999,-0.6946296296296297,4.917599999904638],[0.19479166666666667,-0.6838888888888889,4.943099999904632],[0.19479166666666667,-0.6838888888888889,4.951400000095376],[0.15260416666666668,-0.6392592592592592,4.975300000190742],[0.15260416666666668,-0.6392592592592592,4.985099999904634],[0.13291666666666657,-0.5977777777777779,5.010099999904639],[0.13291666666666657,-0.5977777777777779,5.016999999999996],[0.13312499999999997,-0.5742592592592592,5.044800000190733],[0.13312499999999997,-0.5742592592592592,5.052000000000007],[0.12531249999999997,-0.5712962962962963,5.079099999904628],[0.12531249999999997,-0.5712962962962963,5.086900000095369],[0.11875,-0.5235185185185185,5.112700000286097],[0.11875,-0.5235185185185185,5.121700000286097],[0.11739583333333338,-0.4874074074074074,5.1459000000953665],[0.11739583333333338,-0.4874074074074074,5.153599999904628],[0.11812500000000009,-0.4487037037037037,5.180999999999997],[0.11812500000000009,-0.4487037037037037,5.188700000286104],[0.13947916666666677,-0.38,5.212500000000006],[0.13947916666666677,-0.38,5.219599999904631],[0.1388541666666666,-0.32111111111111107,5.245800000190741],[0.1388541666666666,-0.32111111111111107,5.253599999904637],[0.16333333333333327,-0.23851851851851855,5.27920000028611],[0.16333333333333327,-0.23851851851851855,5.293200000286106],[0.1603125000000001,-0.22814814814814813,5.307700000286104],[0.1603125000000001,-0.22814814814814813,5.324400000095366],[0.1252083333333334,-0.20092592592592592,5.341200000286108],[0.1252083333333334,-0.20092592592592592,5.357700000286101],[0.09552083333333337,-0.11425925925925924,5.374499999999998],[0.09552083333333337,-0.11425925925925924,5.391200000286105],[0.07104166666666671,-0.10333333333333336,5.407800000190733],[0.07104166666666671,-0.10333333333333336,5.424400000095375],[0.04385416666666669,-0.11222222222222226,5.441099999904637],[0.004270833333333357,-0.13351851851851856,5.459300000190737],[-0.01906249999999995,-0.13092592592592592,5.474500000000006],[-0.01906249999999995,-0.13092592592592592,5.491099999904634],[-0.059062500000000046,-0.1559259259259259,5.507800000190741],[-0.05666666666666664,-0.1257407407407407,5.524400000095369],[-0.10979166666666665,-0.21203703703703702,5.541099999904631],[-0.10979166666666665,-0.21203703703703702,5.557900000095373],[-0.11781250000000003,-0.25999999999999995,5.574400000095366],[-0.12062499999999995,-0.19685185185185186,5.591000000000008],[-0.11666666666666667,-0.24740740740740744,5.6078000001907355],[-0.10375000000000002,-0.21722222222222223,5.624400000095363],[-0.09354166666666662,-0.15537037037037033,5.641000000000005],[-0.08052083333333329,-0.08777777777777773,5.658000000000001],[-0.08562500000000005,-0.06314814814814819,5.674599999904629],[-0.0828125,-0.07462962962962966,5.691099999904637],[-0.078125,-0.10259259259259255,5.70780000019073],[-0.015625,0.005555555555555556,5.724400000095372],[0.059583333333333384,0.10981481481481473,5.741],[0.0931250000000001,0.025370370370370456,5.758800000190732],[0.0978125000000001,0.007407407407407408,5.774300000190735],[0.1134375000000001,0.0011111111111111532,5.791200000286111],[0.13229166666666667,-0.037037037037037035,5.808000000000007],[0.14489583333333325,-0.07074074074074072,5.824400000095366],[0.1554166666666667,-0.0868518518518518,5.841099999904628],[0.16302083333333334,-0.06759259259259259,5.86180000019074],[0.1474999999999999,-0.05185185185185185,5.882700000286107],[0.1474999999999999,-0.05185185185185185,5.891200000286105],[0.11260416666666657,-0.062407407407407384,5.907900000095367],[0.07729166666666672,-0.06870370370370374,5.927200000286106],[0.06989583333333324,-0.029814814814814856,5.9410000000000025],[0.09614583333333329,0.027962962962963005,5.95780000019073],[0.09979166666666663,0.06092592592592588,5.974700000286106],[0.09614583333333329,0.06870370370370374,5.991],[0.10499999999999995,0.07629629629629638,6.007700000286107],[0.11124999999999995,0.07333333333333338,6.027099999904635],[0.13229166666666667,0.09351851851851851,6.0434999999999945],[0.12947916666666662,0.07314814814814814,6.060500000000005],[0.13697916666666668,0.08407407407407404,6.076099999904628],[0.1267708333333334,0.09962962962962954,6.091300000190742],[0.125,0.07611111111111116,6.107700000286101],[0.1296875,0.05722222222222218,6.125800000190736],[0.12479166666666662,0.05333333333333325,6.14109999990464],[0.12156250000000005,0.06481481481481481,6.16020000028611],[0.12156250000000005,0.06481481481481481,6.174400000095375],[0.14072916666666657,0.10851851851851856,6.191099999904637],[0.14802083333333324,0.19203703703703712,6.20770000028611],[0.1490624999999999,0.23499999999999996,6.224999999999994],[0.1794791666666666,0.25333333333333324,6.241400000095368],[0.21677083333333325,0.24666666666666676,6.258300000190729],[0.20239583333333327,0.18925925925925935,6.274400000095369],[0.1875,0.19166666666666668,6.291400000095365],[0.17843749999999994,0.15537037037037033,6.32359999990463],[0.17843749999999994,0.15537037037037033,6.331200000286103],[0.18760416666666657,0.19037037037037027,6.341099999904628],[0.20239583333333327,0.2351851851851852,6.358000000000004],[0.18250000000000005,0.2540740740740742,6.374400000095363],[0.1796875,0.2485185185185186,6.39109999990464],[0.19197916666666662,0.24296296296296305,6.4080999999046355],[0.17156250000000003,0.24222222222222214,6.424400000095375],[0.12635416666666663,0.1955555555555556,6.441099999904637],[0.1382291666666667,0.19462962962962968,6.461400000095367],[0.15479166666666658,0.18185185185185193,6.477300000190738],[0.14208333333333342,0.172037037037037,6.491400000095368],[0.12635416666666663,0.11185185185185181,6.507700000286107],[0.11062500000000004,0.051666666666666625,6.524400000095369],[0.09500000000000004,-0.0003703703703704546,6.541499999999999],[0.07937500000000004,-0.05240740740740743,6.560599999904639],[0.07458333333333324,-0.12092592592592595,6.576099999904628],[0.07177083333333342,-0.13037037037037033,6.591499999999996],[0.09375,-0.09388888888888887,6.607700000286101],[0.11572916666666658,-0.05740740740740741,6.624400000095363],[0.14802083333333324,-0.06370370370370367,6.64109999990464],[0.1803124999999999,-0.07000000000000002,6.65930000019074],[0.20927083333333343,-0.08481481481481483,6.675800000190733],[0.2127083333333334,-0.08592592592592588,6.6910000000000025],[0.22927083333333323,-0.11425925925925924,6.70770000028611],[0.23114583333333344,-0.10555555555555556,6.724300000190738],[0.22322916666666662,-0.09518518518518514,6.752800000190732],[0.22322916666666662,-0.09518518518518514,6.763400000095373],[0.21875,-0.10999999999999996,6.774400000095369],[0.21427083333333338,-0.12481481481481477,6.7927000002861035],[0.1837500000000001,-0.16148148148148145,6.807700000286104],[0.1382291666666667,-0.14351851851851852,6.826000000000008],[0.09197916666666663,-0.10907407407407403,6.841000000000008],[0.05666666666666664,-0.07740740740740742,6.861000000000004],[0.07072916666666676,-0.075,6.879300000190739],[0.07072916666666676,-0.075,6.89109999990464],[0.07249999999999991,-0.019999999999999917,6.907800000190733],[0.09333333333333324,-0.0020370370370370794,6.9273000001907405],[0.09239583333333339,0.024629629629629547,6.944000000000003],[0.0775000000000001,0.005370370370370328,6.962700000286105],[0.0626041666666667,-0.013888888888888888,6.9775999999046405],[0.09572916666666677,-0.005555555555555556,6.9939000000953655],[0.12885416666666671,0.002777777777777778,7.009300000190734],[0.16270833333333337,-0.005370370370370328,7.026599999904633],[0.2055208333333333,-0.003703703703703704,7.042300000190735],[0.20968749999999994,-0.009444444444444486,7.060599999904639],[0.22583333333333327,-0.03629629629629634,7.078500000000005],[0.21770833333333334,-0.08518518518518518,7.094099999904628],[0.1974999999999999,-0.1544444444444444,7.107700000286101],[0.18916666666666657,-0.19185185185185188,7.124400000095363],[0.19541666666666657,-0.22555555555555556,7.141000000000005],[0.18458333333333338,-0.24000000000000005,7.157700000286098],[0.14895833333333333,-0.2796296296296296,7.176300000190736],[0.11333333333333329,-0.31925925925925924,7.199400000095366],[0.11333333333333329,-0.31925925925925924,7.20770000028611],[0.04645833333333336,-0.3244444444444444,7.224500000000006],[0.04645833333333336,-0.3244444444444444,7.241099999904634],[0.027604166666666666,-0.3446296296296297,7.257800000190741],[0.027604166666666666,-0.3446296296296297,7.274500000000003],[-0.011666666666666714,-0.3907407407407407,7.294800000190733],[-0.022083333333333382,-0.4222222222222222,7.311400000095375],[-0.022083333333333382,-0.4222222222222222,7.3245000000000005],[-0.03802083333333333,-0.39166666666666666,7.34680000019074],[-0.03802083333333333,-0.39166666666666666,7.358000000000004],[-0.04125000000000002,-0.37092592592592594,7.374599999904632],[-0.04125000000000002,-0.37092592592592594,7.391200000286105],[-0.06187499999999998,-0.36500000000000005,7.413099999904631],[-0.06187499999999998,-0.36500000000000005,7.424499999999995],[-0.06239583333333331,-0.3718518518518519,7.441200000286102],[-0.05260416666666667,-0.3701851851851851,7.466200000286108],[-0.05260416666666667,-0.3701851851851851,7.474500000000006],[-0.014374999999999952,-0.3707407407407407,7.491200000286099],[0.042604166666666644,-0.40129629629629626,7.507700000286107],[0.0626041666666667,-0.3940740740740741,7.526400000095364],[0.09645833333333324,-0.3948148148148148,7.541099999904631],[0.12135416666666667,-0.3881481481481482,7.559900000095368],[0.19406249999999994,-0.40314814814814814,7.580099999904633],[0.22468750000000004,-0.42481481481481476,7.594900000095365],[0.2553124999999999,-0.4096296296296296,7.608900000095375],[0.2609375,-0.40666666666666673,7.626400000095373],[0.2794791666666666,-0.4057407407407408,7.644900000095362],[0.26114583333333335,-0.37648148148148153,7.6684000000953745],[0.26114583333333335,-0.37648148148148153,7.675800000190733],[0.24989583333333343,-0.3461111111111111,7.691200000286102],[0.24645833333333325,-0.34870370370370374,7.711099999904633],[0.2543750000000001,-0.287962962962963,7.728099999904629],[0.26229166666666665,-0.22722222222222221,7.742999999999995],[0.24562499999999995,-0.18037037037037032,7.762800000190737],[0.24020833333333325,-0.12462962962962965,7.77809999990464],[0.22958333333333342,-0.08407407407407404,7.795200000286101],[0.23229166666666667,-0.09351851851851851,7.812800000190734],[0.21375000000000005,-0.007962962962962878,7.831400000095371],[0.21375000000000005,-0.007962962962962878,7.841300000190742],[0.21875,0.014814814814814815,7.858099999904638],[0.18677083333333327,-0.003888888888888931,7.881500000000003]]","[0.00020000028610667187,0.05300000000000438,0.06470000028610201,0.08400000000000318,0.09890000009536948,0.10790000009536982,0.12450000000000472,0.1410999999046325,0.15800000000000125,0.17450000000000188,0.19109999990463677,0.2079999999999984,0.2259999999999991,0.24120000028610633,0.2578000001907341,0.274400000095369,0.2912000002861035,0.3078000001907384,0.32450000000000045,0.34120000028610065,0.3580000000000041,0.3745000000000047,0.3912000002861049,0.4078000001907327,0.42590000009536766,0.44120000028610207,0.45780000019073697,0.47449999999999903,0.49120000028610633,0.5078000001907341,0.5249000000953714,0.541400000095372,0.5583000001907337,0.5752000002861024,0.5913000001907349,0.6079000000953698,0.6254000000953681,0.6438000001907369,0.6615999999046309,0.6779000000953701,0.6935999999046345,0.7079000000953712,0.724499999999999,0.7412000002861063,0.7594000000953685,0.774400000095369,0.7910999999046311,0.8078000001907384,0.8248000001907343,0.8412000002861006,0.8605000000000018,0.8769000000953682,0.8929000000953664,0.9078000001907327,0.9245000000000019,0.9412000002861021,0.957800000190737,0.974499999999999,0.9913000001907335,1.0082000002861022,1.0245000000000033,1.0450000000000017,1.0629000000953681,1.0744000000953662,1.0910999999046354,1.1079000000953698,1.1245999999046319,1.1439999999999984,1.1580000000000013,1.1745000000000019,1.1910999999046368,1.207800000190737,1.2244000000953719,1.241099999904634,1.2579000000953684,1.274400000095369,1.2912000002861035,1.3078000001907384,1.3273000001907391,1.3425999999046354,1.358700000286106,1.3744000000953704,1.3910999999046325,1.4078000001907327,1.4244000000953676,1.441200000286102,1.4579000000953712,1.474499999999999,1.4913000001907335,1.5078000001907341,1.5245000000000033,1.541099999904631,1.5595999999046342,1.5744000000953662,1.591300000190735,1.6077000002861013,1.6352000002861047,1.6417000002861002,1.657900000095367,1.6745000000000019,1.697099999904637,1.7109999999999985,1.7272000002861034,1.741099999904634,1.7578000001907341,1.7779999999999987,1.7950000000000017,1.8103000001907361,1.8284999999999982,1.8414000000953692,1.8579000000953698,1.8745000000000047,1.8910999999046325,1.9078000001907327,1.9245000000000019,1.941200000286102,1.9609999999999985,1.976700000286101,1.993000000000002,2.007800000190734,2.0257000002861005,2.041099999904631,2.058,2.074400000095366,2.0912000002861006,2.1078000001907355,2.1248000001907386,2.1410999999046325,2.1588000001907375,2.17490000009537,2.1917000002861045,2.2079000000953712,2.224499999999999,2.241099999904634,2.259200000286107,2.2745000000000033,2.2912000002861035,2.308099999904634,2.3245999999046347,2.3410999999046354,2.3608000001907357,2.376099999904632,2.3910999999046325,2.4077000002861055,2.4258000001907334,2.4410999999046368,2.4579000000953712,2.4757000002861034,2.4912000002861063,2.507800000190734,2.524400000095369,2.544800000190733,2.5609000000953657,2.5768000001907367,2.5912000002861006,2.6078000001907355,2.6244000000953704,2.6410999999046325,2.658300000190735,2.6758000001907334,2.6917000002861045,2.7077000002861027,2.724800000190733,2.741099999904634,2.7594000000953685,2.7808000001907374,2.791099999904631,2.8079000000953656,2.826599999904637,2.8412000002861006,2.8580999999046313,2.8745000000000047,2.8910999999046325,2.9078000001907327,2.924500000000002,2.941200000286102,2.960099999904635,2.975999999999999,2.991099999904634,3.007800000190734,3.0245000000000033,3.0412000002861035,3.0578000001907384,3.0745000000000005,3.0910999999046354,3.1078000001907355,3.1245000000000047,3.1473000001907394,3.1578000001907327,3.174500000000002,3.1910999999046368,3.207800000190737,3.228999999999999,3.2442000002861064,3.2622000002861,3.278099999904633,3.294300000190738,3.3112000002861066,3.328400000095371,3.343900000095367,3.3615999999046338,3.378300000190734,3.3944000000953665,3.4078000001907327,3.4244000000953676,3.441599999904632,3.4599000000953666,3.474400000095372,3.4909999999999997,3.507700000286107,3.5249000000953714,3.541000000000004,3.5633000001907362,3.5784999999999982,3.594999999999999,3.6095999999046313,3.6244000000953704,3.6410999999046325,3.6595999999046356,3.6769999999999996,3.691200000286102,3.707800000190737,3.724400000095372,3.7439000000953655,3.761499999999998,3.7787000002861006,3.796200000286106,3.8115000000000023,3.827200000286105,3.8545000000000016,3.878999999999998,3.894900000095369,3.9254000000953653,3.943099999904632,3.9505000000000052,3.978999999999999,3.9872000002861085,4.009700000286102,4.017400000095364,4.043900000095363,4.051500000000004,4.076400000095376,4.084400000095371,4.111200000286104,4.119700000286102,4.143000000000001,4.149900000095371,4.177800000190743,4.1847000002860995,4.209500000000006,4.21559999990464,4.244099999904634,4.251599999904627,4.2753000001907395,4.2830999999046355,4.310700000286104,4.318099999904632,4.3430000000000035,4.34980000019074,4.376200000286104,4.383499999999998,4.411000000000001,4.4184000000953745,4.445499999999996,4.452900000095369,4.4783000001907425,4.485599999904636,4.509700000286102,4.516599999904628,4.541800000190733,4.549000000000007,4.576400000095376,4.583900000095369,4.609599999904631,4.616,4.641800000190742,4.648800000190732,4.67640000009537,4.683499999999995,4.709500000000006,4.71670000028611,4.743200000286109,4.750800000190736,4.776700000286098,4.785400000095365,4.810000000000002,4.820900000095364,4.843200000286103,4.856200000286108,4.877200000286109,4.888900000095376,4.909800000190742,4.917599999904638,4.943099999904632,4.951400000095376,4.975300000190742,4.985099999904634,5.010099999904639,5.016999999999996,5.044800000190733,5.052000000000007,5.079099999904628,5.086900000095369,5.112700000286097,5.121700000286097,5.1459000000953665,5.153599999904628,5.180999999999997,5.188700000286104,5.212500000000006,5.219599999904631,5.245800000190741,5.253599999904637,5.27920000028611,5.293200000286106,5.307700000286104,5.324400000095366,5.341200000286108,5.357700000286101,5.374499999999998,5.391200000286105,5.407800000190733,5.424400000095375,5.441099999904637,5.459300000190737,5.474500000000006,5.491099999904634,5.507800000190741,5.524400000095369,5.541099999904631,5.557900000095373,5.574400000095366,5.591000000000008,5.6078000001907355,5.624400000095363,5.641000000000005,5.658000000000001,5.674599999904629,5.691099999904637,5.70780000019073,5.724400000095372,5.741,5.758800000190732,5.774300000190735,5.791200000286111,5.808000000000007,5.824400000095366,5.841099999904628,5.86180000019074,5.882700000286107,5.891200000286105,5.907900000095367,5.927200000286106,5.9410000000000025,5.95780000019073,5.974700000286106,5.991,6.007700000286107,6.027099999904635,6.0434999999999945,6.060500000000005,6.076099999904628,6.091300000190742,6.107700000286101,6.125800000190736,6.14109999990464,6.16020000028611,6.174400000095375,6.191099999904637,6.20770000028611,6.224999999999994,6.241400000095368,6.258300000190729,6.274400000095369,6.291400000095365,6.32359999990463,6.331200000286103,6.341099999904628,6.358000000000004,6.374400000095363,6.39109999990464,6.4080999999046355,6.424400000095375,6.441099999904637,6.461400000095367,6.477300000190738,6.491400000095368,6.507700000286107,6.524400000095369,6.541499999999999,6.560599999904639,6.576099999904628,6.591499999999996,6.607700000286101,6.624400000095363,6.64109999990464,6.65930000019074,6.675800000190733,6.6910000000000025,6.70770000028611,6.724300000190738,6.752800000190732,6.763400000095373,6.774400000095369,6.7927000002861035,6.807700000286104,6.826000000000008,6.841000000000008,6.861000000000004,6.879300000190739,6.89109999990464,6.907800000190733,6.9273000001907405,6.944000000000003,6.962700000286105,6.9775999999046405,6.9939000000953655,7.009300000190734,7.026599999904633,7.042300000190735,7.060599999904639,7.078500000000005,7.094099999904628,7.107700000286101,7.124400000095363,7.141000000000005,7.157700000286098,7.176300000190736,7.199400000095366,7.20770000028611,7.224500000000006,7.241099999904634,7.257800000190741,7.274500000000003,7.294800000190733,7.311400000095375,7.3245000000000005,7.34680000019074,7.358000000000004,7.374599999904632,7.391200000286105,7.413099999904631,7.424499999999995,7.441200000286102,7.466200000286108,7.474500000000006,7.491200000286099,7.507700000286107,7.526400000095364,7.541099999904631,7.559900000095368,7.580099999904633,7.594900000095365,7.608900000095375,7.626400000095373,7.644900000095362,7.6684000000953745,7.675800000190733,7.691200000286102,7.711099999904633,7.728099999904629,7.742999999999995,7.762800000190737,7.77809999990464,7.795200000286101,7.812800000190734,7.831400000095371,7.841300000190742,7.858099999904638,7.881500000000003]","[1732157769600,1732157769643,1732157769655,1732157769674,1732157769689,1732157769698,1732157769714,1732157769731,1732157769748,1732157769764,1732157769781,1732157769798,1732157769816,1732157769831,1732157769848,1732157769864,1732157769881,1732157769898,1732157769914,1732157769931,1732157769948,1732157769964,1732157769981,1732157769998,1732157770016,1732157770031,1732157770048,1732157770064,1732157770081,1732157770098,1732157770115,1732157770131,1732157770148,1732157770165,1732157770181,1732157770198,1732157770215,1732157770234,1732157770251,1732157770268,1732157770283,1732157770298,1732157770314,1732157770331,1732157770349,1732157770364,1732157770381,1732157770398,1732157770415,1732157770431,1732157770450,1732157770467,1732157770483,1732157770498,1732157770514,1732157770531,1732157770548,1732157770564,1732157770581,1732157770598,1732157770614,1732157770635,1732157770653,1732157770664,1732157770681,1732157770698,1732157770714,1732157770734,1732157770748,1732157770764,1732157770781,1732157770798,1732157770814,1732157770831,1732157770848,1732157770864,1732157770881,1732157770898,1732157770917,1732157770932,1732157770949,1732157770964,1732157770981,1732157770998,1732157771014,1732157771031,1732157771048,1732157771064,1732157771081,1732157771098,1732157771114,1732157771131,1732157771150,1732157771164,1732157771181,1732157771198,1732157771225,1732157771232,1732157771248,1732157771264,1732157771287,1732157771301,1732157771317,1732157771331,1732157771348,1732157771368,1732157771385,1732157771400,1732157771418,1732157771431,1732157771448,1732157771464,1732157771481,1732157771498,1732157771514,1732157771531,1732157771551,1732157771567,1732157771583,1732157771598,1732157771616,1732157771631,1732157771648,1732157771664,1732157771681,1732157771698,1732157771715,1732157771731,1732157771749,1732157771765,1732157771782,1732157771798,1732157771814,1732157771831,1732157771849,1732157771864,1732157771881,1732157771898,1732157771914,1732157771931,1732157771951,1732157771966,1732157771981,1732157771998,1732157772016,1732157772031,1732157772048,1732157772066,1732157772081,1732157772098,1732157772114,1732157772135,1732157772151,1732157772167,1732157772181,1732157772198,1732157772214,1732157772231,1732157772248,1732157772266,1732157772282,1732157772298,1732157772315,1732157772331,1732157772349,1732157772371,1732157772381,1732157772398,1732157772417,1732157772431,1732157772448,1732157772464,1732157772481,1732157772498,1732157772514,1732157772531,1732157772550,1732157772566,1732157772581,1732157772598,1732157772614,1732157772631,1732157772648,1732157772664,1732157772681,1732157772698,1732157772714,1732157772737,1732157772748,1732157772764,1732157772781,1732157772798,1732157772819,1732157772834,1732157772852,1732157772868,1732157772884,1732157772901,1732157772918,1732157772934,1732157772951,1732157772968,1732157772984,1732157772998,1732157773014,1732157773032,1732157773050,1732157773064,1732157773081,1732157773098,1732157773115,1732157773131,1732157773153,1732157773168,1732157773185,1732157773200,1732157773214,1732157773231,1732157773249,1732157773267,1732157773281,1732157773298,1732157773314,1732157773334,1732157773351,1732157773369,1732157773386,1732157773401,1732157773417,1732157773444,1732157773469,1732157773485,1732157773515,1732157773533,1732157773540,1732157773569,1732157773577,1732157773600,1732157773607,1732157773634,1732157773641,1732157773666,1732157773674,1732157773701,1732157773710,1732157773733,1732157773740,1732157773768,1732157773775,1732157773799,1732157773806,1732157773834,1732157773841,1732157773865,1732157773873,1732157773901,1732157773908,1732157773933,1732157773940,1732157773966,1732157773973,1732157774001,1732157774008,1732157774035,1732157774043,1732157774068,1732157774075,1732157774100,1732157774106,1732157774132,1732157774139,1732157774166,1732157774174,1732157774199,1732157774206,1732157774232,1732157774239,1732157774266,1732157774273,1732157774299,1732157774307,1732157774333,1732157774341,1732157774367,1732157774375,1732157774400,1732157774411,1732157774433,1732157774446,1732157774467,1732157774479,1732157774500,1732157774507,1732157774533,1732157774541,1732157774565,1732157774575,1732157774600,1732157774607,1732157774635,1732157774642,1732157774669,1732157774677,1732157774703,1732157774712,1732157774736,1732157774744,1732157774771,1732157774779,1732157774802,1732157774809,1732157774836,1732157774844,1732157774869,1732157774883,1732157774898,1732157774914,1732157774931,1732157774948,1732157774964,1732157774981,1732157774998,1732157775014,1732157775031,1732157775049,1732157775064,1732157775081,1732157775098,1732157775114,1732157775131,1732157775148,1732157775164,1732157775181,1732157775198,1732157775214,1732157775231,1732157775248,1732157775264,1732157775281,1732157775298,1732157775314,1732157775331,1732157775349,1732157775364,1732157775381,1732157775398,1732157775414,1732157775431,1732157775452,1732157775473,1732157775481,1732157775498,1732157775517,1732157775531,1732157775548,1732157775565,1732157775581,1732157775598,1732157775617,1732157775633,1732157775650,1732157775666,1732157775681,1732157775698,1732157775716,1732157775731,1732157775750,1732157775764,1732157775781,1732157775798,1732157775815,1732157775831,1732157775848,1732157775864,1732157775881,1732157775913,1732157775921,1732157775931,1732157775948,1732157775964,1732157775981,1732157775998,1732157776014,1732157776031,1732157776051,1732157776067,1732157776081,1732157776098,1732157776114,1732157776131,1732157776150,1732157776166,1732157776181,1732157776198,1732157776214,1732157776231,1732157776249,1732157776266,1732157776281,1732157776298,1732157776314,1732157776343,1732157776353,1732157776364,1732157776383,1732157776398,1732157776416,1732157776431,1732157776451,1732157776469,1732157776481,1732157776498,1732157776517,1732157776534,1732157776553,1732157776567,1732157776584,1732157776599,1732157776617,1732157776632,1732157776651,1732157776668,1732157776684,1732157776698,1732157776714,1732157776731,1732157776748,1732157776766,1732157776789,1732157776798,1732157776814,1732157776831,1732157776848,1732157776864,1732157776885,1732157776901,1732157776914,1732157776937,1732157776948,1732157776964,1732157776981,1732157777003,1732157777014,1732157777031,1732157777056,1732157777064,1732157777081,1732157777098,1732157777116,1732157777131,1732157777150,1732157777170,1732157777185,1732157777199,1732157777216,1732157777235,1732157777258,1732157777266,1732157777281,1732157777301,1732157777318,1732157777333,1732157777353,1732157777368,1732157777385,1732157777403,1732157777421,1732157777431,1732157777448,1732157777471]","[[1204.3,761.2],[1204.3,761.2],[1214.3,775.3],[1214.3,775.3],[1212.6,764.4],[1212.6,764.4],[1203.1,748.9],[1211.2,728.1],[1194.3,710.2],[1174,688.2],[1170.1,662.1],[1160.3,643.7],[1149.2,625.1],[1157.7,635.3],[1155.4,644.1],[1162.3,649.5],[1163.7,652.3],[1164.7,657.5],[1165.7,662.7],[1164.3,663.7],[1148.2,671.1],[1148.2,671.1],[1141.2,677.5],[1121.7,687.7],[1105.9,682],[1083.6,694.6],[1074.9,700.8],[1060.9,705.9],[1061.1,704.5],[1031.5,710.1],[1007.7,724],[985.6,731],[954.4,739],[940.6,749.7],[940.6,749.7],[921,768.3],[878.8,777.2],[857.4,781.1],[824.9,771.2],[811.8,752.7],[806.5,744.2],[805.6,737.3],[800.3,716.9],[809.1,704],[813,684.6],[818.7,659.6],[818.7,659.6],[842.5,630.5],[839.5,595.5],[870.6,581.1],[857.5,579.9],[856.6,556.3],[851.3,531.1],[850.3,554.7],[835.2,570.8],[842.8,566.1],[854.4,559.1],[863.8,552.6],[881.3,566.7],[881.1,575.1],[895.5,587.5],[933.2,583.1],[970.9,578.7],[970.9,578.7],[1001.5,549.8],[1001.5,549.8],[1030,523.2],[1027.7,524.1],[1027.7,524.1],[1033.7,517.3],[1033.7,517.3],[1039.1,513.8],[1039.1,513.8],[1039,493.2],[1058.4,484.9],[1072.6,485.8],[1073.3,508.9],[1070.4,520.9],[1073,529],[1074.2,550.4],[1083.5,565.1],[1083.5,565.1],[1098.1,595.5],[1105.8,608.2],[1116.9,628.3],[1096.4,640.2],[1081.1,642.9],[1101,631.8],[1107.9,641.7],[1124.8,667.1],[1141.4,665.8],[1145.8,690.1],[1176.6,675.4],[1176.3,706.3],[1156.9,735.7],[1190.3,720.4],[1223.7,705.1],[1223.7,705.1],[1243.5,733.9],[1294.5,754.9],[1342,754],[1317.2,771],[1304.6,762.4],[1304.6,762.4],[1252.1,766.5],[1264.3,750],[1313.9,722.5],[1322.8,735.6],[1356.8,769.1],[1356.8,769.1],[1340.6,765.8],[1340.6,765.8],[1290.8,728.4],[1218.4,718.2],[1228.4,680.9],[1234.5,650.7],[1211.7,658],[1209.8,641.1],[1157.5,676.4],[1118.9,649.4],[1055.2,602],[1025.4,584.8],[1014.6,599.6],[1014.6,599.6],[1031.3,592.1],[1034.6,632.4],[1045.8,634.5],[1074.1,612.6],[1057.6,603.8],[1074.8,611.3],[1077.3,634.4],[1067.2,667.2],[1067.2,667.2],[1083.1,676.4],[1079.4,657.5],[1077.4,630.3],[1082.5,575.6],[1073,564.5],[1064.9,565.3],[1051.5,563.9],[1036.5,506.5],[1057.1,516.7],[1068.6,486],[1064.5,481.2],[1070.6,488.3],[1070.6,488.3],[1082.5,520.6],[1074.4,534.4],[1099.9,553.8],[1140.5,565.3],[1148.4,584.7],[1165.2,589.9],[1138.4,564.6],[1179.3,593],[1173.7,589.7],[1197.5,636.4],[1182.4,633.9],[1200.9,690.2],[1186.6,694.7],[1174.8,747],[1201,793.6],[1215.5,845.5],[1261.8,918.7],[1264.6,957.1],[1303.9,970.9],[1311.4,981.2],[1311.4,981.2],[1313.7,982.3],[1308.7,978.7],[1308.7,978.7],[1310.6,987.6],[1310.6,987.6],[1297.7,969.4],[1269.8,935.5],[1229.9,921],[1142.1,887.3],[1060.7,861.3],[999,850.1],[999,850.1],[972.7,826.4],[971.6,845.7],[971.6,845.7],[962.5,813.7],[962.5,813.7],[958.2,809.5],[958.2,809.5],[954,796.6],[923.1,808.6],[923.1,808.6],[907,810.1],[907,810.1],[916.6,821.1],[955.1,822.4],[996.6,839.8],[1010.4,837],[1022.3,850.4],[1035.9,879.5],[1011.4,895.7],[1020.4,900.2],[1062.4,894.9],[1117.8,894.7],[1154.9,898.1],[1180.1,899.4],[1180.1,899.4],[1176.9,900.1],[1171.7,930.4],[1168.4,944.5],[1175.2,942.9],[1218.2,947.6],[1220.8,955.9],[1232.1,964.8],[1221.8,962.8],[1230.8,951.4],[1178.9,948.3],[1127,945.2],[1126.7,930.3],[1155.9,921.5],[1118.5,901.3],[1081.1,881.1],[1068.7,879.7],[1057.8,868.6],[1064.3,869.3],[1065.8,865.6],[1091.5,869.6],[1136.8,862.5],[1133.5,845.3],[1100.3,819.3],[1100.1,810.3],[1107.1,804.5],[1074.2,760.7],[1074.2,760.7],[1092.5,752.2],[1092.5,752.2],[1089.1,733.7],[1089.1,733.7],[1069.5,726.2],[1069.5,726.2],[1094.2,701.7],[1094.2,701.7],[1078.9,687.8],[1078.9,687.8],[1104.4,673.3],[1104.4,673.3],[1128,655.9],[1128,655.9],[1126.8,649.5],[1126.8,649.5],[1118.4,639.9],[1118.4,639.9],[1168.1,617.1],[1168.1,617.1],[1172.2,552.6],[1172.2,552.6],[1178.2,521.6],[1178.2,521.6],[1222.4,472.2],[1222.4,472.2],[1215.4,431.9],[1215.4,431.9],[1245.7,396.4],[1245.7,396.4],[1233.3,364.3],[1233.3,364.3],[1224.6,321],[1224.6,321],[1238,288.8],[1238,288.8],[1260.2,249.7],[1260.2,249.7],[1252.3,251.4],[1252.3,251.4],[1284.8,253.2],[1284.8,253.2],[1288.8,221.5],[1288.8,221.5],[1274.2,205.4],[1274.2,205.4],[1287.1,196.5],[1287.1,196.5],[1264,193],[1264,193],[1238.5,183.6],[1238.5,183.6],[1212.5,177.6],[1212.5,177.6],[1222.9,167.1],[1222.9,167.1],[1223.8,160.3],[1223.8,160.3],[1209.1,150.5],[1209.1,150.5],[1170.6,164.9],[1170.6,164.9],[1147,170.7],[1147,170.7],[1106.5,194.8],[1106.5,194.8],[1087.6,217.2],[1087.6,217.2],[1087.8,229.9],[1087.8,229.9],[1080.3,231.5],[1080.3,231.5],[1074,257.3],[1074,257.3],[1072.7,276.8],[1072.7,276.8],[1073.4,297.7],[1073.4,297.7],[1093.9,334.8],[1093.9,334.8],[1093.3,366.6],[1093.3,366.6],[1116.8,411.2],[1116.8,411.2],[1113.9,416.8],[1113.9,416.8],[1080.2,431.5],[1080.2,431.5],[1051.7,478.3],[1051.7,478.3],[1028.2,484.2],[1028.2,484.2],[1002.1,479.4],[964.1,467.9],[941.7,469.3],[941.7,469.3],[903.3,455.8],[905.6,472.1],[854.6,425.5],[854.6,425.5],[846.9,399.6],[844.2,433.7],[848,406.4],[860.4,422.7],[870.2,456.1],[882.7,492.6],[877.8,505.9],[880.5,499.7],[885,484.6],[945,543],[1017.2,599.3],[1049.4,553.7],[1053.9,544],[1068.9,540.6],[1087,520],[1099.1,501.8],[1109.2,493.1],[1116.5,503.5],[1101.6,512],[1101.6,512],[1068.1,506.3],[1034.2,502.9],[1027.1,523.9],[1052.3,555.1],[1055.8,572.9],[1052.3,577.1],[1060.8,581.2],[1066.8,579.6],[1087,590.5],[1084.3,579.5],[1091.5,585.4],[1081.7,593.8],[1080,581.1],[1084.5,570.9],[1079.8,568.8],[1076.7,575],[1076.7,575],[1095.1,598.6],[1102.1,643.7],[1103.1,666.9],[1132.3,676.8],[1168.1,673.2],[1154.3,642.2],[1140,643.5],[1131.3,623.9],[1131.3,623.9],[1140.1,642.8],[1154.3,667],[1135.2,677.2],[1132.5,674.2],[1144.3,671.2],[1124.7,670.8],[1081.3,645.6],[1092.7,645.1],[1108.6,638.2],[1096.4,632.9],[1081.3,600.4],[1066.2,567.9],[1051.2,539.8],[1036.2,511.7],[1031.6,474.7],[1028.9,469.6],[1050,489.3],[1071.1,509],[1102.1,505.6],[1133.1,502.2],[1160.9,494.2],[1164.2,493.6],[1180.1,478.3],[1181.9,483],[1174.3,488.6],[1174.3,488.6],[1170,480.6],[1165.7,472.6],[1136.4,452.8],[1092.7,462.5],[1048.3,481.1],[1014.4,498.2],[1027.9,499.5],[1027.9,499.5],[1029.6,529.2],[1049.6,538.9],[1048.7,553.3],[1034.4,542.9],[1020.1,532.5],[1051.9,537],[1083.7,541.5],[1116.2,537.1],[1157.3,538],[1161.3,534.9],[1176.8,520.4],[1169,494],[1149.6,456.6],[1141.6,436.4],[1147.6,418.2],[1137.2,410.4],[1103,389],[1068.8,367.6],[1068.8,367.6],[1004.6,364.8],[1004.6,364.8],[986.5,353.9],[986.5,353.9],[948.8,329],[938.8,312],[938.8,312],[923.5,328.5],[923.5,328.5],[920.4,339.7],[920.4,339.7],[900.6,342.9],[900.6,342.9],[900.1,339.2],[909.5,340.1],[909.5,340.1],[946.2,339.8],[1000.9,323.3],[1020.1,327.2],[1052.6,326.8],[1076.5,330.4],[1146.3,322.3],[1175.7,310.6],[1205.1,318.8],[1210.5,320.4],[1228.3,320.9],[1210.7,336.7],[1210.7,336.7],[1199.9,353.1],[1196.6,351.7],[1204.2,384.5],[1211.8,417.3],[1195.8,442.6],[1190.6,472.7],[1180.4,494.6],[1183,489.5],[1165.2,535.7],[1165.2,535.7],[1170,548],[1139.3,537.9]]","[-0.142,0.42599999999999993]","[0.142,0.42599999999999993]","[0.42599999999999993,0.42599999999999993]","[-0.42599999999999993,-0.42599999999999993]","[-0.42599999999999993,0.142]","[-0.42599999999999993,-0.142]","[-0.142,-0.42599999999999993]","[0.142,-0.42599999999999993]","[0.42599999999999993,-0.42599999999999993]","[-0.142,0.142]","[0.142,0.142]","[0.42599999999999993,0.142]","[-0.142,-0.142]","[0.142,-0.142]","[0.42599999999999993,-0.142]",0,0,0,0,1,3,Laptop,25,40,9,1,50,4,1,60,5
