inst1_resp.keys,inst1_resp.rt,calibrationMouse.x,calibrationMouse.y,calibrationMouse.leftButton,calibrationMouse.midButton,calibrationMouse.rightButton,calibrationClick.x,calibrationClick.y,calibrationClick.leftButton,calibrationClick.midButton,calibrationClick.rightButton,trialsc.thisRepN,trialsc.thisTrialN,trialsc.thisN,trialsc.thisIndex,trialsc.ran,calibration_x,calibration_y,participant,session,date,expName,psychopyVersion,OS,frameRate,calibrationClick.clicked_name,ScreenRes_pixels,Camera_pixels,mouse_2.x,mouse_2.y,mouse_2.leftButton,mouse_2.midButton,mouse_2.rightButton,mouse_2.time,mouse_2.clicked_name,mouse.x,mouse.y,mouse.leftButton,mouse.midButton,mouse.rightButton,mouse.time,mouse.clicked_name,Choice,Trial,TrialDuration,MOUSE_GAZE,ET_GAZE,ET_GAZE_x_T,time,unixTime,ET_GAZE_NF,Loc_Bus_label,Loc_Metro_label,Loc_RH_label,Loc_Cost_label,Loc_Travel_label,Loc_Comfort_label,Loc_Bus_cost,Loc_Metro_cost,Loc_RH_cost,Loc_Bus_travel,Loc_Metro_travel,Loc_RH_travel,Loc_Bus_comfort,Loc_Metro_comfort,Loc_RH_comfort,trials.thisRepN,trials.thisTrialN,trials.thisN,trials.thisIndex,trials.ran,Block,Device,RH_cost,RH_travel_time,RH_Comfort,metro_cost,metro_travel_time,metro_Comfort,Bus_cost,Bus_travel_time,Bus_Comfort
space,2.3672,0.594791667,0.37037037,1,0,0,0.535416667,0.701851852,0,0,0,0,0,0,18,1,0.33,0.67,23,001,2024-11-21_10h42.24.338,Attention_exp_legacy,2023.1.0,Win32,59.88023952,,,,,,,,,,,,,,,,,,,,,,,,,,,,,,,,,,,,,,,,,,,,,,,,,,,,,,,,,
,,,,,,,-0.005208333,-0.651851852,1,0,0,0,1,1,9,1,0,-0.67,23,001,2024-11-21_10h42.24.338,Attention_exp_legacy,2023.1.0,Win32,59.88023952,,,,,,,,,,,,,,,,,,,,,,,,,,,,,,,,,,,,,,,,,,,,,,,,,,,,,,,,,
,,,,,,,0.35,0.355555556,1,0,0,0,2,2,17,1,0.33,0.33,23,001,2024-11-21_10h42.24.338,Attention_exp_legacy,2023.1.0,Win32,59.88023952,,,,,,,,,,,,,,,,,,,,,,,,,,,,,,,,,,,,,,,,,,,,,,,,,,,,,,,,,
,,,,,,,0.002083333,0.007407407,1,0,0,0,3,3,11,1,0,0,23,001,2024-11-21_10h42.24.338,Attention_exp_legacy,2023.1.0,Win32,59.88023952,calibration_square,,,,,,,,,,,,,,,,,,,,,,,,,,,,,,,,,,,,,,,,,,,,,,,,,,,,,,,,
,,,,,,,-0.690625,-0.677777778,1,0,0,0,4,4,0,1,-0.67,-0.67,23,001,2024-11-21_10h42.24.338,Attention_exp_legacy,2023.1.0,Win32,59.88023952,,,,,,,,,,,,,,,,,,,,,,,,,,,,,,,,,,,,,,,,,,,,,,,,,,,,,,,,,
,,,,,,,0.335416667,-0.672222222,1,0,0,0,5,5,14,1,0.33,-0.67,23,001,2024-11-21_10h42.24.338,Attention_exp_legacy,2023.1.0,Win32,59.88023952,calibration_square,,,,,,,,,,,,,,,,,,,,,,,,,,,,,,,,,,,,,,,,,,,,,,,,,,,,,,,,
,,,,,,,0.660416667,0.672222222,1,0,0,0,6,6,19,1,0.67,0.67,23,001,2024-11-21_10h42.24.338,Attention_exp_legacy,2023.1.0,Win32,59.88023952,calibration_square,,,,,,,,,,,,,,,,,,,,,,,,,,,,,,,,,,,,,,,,,,,,,,,,,,,,,,,,
,,,,,,,0.004166667,0.327777778,1,0,0,0,7,7,12,1,0,0.33,23,001,2024-11-21_10h42.24.338,Attention_exp_legacy,2023.1.0,Win32,59.88023952,calibration_square,,,,,,,,,,,,,,,,,,,,,,,,,,,,,,,,,,,,,,,,,,,,,,,,,,,,,,,,
,,,,,,,-0.683333333,0.335185185,1,0,0,0,8,8,3,1,-0.67,0.33,23,001,2024-11-21_10h42.24.338,Attention_exp_legacy,2023.1.0,Win32,59.88023952,,,,,,,,,,,,,,,,,,,,,,,,,,,,,,,,,,,,,,,,,,,,,,,,,,,,,,,,,
,,,,,,,0.009375,0.653703704,1,0,0,0,9,9,13,1,0,0.67,23,001,2024-11-21_10h42.24.338,Attention_exp_legacy,2023.1.0,Win32,59.88023952,,,,,,,,,,,,,,,,,,,,,,,,,,,,,,,,,,,,,,,,,,,,,,,,,,,,,,,,,
,,,,,,,-0.340625,0.7,1,0,0,0,10,10,8,1,-0.33,0.67,23,001,2024-11-21_10h42.24.338,Attention_exp_legacy,2023.1.0,Win32,59.88023952,,,,,,,,,,,,,,,,,,,,,,,,,,,,,,,,,,,,,,,,,,,,,,,,,,,,,,,,,
,,,,,,,0.353125,0.009259259,1,0,0,0,11,11,16,1,0.33,0,23,001,2024-11-21_10h42.24.338,Attention_exp_legacy,2023.1.0,Win32,59.88023952,,,,,,,,,,,,,,,,,,,,,,,,,,,,,,,,,,,,,,,,,,,,,,,,,,,,,,,,,
,,,,,,,-0.340625,0.346296296,1,0,0,0,12,12,7,1,-0.33,0.33,23,001,2024-11-21_10h42.24.338,Attention_exp_legacy,2023.1.0,Win32,59.88023952,,,,,,,,,,,,,,,,,,,,,,,,,,,,,,,,,,,,,,,,,,,,,,,,,,,,,,,,,
,,,,,,,-0.325,-0.664814815,1,0,0,0,13,13,4,1,-0.33,-0.67,23,001,2024-11-21_10h42.24.338,Attention_exp_legacy,2023.1.0,Win32,59.88023952,calibration_square,,,,,,,,,,,,,,,,,,,,,,,,,,,,,,,,,,,,,,,,,,,,,,,,,,,,,,,,
,,,,,,,-0.338541667,-0.342592593,1,0,0,0,14,14,5,1,-0.33,-0.33,23,001,2024-11-21_10h42.24.338,Attention_exp_legacy,2023.1.0,Win32,59.88023952,,,,,,,,,,,,,,,,,,,,,,,,,,,,,,,,,,,,,,,,,,,,,,,,,,,,,,,,,
,,,,,,,-0.005208333,-0.340740741,1,0,0,0,15,15,10,1,0,-0.33,23,001,2024-11-21_10h42.24.338,Attention_exp_legacy,2023.1.0,Win32,59.88023952,,,,,,,,,,,,,,,,,,,,,,,,,,,,,,,,,,,,,,,,,,,,,,,,,,,,,,,,,
,,,,,,,0.338541667,-0.348148148,1,0,0,0,16,16,15,1,0.33,-0.33,23,001,2024-11-21_10h42.24.338,Attention_exp_legacy,2023.1.0,Win32,59.88023952,,,,,,,,,,,,,,,,,,,,,,,,,,,,,,,,,,,,,,,,,,,,,,,,,,,,,,,,,
,,,,,,,-0.675,-0.340740741,1,0,0,0,17,17,1,1,-0.67,-0.33,23,001,2024-11-21_10h42.24.338,Attention_exp_legacy,2023.1.0,Win32,59.88023952,,,,,,,,,,,,,,,,,,,,,,,,,,,,,,,,,,,,,,,,,,,,,,,,,,,,,,,,,
,,,,,,,-0.671875,0,1,0,0,0,18,18,2,1,-0.67,0,23,001,2024-11-21_10h42.24.338,Attention_exp_legacy,2023.1.0,Win32,59.88023952,calibration_square,,,,,,,,,,,,,,,,,,,,,,,,,,,,,,,,,,,,,,,,,,,,,,,,,,,,,,,,
,,,,,,,0.680208333,-0.668518519,1,0,0,0,19,19,20,1,0.67,-0.67,23,001,2024-11-21_10h42.24.338,Attention_exp_legacy,2023.1.0,Win32,59.88023952,,,,,,,,,,,,,,,,,,,,,,,,,,,,,,,,,,,,,,,,,,,,,,,,,,,,,,,,,
,,,,,,,-0.328125,-0.003703704,1,0,0,0,20,20,6,1,-0.33,0,23,001,2024-11-21_10h42.24.338,Attention_exp_legacy,2023.1.0,Win32,59.88023952,calibration_square,,,,,,,,,,,,,,,,,,,,,,,,,,,,,,,,,,,,,,,,,,,,,,,,,,,,,,,,
,,,,,,,,,,,,,,,,,,,23,001,2024-11-21_10h42.24.338,Attention_exp_legacy,2023.1.0,Win32,59.88023952,,"[1920,1080]","[640,480]",[0.07708333333333334],[-0.5111111111111111],[1],[0],[0],[1.4289000000953678],"[""StartButton""]",[-0.10729166666666666],[0.40555555555555556],[1],[0],[0],[3.8700999999046317],"[""Bus_label""]",Bus_label,1,4.894,"[[0.4875,0.3888888888888889],[0.4875,0.3888888888888889],[0.4875,0.3888888888888889],[0.4875,0.3888888888888889],[0.4875,0.3888888888888889],[0.4875,0.3888888888888889],[0.4875,0.3888888888888889],[0.4875,0.3888888888888889],[0.4875,0.3888888888888889],[0.4875,0.3888888888888889],[0.4875,0.3888888888888889],[0.4875,0.3888888888888889],[0.4875,0.3888888888888889],[0.4875,0.3888888888888889],[0.4875,0.3888888888888889],[0.4875,0.3888888888888889],[0.4875,0.3888888888888889],[0.4875,0.3888888888888889],[0.4875,0.3888888888888889],[0.4875,0.3888888888888889],[0.4875,0.3888888888888889],[0.4875,0.3888888888888889],[0.4875,0.3888888888888889],[0.4875,0.3888888888888889],[0.4875,0.3888888888888889],[0.4875,0.3888888888888889],[0.4875,0.3888888888888889],[0.4875,0.3888888888888889],[0.4875,0.3888888888888889],[0.4875,0.3888888888888889],[0.4875,0.3888888888888889],[0.4875,0.3888888888888889],[0.4875,0.3888888888888889],[0.4875,0.3888888888888889],[0.4875,0.3888888888888889],[0.4875,0.3888888888888889],[0.4875,0.3888888888888889],[0.4875,0.3888888888888889],[0.4875,0.3888888888888889],[0.4875,0.3888888888888889],[0.4875,0.3888888888888889],[0.4875,0.3888888888888889],[0.4875,0.3888888888888889],[0.4875,0.3888888888888889],[0.4875,0.3888888888888889],[0.4875,0.3888888888888889],[0.4875,0.3888888888888889],[0.4875,0.3888888888888889],[0.4875,0.3888888888888889],[0.4875,0.3888888888888889],[0.4875,0.3888888888888889],[0.48125,0.3888888888888889],[0.471875,0.3888888888888889],[0.46041666666666664,0.3888888888888889],[0.44895833333333335,0.3888888888888889],[0.4375,0.3888888888888889],[0.425,0.3888888888888889],[0.4166666666666667,0.387037037037037],[0.4010416666666667,0.38333333333333336],[0.3958333333333333,0.3814814814814815],[0.3854166666666667,0.37407407407407406],[0.37916666666666665,0.37037037037037035],[0.36875,0.3592592592592593],[0.35833333333333334,0.34814814814814815],[0.3416666666666667,0.3277777777777778],[0.3385416666666667,0.32222222222222224],[0.32708333333333334,0.30925925925925923],[0.31875,0.3],[0.30833333333333335,0.28703703703703703],[0.29583333333333334,0.26666666666666666],[0.28541666666666665,0.24814814814814815],[0.275,0.22777777777777777],[0.2625,0.20555555555555555],[0.253125,0.18333333333333332],[0.23854166666666668,0.1425925925925926],[0.234375,0.12962962962962962],[0.221875,0.08703703703703704],[0.21458333333333332,0.05740740740740741],[0.21145833333333333,0.040740740740740744],[0.209375,0.03333333333333333],[0.20520833333333333,0.014814814814814815],[0.19791666666666666,-0.014814814814814815],[0.190625,-0.04259259259259259],[0.18541666666666667,-0.06111111111111111],[0.18125,-0.07037037037037037],[0.17708333333333334,-0.08148148148148149],[0.17395833333333333,-0.08703703703703704],[0.17291666666666666,-0.08888888888888889],[0.17083333333333334,-0.09444444444444444],[0.16875,-0.09814814814814815],[0.165625,-0.1037037037037037],[0.16354166666666667,-0.10555555555555556],[0.16041666666666668,-0.10555555555555556],[0.15833333333333333,-0.10740740740740741],[0.15729166666666666,-0.10740740740740741],[0.15625,-0.10925925925925926],[0.15520833333333334,-0.10925925925925926],[0.15416666666666667,-0.10925925925925926],[0.15416666666666667,-0.10925925925925926],[0.15104166666666666,-0.10740740740740741],[0.146875,-0.1],[0.14270833333333333,-0.08888888888888889],[0.1375,-0.07222222222222222],[0.13229166666666667,-0.053703703703703705],[0.12708333333333333,-0.03333333333333333],[0.12291666666666666,-0.018518518518518517],[0.11770833333333333,0],[0.11458333333333333,0.007407407407407408],[0.11041666666666666,0.018518518518518517],[0.10625,0.025925925925925925],[0.10208333333333333,0.03333333333333333],[0.09375,0.04259259259259259],[0.0875,0.05],[0.08020833333333334,0.05555555555555555],[0.071875,0.06111111111111111],[0.05625,0.06666666666666667],[0.051041666666666666,0.06851851851851852],[0.03854166666666667,0.07407407407407407],[0.022916666666666665,0.07777777777777778],[0.0125,0.08148148148148149],[0.005208333333333333,0.08333333333333333],[-0.0020833333333333333,0.08333333333333333],[-0.011458333333333333,0.08518518518518518],[-0.019791666666666666,0.08888888888888889],[-0.029166666666666667,0.09259259259259259],[-0.03958333333333333,0.09444444444444444],[-0.05625,0.09814814814814815],[-0.06145833333333333,0.1],[-0.06979166666666667,0.1],[-0.075,0.10185185185185185],[-0.07916666666666666,0.10185185185185185],[-0.08229166666666667,0.10185185185185185],[-0.084375,0.10185185185185185],[-0.0875,0.1],[-0.090625,0.0962962962962963],[-0.09270833333333334,0.09074074074074075],[-0.09270833333333334,0.08518518518518518],[-0.09583333333333334,0.07962962962962963],[-0.09583333333333334,0.07222222222222222],[-0.09583333333333334,0.06851851851851852],[-0.09583333333333334,0.06666666666666667],[-0.09583333333333334,0.06481481481481481],[-0.09583333333333334,0.06111111111111111],[-0.09583333333333334,0.05740740740740741],[-0.09479166666666666,0.05],[-0.09166666666666666,0.03518518518518519],[-0.08854166666666667,0.024074074074074074],[-0.08541666666666667,0.011111111111111112],[-0.07708333333333334,-0.014814814814814815],[-0.07395833333333333,-0.025925925925925925],[-0.06666666666666667,-0.05],[-0.059375,-0.07407407407407407],[-0.040625,-0.12407407407407407],[-0.029166666666666667,-0.15555555555555556],[-0.021875,-0.17962962962962964],[-0.015625,-0.2037037037037037],[-0.010416666666666666,-0.22037037037037038],[-0.008333333333333333,-0.23703703703703705],[-0.00625,-0.24814814814814815],[-0.004166666666666667,-0.2611111111111111],[-0.004166666666666667,-0.26666666666666666],[-0.004166666666666667,-0.2722222222222222],[-0.004166666666666667,-0.2722222222222222],[-0.004166666666666667,-0.2740740740740741],[-0.004166666666666667,-0.2740740740740741],[-0.004166666666666667,-0.2740740740740741],[-0.004166666666666667,-0.2740740740740741],[-0.004166666666666667,-0.2740740740740741],[-0.004166666666666667,-0.26481481481481484],[-0.014583333333333334,-0.21851851851851853],[-0.03333333333333333,-0.14444444444444443],[-0.057291666666666664,-0.05740740740740741],[-0.08229166666666667,0.03333333333333333],[-0.10104166666666667,0.11666666666666667],[-0.13333333333333333,0.31296296296296294],[-0.13541666666666666,0.34629629629629627],[-0.13645833333333332,0.36666666666666664],[-0.13645833333333332,0.3888888888888889],[-0.13541666666666666,0.39814814814814814],[-0.13229166666666667,0.40555555555555556],[-0.13020833333333334,0.40925925925925927],[-0.12604166666666666,0.412962962962963],[-0.12395833333333334,0.4148148148148148],[-0.121875,0.4166666666666667],[-0.11979166666666667,0.4166666666666667],[-0.11979166666666667,0.4166666666666667],[-0.11979166666666667,0.4166666666666667],[-0.11979166666666667,0.4166666666666667],[-0.11875,0.4166666666666667],[-0.11458333333333333,0.4148148148148148],[-0.1125,0.4148148148148148],[-0.11041666666666666,0.40925925925925927],[-0.109375,0.4074074074074074],[-0.10729166666666666,0.40555555555555556],[-0.10729166666666666,0.40555555555555556],[-0.10729166666666666,0.40555555555555556],[-0.10729166666666666,0.40555555555555556],[-0.10729166666666666,0.40555555555555556],[-0.10729166666666666,0.40555555555555556],[-0.10729166666666666,0.40555555555555556],[-0.10729166666666666,0.40555555555555556],[-0.10729166666666666,0.40555555555555556],[-0.10729166666666666,0.40555555555555556],[-0.10729166666666666,0.40555555555555556],[-0.10729166666666666,0.40555555555555556],[-0.10729166666666666,0.40555555555555556],[-0.10729166666666666,0.40555555555555556],[-0.10729166666666666,0.40555555555555556],[-0.10729166666666666,0.40555555555555556],[-0.10729166666666666,0.40555555555555556],[-0.10729166666666666,0.40555555555555556],[-0.10729166666666666,0.40555555555555556],[-0.10729166666666666,0.40555555555555556],[-0.10729166666666666,0.40555555555555556],[-0.10729166666666666,0.40555555555555556],[-0.10729166666666666,0.40555555555555556],[-0.10729166666666666,0.40555555555555556],[-0.10729166666666666,0.40555555555555556],[-0.10729166666666666,0.40555555555555556],[-0.10729166666666666,0.40555555555555556],[-0.10729166666666666,0.40555555555555556],[-0.10729166666666666,0.40555555555555556],[-0.10729166666666666,0.40555555555555556],[-0.10729166666666666,0.40555555555555556],[-0.10729166666666666,0.40555555555555556],[-0.10729166666666666,0.40555555555555556],[-0.10729166666666666,0.40555555555555556],[-0.10729166666666666,0.40555555555555556],[-0.10729166666666666,0.40555555555555556],[-0.10729166666666666,0.40555555555555556],[-0.10729166666666666,0.40555555555555556],[-0.10729166666666666,0.40555555555555556],[-0.10729166666666666,0.40555555555555556],[-0.10729166666666666,0.40555555555555556],[-0.10729166666666666,0.40555555555555556],[-0.10729166666666666,0.40555555555555556],[-0.10729166666666666,0.40555555555555556],[-0.10729166666666666,0.40555555555555556],[-0.10729166666666666,0.40555555555555556],[-0.10729166666666666,0.40555555555555556],[-0.10729166666666666,0.40555555555555556],[-0.10729166666666666,0.40555555555555556],[-0.10729166666666666,0.40555555555555556],[-0.10729166666666666,0.40555555555555556],[-0.10729166666666666,0.40555555555555556],[-0.10729166666666666,0.40555555555555556],[-0.10729166666666666,0.40555555555555556],[-0.10729166666666666,0.40555555555555556],[-0.10729166666666666,0.40555555555555556],[-0.10729166666666666,0.40555555555555556],[-0.10729166666666666,0.40555555555555556],[-0.10729166666666666,0.40555555555555556],[-0.10729166666666666,0.40555555555555556],[-0.10729166666666666,0.40555555555555556],[-0.10729166666666666,0.40555555555555556],[-0.10729166666666666,0.40555555555555556],[-0.10729166666666666,0.40555555555555556],[-0.10729166666666666,0.40555555555555556],[-0.10729166666666666,0.40555555555555556],[-0.10729166666666666,0.40555555555555556],[-0.10729166666666666,0.40555555555555556],[-0.10729166666666666,0.40555555555555556],[-0.10729166666666666,0.40555555555555556],[-0.10729166666666666,0.40555555555555556],[-0.10729166666666666,0.40555555555555556],[-0.10729166666666666,0.40555555555555556],[-0.10729166666666666,0.40555555555555556],[-0.10729166666666666,0.40555555555555556],[-0.10729166666666666,0.40555555555555556],[-0.10729166666666666,0.40555555555555556],[-0.10729166666666666,0.40555555555555556],[-0.10729166666666666,0.40555555555555556],[-0.10729166666666666,0.40555555555555556],[-0.10729166666666666,0.40555555555555556],[-0.10729166666666666,0.40555555555555556],[-0.10729166666666666,0.40555555555555556],[-0.10729166666666666,0.40555555555555556],[-0.10729166666666666,0.40555555555555556],[-0.10729166666666666,0.40555555555555556],[-0.10729166666666666,0.40555555555555556],[-0.10729166666666666,0.40555555555555556],[-0.10729166666666666,0.40555555555555556],[-0.10729166666666666,0.40555555555555556],[-0.10729166666666666,0.40555555555555556],[-0.10729166666666666,0.40555555555555556],[-0.10729166666666666,0.40555555555555556],[-0.10729166666666666,0.40555555555555556],[-0.10729166666666666,0.40555555555555556],[-0.10729166666666666,0.40555555555555556],[-0.10729166666666666,0.40555555555555556],[-0.10729166666666666,0.40555555555555556],[-0.10729166666666666,0.40555555555555556],[-0.10729166666666666,0.40555555555555556]]","[[-0.0733333333333333,-0.2777777777777778],[-0.0733333333333333,-0.2777777777777778],[-0.0859375,-0.2855555555555555],[-0.09906250000000003,-0.3151851851851852],[-0.09833333333333331,-0.3183333333333333],[-0.09833333333333331,-0.3183333333333333],[-0.09354166666666662,-0.3162962962962963],[-0.10114583333333335,-0.3418518518518519],[-0.10114583333333335,-0.3418518518518519],[-0.1345833333333334,-0.37777777777777777],[-0.17958333333333332,-0.422037037037037],[-0.19739583333333333,-0.4235185185185185],[-0.21739583333333337,-0.43037037037037035],[-0.21739583333333337,-0.43037037037037035],[-0.22916666666666666,-0.4292592592592593],[-0.24937499999999999,-0.4255555555555556],[-0.24937499999999999,-0.4255555555555556],[-0.27010416666666665,-0.4075925925925926],[-0.27010416666666665,-0.4075925925925926],[-0.2946875,-0.4],[-0.2946875,-0.4],[-0.32062499999999994,-0.3827777777777778],[-0.32062499999999994,-0.3827777777777778],[-0.32062499999999994,-0.3827777777777778],[-0.34375,-0.3461111111111111],[-0.34375,-0.3461111111111111],[-0.31927083333333334,-0.31555555555555553],[-0.31927083333333334,-0.31555555555555553],[-0.31197916666666664,-0.27925925925925926],[-0.31197916666666664,-0.27925925925925926],[-0.3046875,-0.26740740740740737],[-0.31010416666666674,-0.24407407407407408],[-0.30625,-0.23592592592592587],[-0.31052083333333336,-0.255],[-0.3102083333333333,-0.26240740740740737],[-0.31197916666666664,-0.2687037037037037],[-0.30416666666666664,-0.29148148148148145],[-0.28843749999999996,-0.3042592592592593],[-0.2913541666666667,-0.29685185185185187],[-0.2913541666666667,-0.29685185185185187],[-0.2886458333333334,-0.28851851851851856],[-0.29239583333333335,-0.2625925925925926],[-0.2919791666666666,-0.2594444444444445],[-0.2700000000000001,-0.2657407407407407],[-0.25458333333333333,-0.262037037037037],[-0.25020833333333337,-0.28185185185185185],[-0.25020833333333337,-0.28185185185185185],[-0.23395833333333335,-0.27148148148148155],[-0.22427083333333328,-0.25388888888888894],[-0.21041666666666667,-0.2711111111111111],[-0.20562499999999997,-0.30166666666666664],[-0.19635416666666666,-0.34685185185185186],[-0.19635416666666666,-0.34685185185185186],[-0.14375,-0.3725925925925926],[-0.07541666666666665,-0.38685185185185184],[-0.033958333333333354,-0.375],[-0.033958333333333354,-0.375],[0.029166666666666667,-0.38851851851851854],[0.096875,-0.3877777777777777],[0.096875,-0.3877777777777777],[0.13250000000000003,-0.4272222222222222],[0.18697916666666667,-0.4542592592592593],[0.22145833333333323,-0.4564814814814815],[0.26593749999999994,-0.4487037037037037],[0.3366666666666667,-0.402962962962963],[0.3366666666666667,-0.402962962962963],[0.3540625000000001,-0.37222222222222223],[0.35281250000000003,-0.395],[0.36124999999999996,-0.4172222222222222],[0.34833333333333344,-0.3846296296296296],[0.3375,-0.3464814814814815],[0.3375,-0.3464814814814815],[0.32802083333333343,-0.2959259259259259],[0.32041666666666657,-0.25333333333333335],[0.3319791666666667,-0.2140740740740741],[0.34260416666666677,-0.1714814814814815],[0.32541666666666674,-0.19462962962962968],[0.3224999999999999,-0.20907407407407402],[0.31281249999999994,-0.18055555555555555],[0.31281249999999994,-0.18055555555555555],[0.30614583333333345,-0.1425925925925926],[0.303125,-0.11518518518518517],[0.303125,-0.11518518518518517],[0.29104166666666675,-0.09500000000000001],[0.29104166666666675,-0.09500000000000001],[0.30447916666666663,-0.11537037037037039],[0.30447916666666663,-0.11537037037037039],[0.28104166666666663,-0.1609259259259259],[0.25593750000000004,-0.20981481481481484],[0.2271874999999999,-0.2631481481481482],[0.21197916666666666,-0.2531481481481481],[0.1921875,-0.23962962962962958],[0.1820833333333333,-0.2270370370370371],[0.1646874999999999,-0.24981481481481477],[0.1544791666666666,-0.24518518518518514],[0.15927083333333342,-0.2337037037037037],[0.15427083333333325,-0.1905555555555555],[0.16458333333333333,-0.14240740740740737],[0.16479166666666673,-0.08444444444444449],[0.16864583333333344,-0.022037037037036994],[0.1790625000000001,-0.04129629629629621],[0.18333333333333332,-0.032407407407407406],[0.19781250000000009,-0.0294444444444444],[0.2068749999999999,-0.0011111111111111532],[0.2039583333333333,-0.0455555555555556],[0.1990624999999999,-0.06796296296296295],[0.19416666666666677,-0.09037037037037039],[0.18406250000000005,-0.11018518518518519],[0.19177083333333325,-0.14666666666666664],[0.18916666666666657,-0.16259259259259262],[0.1806250000000001,-0.10944444444444448],[0.1486458333333334,-0.1242592592592593],[0.11333333333333329,-0.1259259259259259],[0.08250000000000005,-0.12759259259259256],[0.08229166666666667,-0.09018518518518516],[0.05406249999999998,-0.08277777777777776],[0.029375000000000047,-0.07111111111111107],[0.026979166666666644,-0.05555555555555555],[0.010208333333333286,-0.03629629629629634],[0.002291666666666714,-0.01592592592592597],[-0.0003124999999999526,-0.016111111111111194],[0.011249999999999953,0],[0.02166666666666662,0.003333333333333249],[0.02166666666666662,0.003333333333333249],[0.03354166666666671,0.012407407407407492],[0.026145833333333358,0.005740740740740783],[0.027083333333333334,-0.0012962962962963806],[0.01427083333333338,-0.011666666666666582],[0.003854166666666714,-0.0012962962962963806],[-0.019270833333333334,-0.006296296296296254],[-0.02947916666666662,-0.0242592592592593],[-0.05,-0.018148148148148063],[-0.05697916666666671,0.0035185185185184764],[-0.05385416666666672,0.05611111111111103],[-0.05666666666666664,0.102962962962963],[-0.05020833333333338,0.14148148148148143],[-0.030104166666666644,0.18314814814814812],[-0.030104166666666644,0.18314814814814812],[-0.03802083333333333,0.13351851851851856],[-0.041979166666666616,0.12074074074074083],[-0.0265625,0.1264814814814814],[-0.0265625,0.1264814814814814],[-0.03104166666666662,0.09259259259259259],[-0.03104166666666662,0.09259259259259259],[-0.05562499999999997,0.04666666666666675],[-0.05562499999999997,0.04666666666666675],[-0.06437499999999995,0.003703703703703704],[-0.10729166666666666,-0.09129629629629632],[-0.10729166666666666,-0.09129629629629632],[-0.1109375,-0.14444444444444443],[-0.1109375,-0.14444444444444443],[-0.13875000000000004,-0.17444444444444443],[-0.16802083333333329,-0.2361111111111111],[-0.15531250000000002,-0.18833333333333332],[-0.15958333333333338,-0.17777777777777778],[-0.1670833333333333,-0.19944444444444442],[-0.15906250000000005,-0.17888888888888893],[-0.1296875,-0.14388888888888887],[-0.11104166666666669,-0.09814814814814815],[-0.08374999999999998,-0.05962962962962961],[-0.09572916666666664,-0.06296296296296296],[-0.09572916666666664,-0.06296296296296296],[-0.08520833333333329,-0.07407407407407407],[-0.08520833333333329,-0.07407407407407407],[-0.06833333333333336,-0.031111111111111027],[-0.058645833333333286,-0.0025925925925925505],[-0.05458333333333331,0.014814814814814815],[-0.04593750000000003,0.059999999999999956],[-0.04593750000000003,0.059999999999999956],[-0.041979166666666616,0.09185185185185189],[-0.02802083333333331,0.13444444444444448],[-0.02020833333333331,0.1264814814814814],[-0.02020833333333331,0.1264814814814814],[-0.016458333333333287,0.14148148148148143],[-0.013541666666666667,0.19018518518518526],[-0.013541666666666667,0.19018518518518526],[-0.021041666666666715,0.21722222222222215],[-0.03343750000000002,0.22185185185185177],[-0.033958333333333354,0.24518518518518514],[-0.033958333333333354,0.24518518518518514],[-0.03135416666666669,0.2051851851851851],[-0.041458333333333285,0.1911111111111112],[-0.041458333333333285,0.1911111111111112],[-0.057604166666666616,0.1425925925925926],[-0.057604166666666616,0.1425925925925926],[-0.08041666666666672,0.025185185185185227],[-0.05635416666666669,0.0698148148148149],[-0.0390625,0.0838888888888888],[-0.020937500000000022,0.06425925925925935],[0.005208333333333333,0.0338888888888888],[0.005208333333333333,0.0338888888888888],[0.028437499999999952,-0.0338888888888888],[0.059062500000000046,-0.10648148148148148],[0.07572916666666671,-0.1161111111111111],[0.0984375,-0.14203703703703702],[0.10979166666666676,-0.14611111111111108],[0.11760416666666676,-0.07462962962962966],[0.11760416666666676,-0.07462962962962966],[0.08312499999999995,-0.13425925925925927],[0.0818749999999999,-0.11092592592592589],[0.04708333333333338,-0.19314814814814818],[0.04708333333333338,-0.19314814814814818],[0.009583333333333381,-0.24759259259259256],[0.009583333333333381,-0.24759259259259256],[-0.007708333333333309,-0.2485185185185185],[-0.0453125,-0.2433333333333333],[-0.0453125,-0.2433333333333333],[-0.08166666666666664,-0.25037037037037035],[-0.10375000000000002,-0.24592592592592594],[-0.10375000000000002,-0.24592592592592594],[-0.10562499999999998,-0.18981481481481483],[-0.10562499999999998,-0.18981481481481483],[-0.10270833333333336,-0.2294444444444444],[-0.12614583333333335,-0.32018518518518513],[-0.12614583333333335,-0.32018518518518513],[-0.1530208333333333,-0.42018518518518516],[-0.1530208333333333,-0.42018518518518516],[-0.13145833333333337,-0.32999999999999996],[-0.13145833333333337,-0.32999999999999996],[-0.1280208333333333,-0.34018518518518515],[-0.1280208333333333,-0.34018518518518515],[-0.15395833333333328,-0.37888888888888894],[-0.15395833333333328,-0.37888888888888894],[-0.16760416666666664,-0.4933333333333333],[-0.15291666666666662,-0.497037037037037],[-0.14718749999999994,-0.5174074074074073],[-0.14656250000000004,-0.5975925925925926],[-0.14656250000000004,-0.5975925925925926],[-0.16395833333333332,-0.6220370370370369],[-0.16354166666666667,-0.5716666666666667],[-0.17239583333333333,-0.5535185185185185],[-0.19739583333333333,-0.6109259259259259],[-0.1955208333333334,-0.5994444444444444],[-0.18802083333333333,-0.571111111111111],[-0.1883333333333333,-0.49166666666666664],[-0.20958333333333337,-0.5349999999999999],[-0.21479166666666671,-0.5822222222222222],[-0.22614583333333335,-0.5722222222222222],[-0.21822916666666667,-0.5729629629629629],[-0.21156250000000001,-0.5842592592592593],[-0.19635416666666666,-0.6051851851851852],[-0.1798958333333334,-0.6351851851851852],[-0.16572916666666668,-0.6233333333333334],[-0.14510416666666662,-0.615925925925926],[-0.13312499999999997,-0.5811111111111111],[-0.11895833333333337,-0.5216666666666666],[-0.13395833333333335,-0.5001851851851852],[-0.12708333333333333,-0.4890740740740741],[-0.1280208333333333,-0.46425925925925926],[-0.11927083333333334,-0.4527777777777778],[-0.11906249999999995,-0.4316666666666667],[-0.11104166666666669,-0.40018518518518525],[-0.1094791666666667,-0.37907407407407406],[-0.1094791666666667,-0.37907407407407406],[-0.10666666666666665,-0.3611111111111111],[-0.09249999999999996,-0.36259259259259263],[-0.06968749999999997,-0.3609259259259259],[-0.04781249999999997,-0.33111111111111113],[-0.03104166666666662,-0.3314814814814815],[-0.022083333333333382,-0.33611111111111114],[-0.013020833333333334,-0.3405555555555555],[-0.013020833333333334,-0.3405555555555555],[-0.0016666666666666904,-0.3416666666666667],[-0.0016666666666666904,-0.3416666666666667],[0.0036458333333333334,-0.35240740740740745],[0.004166666666666667,-0.37],[0.0032291666666666905,-0.3696296296296297],[-0.000416666666666643,-0.3772222222222222],[-0.01885416666666669,-0.39518518518518514],[-0.01885416666666669,-0.39518518518518514],[-0.02322916666666662,-0.39944444444444444],[-0.03864583333333336,-0.4016666666666666],[-0.05020833333333338,-0.4020370370370371],[-0.05666666666666664,-0.3925925925925926],[-0.06791666666666671,-0.38796296296296295],[-0.10104166666666667,-0.3985185185185185],[-0.12937500000000005,-0.4022222222222222],[-0.12937500000000005,-0.4022222222222222],[-0.16770833333333332,-0.40796296296296297],[-0.16770833333333332,-0.40796296296296297],[-0.20864583333333328,-0.4105555555555555],[-0.2585416666666667,-0.4112962962962963],[-0.3026041666666667,-0.43],[-0.32364583333333335,-0.4087037037037037],[-0.34052083333333333,-0.38629629629629636],[-0.3706249999999999,-0.4059259259259259],[-0.4010416666666667,-0.4111111111111111],[-0.41135416666666663,-0.40185185185185185],[-0.4235416666666667,-0.3809259259259259],[-0.42552083333333335,-0.3727777777777778],[-0.4248958333333333,-0.3677777777777778],[-0.40343749999999995,-0.36203703703703705],[-0.3697916666666667,-0.3514814814814815]]","[[-0.0733333333333333,-0.2777777777777778,0.00040000009536811376],[-0.0733333333333333,-0.2777777777777778,0.05360000038147206],[-0.0859375,-0.2855555555555555,0.06199999999999761],[-0.09906250000000003,-0.3151851851851852,0.08190000009536647],[-0.09833333333333331,-0.3183333333333333,0.09890000009536948],[-0.09833333333333331,-0.3183333333333333,0.11030000019073327],[-0.09354166666666662,-0.3162962962962963,0.12710000038146774],[-0.10114583333333335,-0.3418518518518519,0.14399999999999835],[-0.10114583333333335,-0.3418518518518519,0.16049999999999898],[-0.1345833333333334,-0.37777777777777777,0.177100000381472],[-0.17958333333333332,-0.422037037037037,0.19470000028610457],[-0.19739583333333333,-0.4235185185185185,0.21540000009536442],[-0.21739583333333337,-0.43037037037037035,0.23270000028610127],[-0.21739583333333337,-0.43037037037037035,0.24380000019073123],[-0.22916666666666666,-0.4292592592592593,0.2604000000953661],[-0.24937499999999999,-0.4255555555555556,0.2816000003814665],[-0.24937499999999999,-0.4255555555555556,0.2938000001907355],[-0.27010416666666665,-0.4075925925925926,0.3104000000953704],[-0.27010416666666665,-0.4075925925925926,0.3271000003814706],[-0.2946875,-0.4,0.3437000002861055],[-0.2946875,-0.4,0.36040000009536755],[-0.32062499999999994,-0.3827777777777778,0.3855000000000004],[-0.32062499999999994,-0.3827777777777778,0.3978000001907347],[-0.32062499999999994,-0.3827777777777778,0.4117000002861033],[-0.34375,-0.3461111111111111,0.42720000028609917],[-0.34375,-0.3461111111111111,0.44380000019073407],[-0.31927083333333334,-0.31555555555555553,0.46040000009536897],[-0.31927083333333334,-0.31555555555555553,0.47720000028610343],[-0.31197916666666664,-0.27925925925925926,0.4938000001907312],[-0.31197916666666664,-0.27925925925925926,0.5105000000000004],[-0.3046875,-0.26740740740740737,0.5271000003814663],[-0.31010416666666674,-0.24407407407407408,0.5457000002861037],[-0.30625,-0.23592592592592587,0.5626000003814724],[-0.31052083333333336,-0.255,0.5794000000953687],[-0.3102083333333333,-0.26240740740740737,0.5949000000953646],[-0.31197916666666664,-0.2687037037037037,0.6141000003814696],[-0.30416666666666664,-0.29148148148148145,0.6306000003814702],[-0.28843749999999996,-0.3042592592592593,0.6471000003814709],[-0.2913541666666667,-0.29685185185185187,0.6649000000953649],[-0.2913541666666667,-0.29685185185185187,0.6769999999999996],[-0.2886458333333334,-0.28851851851851856,0.6938000001907341],[-0.29239583333333335,-0.2625925925925926,0.7133000001907348],[-0.2919791666666666,-0.2594444444444445,0.730400000095365],[-0.2700000000000001,-0.2657407407407407,0.7483000001907314],[-0.25458333333333333,-0.262037037037037,0.7644000000953639],[-0.25020833333333337,-0.28185185185185185,0.791800000190733],[-0.25020833333333337,-0.28185185185185185,0.7998000001907357],[-0.23395833333333335,-0.27148148148148155,0.8104000000953704],[-0.22427083333333328,-0.25388888888888894,0.8271000003814706],[-0.21041666666666667,-0.2711111111111111,0.8449000000953646],[-0.20562499999999997,-0.30166666666666664,0.865000000000002],[-0.19635416666666666,-0.34685185185185186,0.8839000000953661],[-0.19635416666666666,-0.34685185185185186,0.8939000000953641],[-0.14375,-0.3725925925925926,0.9106000003814714],[-0.07541666666666665,-0.38685185185185184,0.9274000000953677],[-0.033958333333333354,-0.375,0.9472000002861023],[-0.033958333333333354,-0.375,0.9606000003814685],[0.029166666666666667,-0.38851851851851854,0.9772000002861034],[0.096875,-0.3877777777777777,0.9990000000000023],[0.096875,-0.3877777777777777,1.0110000000000028],[0.13250000000000003,-0.4272222222222222,1.0273000001907349],[0.18697916666666667,-0.4542592592592593,1.0483000001907357],[0.22145833333333323,-0.4564814814814815,1.0648000001907363],[0.26593749999999994,-0.4487037037037037,1.081400000095364],[0.3366666666666667,-0.402962962962963,1.1045000000000016],[0.3366666666666667,-0.402962962962963,1.1120000000000019],[0.3540625000000001,-0.37222222222222223,1.1274000000953706],[0.35281250000000003,-0.395,1.1444000000953665],[0.36124999999999996,-0.4172222222222222,1.1655000000000015],[0.34833333333333344,-0.3846296296296296,1.1814000000953655],[0.3375,-0.3464814814814815,1.1998000001907343],[0.3375,-0.3464814814814815,1.2107000002861028],[0.32802083333333343,-0.2959259259259259,1.2317000002861036],[0.32041666666666657,-0.25333333333333335,1.24810000038147],[0.3319791666666667,-0.2140740740740741,1.2661000003814706],[0.34260416666666677,-0.1714814814814815,1.282900000095367],[0.32541666666666674,-0.19462962962962968,1.299200000286099],[0.3224999999999999,-0.20907407407407402,1.314300000190734],[0.31281249999999994,-0.18055555555555555,1.3341000003814685],[0.31281249999999994,-0.18055555555555555,1.343900000095367],[0.30614583333333345,-0.1425925925925926,1.3607000002861014],[0.303125,-0.11518518518518517,1.3812000002860998],[0.303125,-0.11518518518518517,1.4017000002861053],[0.29104166666666675,-0.09500000000000001,1.4107000002860985],[0.29104166666666675,-0.09500000000000001,1.4273000001907334],[0.30447916666666663,-0.11537037037037039,1.461100000381471],[0.30447916666666663,-0.11537037037037039,1.4706000003814665],[0.28104166666666663,-0.1609259259259259,1.4781000003814668],[0.25593750000000004,-0.20981481481481484,1.4939000000953655],[0.2271874999999999,-0.2631481481481482,1.5128000001907367],[0.21197916666666666,-0.2531481481481481,1.5294999999999987],[0.1921875,-0.23962962962962958,1.5447000002860989],[0.1820833333333333,-0.2270370370370371,1.5604999999999976],[0.1646874999999999,-0.24981481481481477,1.580200000286105],[0.1544791666666666,-0.24518518518518514,1.596100000381469],[0.15927083333333342,-0.2337037037037037,1.6120000000000019],[0.15427083333333325,-0.1905555555555555,1.627200000286102],[0.16458333333333333,-0.14240740740740737,1.6473000001907323],[0.16479166666666673,-0.08444444444444449,1.663800000190733],[0.16864583333333344,-0.022037037037036994,1.677500000000002],[0.1790625000000001,-0.04129629629629621,1.6942000002861022],[0.18333333333333332,-0.032407407407407406,1.713000000000001],[0.19781250000000009,-0.0294444444444444,1.7274000000953649],[0.2068749999999999,-0.0011111111111111532,1.7444000000953679],[0.2039583333333333,-0.0455555555555556,1.7634000000953662],[0.1990624999999999,-0.06796296296296295,1.7773000001907349],[0.19416666666666677,-0.09037037037037039,1.7939000000953698],[0.18406250000000005,-0.11018518518518519,1.8142000002860996],[0.19177083333333325,-0.14666666666666664,1.8294000000953687],[0.18916666666666657,-0.16259259259259262,1.8440000000000012],[0.1806250000000001,-0.10944444444444448,1.8606000003814671],[0.1486458333333334,-0.1242592592592593,1.8795000000000002],[0.11333333333333329,-0.1259259259259259,1.893800000190737],[0.08250000000000005,-0.12759259259259256,1.9107000002860985],[0.08229166666666667,-0.09018518518518516,1.9307000002861017],[0.05406249999999998,-0.08277777777777776,1.9462000002861046],[0.029375000000000047,-0.07111111111111107,1.960800000190737],[0.026979166666666644,-0.05555555555555555,1.9807000002860988],[0.010208333333333286,-0.03629629629629634,1.9985],[0.002291666666666714,-0.01592592592592597,2.014000000000003],[-0.0003124999999999526,-0.016111111111111194,2.0276000003814687],[0.011249999999999953,0,2.047300000190738],[0.02166666666666662,0.003333333333333249,2.0633000001907362],[0.02166666666666662,0.003333333333333249,2.078400000095364],[0.03354166666666671,0.012407407407407492,2.093900000095367],[0.026145833333333358,0.005740740740740783,2.1151000003814673],[0.027083333333333334,-0.0012962962962963806,2.1307000002861045],[0.01427083333333338,-0.011666666666666582,2.1439999999999984],[0.003854166666666714,-0.0012962962962963806,2.1606000003814714],[-0.019270833333333334,-0.006296296296296254,2.1794999999999973],[-0.02947916666666662,-0.0242592592592593,2.1940000000000026],[-0.05,-0.018148148148148063,2.2144000000953667],[-0.05697916666666671,0.0035185185185184764,2.232200000286099],[-0.05385416666666672,0.05611111111111103,2.2472000002860995],[-0.05666666666666664,0.102962962962963,2.262900000095364],[-0.05020833333333338,0.14148148148148143,2.279200000286103],[-0.030104166666666644,0.18314814814814812,2.2979000000953675],[-0.030104166666666644,0.18314814814814812,2.3104999999999976],[-0.03802083333333333,0.13351851851851856,2.327300000190732],[-0.041979166666666616,0.12074074074074083,2.343900000095367],[-0.0265625,0.1264814814814814,2.3663000001907335],[-0.0265625,0.1264814814814814,2.3773000001907363],[-0.03104166666666662,0.09259259259259259,2.3941000003814707],[-0.03104166666666662,0.09259259259259259,2.4106000003814714],[-0.05562499999999997,0.04666666666666675,2.4321000003814675],[-0.05562499999999997,0.04666666666666675,2.4444000000953636],[-0.06437499999999995,0.003703703703703704,2.4606000003814685],[-0.10729166666666666,-0.09129629629629632,2.4804999999999993],[-0.10729166666666666,-0.09129629629629632,2.498800000190734],[-0.1109375,-0.14444444444444443,2.5107000002861],[-0.1109375,-0.14444444444444443,2.527400000095369],[-0.13875000000000004,-0.17444444444444443,2.547400000095365],[-0.16802083333333329,-0.2361111111111111,2.565400000095366],[-0.15531250000000002,-0.18833333333333332,2.580300000190732],[-0.15958333333333338,-0.17777777777777778,2.5985000000000014],[-0.1670833333333333,-0.19944444444444442,2.614700000286099],[-0.15906250000000005,-0.17888888888888893,2.6310000000000002],[-0.1296875,-0.14388888888888887,2.6493000001907347],[-0.11104166666666669,-0.09814814814814815,2.665300000190733],[-0.08374999999999998,-0.05962962962962961,2.68090000009537],[-0.09572916666666664,-0.06296296296296296,2.701600000381468],[-0.09572916666666664,-0.06296296296296296,2.710499999999996],[-0.08520833333333329,-0.07407407407407407,2.727100000381469],[-0.08520833333333329,-0.07407407407407407,2.7438000001907312],[-0.06833333333333336,-0.031111111111111027,2.760400000095366],[-0.058645833333333286,-0.0025925925925925505,2.779600000381471],[-0.05458333333333331,0.014814814814814815,2.796600000381467],[-0.04593750000000003,0.059999999999999956,2.8194000000953636],[-0.04593750000000003,0.059999999999999956,2.8322000002861003],[-0.041979166666666616,0.09185185185185189,2.843900000095367],[-0.02802083333333331,0.13444444444444448,2.8649000000953677],[-0.02020833333333331,0.1264814814814814,2.8841000003814727],[-0.02020833333333331,0.1264814814814814,2.893900000095364],[-0.016458333333333287,0.14148148148148143,2.9106000003814714],[-0.013541666666666667,0.19018518518518526,2.942700000286102],[-0.013541666666666667,0.19018518518518526,2.949400000095366],[-0.021041666666666715,0.21722222222222215,2.960499999999996],[-0.03343750000000002,0.22185185185185177,2.978100000381467],[-0.033958333333333354,0.24518518518518514,2.9997000002861043],[-0.033958333333333354,0.24518518518518514,3.010600000381473],[-0.03135416666666669,0.2051851851851851,3.027400000095369],[-0.041458333333333285,0.1911111111111112,3.0498000001907357],[-0.041458333333333285,0.1911111111111112,3.0604999999999976],[-0.057604166666666616,0.1425925925925926,3.077300000190732],[-0.057604166666666616,0.1425925925925926,3.094000000000001],[-0.08041666666666672,0.025185185185185227,3.1104000000953675],[-0.05635416666666669,0.0698148148148149,3.129400000095366],[-0.0390625,0.0838888888888888,3.1467000002861027],[-0.020937500000000022,0.06425925925925935,3.166400000095365],[0.005208333333333333,0.0338888888888888,3.186400000095368],[0.005208333333333333,0.0338888888888888,3.1948000001907317],[0.028437499999999952,-0.0338888888888888,3.2106000003814685],[0.059062500000000046,-0.10648148148148148,3.2317000002861036],[0.07572916666666671,-0.1161111111111111,3.2476000003814676],[0.0984375,-0.14203703703703702,3.264700000286105],[0.10979166666666676,-0.14611111111111108,3.2794999999999987],[0.11760416666666676,-0.07462962962962966,3.2998000001907357],[0.11760416666666676,-0.07462962962962966,3.311],[0.08312499999999995,-0.13425925925925927,3.3271000003814706],[0.0818749999999999,-0.11092592592592589,3.3474000000953694],[0.04708333333333338,-0.19314814814814818,3.3705],[0.04708333333333338,-0.19314814814814818,3.3777000002861044],[0.009583333333333381,-0.24759259259259256,3.3937000002861026],[0.009583333333333381,-0.24759259259259256,3.410800000190733],[-0.007708333333333309,-0.2485185185185185,3.4269999999999996],[-0.0453125,-0.2433333333333333,3.449600000381473],[-0.0453125,-0.2433333333333333,3.4603000001907347],[-0.08166666666666664,-0.25037037037037035,3.477100000381469],[-0.10375000000000002,-0.24592592592592594,3.494500000000002],[-0.10375000000000002,-0.24592592592592594,3.510400000095366],[-0.10562499999999998,-0.18981481481481483,3.5271000003814663],[-0.10562499999999998,-0.18981481481481483,3.5438000001907355],[-0.10270833333333336,-0.2294444444444444,3.5608000001907314],[-0.12614583333333335,-0.32018518518518513,3.5838000001907346],[-0.12614583333333335,-0.32018518518518513,3.5938000001907326],[-0.1530208333333333,-0.42018518518518516,3.6104000000953675],[-0.1530208333333333,-0.42018518518518516,3.6270000000000024],[-0.13145833333333337,-0.32999999999999996,3.643800000190737],[-0.13145833333333337,-0.32999999999999996,3.6604000000953647],[-0.1280208333333333,-0.34018518518518515,3.6769999999999996],[-0.1280208333333333,-0.34018518518518515,3.6937000002861],[-0.15395833333333328,-0.37888888888888894,3.7106000003814685],[-0.15395833333333328,-0.37888888888888894,3.7273000001907377],[-0.16760416666666664,-0.4933333333333333,3.74360000038147],[-0.15291666666666662,-0.497037037037037,3.761100000381468],[-0.14718749999999994,-0.5174074074074073,3.781400000095367],[-0.14656250000000004,-0.5975925925925926,3.7989999999999995],[-0.14656250000000004,-0.5975925925925926,3.8104000000953704],[-0.16395833333333332,-0.6220370370370369,3.826999999999998],[-0.16354166666666667,-0.5716666666666667,3.8441000003814665],[-0.17239583333333333,-0.5535185185185185,3.8612000002861038],[-0.19739583333333333,-0.6109259259259259,3.8804000000953636],[-0.1955208333333334,-0.5994444444444444,3.8948000001907346],[-0.18802083333333333,-0.571111111111111,3.9133000001907376],[-0.1883333333333333,-0.49166666666666664,3.9274000000953677],[-0.20958333333333337,-0.5349999999999999,3.943800000190734],[-0.21479166666666671,-0.5822222222222222,3.963300000190735],[-0.22614583333333335,-0.5722222222222222,3.9802000002861035],[-0.21822916666666667,-0.5729629629629629,3.9968000001907313],[-0.21156250000000001,-0.5842592592592593,4.014800000190732],[-0.19635416666666666,-0.6051851851851852,4.031300000190733],[-0.1798958333333334,-0.6351851851851852,4.047100000381469],[-0.16572916666666668,-0.6233333333333334,4.063700000286104],[-0.14510416666666662,-0.615925925925926,4.080500000000001],[-0.13312499999999997,-0.5811111111111111,4.097100000381467],[-0.11895833333333337,-0.5216666666666666,4.113800000190736],[-0.13395833333333335,-0.5001851851851852,4.1295],[-0.12708333333333333,-0.4890740740740741,4.145600000381471],[-0.1280208333333333,-0.46425925925925926,4.163400000095365],[-0.11927083333333334,-0.4527777777777778,4.177800000190736],[-0.11906249999999995,-0.4316666666666667,4.193900000095368],[-0.11104166666666669,-0.40018518518518525,4.215100000381469],[-0.1094791666666667,-0.37907407407407406,4.251900000095368],[-0.1094791666666667,-0.37907407407407406,4.259],[-0.10666666666666665,-0.3611111111111111,4.266400000095366],[-0.09249999999999996,-0.36259259259259263,4.281300000190733],[-0.06968749999999997,-0.3609259259259259,4.297200000286104],[-0.04781249999999997,-0.33111111111111113,4.3142000002861],[-0.03104166666666662,-0.3314814814814815,4.331000000000003],[-0.022083333333333382,-0.33611111111111114,4.347499999999997],[-0.013020833333333334,-0.3405555555555555,4.36540000009537],[-0.013020833333333334,-0.3405555555555555,4.3770000000000024],[-0.0016666666666666904,-0.3416666666666667,4.393800000190737],[-0.0016666666666666904,-0.3416666666666667,4.410499999999999],[0.0036458333333333334,-0.35240740740740745,4.427200000286099],[0.004166666666666667,-0.37,4.44610000038147],[0.0032291666666666905,-0.3696296296296297,4.463000000000001],[-0.000416666666666643,-0.3772222222222222,4.479300000190733],[-0.01885416666666669,-0.39518518518518514,4.497100000381472],[-0.01885416666666669,-0.39518518518518514,4.510400000095366],[-0.02322916666666662,-0.39944444444444444,4.527100000381466],[-0.03864583333333336,-0.4016666666666666,4.544300000190738],[-0.05020833333333338,-0.4020370370370371,4.561],[-0.05666666666666664,-0.3925925925925926,4.577100000381471],[-0.06791666666666671,-0.38796296296296295,4.594200000286101],[-0.10104166666666667,-0.3985185185185185,4.61090000009537],[-0.12937500000000005,-0.4022222222222222,4.63510000038147],[-0.12937500000000005,-0.4022222222222222,4.643800000190737],[-0.16770833333333332,-0.40796296296296297,4.660400000095365],[-0.16770833333333332,-0.40796296296296297,4.685100000381468],[-0.20864583333333328,-0.4105555555555555,4.693600000381473],[-0.2585416666666667,-0.4112962962962963,4.713800000190737],[-0.3026041666666667,-0.43,4.7302000002861035],[-0.32364583333333335,-0.4087037037037037,4.748300000190731],[-0.34052083333333333,-0.38629629629629636,4.765500000000003],[-0.3706249999999999,-0.4059259259259259,4.781700000286101],[-0.4010416666666667,-0.4111111111111111,4.798900000095365],[-0.41135416666666663,-0.40185185185185185,4.814400000095368],[-0.4235416666666667,-0.3809259259259259,4.830200000286105],[-0.42552083333333335,-0.3727777777777778,4.843900000095367],[-0.4248958333333333,-0.3677777777777778,4.8604000000953675],[-0.40343749999999995,-0.36203703703703705,4.8770000000000024],[-0.3697916666666667,-0.3514814814814815,4.893999999999998]]","[0.00040000009536811376,0.05360000038147206,0.06199999999999761,0.08190000009536647,0.09890000009536948,0.11030000019073327,0.12710000038146774,0.14399999999999835,0.16049999999999898,0.177100000381472,0.19470000028610457,0.21540000009536442,0.23270000028610127,0.24380000019073123,0.2604000000953661,0.2816000003814665,0.2938000001907355,0.3104000000953704,0.3271000003814706,0.3437000002861055,0.36040000009536755,0.3855000000000004,0.3978000001907347,0.4117000002861033,0.42720000028609917,0.44380000019073407,0.46040000009536897,0.47720000028610343,0.4938000001907312,0.5105000000000004,0.5271000003814663,0.5457000002861037,0.5626000003814724,0.5794000000953687,0.5949000000953646,0.6141000003814696,0.6306000003814702,0.6471000003814709,0.6649000000953649,0.6769999999999996,0.6938000001907341,0.7133000001907348,0.730400000095365,0.7483000001907314,0.7644000000953639,0.791800000190733,0.7998000001907357,0.8104000000953704,0.8271000003814706,0.8449000000953646,0.865000000000002,0.8839000000953661,0.8939000000953641,0.9106000003814714,0.9274000000953677,0.9472000002861023,0.9606000003814685,0.9772000002861034,0.9990000000000023,1.0110000000000028,1.0273000001907349,1.0483000001907357,1.0648000001907363,1.081400000095364,1.1045000000000016,1.1120000000000019,1.1274000000953706,1.1444000000953665,1.1655000000000015,1.1814000000953655,1.1998000001907343,1.2107000002861028,1.2317000002861036,1.24810000038147,1.2661000003814706,1.282900000095367,1.299200000286099,1.314300000190734,1.3341000003814685,1.343900000095367,1.3607000002861014,1.3812000002860998,1.4017000002861053,1.4107000002860985,1.4273000001907334,1.461100000381471,1.4706000003814665,1.4781000003814668,1.4939000000953655,1.5128000001907367,1.5294999999999987,1.5447000002860989,1.5604999999999976,1.580200000286105,1.596100000381469,1.6120000000000019,1.627200000286102,1.6473000001907323,1.663800000190733,1.677500000000002,1.6942000002861022,1.713000000000001,1.7274000000953649,1.7444000000953679,1.7634000000953662,1.7773000001907349,1.7939000000953698,1.8142000002860996,1.8294000000953687,1.8440000000000012,1.8606000003814671,1.8795000000000002,1.893800000190737,1.9107000002860985,1.9307000002861017,1.9462000002861046,1.960800000190737,1.9807000002860988,1.9985,2.014000000000003,2.0276000003814687,2.047300000190738,2.0633000001907362,2.078400000095364,2.093900000095367,2.1151000003814673,2.1307000002861045,2.1439999999999984,2.1606000003814714,2.1794999999999973,2.1940000000000026,2.2144000000953667,2.232200000286099,2.2472000002860995,2.262900000095364,2.279200000286103,2.2979000000953675,2.3104999999999976,2.327300000190732,2.343900000095367,2.3663000001907335,2.3773000001907363,2.3941000003814707,2.4106000003814714,2.4321000003814675,2.4444000000953636,2.4606000003814685,2.4804999999999993,2.498800000190734,2.5107000002861,2.527400000095369,2.547400000095365,2.565400000095366,2.580300000190732,2.5985000000000014,2.614700000286099,2.6310000000000002,2.6493000001907347,2.665300000190733,2.68090000009537,2.701600000381468,2.710499999999996,2.727100000381469,2.7438000001907312,2.760400000095366,2.779600000381471,2.796600000381467,2.8194000000953636,2.8322000002861003,2.843900000095367,2.8649000000953677,2.8841000003814727,2.893900000095364,2.9106000003814714,2.942700000286102,2.949400000095366,2.960499999999996,2.978100000381467,2.9997000002861043,3.010600000381473,3.027400000095369,3.0498000001907357,3.0604999999999976,3.077300000190732,3.094000000000001,3.1104000000953675,3.129400000095366,3.1467000002861027,3.166400000095365,3.186400000095368,3.1948000001907317,3.2106000003814685,3.2317000002861036,3.2476000003814676,3.264700000286105,3.2794999999999987,3.2998000001907357,3.311,3.3271000003814706,3.3474000000953694,3.3705,3.3777000002861044,3.3937000002861026,3.410800000190733,3.4269999999999996,3.449600000381473,3.4603000001907347,3.477100000381469,3.494500000000002,3.510400000095366,3.5271000003814663,3.5438000001907355,3.5608000001907314,3.5838000001907346,3.5938000001907326,3.6104000000953675,3.6270000000000024,3.643800000190737,3.6604000000953647,3.6769999999999996,3.6937000002861,3.7106000003814685,3.7273000001907377,3.74360000038147,3.761100000381468,3.781400000095367,3.7989999999999995,3.8104000000953704,3.826999999999998,3.8441000003814665,3.8612000002861038,3.8804000000953636,3.8948000001907346,3.9133000001907376,3.9274000000953677,3.943800000190734,3.963300000190735,3.9802000002861035,3.9968000001907313,4.014800000190732,4.031300000190733,4.047100000381469,4.063700000286104,4.080500000000001,4.097100000381467,4.113800000190736,4.1295,4.145600000381471,4.163400000095365,4.177800000190736,4.193900000095368,4.215100000381469,4.251900000095368,4.259,4.266400000095366,4.281300000190733,4.297200000286104,4.3142000002861,4.331000000000003,4.347499999999997,4.36540000009537,4.3770000000000024,4.393800000190737,4.410499999999999,4.427200000286099,4.44610000038147,4.463000000000001,4.479300000190733,4.497100000381472,4.510400000095366,4.527100000381466,4.544300000190738,4.561,4.577100000381471,4.594200000286101,4.61090000009537,4.63510000038147,4.643800000190737,4.660400000095365,4.685100000381468,4.693600000381473,4.713800000190737,4.7302000002861035,4.748300000190731,4.765500000000003,4.781700000286101,4.798900000095365,4.814400000095368,4.830200000286105,4.843900000095367,4.8604000000953675,4.8770000000000024,4.893999999999998]","[1732156987720,1732156987766,1732156987774,1732156987794,1732156987811,1732156987823,1732156987839,1732156987856,1732156987873,1732156987889,1732156987907,1732156987928,1732156987945,1732156987956,1732156987973,1732156987994,1732156988006,1732156988023,1732156988039,1732156988056,1732156988073,1732156988098,1732156988110,1732156988124,1732156988140,1732156988156,1732156988173,1732156988190,1732156988206,1732156988223,1732156988239,1732156988258,1732156988275,1732156988292,1732156988307,1732156988326,1732156988343,1732156988359,1732156988377,1732156988389,1732156988406,1732156988426,1732156988443,1732156988461,1732156988477,1732156988504,1732156988512,1732156988523,1732156988539,1732156988557,1732156988577,1732156988596,1732156988606,1732156988623,1732156988640,1732156988660,1732156988673,1732156988690,1732156988711,1732156988723,1732156988740,1732156988761,1732156988777,1732156988794,1732156988817,1732156988824,1732156988840,1732156988857,1732156988878,1732156988894,1732156988912,1732156988923,1732156988944,1732156988960,1732156988978,1732156988995,1732156989012,1732156989027,1732156989046,1732156989056,1732156989073,1732156989094,1732156989114,1732156989123,1732156989140,1732156989174,1732156989183,1732156989191,1732156989206,1732156989225,1732156989242,1732156989257,1732156989273,1732156989293,1732156989308,1732156989324,1732156989340,1732156989360,1732156989376,1732156989390,1732156989406,1732156989425,1732156989440,1732156989457,1732156989476,1732156989490,1732156989506,1732156989527,1732156989542,1732156989556,1732156989573,1732156989592,1732156989606,1732156989623,1732156989643,1732156989659,1732156989673,1732156989693,1732156989711,1732156989726,1732156989740,1732156989760,1732156989776,1732156989791,1732156989806,1732156989827,1732156989843,1732156989856,1732156989873,1732156989892,1732156989906,1732156989927,1732156989945,1732156989960,1732156989975,1732156989992,1732156990010,1732156990023,1732156990040,1732156990056,1732156990079,1732156990090,1732156990106,1732156990123,1732156990144,1732156990157,1732156990173,1732156990193,1732156990211,1732156990223,1732156990240,1732156990260,1732156990278,1732156990293,1732156990311,1732156990327,1732156990343,1732156990362,1732156990378,1732156990393,1732156990414,1732156990423,1732156990439,1732156990456,1732156990473,1732156990492,1732156990509,1732156990532,1732156990545,1732156990556,1732156990577,1732156990596,1732156990606,1732156990623,1732156990655,1732156990662,1732156990673,1732156990690,1732156990712,1732156990723,1732156990740,1732156990762,1732156990773,1732156990790,1732156990806,1732156990823,1732156990842,1732156990859,1732156990879,1732156990899,1732156990907,1732156990923,1732156990944,1732156990960,1732156990977,1732156990992,1732156991012,1732156991023,1732156991039,1732156991060,1732156991083,1732156991090,1732156991106,1732156991123,1732156991139,1732156991162,1732156991173,1732156991189,1732156991207,1732156991223,1732156991239,1732156991256,1732156991273,1732156991296,1732156991306,1732156991323,1732156991339,1732156991356,1732156991373,1732156991389,1732156991406,1732156991423,1732156991440,1732156991456,1732156991473,1732156991494,1732156991511,1732156991523,1732156991539,1732156991557,1732156991574,1732156991593,1732156991607,1732156991626,1732156991640,1732156991656,1732156991676,1732156991693,1732156991709,1732156991727,1732156991744,1732156991759,1732156991776,1732156991793,1732156991809,1732156991826,1732156991842,1732156991858,1732156991876,1732156991890,1732156991906,1732156991927,1732156991964,1732156991971,1732156991979,1732156991994,1732156992010,1732156992027,1732156992043,1732156992060,1732156992078,1732156992089,1732156992106,1732156992123,1732156992140,1732156992158,1732156992175,1732156992192,1732156992209,1732156992223,1732156992239,1732156992257,1732156992273,1732156992290,1732156992307,1732156992323,1732156992347,1732156992356,1732156992373,1732156992397,1732156992406,1732156992426,1732156992443,1732156992461,1732156992478,1732156992494,1732156992511,1732156992527,1732156992543,1732156992556,1732156992573,1732156992589,1732156992606]","[[889.6,390],[889.6,390],[877.5,385.8],[864.9,369.8],[865.6,368.1],[865.6,368.1],[870.2,369.2],[862.9,355.4],[862.9,355.4],[830.8,336],[787.6,312.1],[770.5,311.3],[751.3,307.6],[751.3,307.6],[740,308.2],[720.6,310.2],[720.6,310.2],[700.7,319.9],[700.7,319.9],[677.1,324],[677.1,324],[652.2,333.3],[652.2,333.3],[652.2,333.3],[630,353.1],[630,353.1],[653.5,369.6],[653.5,369.6],[660.5,389.2],[660.5,389.2],[667.5,395.6],[662.3,408.2],[666,412.6],[661.9,402.3],[662.2,398.3],[660.5,394.9],[668,382.6],[683.1,375.7],[680.3,379.7],[680.3,379.7],[682.9,384.2],[679.3,398.2],[679.7,399.9],[700.8,396.5],[715.6,398.5],[719.8,387.8],[719.8,387.8],[735.4,393.4],[744.7,402.9],[758,393.6],[762.6,377.1],[771.5,352.7],[771.5,352.7],[822,338.8],[887.6,331.1],[927.4,337.5],[927.4,337.5],[988,330.2],[1053,330.6],[1053,330.6],[1087.2,309.3],[1139.5,294.7],[1172.6,293.5],[1215.3,297.7],[1283.2,322.4],[1283.2,322.4],[1299.9,339],[1298.7,326.7],[1306.8,314.7],[1294.4,332.3],[1284,352.9],[1284,352.9],[1274.9,380.2],[1267.6,403.2],[1278.7,424.4],[1288.9,447.4],[1272.4,434.9],[1269.6,427.1],[1260.3,442.5],[1260.3,442.5],[1253.9,463],[1251,477.8],[1251,477.8],[1239.4,488.7],[1239.4,488.7],[1252.3,477.7],[1252.3,477.7],[1229.8,453.1],[1205.7,426.7],[1178.1,397.9],[1163.5,403.3],[1144.5,410.6],[1134.8,417.4],[1118.1,405.1],[1108.3,407.6],[1112.9,413.8],[1108.1,437.1],[1118,463.1],[1118.2,494.4],[1121.9,528.1],[1131.9,517.7],[1136,522.5],[1149.9,524.1],[1158.6,539.4],[1155.8,515.4],[1151.1,503.3],[1146.4,491.2],[1136.7,480.5],[1144.1,460.8],[1141.6,452.2],[1133.4,480.9],[1102.7,472.9],[1068.8,472],[1039.2,471.1],[1039,491.3],[1011.9,495.3],[988.2,501.6],[985.9,510],[969.8,520.4],[962.2,531.4],[959.7,531.3],[970.8,540],[980.8,541.8],[980.8,541.8],[992.2,546.7],[985.1,543.1],[986,539.3],[973.7,533.7],[963.7,539.3],[941.5,536.6],[931.7,526.9],[912,530.2],[905.3,541.9],[908.3,570.3],[905.6,595.6],[911.8,616.4],[931.1,638.9],[931.1,638.9],[923.5,612.1],[919.7,605.2],[934.5,608.3],[934.5,608.3],[930.2,590],[930.2,590],[906.6,565.2],[906.6,565.2],[898.2,542],[857,490.7],[857,490.7],[853.5,462],[853.5,462],[826.8,445.8],[798.7,412.5],[810.9,438.3],[806.8,444],[799.6,432.3],[807.3,443.4],[835.5,462.3],[853.4,487],[879.6,507.8],[868.1,506],[868.1,506],[878.2,500],[878.2,500],[894.4,523.2],[903.7,538.6],[907.6,548],[915.9,572.4],[915.9,572.4],[919.7,589.6],[933.1,612.6],[940.6,608.3],[940.6,608.3],[944.2,616.4],[947,642.7],[947,642.7],[939.8,657.3],[927.9,659.8],[927.4,672.4],[927.4,672.4],[929.9,650.8],[920.2,643.2],[920.2,643.2],[904.7,617],[904.7,617],[882.8,553.6],[905.9,577.7],[922.5,585.3],[939.9,574.7],[965,558.3],[965,558.3],[987.3,521.7],[1016.7,482.5],[1032.7,477.3],[1054.5,463.3],[1065.4,461.1],[1072.9,499.7],[1072.9,499.7],[1039.8,467.5],[1038.6,480.1],[1005.2,435.7],[1005.2,435.7],[969.2,406.3],[969.2,406.3],[952.6,405.8],[916.5,408.6],[916.5,408.6],[881.6,404.8],[860.4,407.2],[860.4,407.2],[858.6,437.5],[858.6,437.5],[861.4,416.1],[838.9,367.1],[838.9,367.1],[813.1,313.1],[813.1,313.1],[833.8,361.8],[833.8,361.8],[837.1,356.3],[837.1,356.3],[812.2,335.4],[812.2,335.4],[799.1,273.6],[813.2,271.6],[818.7,260.6],[819.3,217.3],[819.3,217.3],[802.6,204.1],[803,231.3],[794.5,241.1],[770.5,210.1],[772.3,216.3],[779.5,231.6],[779.2,274.5],[758.8,251.1],[753.8,225.6],[742.9,231],[750.5,230.6],[756.9,224.5],[771.5,213.2],[787.3,197],[800.9,203.4],[820.7,207.4],[832.2,226.2],[845.8,258.3],[831.4,269.9],[838,275.9],[837.1,289.3],[845.5,295.5],[845.7,306.9],[853.4,323.9],[854.9,335.3],[854.9,335.3],[857.6,345],[871.2,344.2],[893.1,345.1],[914.1,361.2],[930.2,361],[938.8,358.5],[947.5,356.1],[947.5,356.1],[958.4,355.5],[958.4,355.5],[963.5,349.7],[964,340.2],[963.1,340.4],[959.6,336.3],[941.9,326.6],[941.9,326.6],[937.7,324.3],[922.9,323.1],[911.8,322.9],[905.6,328],[894.8,330.5],[863,324.8],[835.8,322.8],[835.8,322.8],[799,319.7],[799,319.7],[759.7,318.3],[711.8,317.9],[669.5,307.8],[649.3,319.3],[633.1,331.4],[604.2,320.8],[575,318],[565.1,323],[553.4,334.3],[551.5,338.7],[552.1,341.4],[572.7,344.5],[605,350.2]]","[-0.132282,0.39684600000000003]","[0.132282,0.39684600000000003]","[0.39684600000000003,0.39684600000000003]","[-0.39684600000000003,-0.132282]","[-0.39684600000000003,0.132282]","[-0.39684600000000003,-0.39684600000000003]","[-0.132282,-0.132282]","[0.132282,-0.132282]","[0.39684600000000003,-0.132282]","[-0.132282,0.132282]","[0.132282,0.132282]","[0.39684600000000003,0.132282]","[-0.132282,-0.39684600000000003]","[0.132282,-0.39684600000000003]","[0.39684600000000003,-0.39684600000000003]",0,0,0,0,1,2,Tablet,15,20,8,3,70,4,3,60,4
,,,,,,,,,,,,,,,,,,,23,001,2024-11-21_10h42.24.338,Attention_exp_legacy,2023.1.0,Win32,59.88023952,,,,,,,,,,,[-0.10729166666666666],[0.40555555555555556],[1],[0],[0],[1.4014999999999986],"[""Bus_label""]",Bus_label,2,2.4164,"[[-0.10729166666666666,0.40555555555555556],[-0.10729166666666666,0.40555555555555556],[-0.10729166666666666,0.40555555555555556],[-0.10729166666666666,0.40555555555555556],[-0.10729166666666666,0.40555555555555556],[-0.10729166666666666,0.40555555555555556],[-0.10729166666666666,0.40555555555555556],[-0.10729166666666666,0.40555555555555556],[-0.10729166666666666,0.40555555555555556],[-0.10729166666666666,0.40555555555555556],[-0.10729166666666666,0.40555555555555556],[-0.10729166666666666,0.40555555555555556],[-0.10729166666666666,0.40555555555555556],[-0.10729166666666666,0.40555555555555556],[-0.10729166666666666,0.40555555555555556],[-0.10729166666666666,0.40555555555555556],[-0.10729166666666666,0.40555555555555556],[-0.10729166666666666,0.40555555555555556],[-0.10729166666666666,0.40555555555555556],[-0.10729166666666666,0.40555555555555556],[-0.10729166666666666,0.40555555555555556],[-0.10729166666666666,0.40555555555555556],[-0.10729166666666666,0.40555555555555556],[-0.10729166666666666,0.40555555555555556],[-0.10729166666666666,0.40555555555555556],[-0.10729166666666666,0.40555555555555556],[-0.10729166666666666,0.40555555555555556],[-0.10729166666666666,0.40555555555555556],[-0.10729166666666666,0.40555555555555556],[-0.10729166666666666,0.40555555555555556],[-0.10729166666666666,0.40555555555555556],[-0.10729166666666666,0.40555555555555556],[-0.10729166666666666,0.40555555555555556],[-0.10729166666666666,0.40555555555555556],[-0.10729166666666666,0.40555555555555556],[-0.10729166666666666,0.40555555555555556],[-0.10729166666666666,0.40555555555555556],[-0.10729166666666666,0.40555555555555556],[-0.10729166666666666,0.40555555555555556],[-0.10729166666666666,0.40555555555555556],[-0.10729166666666666,0.40555555555555556],[-0.10729166666666666,0.40555555555555556],[-0.10729166666666666,0.40555555555555556],[-0.10729166666666666,0.40555555555555556],[-0.10729166666666666,0.40555555555555556],[-0.10729166666666666,0.40555555555555556],[-0.10729166666666666,0.40555555555555556],[-0.10729166666666666,0.40555555555555556],[-0.10729166666666666,0.40555555555555556],[-0.10729166666666666,0.40555555555555556],[-0.10729166666666666,0.40555555555555556],[-0.10729166666666666,0.40555555555555556],[-0.10729166666666666,0.40555555555555556],[-0.10729166666666666,0.40555555555555556],[-0.10729166666666666,0.40555555555555556],[-0.10729166666666666,0.40555555555555556],[-0.10729166666666666,0.40555555555555556],[-0.10729166666666666,0.40555555555555556],[-0.10729166666666666,0.40555555555555556],[-0.10729166666666666,0.40555555555555556],[-0.10729166666666666,0.40555555555555556],[-0.10729166666666666,0.40555555555555556],[-0.10729166666666666,0.40555555555555556],[-0.10729166666666666,0.40555555555555556],[-0.10729166666666666,0.40555555555555556],[-0.10729166666666666,0.40555555555555556],[-0.10729166666666666,0.40555555555555556],[-0.10729166666666666,0.40555555555555556],[-0.10729166666666666,0.40555555555555556],[-0.10729166666666666,0.40555555555555556],[-0.10729166666666666,0.40555555555555556],[-0.10729166666666666,0.40555555555555556],[-0.10729166666666666,0.40555555555555556],[-0.10729166666666666,0.40555555555555556],[-0.10729166666666666,0.40555555555555556],[-0.10729166666666666,0.40555555555555556],[-0.10729166666666666,0.40555555555555556],[-0.10729166666666666,0.40555555555555556],[-0.10729166666666666,0.40555555555555556],[-0.10729166666666666,0.40555555555555556],[-0.10729166666666666,0.40555555555555556],[-0.10729166666666666,0.40555555555555556],[-0.10729166666666666,0.40555555555555556],[-0.10729166666666666,0.40555555555555556],[-0.10729166666666666,0.40555555555555556],[-0.10729166666666666,0.40555555555555556],[-0.10729166666666666,0.40555555555555556],[-0.10729166666666666,0.40555555555555556],[-0.10729166666666666,0.40555555555555556],[-0.10729166666666666,0.40555555555555556],[-0.10729166666666666,0.40555555555555556],[-0.10729166666666666,0.40555555555555556],[-0.10729166666666666,0.40555555555555556],[-0.10729166666666666,0.40555555555555556],[-0.10729166666666666,0.40555555555555556],[-0.10729166666666666,0.40555555555555556],[-0.10729166666666666,0.40555555555555556],[-0.10729166666666666,0.40555555555555556],[-0.10729166666666666,0.40555555555555556],[-0.10729166666666666,0.40555555555555556],[-0.10729166666666666,0.40555555555555556],[-0.10729166666666666,0.40555555555555556],[-0.10729166666666666,0.40555555555555556],[-0.10729166666666666,0.40555555555555556],[-0.10729166666666666,0.40555555555555556],[-0.10729166666666666,0.40555555555555556],[-0.10729166666666666,0.40555555555555556],[-0.10729166666666666,0.40555555555555556],[-0.10729166666666666,0.40555555555555556],[-0.10729166666666666,0.40555555555555556],[-0.10729166666666666,0.40555555555555556],[-0.10729166666666666,0.40555555555555556],[-0.10729166666666666,0.40555555555555556],[-0.10729166666666666,0.40555555555555556],[-0.10729166666666666,0.40555555555555556],[-0.10729166666666666,0.40555555555555556],[-0.10729166666666666,0.40555555555555556],[-0.10729166666666666,0.40555555555555556],[-0.10729166666666666,0.40555555555555556],[-0.10729166666666666,0.40555555555555556],[-0.10729166666666666,0.40555555555555556],[-0.10729166666666666,0.40555555555555556],[-0.10729166666666666,0.40555555555555556],[-0.10729166666666666,0.40555555555555556],[-0.10729166666666666,0.40555555555555556],[-0.10729166666666666,0.40555555555555556],[-0.10729166666666666,0.40555555555555556],[-0.10729166666666666,0.40555555555555556],[-0.10729166666666666,0.40555555555555556],[-0.10729166666666666,0.40555555555555556],[-0.10729166666666666,0.40555555555555556],[-0.10729166666666666,0.40555555555555556],[-0.10729166666666666,0.40555555555555556],[-0.10729166666666666,0.40555555555555556],[-0.10729166666666666,0.40555555555555556],[-0.10729166666666666,0.40555555555555556],[-0.10729166666666666,0.40555555555555556],[-0.10729166666666666,0.40555555555555556],[-0.10729166666666666,0.40555555555555556],[-0.10729166666666666,0.40555555555555556],[-0.10729166666666666,0.40555555555555556],[-0.10729166666666666,0.40555555555555556],[-0.10729166666666666,0.40555555555555556],[-0.10729166666666666,0.40555555555555556],[-0.10729166666666666,0.40555555555555556],[-0.10729166666666666,0.40555555555555556]]","[[-0.06614583333333333,-0.42166666666666663],[-0.06520833333333335,-0.42000000000000004],[-0.058645833333333286,-0.3977777777777778],[-0.04906250000000002,-0.38740740740740737],[-0.04135416666666671,-0.3727777777777778],[-0.04135416666666671,-0.3727777777777778],[-0.024479166666666666,-0.3531481481481481],[-0.030416666666666713,-0.34203703703703703],[-0.026041666666666668,-0.33370370370370367],[-0.044062499999999956,-0.3131481481481482],[-0.05249999999999998,-0.3151851851851852],[-0.06312500000000003,-0.2916666666666667],[-0.07374999999999995,-0.2681481481481482],[-0.0859375,-0.27240740740740743],[-0.09812500000000005,-0.2766666666666666],[-0.11781250000000003,-0.2881481481481482],[-0.1375,-0.29962962962962963],[-0.1547916666666667,-0.2957407407407407],[-0.1622916666666666,-0.29240740740740734],[-0.1622916666666666,-0.29240740740740734],[-0.14739583333333334,-0.3012962962962963],[-0.12718750000000004,-0.2985185185185185],[-0.14187500000000006,-0.3074074074074074],[-0.14187500000000006,-0.3074074074074074],[-0.15197916666666664,-0.31722222222222224],[-0.15062500000000004,-0.2953703703703704],[-0.15510416666666665,-0.28129629629629627],[-0.14739583333333334,-0.2644444444444445],[-0.14739583333333334,-0.2644444444444445],[-0.13833333333333328,-0.2418518518518519],[-0.13833333333333328,-0.2418518518518519],[-0.13843749999999996,-0.2212962962962963],[-0.15458333333333332,-0.23351851851851857],[-0.15458333333333332,-0.23351851851851857],[-0.16666666666666666,-0.23537037037037042],[-0.19312499999999996,-0.25259259259259254],[-0.19312499999999996,-0.25259259259259254],[-0.17854166666666665,-0.25148148148148153],[-0.17093750000000002,-0.2361111111111111],[-0.184375,-0.2548148148148149],[-0.19197916666666662,-0.2657407407407407],[-0.20239583333333327,-0.2764814814814815],[-0.22062499999999996,-0.3081481481481481],[-0.2296875,-0.33777777777777773],[-0.23843749999999997,-0.3264814814814815],[-0.25125000000000003,-0.3255555555555556],[-0.24812500000000004,-0.3042592592592593],[-0.2570833333333333,-0.29814814814814816],[-0.2570833333333333,-0.29814814814814816],[-0.26208333333333333,-0.30888888888888894],[-0.26208333333333333,-0.30888888888888894],[-0.2642708333333334,-0.31962962962962965],[-0.2642708333333334,-0.31962962962962965],[-0.26375000000000004,-0.3175925925925926],[-0.2768749999999999,-0.32388888888888884],[-0.26666666666666666,-0.3168518518518519],[-0.2564583333333334,-0.3098148148148148],[-0.27156250000000004,-0.30999999999999994],[-0.2679166666666667,-0.30481481481481487],[-0.2882291666666667,-0.3177777777777778],[-0.28541666666666665,-0.3435185185185185],[-0.28541666666666665,-0.3435185185185185],[-0.27770833333333333,-0.3801851851851852],[-0.27770833333333333,-0.3801851851851852],[-0.2573958333333334,-0.3772222222222222],[-0.2573958333333334,-0.3772222222222222],[-0.25187499999999996,-0.39222222222222225],[-0.25187499999999996,-0.39222222222222225],[-0.21499999999999997,-0.41518518518518516],[-0.21499999999999997,-0.41518518518518516],[-0.2,-0.4335185185185186],[-0.2,-0.4335185185185186],[-0.1859375,-0.4431481481481482],[-0.1859375,-0.4431481481481482],[-0.16197916666666667,-0.45111111111111113],[-0.15416666666666667,-0.4711111111111111],[-0.1313541666666667,-0.475],[-0.1313541666666667,-0.475],[-0.12468750000000005,-0.46166666666666667],[-0.1172916666666667,-0.4398148148148148],[-0.11656249999999997,-0.44537037037037036],[-0.11291666666666664,-0.4468518518518519],[-0.11333333333333329,-0.4264814814814815],[-0.11770833333333333,-0.4185185185185185],[-0.12114583333333329,-0.4192592592592592],[-0.10375000000000002,-0.3937037037037037],[-0.09958333333333336,-0.37888888888888894],[-0.08822916666666672,-0.3718518518518519],[-0.08041666666666672,-0.3853703703703704],[-0.08041666666666672,-0.3853703703703704],[-0.07979166666666669,-0.39296296296296296],[-0.07979166666666669,-0.39296296296296296],[-0.07906249999999998,-0.375],[-0.07770833333333335,-0.37037037037037035],[-0.08093750000000005,-0.37407407407407406],[-0.07520833333333338,-0.36814814814814817],[-0.08302083333333338,-0.3520370370370371],[-0.09697916666666669,-0.37],[-0.09270833333333334,-0.3877777777777777],[-0.08708333333333336,-0.40703703703703703],[-0.08052083333333329,-0.40925925925925927],[-0.07395833333333333,-0.41148148148148145],[-0.05270833333333336,-0.4335185185185186],[-0.05270833333333336,-0.4335185185185186],[-0.024270833333333287,-0.45092592592592595],[0.008020833333333382,-0.4564814814814815],[0.017812500000000023,-0.49129629629629634],[0.03989583333333328,-0.5077777777777778],[0.058229166666666644,-0.5203703703703704],[0.07906250000000009,-0.5177777777777778],[0.08114583333333343,-0.5414814814814815],[0.08666666666666671,-0.5572222222222222],[0.08666666666666671,-0.5572222222222222],[0.0921875,-0.5729629629629629],[0.06541666666666662,-0.6092592592592593],[0.06541666666666662,-0.6092592592592593],[0.04624999999999998,-0.6251851851851852],[0.022604166666666713,-0.6422222222222222],[0.006979166666666714,-0.6275925925925926],[-0.008958333333333356,-0.6861111111111111],[-0.029375000000000047,-0.7012962962962963],[-0.05802083333333338,-0.7148148148148148],[-0.0655208333333333,-0.6716666666666666],[-0.08083333333333335,-0.6374074074074074],[-0.09260416666666664,-0.605],[-0.08416666666666663,-0.5518518518518518],[-0.08416666666666663,-0.5518518518518518],[-0.10208333333333333,-0.5096296296296297],[-0.14874999999999997,-0.477962962962963],[-0.16354166666666667,-0.46833333333333327],[-0.17677083333333338,-0.4140740740740741],[-0.1898958333333333,-0.40111111111111114],[-0.1898958333333333,-0.40111111111111114],[-0.2048958333333334,-0.3877777777777777],[-0.22989583333333338,-0.3985185185185185],[-0.2646875,-0.4166666666666667],[-0.3030208333333333,-0.432962962962963],[-0.34135416666666674,-0.4492592592592593],[-0.3538541666666667,-0.46722222222222226],[-0.3494791666666667,-0.48259259259259263],[-0.35906250000000006,-0.4696296296296297],[-0.3759375,-0.4540740740740741],[-0.385,-0.4716666666666666],[-0.3896875,-0.4479629629629629],[-0.3896875,-0.4479629629629629],[-0.4028125000000001,-0.43944444444444447]]","[[-0.06614583333333333,-0.42166666666666663,0.0001999998092614419],[-0.06520833333333335,-0.42000000000000004,0.019199999809259793],[-0.058645833333333286,-0.3977777777777778,0.03559999990463325],[-0.04906250000000002,-0.38740740740740737,0.05029999971389287],[-0.04135416666666671,-0.3727777777777778,0.06649999999999778],[-0.04135416666666671,-0.3727777777777778,0.08309999990463268],[-0.024479166666666666,-0.3531481481481481,0.09979999971389475],[-0.030416666666666713,-0.34203703703703703,0.11739999961852732],[-0.026041666666666668,-0.33370370370370367,0.13709999990462762],[-0.044062499999999956,-0.3131481481481482,0.1529999999999987],[-0.05249999999999998,-0.3151851851851852,0.1664999999999992],[-0.06312500000000003,-0.2916666666666667,0.1870999999046319],[-0.07374999999999995,-0.2681481481481482,0.2035999999046325],[-0.0859375,-0.27240740740740743,0.2190000000000012],[-0.09812500000000005,-0.2766666666666666,0.23309999990463126],[-0.11781250000000003,-0.2881481481481482,0.24969999980926616],[-0.1375,-0.29962962962962963,0.2663999996185282],[-0.1547916666666667,-0.2957407407407407,0.2830999999046284],[-0.1622916666666666,-0.29240740740740734,0.3031999998092658],[-0.1622916666666666,-0.29240740740740734,0.3163999996185254],[-0.14739583333333334,-0.3012962962962963,0.3329999999999984],[-0.12718750000000004,-0.2985185185185185,0.3496999998092605],[-0.14187500000000006,-0.3074074074074074,0.36649999999999494],[-0.14187500000000006,-0.3074074074074074,0.38309999990462984],[-0.15197916666666664,-0.31722222222222224,0.399799999713899],[-0.15062500000000004,-0.2953703703703704,0.4173999996185316],[-0.15510416666666665,-0.28129629629629627,0.4340999999046318],[-0.14739583333333334,-0.2644444444444445,0.4519999999999982],[-0.14739583333333334,-0.2644444444444445,0.46659999990463064],[-0.13833333333333328,-0.2418518518518519,0.48829999971389526],[-0.13833333333333328,-0.2418518518518519,0.4998999996185276],[-0.13843749999999996,-0.2212962962962963,0.5165999999046278],[-0.15458333333333332,-0.23351851851851857,0.5386999998092605],[-0.15458333333333332,-0.23351851851851857,0.5496999998092633],[-0.16666666666666666,-0.23537037037037042,0.5663999996185254],[-0.19312499999999996,-0.25259259259259254,0.5863999996185285],[-0.19312499999999996,-0.25259259259259254,0.5997999997138947],[-0.17854166666666665,-0.25148148148148153,0.6164999999999949],[-0.17093750000000002,-0.2361111111111111,0.6341999998092618],[-0.184375,-0.2548148148148149,0.6525999999046306],[-0.19197916666666662,-0.2657407407407407,0.667199999809263],[-0.20239583333333327,-0.2764814814814815,0.6858999996185275],[-0.22062499999999996,-0.3081481481481481,0.7036999998092597],[-0.2296875,-0.33777777777777773,0.7206999998092627],[-0.23843749999999997,-0.3264814814814815,0.7376999998092657],[-0.25125000000000003,-0.3255555555555556,0.7547999997138959],[-0.24812500000000004,-0.3042592592592593,0.7710000000000008],[-0.2570833333333333,-0.29814814814814816,0.7887999997138948],[-0.2570833333333333,-0.29814814814814816,0.7997999997138976],[-0.26208333333333333,-0.30888888888888894,0.8164999999999978],[-0.26208333333333333,-0.30888888888888894,0.8329999999999984],[-0.2642708333333334,-0.31962962962962965,0.8496999998092605],[-0.2642708333333334,-0.31962962962962965,0.8717999997138932],[-0.26375000000000004,-0.3175925925925926,0.8838999996185279],[-0.2768749999999999,-0.32388888888888884,0.9046999998092602],[-0.26666666666666666,-0.3168518518518519,0.9211999998092608],[-0.2564583333333334,-0.3098148148148148,0.9369999999999976],[-0.27156250000000004,-0.30999999999999994,0.9543999996185306],[-0.2679166666666667,-0.30481481481481487,0.9717999997138946],[-0.2882291666666667,-0.3177777777777778,0.9883999996185295],[-0.28541666666666665,-0.3435185185185185,1.0045999999046273],[-0.28541666666666665,-0.3435185185185185,1.016299999713894],[-0.27770833333333333,-0.3801851851851852,1.0330999999046284],[-0.27770833333333333,-0.3801851851851852,1.0496999998092633],[-0.2573958333333334,-0.3772222222222222,1.0663999996185254],[-0.2573958333333334,-0.3772222222222222,1.0829999999999984],[-0.25187499999999996,-0.39222222222222225,1.0996999998092605],[-0.25187499999999996,-0.39222222222222225,1.1162999997138954],[-0.21499999999999997,-0.41518518518518516,1.1330999999046298],[-0.21499999999999997,-0.41518518518518516,1.149799999713899],[-0.2,-0.4335185185185186,1.1663999996185268],[-0.2,-0.4335185185185186,1.183099999904634],[-0.1859375,-0.4431481481481482,1.1997999997138962],[-0.1859375,-0.4431481481481482,1.216399999618531],[-0.16197916666666667,-0.45111111111111113,1.232999999999997],[-0.15416666666666667,-0.4711111111111111,1.2508999996185253],[-0.1313541666666667,-0.475,1.2667999997138963],[-0.1313541666666667,-0.475,1.2830999999046284],[-0.12468750000000005,-0.46166666666666667,1.2997999997138976],[-0.1172916666666667,-0.4398148148148148,1.3163999996185254],[-0.11656249999999997,-0.44537037037037036,1.3329999999999984],[-0.11291666666666664,-0.4468518518518519,1.3496999998092605],[-0.11333333333333329,-0.4264814814814815,1.3663999996185296],[-0.11770833333333333,-0.4185185185185185,1.3829999999999956],[-0.12114583333333329,-0.4192592592592592,1.4031999998092601],[-0.10375000000000002,-0.3937037037037037,1.419399999618527],[-0.09958333333333336,-0.37888888888888894,1.4333999996185298],[-0.08822916666666672,-0.3718518518518519,1.4519999999999982],[-0.08041666666666672,-0.3853703703703704,1.4664999999999964],[-0.08041666666666672,-0.3853703703703704,1.4830999999046313],[-0.07979166666666669,-0.39296296296296296,1.504099999904632],[-0.07979166666666669,-0.39296296296296296,1.5163999996185282],[-0.07906249999999998,-0.375,1.5331999998092627],[-0.07770833333333335,-0.37037037037037035,1.550699999809261],[-0.08093750000000005,-0.37407407407407406,1.5692999997138983],[-0.07520833333333338,-0.36814814814814817,1.5863999996185285],[-0.08302083333333338,-0.3520370370370371,1.6032999997138973],[-0.09697916666666669,-0.37,1.6189999999999998],[-0.09270833333333334,-0.3877777777777777,1.6343999996185303],[-0.08708333333333336,-0.40703703703703703,1.6526999998092649],[-0.08052083333333329,-0.40925925925925927,1.6694999999999993],[-0.07395833333333333,-0.41148148148148145,1.68789999961853],[-0.05270833333333336,-0.4335185185185186,1.7108999996185261],[-0.05270833333333336,-0.4335185185185186,1.7172999997138945],[-0.024270833333333287,-0.45092592592592595,1.732999999999997],[0.008020833333333382,-0.4564814814814815,1.7496999998092662],[0.017812500000000023,-0.49129629629629634,1.7702999997138988],[0.03989583333333328,-0.5077777777777778,1.7855999999046333],[0.058229166666666644,-0.5203703703703704,1.8045999999046316],[0.07906250000000009,-0.5177777777777778,1.8206999998092641],[0.08114583333333343,-0.5414814814814815,1.83769999980926],[0.08666666666666671,-0.5572222222222222,1.8578999996185317],[0.08666666666666671,-0.5572222222222222,1.8663999996185296],[0.0921875,-0.5729629629629629,1.8829999999999956],[0.06541666666666662,-0.6092592592592593,1.9009999999999962],[0.06541666666666662,-0.6092592592592593,1.9163999996185268],[0.04624999999999998,-0.6251851851851852,1.9329999999999998],[0.022604166666666713,-0.6422222222222222,1.9502999997138986],[0.006979166666666714,-0.6275925925925926,1.9671999998092602],[-0.008958333333333356,-0.6861111111111111,1.9842999997138975],[-0.029375000000000047,-0.7012962962962963,2.003299999713896],[-0.05802083333333338,-0.7148148148148148,2.01919999980926],[-0.0655208333333333,-0.6716666666666666,2.035899999618529],[-0.08083333333333335,-0.6374074074074074,2.0541999998092635],[-0.09260416666666664,-0.605,2.0700999999046275],[-0.08416666666666663,-0.5518518518518518,2.089099999904633],[-0.08416666666666663,-0.5518518518518518,2.0996999998092605],[-0.10208333333333333,-0.5096296296296297,2.1163999996185296],[-0.14874999999999997,-0.477962962962963,2.1355999999046276],[-0.16354166666666667,-0.46833333333333327,2.150599999904628],[-0.17677083333333338,-0.4140740740740741,2.169099999904631],[-0.1898958333333333,-0.40111111111111114,2.1879999999999953],[-0.1898958333333333,-0.40111111111111114,2.199699999809262],[-0.2048958333333334,-0.3877777777777777,2.216399999618531],[-0.22989583333333338,-0.3985185185185185,2.2335999999046336],[-0.2646875,-0.4166666666666667,2.2498999996185276],[-0.3030208333333333,-0.432962962962963,2.266299999713894],[-0.34135416666666674,-0.4492592592592593,2.2830000000000013],[-0.3538541666666667,-0.46722222222222226,2.303199999809266],[-0.3494791666666667,-0.48259259259259263,2.319899999618528],[-0.35906250000000006,-0.4696296296296297,2.3337999997138965],[-0.3759375,-0.4540740740740741,2.3503999996185314],[-0.385,-0.4716666666666666,2.3666999998092635],[-0.3896875,-0.4479629629629629,2.3829999999999956],[-0.3896875,-0.4479629629629629,2.3996999998092647],[-0.4028125000000001,-0.43944444444444447,2.416399999618527]]","[0.0001999998092614419,0.019199999809259793,0.03559999990463325,0.05029999971389287,0.06649999999999778,0.08309999990463268,0.09979999971389475,0.11739999961852732,0.13709999990462762,0.1529999999999987,0.1664999999999992,0.1870999999046319,0.2035999999046325,0.2190000000000012,0.23309999990463126,0.24969999980926616,0.2663999996185282,0.2830999999046284,0.3031999998092658,0.3163999996185254,0.3329999999999984,0.3496999998092605,0.36649999999999494,0.38309999990462984,0.399799999713899,0.4173999996185316,0.4340999999046318,0.4519999999999982,0.46659999990463064,0.48829999971389526,0.4998999996185276,0.5165999999046278,0.5386999998092605,0.5496999998092633,0.5663999996185254,0.5863999996185285,0.5997999997138947,0.6164999999999949,0.6341999998092618,0.6525999999046306,0.667199999809263,0.6858999996185275,0.7036999998092597,0.7206999998092627,0.7376999998092657,0.7547999997138959,0.7710000000000008,0.7887999997138948,0.7997999997138976,0.8164999999999978,0.8329999999999984,0.8496999998092605,0.8717999997138932,0.8838999996185279,0.9046999998092602,0.9211999998092608,0.9369999999999976,0.9543999996185306,0.9717999997138946,0.9883999996185295,1.0045999999046273,1.016299999713894,1.0330999999046284,1.0496999998092633,1.0663999996185254,1.0829999999999984,1.0996999998092605,1.1162999997138954,1.1330999999046298,1.149799999713899,1.1663999996185268,1.183099999904634,1.1997999997138962,1.216399999618531,1.232999999999997,1.2508999996185253,1.2667999997138963,1.2830999999046284,1.2997999997138976,1.3163999996185254,1.3329999999999984,1.3496999998092605,1.3663999996185296,1.3829999999999956,1.4031999998092601,1.419399999618527,1.4333999996185298,1.4519999999999982,1.4664999999999964,1.4830999999046313,1.504099999904632,1.5163999996185282,1.5331999998092627,1.550699999809261,1.5692999997138983,1.5863999996185285,1.6032999997138973,1.6189999999999998,1.6343999996185303,1.6526999998092649,1.6694999999999993,1.68789999961853,1.7108999996185261,1.7172999997138945,1.732999999999997,1.7496999998092662,1.7702999997138988,1.7855999999046333,1.8045999999046316,1.8206999998092641,1.83769999980926,1.8578999996185317,1.8663999996185296,1.8829999999999956,1.9009999999999962,1.9163999996185268,1.9329999999999998,1.9502999997138986,1.9671999998092602,1.9842999997138975,2.003299999713896,2.01919999980926,2.035899999618529,2.0541999998092635,2.0700999999046275,2.089099999904633,2.0996999998092605,2.1163999996185296,2.1355999999046276,2.150599999904628,2.169099999904631,2.1879999999999953,2.199699999809262,2.216399999618531,2.2335999999046336,2.2498999996185276,2.266299999713894,2.2830000000000013,2.303199999809266,2.319899999618528,2.3337999997138965,2.3503999996185314,2.3666999998092635,2.3829999999999956,2.3996999998092647,2.416399999618527]","[1732156993625,1732156993642,1732156993659,1732156993673,1732156993689,1732156993706,1732156993723,1732156993740,1732156993760,1732156993776,1732156993789,1732156993810,1732156993827,1732156993842,1732156993856,1732156993873,1732156993889,1732156993906,1732156993926,1732156993939,1732156993956,1732156993973,1732156993989,1732156994006,1732156994023,1732156994040,1732156994057,1732156994075,1732156994090,1732156994111,1732156994123,1732156994140,1732156994162,1732156994173,1732156994189,1732156994209,1732156994223,1732156994239,1732156994257,1732156994276,1732156994290,1732156994309,1732156994327,1732156994344,1732156994361,1732156994378,1732156994394,1732156994412,1732156994423,1732156994439,1732156994456,1732156994473,1732156994495,1732156994507,1732156994528,1732156994544,1732156994560,1732156994577,1732156994595,1732156994611,1732156994628,1732156994639,1732156994656,1732156994673,1732156994689,1732156994706,1732156994723,1732156994739,1732156994756,1732156994773,1732156994789,1732156994806,1732156994823,1732156994839,1732156994856,1732156994874,1732156994890,1732156994906,1732156994923,1732156994939,1732156994956,1732156994973,1732156994989,1732156995006,1732156995026,1732156995042,1732156995056,1732156995075,1732156995089,1732156995106,1732156995127,1732156995139,1732156995156,1732156995174,1732156995192,1732156995209,1732156995226,1732156995242,1732156995257,1732156995276,1732156995292,1732156995311,1732156995334,1732156995340,1732156995356,1732156995373,1732156995393,1732156995409,1732156995428,1732156995444,1732156995461,1732156995481,1732156995489,1732156995506,1732156995524,1732156995539,1732156995556,1732156995573,1732156995590,1732156995607,1732156995626,1732156995642,1732156995659,1732156995677,1732156995693,1732156995712,1732156995723,1732156995739,1732156995759,1732156995774,1732156995792,1732156995811,1732156995823,1732156995839,1732156995857,1732156995873,1732156995889,1732156995906,1732156995926,1732156995943,1732156995957,1732156995973,1732156995990,1732156996006,1732156996023,1732156996039]","[[896.5,312.3],[897.4,313.2],[903.7,325.2],[912.9,330.8],[920.3,338.7],[920.3,338.7],[936.5,349.3],[930.8,355.3],[935,359.8],[917.7,370.9],[909.6,369.8],[899.4,382.5],[889.2,395.2],[877.5,392.9],[865.8,390.6],[846.9,384.4],[828,378.2],[811.4,380.3],[804.2,382.1],[804.2,382.1],[818.5,377.3],[837.9,378.8],[823.8,374],[823.8,374],[814.1,368.7],[815.4,380.5],[811.1,388.1],[818.5,397.2],[818.5,397.2],[827.2,409.4],[827.2,409.4],[827.1,420.5],[811.6,413.9],[811.6,413.9],[800,412.9],[774.6,403.6],[774.6,403.6],[788.6,404.2],[795.9,412.5],[783,402.4],[775.7,396.5],[765.7,390.7],[748.2,373.6],[739.5,357.6],[731.1,363.7],[718.8,364.2],[721.8,375.7],[713.2,379],[713.2,379],[708.4,373.2],[708.4,373.2],[706.3,367.4],[706.3,367.4],[706.8,368.5],[694.2,365.1],[704,368.9],[713.8,372.7],[699.3,372.6],[702.8,375.4],[683.3,368.4],[686,354.5],[686,354.5],[693.4,334.7],[693.4,334.7],[712.9,336.3],[712.9,336.3],[718.2,328.2],[718.2,328.2],[753.6,315.8],[753.6,315.8],[768,305.9],[768,305.9],[781.5,300.7],[781.5,300.7],[804.5,296.4],[812,285.6],[833.9,283.5],[833.9,283.5],[840.3,290.7],[847.4,302.5],[848.1,299.5],[851.6,298.7],[851.2,309.7],[847,314],[843.7,313.6],[860.4,327.4],[864.4,335.4],[875.3,339.2],[882.8,331.9],[882.8,331.9],[883.4,327.8],[883.4,327.8],[884.1,337.5],[885.4,340],[882.3,338],[887.8,341.2],[880.3,349.9],[866.9,340.2],[871,330.6],[876.4,320.2],[882.7,319],[889,317.8],[909.4,305.9],[909.4,305.9],[936.7,296.5],[967.7,293.5],[977.1,274.7],[998.3,265.8],[1015.9,259],[1035.9,260.4],[1037.9,247.6],[1043.2,239.1],[1043.2,239.1],[1048.5,230.6],[1022.8,211],[1022.8,211],[1004.4,202.4],[981.7,193.2],[966.7,201.1],[951.4,169.5],[931.8,161.3],[904.3,154],[897.1,177.3],[882.4,195.8],[871.1,213.3],[879.2,242],[879.2,242],[862,264.8],[817.2,281.9],[803,287.1],[790.3,316.4],[777.7,323.4],[777.7,323.4],[763.3,330.6],[739.3,324.8],[705.9,315],[669.1,306.2],[632.3,297.4],[620.3,287.7],[624.5,279.4],[615.3,286.4],[599.1,294.8],[590.4,285.3],[585.9,298.1],[585.9,298.1],[573.3,302.7]]","[-0.132282,0.39684600000000003]","[0.132282,0.39684600000000003]","[0.39684600000000003,0.39684600000000003]","[-0.39684600000000003,-0.39684600000000003]","[-0.39684600000000003,0.132282]","[-0.39684600000000003,-0.132282]","[-0.132282,-0.39684600000000003]","[0.132282,-0.39684600000000003]","[0.39684600000000003,-0.39684600000000003]","[-0.132282,0.132282]","[0.132282,0.132282]","[0.39684600000000003,0.132282]","[-0.132282,-0.132282]","[0.132282,-0.132282]","[0.39684600000000003,-0.132282]",0,1,1,1,1,2,Tablet,20,20,7,3,70,6,3,60,3
