inst1_resp.keys,inst1_resp.rt,calibrationMouse.x,calibrationMouse.y,calibrationMouse.leftButton,calibrationMouse.midButton,calibrationMouse.rightButton,calibrationClick.x,calibrationClick.y,calibrationClick.leftButton,calibrationClick.midButton,calibrationClick.rightButton,calibrationClick.clicked_name,trialsc.thisRepN,trialsc.thisTrialN,trialsc.thisN,trialsc.thisIndex,trialsc.ran,calibration_x,calibration_y,participant,session,date,expName,psychopyVersion,OS,frameRate,ScreenRes_pixels,Camera_pixels,mouse_2.x,mouse_2.y,mouse_2.leftButton,mouse_2.midButton,mouse_2.rightButton,mouse_2.time,mouse_2.clicked_name,mouse.x,mouse.y,mouse.leftButton,mouse.midButton,mouse.rightButton,mouse.time,mouse.clicked_name,Choice,Trial,TrialDuration,MOUSE_GAZE,ET_GAZE,ET_GAZE_x_T,time,unixTime,ET_GAZE_NF,Loc_Bus_label,Loc_Metro_label,Loc_RH_label,Loc_Cost_label,Loc_Travel_label,Loc_Comfort_label,Loc_Bus_cost,Loc_Metro_cost,Loc_RH_cost,Loc_Bus_travel,Loc_Metro_travel,Loc_RH_travel,Loc_Bus_comfort,Loc_Metro_comfort,Loc_RH_comfort,trials.thisRepN,trials.thisTrialN,trials.thisN,trials.thisIndex,trials.ran,Block,Device,RH_cost,RH_travel_time,RH_Comfort,metro_cost,metro_travel_time,metro_Comfort,Bus_cost,Bus_travel_time,Bus_Comfort
space,14.883,0.151041667,-0.146296296,1,0,0,-0.664583333,0,1,0,0,calibration_square,0,0,0,2,1,-0.67,0,08,001,2024-11-21_12h14.37.535,Attention_exp_legacy,2023.1.0,Win32,59.88023952,,,,,,,,,,,,,,,,,,,,,,,,,,,,,,,,,,,,,,,,,,,,,,,,,,,,,,,,
,,,,,,,-0.339583333,0.337037037,1,0,0,calibration_square,0,1,1,7,1,-0.33,0.33,08,001,2024-11-21_12h14.37.535,Attention_exp_legacy,2023.1.0,Win32,59.88023952,,,,,,,,,,,,,,,,,,,,,,,,,,,,,,,,,,,,,,,,,,,,,,,,,,,,,,,,
,,,,,,,-0.330208333,-0.32037037,1,0,0,calibration_square,0,2,2,5,1,-0.33,-0.33,08,001,2024-11-21_12h14.37.535,Attention_exp_legacy,2023.1.0,Win32,59.88023952,,,,,,,,,,,,,,,,,,,,,,,,,,,,,,,,,,,,,,,,,,,,,,,,,,,,,,,,
,,,,,,,-0.677083333,-0.681481481,1,0,0,,0,3,3,0,1,-0.67,-0.67,08,001,2024-11-21_12h14.37.535,Attention_exp_legacy,2023.1.0,Win32,59.88023952,,,,,,,,,,,,,,,,,,,,,,,,,,,,,,,,,,,,,,,,,,,,,,,,,,,,,,,,
,,,,,,,0.330208333,-0.324074074,1,0,0,calibration_square,0,4,4,15,1,0.33,-0.33,08,001,2024-11-21_12h14.37.535,Attention_exp_legacy,2023.1.0,Win32,59.88023952,,,,,,,,,,,,,,,,,,,,,,,,,,,,,,,,,,,,,,,,,,,,,,,,,,,,,,,,
,,,,,,,-0.323958333,0.677777778,1,0,0,calibration_square,0,5,5,8,1,-0.33,0.67,08,001,2024-11-21_12h14.37.535,Attention_exp_legacy,2023.1.0,Win32,59.88023952,,,,,,,,,,,,,,,,,,,,,,,,,,,,,,,,,,,,,,,,,,,,,,,,,,,,,,,,
,,,,,,,0.330208333,-0.662962963,1,0,0,calibration_square,0,6,6,14,1,0.33,-0.67,08,001,2024-11-21_12h14.37.535,Attention_exp_legacy,2023.1.0,Win32,59.88023952,,,,,,,,,,,,,,,,,,,,,,,,,,,,,,,,,,,,,,,,,,,,,,,,,,,,,,,,
,,,,,,,0.665625,0.690740741,1,0,0,,0,7,7,19,1,0.67,0.67,08,001,2024-11-21_12h14.37.535,Attention_exp_legacy,2023.1.0,Win32,59.88023952,,,,,,,,,,,,,,,,,,,,,,,,,,,,,,,,,,,,,,,,,,,,,,,,,,,,,,,,
,,,,,,,-0.007291667,0.335185185,1,0,0,calibration_square,0,8,8,12,1,0,0.33,08,001,2024-11-21_12h14.37.535,Attention_exp_legacy,2023.1.0,Win32,59.88023952,,,,,,,,,,,,,,,,,,,,,,,,,,,,,,,,,,,,,,,,,,,,,,,,,,,,,,,,
,,,,,,,0.327083333,0.672222222,1,0,0,calibration_square,0,9,9,18,1,0.33,0.67,08,001,2024-11-21_12h14.37.535,Attention_exp_legacy,2023.1.0,Win32,59.88023952,,,,,,,,,,,,,,,,,,,,,,,,,,,,,,,,,,,,,,,,,,,,,,,,,,,,,,,,
,,,,,,,-0.011458333,-0.324074074,1,0,0,,0,10,10,10,1,0,-0.33,08,001,2024-11-21_12h14.37.535,Attention_exp_legacy,2023.1.0,Win32,59.88023952,,,,,,,,,,,,,,,,,,,,,,,,,,,,,,,,,,,,,,,,,,,,,,,,,,,,,,,,
,,,,,,,-0.671875,0.335185185,1,0,0,calibration_square,0,11,11,3,1,-0.67,0.33,08,001,2024-11-21_12h14.37.535,Attention_exp_legacy,2023.1.0,Win32,59.88023952,,,,,,,,,,,,,,,,,,,,,,,,,,,,,,,,,,,,,,,,,,,,,,,,,,,,,,,,
,,,,,,,-0.34375,-0.662962963,1,0,0,,0,12,12,4,1,-0.33,-0.67,08,001,2024-11-21_12h14.37.535,Attention_exp_legacy,2023.1.0,Win32,59.88023952,,,,,,,,,,,,,,,,,,,,,,,,,,,,,,,,,,,,,,,,,,,,,,,,,,,,,,,,
,,,,,,,0.339583333,0.009259259,1,0,0,calibration_square,0,13,13,16,1,0.33,0,08,001,2024-11-21_12h14.37.535,Attention_exp_legacy,2023.1.0,Win32,59.88023952,,,,,,,,,,,,,,,,,,,,,,,,,,,,,,,,,,,,,,,,,,,,,,,,,,,,,,,,
,,,,,,,0.334375,0.338888889,1,0,0,calibration_square,0,14,14,17,1,0.33,0.33,08,001,2024-11-21_12h14.37.535,Attention_exp_legacy,2023.1.0,Win32,59.88023952,,,,,,,,,,,,,,,,,,,,,,,,,,,,,,,,,,,,,,,,,,,,,,,,,,,,,,,,
,,,,,,,0.673958333,-0.664814815,1,0,0,calibration_square,0,15,15,20,1,0.67,-0.67,08,001,2024-11-21_12h14.37.535,Attention_exp_legacy,2023.1.0,Win32,59.88023952,,,,,,,,,,,,,,,,,,,,,,,,,,,,,,,,,,,,,,,,,,,,,,,,,,,,,,,,
,,,,,,,0,0.690740741,1,0,0,,0,16,16,13,1,0,0.67,08,001,2024-11-21_12h14.37.535,Attention_exp_legacy,2023.1.0,Win32,59.88023952,,,,,,,,,,,,,,,,,,,,,,,,,,,,,,,,,,,,,,,,,,,,,,,,,,,,,,,,
,,,,,,,-0.334375,0.007407407,1,0,0,calibration_square,0,17,17,6,1,-0.33,0,08,001,2024-11-21_12h14.37.535,Attention_exp_legacy,2023.1.0,Win32,59.88023952,,,,,,,,,,,,,,,,,,,,,,,,,,,,,,,,,,,,,,,,,,,,,,,,,,,,,,,,
,,,,,,,-0.677083333,-0.312962963,1,0,0,,0,18,18,1,1,-0.67,-0.33,08,001,2024-11-21_12h14.37.535,Attention_exp_legacy,2023.1.0,Win32,59.88023952,,,,,,,,,,,,,,,,,,,,,,,,,,,,,,,,,,,,,,,,,,,,,,,,,,,,,,,,
,,,,,,,0.003125,-0.638888889,1,0,0,,0,19,19,9,1,0,-0.67,08,001,2024-11-21_12h14.37.535,Attention_exp_legacy,2023.1.0,Win32,59.88023952,,,,,,,,,,,,,,,,,,,,,,,,,,,,,,,,,,,,,,,,,,,,,,,,,,,,,,,,
,,,,,,,-0.009375,0.018518519,1,0,0,,0,20,20,11,1,0,0,08,001,2024-11-21_12h14.37.535,Attention_exp_legacy,2023.1.0,Win32,59.88023952,,,,,,,,,,,,,,,,,,,,,,,,,,,,,,,,,,,,,,,,,,,,,,,,,,,,,,,,
,,,,,,,,,,,,,,,,,,,,08,001,2024-11-21_12h14.37.535,Attention_exp_legacy,2023.1.0,Win32,59.88023952,"[1920,1080]","[640,480]",[-0.003125],[-0.49074074074074076],[1],[0],[0],[1.1103000001907333],"[""StartButton""]",[-0.21770833333333334],[0.6037037037037037],[1],[0],[0],[3.795199999809256],"[""Bus_label""]",Bus_label,1,4.8247,"[[0.20833333333333334,0.02962962962962963],[0.20833333333333334,0.02962962962962963],[0.20833333333333334,0.02962962962962963],[0.20833333333333334,0.02962962962962963],[0.20833333333333334,0.02962962962962963],[0.20833333333333334,0.02962962962962963],[0.20833333333333334,0.02962962962962963],[0.20833333333333334,0.02962962962962963],[0.20833333333333334,0.02962962962962963],[0.20833333333333334,0.02962962962962963],[0.20833333333333334,0.02962962962962963],[0.20833333333333334,0.02962962962962963],[0.20833333333333334,0.02962962962962963],[0.20833333333333334,0.02962962962962963],[0.20833333333333334,0.02962962962962963],[0.20833333333333334,0.02962962962962963],[0.20833333333333334,0.02962962962962963],[0.20833333333333334,0.02962962962962963],[0.20833333333333334,0.02962962962962963],[0.20833333333333334,0.02962962962962963],[0.20833333333333334,0.02962962962962963],[0.20833333333333334,0.02962962962962963],[0.20833333333333334,0.02962962962962963],[0.20833333333333334,0.02962962962962963],[0.20833333333333334,0.02962962962962963],[0.20833333333333334,0.02962962962962963],[0.20833333333333334,0.02962962962962963],[0.20833333333333334,0.02962962962962963],[0.20833333333333334,0.02962962962962963],[0.20833333333333334,0.02962962962962963],[0.20833333333333334,0.02962962962962963],[0.20833333333333334,0.02962962962962963],[0.20833333333333334,0.02962962962962963],[0.20833333333333334,0.02962962962962963],[0.20833333333333334,0.02962962962962963],[0.20833333333333334,0.02962962962962963],[0.20833333333333334,0.02962962962962963],[0.20833333333333334,0.02962962962962963],[0.20833333333333334,0.03148148148148148],[0.20104166666666667,0.03333333333333333],[0.19270833333333334,0.03518518518518519],[0.16875,0.04259259259259259],[0.15,0.04814814814814815],[0.134375,0.05185185185185185],[0.11979166666666667,0.053703703703703705],[0.10729166666666666,0.05925925925925926],[0.09791666666666667,0.05925925925925926],[0.0875,0.06111111111111111],[0.08020833333333334,0.06481481481481481],[0.07291666666666667,0.06666666666666667],[0.06770833333333333,0.06851851851851852],[0.06041666666666667,0.07222222222222222],[0.058333333333333334,0.07407407407407407],[0.05,0.07592592592592592],[0.042708333333333334,0.08148148148148149],[0.035416666666666666,0.08333333333333333],[0.023958333333333335,0.08703703703703704],[0.0125,0.09444444444444444],[0.004166666666666667,0.09814814814814815],[-0.005208333333333333,0.1037037037037037],[-0.009375,0.10555555555555556],[-0.0125,0.10740740740740741],[-0.015625,0.10740740740740741],[-0.016666666666666666,0.10740740740740741],[-0.01875,0.10740740740740741],[-0.01875,0.10740740740740741],[-0.01875,0.10740740740740741],[-0.01875,0.10740740740740741],[-0.01875,0.10740740740740741],[-0.01875,0.10740740740740741],[-0.01875,0.10740740740740741],[-0.01875,0.10740740740740741],[-0.01875,0.10740740740740741],[-0.019791666666666666,0.10925925925925926],[-0.019791666666666666,0.10925925925925926],[-0.019791666666666666,0.1111111111111111],[-0.019791666666666666,0.1111111111111111],[-0.019791666666666666,0.1111111111111111],[-0.019791666666666666,0.1111111111111111],[-0.019791666666666666,0.1111111111111111],[-0.019791666666666666,0.11296296296296296],[-0.019791666666666666,0.11481481481481481],[-0.019791666666666666,0.11481481481481481],[-0.019791666666666666,0.11481481481481481],[-0.020833333333333332,0.11666666666666667],[-0.020833333333333332,0.11666666666666667],[-0.020833333333333332,0.12037037037037036],[-0.020833333333333332,0.12037037037037036],[-0.020833333333333332,0.12037037037037036],[-0.020833333333333332,0.12037037037037036],[-0.020833333333333332,0.12037037037037036],[-0.020833333333333332,0.12037037037037036],[-0.020833333333333332,0.12037037037037036],[-0.020833333333333332,0.12037037037037036],[-0.020833333333333332,0.12037037037037036],[-0.020833333333333332,0.12037037037037036],[-0.020833333333333332,0.12037037037037036],[-0.020833333333333332,0.12037037037037036],[-0.020833333333333332,0.12037037037037036],[-0.020833333333333332,0.12037037037037036],[-0.020833333333333332,0.12037037037037036],[-0.020833333333333332,0.12037037037037036],[-0.020833333333333332,0.12037037037037036],[-0.020833333333333332,0.12037037037037036],[-0.020833333333333332,0.12037037037037036],[-0.020833333333333332,0.12037037037037036],[-0.020833333333333332,0.12037037037037036],[-0.020833333333333332,0.12037037037037036],[-0.020833333333333332,0.12222222222222222],[-0.020833333333333332,0.12222222222222222],[-0.020833333333333332,0.12222222222222222],[-0.020833333333333332,0.12222222222222222],[-0.020833333333333332,0.12407407407407407],[-0.020833333333333332,0.12407407407407407],[-0.020833333333333332,0.1259259259259259],[-0.020833333333333332,0.1259259259259259],[-0.020833333333333332,0.12777777777777777],[-0.020833333333333332,0.12777777777777777],[-0.020833333333333332,0.13148148148148148],[-0.020833333333333332,0.13333333333333333],[-0.020833333333333332,0.13333333333333333],[-0.020833333333333332,0.13333333333333333],[-0.019791666666666666,0.1388888888888889],[-0.019791666666666666,0.1388888888888889],[-0.019791666666666666,0.1388888888888889],[-0.019791666666666666,0.14074074074074075],[-0.019791666666666666,0.14814814814814814],[-0.019791666666666666,0.1537037037037037],[-0.019791666666666666,0.15925925925925927],[-0.019791666666666666,0.16296296296296298],[-0.019791666666666666,0.17592592592592593],[-0.023958333333333335,0.18518518518518517],[-0.03125,0.2074074074074074],[-0.03125,0.2074074074074074],[-0.040625,0.23703703703703705],[-0.04375,0.24814814814814815],[-0.052083333333333336,0.2777777777777778],[-0.05625,0.29074074074074074],[-0.06666666666666667,0.3333333333333333],[-0.07395833333333333,0.37037037037037035],[-0.078125,0.38333333333333336],[-0.08541666666666667,0.40925925925925927],[-0.09166666666666666,0.43703703703703706],[-0.1,0.4648148148148148],[-0.10729166666666666,0.49074074074074076],[-0.115625,0.5148148148148148],[-0.12604166666666666,0.5388888888888889],[-0.13229166666666667,0.5518518518518518],[-0.13958333333333334,0.5648148148148148],[-0.14583333333333334,0.5740740740740741],[-0.15104166666666666,0.5814814814814815],[-0.15520833333333334,0.587037037037037],[-0.159375,0.5907407407407408],[-0.16354166666666667,0.5962962962962963],[-0.16770833333333332,0.6],[-0.17083333333333334,0.6018518518518519],[-0.17604166666666668,0.6055555555555555],[-0.18125,0.6092592592592593],[-0.18645833333333334,0.6129629629629629],[-0.18854166666666666,0.6129629629629629],[-0.190625,0.6148148148148148],[-0.19270833333333334,0.6148148148148148],[-0.19583333333333333,0.6148148148148148],[-0.19791666666666666,0.6148148148148148],[-0.2,0.6148148148148148],[-0.203125,0.6148148148148148],[-0.203125,0.6148148148148148],[-0.20416666666666666,0.6148148148148148],[-0.20416666666666666,0.6148148148148148],[-0.20416666666666666,0.6148148148148148],[-0.20520833333333333,0.6148148148148148],[-0.20625,0.6148148148148148],[-0.20729166666666668,0.6148148148148148],[-0.20833333333333334,0.6148148148148148],[-0.209375,0.6148148148148148],[-0.21041666666666667,0.6129629629629629],[-0.21145833333333333,0.6129629629629629],[-0.21354166666666666,0.6129629629629629],[-0.21458333333333332,0.6111111111111112],[-0.21458333333333332,0.6111111111111112],[-0.215625,0.6111111111111112],[-0.215625,0.6111111111111112],[-0.21770833333333334,0.6074074074074074],[-0.21770833333333334,0.6055555555555555],[-0.21770833333333334,0.6055555555555555],[-0.21770833333333334,0.6037037037037037],[-0.21770833333333334,0.6037037037037037],[-0.21770833333333334,0.6037037037037037],[-0.21770833333333334,0.6037037037037037],[-0.21770833333333334,0.6037037037037037],[-0.21770833333333334,0.6037037037037037],[-0.21770833333333334,0.6037037037037037],[-0.21770833333333334,0.6037037037037037],[-0.21770833333333334,0.6037037037037037],[-0.21770833333333334,0.6037037037037037],[-0.21770833333333334,0.6037037037037037],[-0.21770833333333334,0.6037037037037037],[-0.21770833333333334,0.6037037037037037],[-0.21770833333333334,0.6037037037037037],[-0.21770833333333334,0.6037037037037037],[-0.21770833333333334,0.6037037037037037],[-0.21770833333333334,0.6037037037037037],[-0.21770833333333334,0.6037037037037037],[-0.21770833333333334,0.6037037037037037],[-0.21770833333333334,0.6037037037037037],[-0.21770833333333334,0.6037037037037037],[-0.21770833333333334,0.6037037037037037],[-0.21770833333333334,0.6037037037037037],[-0.21770833333333334,0.6037037037037037],[-0.21770833333333334,0.6037037037037037],[-0.21770833333333334,0.6037037037037037],[-0.21770833333333334,0.6037037037037037],[-0.21770833333333334,0.6037037037037037],[-0.21770833333333334,0.6037037037037037],[-0.21770833333333334,0.6037037037037037],[-0.21770833333333334,0.6037037037037037],[-0.21770833333333334,0.6037037037037037],[-0.21770833333333334,0.6037037037037037],[-0.21770833333333334,0.6037037037037037],[-0.21770833333333334,0.6037037037037037],[-0.21770833333333334,0.6037037037037037],[-0.21770833333333334,0.6037037037037037],[-0.21770833333333334,0.6037037037037037],[-0.21770833333333334,0.6037037037037037],[-0.21770833333333334,0.6037037037037037],[-0.21770833333333334,0.6037037037037037],[-0.21770833333333334,0.6037037037037037],[-0.21770833333333334,0.6037037037037037],[-0.21770833333333334,0.6037037037037037],[-0.21770833333333334,0.6037037037037037],[-0.21770833333333334,0.6037037037037037],[-0.21770833333333334,0.6037037037037037],[-0.21770833333333334,0.6037037037037037],[-0.21770833333333334,0.6037037037037037],[-0.21770833333333334,0.6037037037037037],[-0.21770833333333334,0.6037037037037037],[-0.21770833333333334,0.6037037037037037],[-0.21770833333333334,0.6037037037037037],[-0.21770833333333334,0.6037037037037037],[-0.21770833333333334,0.6037037037037037],[-0.21770833333333334,0.6037037037037037],[-0.21770833333333334,0.6037037037037037],[-0.21770833333333334,0.6037037037037037],[-0.21770833333333334,0.6037037037037037],[-0.21770833333333334,0.6037037037037037],[-0.21770833333333334,0.6037037037037037],[-0.21770833333333334,0.6037037037037037],[-0.21770833333333334,0.6037037037037037],[-0.21770833333333334,0.6037037037037037],[-0.21770833333333334,0.6037037037037037],[-0.21770833333333334,0.6037037037037037],[-0.21770833333333334,0.6037037037037037],[-0.21770833333333334,0.6037037037037037],[-0.21770833333333334,0.6037037037037037],[-0.21770833333333334,0.6037037037037037],[-0.21770833333333334,0.6037037037037037],[-0.21770833333333334,0.6037037037037037],[-0.21770833333333334,0.6037037037037037],[-0.21770833333333334,0.6037037037037037],[-0.21770833333333334,0.6037037037037037],[-0.21770833333333334,0.6037037037037037],[-0.21770833333333334,0.6037037037037037],[-0.21770833333333334,0.6037037037037037],[-0.21770833333333334,0.6037037037037037],[-0.21770833333333334,0.6037037037037037],[-0.21770833333333334,0.6037037037037037],[-0.21770833333333334,0.6037037037037037],[-0.21770833333333334,0.6037037037037037],[-0.21770833333333334,0.6037037037037037],[-0.21770833333333334,0.6037037037037037],[-0.21770833333333334,0.6037037037037037],[-0.21770833333333334,0.6037037037037037],[-0.21770833333333334,0.6037037037037037],[-0.21770833333333334,0.6037037037037037],[-0.21770833333333334,0.6037037037037037],[-0.21770833333333334,0.6037037037037037],[-0.21770833333333334,0.6037037037037037],[-0.21770833333333334,0.6037037037037037],[-0.21770833333333334,0.6037037037037037],[-0.21770833333333334,0.6018518518518519],[-0.21770833333333334,0.6],[-0.21770833333333334,0.5962962962962963],[-0.21770833333333334,0.5944444444444444],[-0.21666666666666667,0.5925925925925926],[-0.21458333333333332,0.5851851851851851]]","[[-0.46677083333333336,-0.3857407407407408],[-0.46677083333333336,-0.3857407407407408],[-0.47281249999999997,-0.4324074074074074],[-0.47739583333333335,-0.5198148148148148],[-0.47739583333333335,-0.5198148148148148],[-0.4966666666666667,-0.5740740740740741],[-0.5191666666666667,-0.6275925925925926],[-0.5623958333333333,-0.6542592592592593],[-0.5623958333333333,-0.6542592592592593],[-0.59875,-0.6742592592592593],[-0.615625,-0.6655555555555556],[-0.615625,-0.6655555555555556],[-0.6003124999999999,-0.6612962962962964],[-0.5979166666666667,-0.6240740740740741],[-0.5952083333333333,-0.6324074074074074],[-0.6090625000000001,-0.6235185185185185],[-0.6090625000000001,-0.6235185185185185],[-0.6420833333333333,-0.5798148148148149],[-0.6420833333333333,-0.5798148148148149],[-0.6615625,-0.525],[-0.6615625,-0.525],[-0.6517708333333334,-0.5018518518518519],[-0.6517708333333334,-0.5018518518518519],[-0.6321875,-0.5138888888888888],[-0.6135416666666667,-0.5177777777777778],[-0.6135416666666667,-0.5177777777777778],[-0.61125,-0.495],[-0.61125,-0.495],[-0.5985416666666666,-0.5059259259259259],[-0.5985416666666666,-0.5059259259259259],[-0.5973958333333333,-0.47962962962962963],[-0.6072916666666667,-0.4322222222222222],[-0.595625,-0.402962962962963],[-0.5855208333333334,-0.3646296296296296],[-0.58375,-0.39462962962962966],[-0.58375,-0.39462962962962966],[-0.5828125,-0.38370370370370366],[-0.5850000000000001,-0.34629629629629627],[-0.58375,-0.28185185185185185],[-0.58375,-0.28185185185185185],[-0.5133333333333333,-0.2492592592592593],[-0.5133333333333333,-0.2492592592592593],[-0.4709375,-0.23648148148148146],[-0.4709375,-0.23648148148148146],[-0.40343749999999995,-0.21296296296296297],[-0.30520833333333336,-0.2088888888888889],[-0.23229166666666667,-0.172037037037037],[-0.1466666666666666,-0.15351851851851847],[-0.07760416666666667,-0.09314814814814817],[-0.02364583333333338,-0.041666666666666664],[0.014687500000000023,-0.019259259259259216],[0.03729166666666662,-0.018333333333333292],[-0.007083333333333286,-0.01722222222222214],[-0.0021875000000000236,0.017407407407407365],[-0.010625000000000048,0.0001851851851852273],[-0.07604166666666666,0.017407407407407365],[-0.08239583333333336,-0.005740740740740783],[-0.1014583333333333,-0.01055555555555564],[-0.12135416666666667,0.02444444444444453],[-0.12135416666666667,0.02444444444444453],[-0.12208333333333338,0.010740740740740657],[-0.10677083333333333,-0.026111111111111154],[-0.09697916666666669,-0.06759259259259259],[-0.08802083333333334,-0.0955555555555556],[-0.10062500000000002,-0.08888888888888889],[-0.1063541666666667,-0.10129629629629627],[-0.1063541666666667,-0.10129629629629627],[-0.06281249999999995,-0.13370370370370369],[-0.057395833333333354,-0.1014814814814815],[-0.05635416666666669,-0.0933333333333333],[-0.04812500000000005,-0.1242592592592593],[-0.04812500000000005,-0.1242592592592593],[-0.06885416666666669,-0.125],[-0.15729166666666666,-0.08074074074074078],[-0.14479166666666668,-0.09518518518518514],[-0.14489583333333336,-0.0992592592592593],[-0.14458333333333329,-0.12462962962962965],[-0.14458333333333329,-0.12462962962962965],[-0.12989583333333338,-0.12166666666666665],[-0.15760416666666663,-0.10240740740740743],[-0.18760416666666668,-0.14518518518518514],[-0.19416666666666665,-0.15648148148148147],[-0.18677083333333327,-0.17555555555555558],[-0.18677083333333327,-0.17555555555555558],[-0.15677083333333333,-0.192037037037037],[-0.15677083333333333,-0.192037037037037],[-0.03812500000000003,-0.2442592592592592],[-0.03812500000000003,-0.2442592592592592],[-0.04802083333333336,-0.2074074074074074],[-0.04802083333333336,-0.2074074074074074],[-0.04072916666666669,-0.17462962962962966],[-0.04072916666666669,-0.17462962962962966],[-0.030520833333333285,-0.15351851851851847],[-0.030520833333333285,-0.15351851851851847],[-0.03197916666666671,-0.13296296296296298],[-0.03197916666666671,-0.13296296296296298],[-0.051979166666666646,-0.08703703703703704],[-0.051979166666666646,-0.08703703703703704],[-0.03677083333333329,-0.03537037037037041],[-0.03677083333333329,-0.03537037037037041],[-0.01885416666666669,-0.02092592592592584],[-0.01885416666666669,-0.02092592592592584],[-0.01885416666666669,-0.02092592592592584],[-0.01885416666666669,-0.02092592592592584],[0.03239583333333336,0.005740740740740783],[0.03239583333333336,0.005740740740740783],[0.06625000000000002,0.0418518518518519],[0.06625000000000002,0.0418518518518519],[0.07364583333333338,0.08092592592592601],[0.07364583333333338,0.08092592592592601],[0.07010416666666662,0.13962962962962958],[0.07010416666666662,0.13962962962962958],[0.05510416666666664,0.18518518518518517],[0.05510416666666664,0.18518518518518517],[0.052083333333333336,0.19148148148148145],[0.052083333333333336,0.19148148148148145],[0.03687499999999998,0.19370370370370374],[0.03687499999999998,0.19370370370370374],[0.08406250000000005,0.1714814814814815],[0.08406250000000005,0.1714814814814815],[0.08239583333333324,0.09462962962962967],[0.08239583333333324,0.09462962962962967],[0.058958333333333356,0.04759259259259268],[0.058958333333333356,0.04759259259259268],[0.058958333333333356,0.04759259259259268],[0.058958333333333356,0.04759259259259268],[0.00791666666666669,0.008333333333333333],[0.00791666666666669,0.008333333333333333],[-0.04583333333333333,-0.04222222222222214],[-0.04583333333333333,-0.04222222222222214],[-0.071875,-0.07703703703703708],[-0.071875,-0.07703703703703708],[-0.05239583333333329,-0.14333333333333328],[-0.05239583333333329,-0.14333333333333328],[-0.02520833333333338,-0.17851851851851847],[-0.02520833333333338,-0.17851851851851847],[-0.030624999999999975,-0.20333333333333337],[-0.030624999999999975,-0.20333333333333337],[-0.011458333333333333,-0.2668518518518519],[-0.011458333333333333,-0.2668518518518519],[-0.041770833333333354,-0.3398148148148148],[-0.041770833333333354,-0.3398148148148148],[-0.04468749999999998,-0.3527777777777778],[-0.04468749999999998,-0.3527777777777778],[-0.05145833333333331,-0.3624074074074074],[-0.05145833333333331,-0.3624074074074074],[-0.06458333333333334,-0.38425925925925924],[-0.06458333333333334,-0.38425925925925924],[-0.07104166666666671,-0.40703703703703703],[-0.07104166666666671,-0.40703703703703703],[-0.08645833333333333,-0.42000000000000004],[-0.08645833333333333,-0.42000000000000004],[-0.10583333333333336,-0.46351851851851855],[-0.10583333333333336,-0.46351851851851855],[-0.11833333333333336,-0.5472222222222223],[-0.11833333333333336,-0.5472222222222223],[-0.12229166666666665,-0.5766666666666667],[-0.15489583333333337,-0.5385185185185185],[-0.14906250000000001,-0.5453703703703704],[-0.14906250000000001,-0.5453703703703704],[-0.15031249999999996,-0.5583333333333333],[-0.15031249999999996,-0.5583333333333333],[-0.1141666666666667,-0.5346296296296296],[-0.1094791666666667,-0.46518518518518515],[-0.07718750000000002,-0.45796296296296296],[-0.049583333333333354,-0.4735185185185185],[-0.017708333333333333,-0.4781481481481481],[0.006458333333333381,-0.4668518518518519],[0.006458333333333381,-0.4668518518518519],[0.0125,-0.4596296296296296],[0.0125,-0.4596296296296296],[0.014791666666666713,-0.49240740740740735],[0.0068750000000000235,-0.4925925925925926],[-0.025937499999999978,-0.4777777777777778],[-0.06104166666666669,-0.47370370370370374],[-0.06958333333333329,-0.5585185185185185],[-0.10406249999999997,-0.5729629629629629],[-0.15614583333333332,-0.582962962962963],[-0.15614583333333332,-0.582962962962963],[-0.19729166666666664,-0.6083333333333333],[-0.19729166666666664,-0.6083333333333333],[-0.2482291666666666,-0.5835185185185185],[-0.2621875000000001,-0.6059259259259259],[-0.2621875000000001,-0.6059259259259259],[-0.2694791666666667,-0.5714814814814815],[-0.2694791666666667,-0.5714814814814815],[-0.2604166666666667,-0.45259259259259255],[-0.2604166666666667,-0.45259259259259255],[-0.2521875,-0.3698148148148148],[-0.25239583333333326,-0.33537037037037043],[-0.25239583333333326,-0.33537037037037043],[-0.2101041666666667,-0.28648148148148145],[-0.20979166666666665,-0.24648148148148152],[-0.1454166666666667,-0.2548148148148149],[-0.09375,-0.24203703703703702],[-0.04208333333333331,-0.2687037037037037],[-0.003125,-0.20925925925925926],[0.06239583333333331,-0.1440740740740741],[0.10958333333333338,-0.14833333333333337],[0.18250000000000005,-0.13148148148148148],[0.22364583333333338,-0.1551851851851852],[0.22989583333333338,-0.15777777777777777],[0.2778125000000001,-0.19166666666666668],[0.30572916666666666,-0.11259259259259262],[0.2961458333333333,-0.062407407407407384],[0.29635416666666664,-0.02296296296296292],[0.325,-0.010925925925925884],[0.3125,-0.032407407407407406],[0.3141666666666666,-0.06777777777777783],[0.2982291666666666,-0.08574074074074076],[0.2738541666666668,-0.06814814814814817],[0.24947916666666667,-0.05055555555555547],[0.2185416666666666,-0.0011111111111111532],[0.1868750000000001,0.021851851851851768],[0.1616666666666667,0.11074074074074065],[0.13145833333333337,0.1794444444444444],[0.08229166666666667,0.24685185185185177],[0.052291666666666715,0.25],[0.005833333333333357,0.27092592592592585],[-0.02302083333333336,0.27444444444444455],[-0.025937499999999978,0.3255555555555555],[-0.025937499999999978,0.3255555555555555],[-0.04104166666666664,0.33666666666666656],[-0.058437500000000024,0.3961111111111111],[-0.058437500000000024,0.3961111111111111],[-0.058437500000000024,0.3961111111111111],[-0.058437500000000024,0.3961111111111111],[-0.058437500000000024,0.3961111111111111],[-0.10208333333333333,0.3661111111111112],[-0.10208333333333333,0.3661111111111112],[-0.10208333333333333,0.3661111111111112],[-0.11833333333333336,0.30629629629629623],[-0.11833333333333336,0.30629629629629623],[-0.12687499999999996,0.290925925925926],[-0.12687499999999996,0.290925925925926],[-0.16239583333333332,0.1714814814814815],[-0.16239583333333332,0.1714814814814815],[-0.1922916666666667,0.07296296296296292],[-0.1922916666666667,0.07296296296296292],[-0.20812499999999995,-0.05240740740740743],[-0.20812499999999995,-0.05240740740740743],[-0.22645833333333332,-0.18425925925925926],[-0.22645833333333332,-0.18425925925925926],[-0.2733333333333333,-0.3227777777777778],[-0.2733333333333333,-0.3227777777777778],[-0.30343749999999997,-0.40925925925925927],[-0.30343749999999997,-0.40925925925925927],[-0.3382291666666667,-0.5335185185185186],[-0.3382291666666667,-0.5335185185185186],[-0.3663541666666667,-0.6348148148148148],[-0.3663541666666667,-0.6348148148148148],[-0.39781249999999996,-0.8133333333333334],[-0.39781249999999996,-0.8133333333333334],[-0.4122916666666666,-0.9418518518518519],[-0.4122916666666666,-0.9418518518518519],[-0.41604166666666664,-0.9674074074074074],[-0.41604166666666664,-0.9674074074074074],[-0.4321875,-0.9681481481481481],[-0.4321875,-0.9681481481481481],[-0.4917708333333334,-0.9501851851851852],[-0.4917708333333334,-0.9501851851851852],[-0.5220833333333333,-0.937037037037037],[-0.5220833333333333,-0.937037037037037],[-0.5329166666666667,-0.950925925925926],[-0.5329166666666667,-0.950925925925926],[-0.5709375,-0.9431481481481482],[-0.5709375,-0.9431481481481482],[-0.5545833333333333,-0.9457407407407408],[-0.5545833333333333,-0.9457407407407408],[-0.5545833333333333,-0.9457407407407408],[-0.5941666666666666,-0.9125925925925926],[-0.5941666666666666,-0.9125925925925926],[-0.6086458333333333,-0.8187037037037037],[-0.6086458333333333,-0.8187037037037037],[-0.6490625,-0.7825925925925926],[-0.6490625,-0.7825925925925926],[-0.6882291666666667,-0.7855555555555556],[-0.6882291666666667,-0.7855555555555556],[-0.6713541666666667,-0.8116666666666666],[-0.6713541666666667,-0.8116666666666666],[-0.6698958333333334,-0.7527777777777778],[-0.6698958333333334,-0.7527777777777778],[-0.6354166666666666,-0.7148148148148148],[-0.6354166666666666,-0.7148148148148148],[-0.5876041666666667,-0.5479629629629629]]","[[-0.46677083333333336,-0.3857407407407408,0.00019999980926854732],[-0.46677083333333336,-0.3857407407407408,0.054199999809270594],[-0.47281249999999997,-0.4324074074074074,0.07189999961853744],[-0.47739583333333335,-0.5198148148148148,0.08989999961852391],[-0.47739583333333335,-0.5198148148148148,0.10519999980927253],[-0.4966666666666667,-0.5740740740740741,0.1218999996185346],[-0.5191666666666667,-0.6275925925925926,0.14039999961853766],[-0.5623958333333333,-0.6542592592592593,0.16100000000000136],[-0.5623958333333333,-0.6542592592592593,0.17909999990463632],[-0.59875,-0.6742592592592593,0.19259999990462973],[-0.615625,-0.6655555555555556,0.20719999980926218],[-0.615625,-0.6655555555555556,0.22179999971389464],[-0.6003124999999999,-0.6612962962962964,0.2385999999046362],[-0.5979166666666667,-0.6240740740740741,0.2550999999046297],[-0.5952083333333333,-0.6324074074074074,0.2717999997138918],[-0.6090625000000001,-0.6235185185185185,0.2884999999999991],[-0.6090625000000001,-0.6235185185185185,0.3050999999046269],[-0.6420833333333333,-0.5798148148148149,0.32189999961853744],[-0.6420833333333333,-0.5798148148148149,0.33839999961853096],[-0.6615625,-0.525,0.3551999998092725],[-0.6615625,-0.525,0.3718999996185346],[-0.6517708333333334,-0.5018518518518519,0.3884999999999934],[-0.6517708333333334,-0.5018518518518519,0.4050999999046354],[-0.6321875,-0.5138888888888888,0.42199999999999704],[-0.6135416666666667,-0.5177777777777778,0.44239999961853016],[-0.6135416666666667,-0.5177777777777778,0.45509999990463257],[-0.61125,-0.495,0.47179999971389464],[-0.61125,-0.495,0.48850000000000193],[-0.5985416666666666,-0.5059259259259259,0.505199999809264],[-0.5985416666666666,-0.5059259259259259,0.5218999996185261],[-0.5973958333333333,-0.47962962962962963,0.5384999999999991],[-0.6072916666666667,-0.4322222222222222,0.5550999999046269],[-0.595625,-0.402962962962963,0.5716999998092689],[-0.5855208333333334,-0.3646296296296296,0.5885999999046305],[-0.58375,-0.39462962962962966,0.6071999998092679],[-0.58375,-0.39462962962962966,0.6218999996185346],[-0.5828125,-0.38370370370370366,0.6384999999999934],[-0.5850000000000001,-0.34629629629629627,0.6550999999046354],[-0.58375,-0.28185185185185185,0.6750999999046314],[-0.58375,-0.28185185185185185,0.6886999998092591],[-0.5133333333333333,-0.2492592592592593,0.7053999996185354],[-0.5133333333333333,-0.2492592592592593,0.7221999998092627],[-0.4709375,-0.23648148148148146,0.7421999998092588],[-0.4709375,-0.23648148148148146,0.7553999996185325],[-0.40343749999999995,-0.21296296296296297,0.7722999997138942],[-0.30520833333333336,-0.2088888888888889,0.7921999998092701],[-0.23229166666666667,-0.172037037037037,0.805499999999995],[-0.1466666666666666,-0.15351851851851847,0.8250000000000028],[-0.07760416666666667,-0.09314814814814817,0.8388999996185333],[-0.02364583333333338,-0.041666666666666664,0.8571999998092679],[0.014687500000000023,-0.019259259259259216,0.8718999996185346],[0.03729166666666662,-0.018333333333333292,0.8901999998092691],[-0.007083333333333286,-0.01722222222222214,0.9085000000000036],[-0.0021875000000000236,0.017407407407407365,0.9256999998092681],[-0.010625000000000048,0.0001851851851852273,0.9420999999046273],[-0.07604166666666666,0.017407407407407365,0.957499999999996],[-0.08239583333333336,-0.005740740740740783,0.9719999999999942],[-0.1014583333333333,-0.01055555555555564,0.9886999998092705],[-0.12135416666666667,0.02444444444444453,1.0052999997138983],[-0.12135416666666667,0.02444444444444453,1.0248999996185262],[-0.12208333333333338,0.010740740740740657,1.038799999713902],[-0.10677083333333333,-0.026111111111111154,1.0551999998092612],[-0.09697916666666669,-0.06759259259259259,1.0718999996185374],[-0.08802083333333334,-0.0955555555555556,1.0907999997138944],[-0.10062500000000002,-0.08888888888888889,1.1056999998092607],[-0.1063541666666667,-0.10129629629629627,1.1218999996185346],[-0.1063541666666667,-0.10129629629629627,1.1384999999999934],[-0.06281249999999995,-0.13370370370370369,1.1550999999046354],[-0.057395833333333354,-0.1014814814814815,1.171999999999997],[-0.05635416666666669,-0.0933333333333333,1.1922999997138959],[-0.04812500000000005,-0.1242592592592593,1.2083999996185355],[-0.04812500000000005,-0.1242592592592593,1.2217999997138946],[-0.06885416666666669,-0.125,1.238500000000002],[-0.15729166666666666,-0.08074074074074078,1.257799999713896],[-0.14479166666666668,-0.09518518518518514,1.2731999998092647],[-0.14489583333333336,-0.0992592592592593,1.2920000000000016],[-0.14458333333333329,-0.12462962962962965,1.308000000000007],[-0.14458333333333329,-0.12462962962962965,1.3218999996185374],[-0.12989583333333338,-0.12166666666666665,1.3384999999999962],[-0.15760416666666663,-0.10240740740740743,1.3570999999046336],[-0.18760416666666668,-0.14518518518518514,1.3751999998092685],[-0.19416666666666665,-0.15648148148148147,1.3885999999046277],[-0.18677083333333327,-0.17555555555555558,1.425699999809268],[-0.18677083333333327,-0.17555555555555558,1.4325000000000045],[-0.15677083333333333,-0.192037037037037,1.458599999904635],[-0.15677083333333333,-0.192037037037037,1.4650000000000034],[-0.03812500000000003,-0.2442592592592592,1.4908999996185344],[-0.03812500000000003,-0.2442592592592592,1.498099999904639],[-0.04802083333333336,-0.2074074074074074,1.5238999996185356],[-0.04802083333333336,-0.2074074074074074,1.5312999997138945],[-0.04072916666666669,-0.17462962962962966,1.5577999997138932],[-0.04072916666666669,-0.17462962962962966,1.5674999999999955],[-0.030520833333333285,-0.15351851851851847,1.5892999997139015],[-0.030520833333333285,-0.15351851851851847,1.598399999618536],[-0.03197916666666671,-0.13296296296296298,1.6239999999999952],[-0.03197916666666671,-0.13296296296296298,1.631299999713903],[-0.051979166666666646,-0.08703703703703704,1.6577999997139017],[-0.051979166666666646,-0.08703703703703704,1.6653999996185291],[-0.03677083333333329,-0.03537037037037041,1.6906999998092687],[-0.03677083333333329,-0.03537037037037041,1.6986999998092642],[-0.01885416666666669,-0.02092592592592584,1.7242999997138924],[-0.01885416666666669,-0.02092592592592584,1.7322999997139021],[-0.01885416666666669,-0.02092592592592584,1.7385999999046362],[-0.01885416666666669,-0.02092592592592584,1.7565000000000026],[0.03239583333333336,0.005740740740740783,1.7912999997138996],[0.03239583333333336,0.005740740740740783,1.7986999998092585],[0.06625000000000002,0.0418518518518519,1.8247999997139033],[0.06625000000000002,0.0418518518518519,1.8319999999999936],[0.07364583333333338,0.08092592592592601,1.8599999999999994],[0.07364583333333338,0.08092592592592601,1.8687999997139002],[0.07010416666666662,0.13962962962962958,1.8908999996185258],[0.07010416666666662,0.13962962962962958,1.897599999904628],[0.05510416666666664,0.18518518518518517,1.9265999999046386],[0.05510416666666664,0.18518518518518517,1.9336999998092637],[0.052083333333333336,0.19148148148148145,1.9560999999046373],[0.052083333333333336,0.19148148148148145,1.963399999618531],[0.03687499999999998,0.19370370370370374,2.0070999999046393],[0.03687499999999998,0.19370370370370374,2.0150000000000006],[0.08406250000000005,0.1714814814814815,2.043999999999997],[0.08406250000000005,0.1714814814814815,2.0515000000000043],[0.08239583333333324,0.09462962962962967,2.0745000000000005],[0.08239583333333324,0.09462962962962967,2.0808999996185236],[0.058958333333333356,0.04759259259259268,2.1096999998092656],[0.058958333333333356,0.04759259259259268,2.1170000000000044],[0.058958333333333356,0.04759259259259268,2.1217999997139003],[0.058958333333333356,0.04759259259259268,2.1406999998092715],[0.00791666666666669,0.008333333333333333,2.179000000000002],[0.00791666666666669,0.008333333333333333,2.1861999998092614],[-0.04583333333333333,-0.04222222222222214,2.2080999999046327],[-0.04583333333333333,-0.04222222222222214,2.2157999997138944],[-0.071875,-0.07703703703703708,2.2439999999999998],[-0.071875,-0.07703703703703708,2.2517999997138958],[-0.05239583333333329,-0.14333333333333328,2.274699999809272],[-0.05239583333333329,-0.14333333333333328,2.281499999999994],[-0.02520833333333338,-0.17851851851851847,2.309899999618537],[-0.02520833333333338,-0.17851851851851847,2.317999999999998],[-0.030624999999999975,-0.20333333333333337,2.343199999809272],[-0.030624999999999975,-0.20333333333333337,2.3504999999999967],[-0.011458333333333333,-0.2668518518518519,2.3799999999999955],[-0.011458333333333333,-0.2668518518518519,2.395399999618533],[-0.041770833333333354,-0.3398148148148148,2.407899999618536],[-0.041770833333333354,-0.3398148148148148,2.4222999997139],[-0.04468749999999998,-0.3527777777777778,2.442699999809264],[-0.04468749999999998,-0.3527777777777778,2.455199999809267],[-0.05145833333333331,-0.3624074074074074,2.471899999618529],[-0.05145833333333331,-0.3624074074074074,2.500699999809271],[-0.06458333333333334,-0.38425925925925924,2.5065000000000026],[-0.06458333333333334,-0.38425925925925924,2.5220000000000056],[-0.07104166666666671,-0.40703703703703703,2.5426999998092725],[-0.07104166666666671,-0.40703703703703703,2.5552999997138954],[-0.08645833333333333,-0.42000000000000004,2.5720000000000027],[-0.08645833333333333,-0.42000000000000004,2.5952999997139017],[-0.10583333333333336,-0.46351851851851855,2.6052999997138926],[-0.10583333333333336,-0.46351851851851855,2.622],[-0.11833333333333336,-0.5472222222222223,2.6424999999999983],[-0.11833333333333336,-0.5472222222222223,2.6551999998092697],[-0.12229166666666665,-0.5766666666666667,2.6718999996185318],[-0.15489583333333337,-0.5385185185185185,2.6932999997139007],[-0.14906250000000001,-0.5453703703703704,2.7101999998092623],[-0.14906250000000001,-0.5453703703703704,2.7221999998092627],[-0.15031249999999996,-0.5583333333333333,2.742999999999995],[-0.15031249999999996,-0.5583333333333333,2.7553999996185325],[-0.1141666666666667,-0.5346296296296296,2.77219999980926],[-0.1094791666666667,-0.46518518518518515,2.7942999997138998],[-0.07718750000000002,-0.45796296296296296,2.8090999999046318],[-0.049583333333333354,-0.4735185185185185,2.825899999618528],[-0.017708333333333333,-0.4781481481481481,2.843299999713892],[0.006458333333333381,-0.4668518518518519,2.863899999618525],[0.006458333333333381,-0.4668518518518519,2.8717999997139003],[0.0125,-0.4596296296296296,2.8884999999999934],[0.0125,-0.4596296296296296,2.905399999618524],[0.014791666666666713,-0.49240740740740735,2.925699999809268],[0.0068750000000000235,-0.4925925925925926,2.9420000000000073],[-0.025937499999999978,-0.4777777777777778,2.9587999997139036],[-0.06104166666666669,-0.47370370370370374,2.97669999980927],[-0.06958333333333329,-0.5585185185185185,2.991799999713905],[-0.10406249999999997,-0.5729629629629629,3.0070999999046393],[-0.15614583333333332,-0.582962962962963,3.0289999999999964],[-0.15614583333333332,-0.582962962962963,3.0386999998092676],[-0.19729166666666664,-0.6083333333333333,3.055099999904627],[-0.19729166666666664,-0.6083333333333333,3.0720000000000027],[-0.2482291666666666,-0.5835185185185185,3.088399999618531],[-0.2621875000000001,-0.6059259259259259,3.109499999999997],[-0.2621875000000001,-0.6059259259259259,3.1221999998092684],[-0.2694791666666667,-0.5714814814814815,3.1384999999999934],[-0.2694791666666667,-0.5714814814814815,3.155399999618524],[-0.2604166666666667,-0.45259259259259255,3.171699999809263],[-0.2604166666666667,-0.45259259259259255,3.1883999996185253],[-0.2521875,-0.3698148148148148,3.2050999999046326],[-0.25239583333333326,-0.33537037037037043,3.224899999618529],[-0.25239583333333326,-0.33537037037037043,3.2383999996185366],[-0.2101041666666667,-0.28648148148148145,3.2550999999046297],[-0.20979166666666665,-0.24648148148148152,3.2770999999046353],[-0.1454166666666667,-0.2548148148148149,3.2922999997139044],[-0.09375,-0.24203703703703702,3.3095],[-0.04208333333333331,-0.2687037037037037,3.326499999999996],[-0.003125,-0.20925925925925926,3.342099999904633],[0.06239583333333331,-0.1440740740740741,3.3576999998092703],[0.10958333333333338,-0.14833333333333337,3.3751999998092685],[0.18250000000000005,-0.13148148148148148,3.392399999618533],[0.22364583333333338,-0.1551851851851852,3.4080000000000013],[0.22989583333333338,-0.15777777777777777,3.4247999997138976],[0.2778125000000001,-0.19166666666666668,3.441199999809271],[0.30572916666666666,-0.11259259259259262,3.455299999713901],[0.2961458333333333,-0.062407407407407384,3.4743999996185266],[0.29635416666666664,-0.02296296296296292,3.490099999904629],[0.325,-0.010925925925925884,3.5049999999999955],[0.3125,-0.032407407407407406,3.5220000000000056],[0.3141666666666666,-0.06777777777777783,3.538399999618534],[0.2982291666666666,-0.08574074074074076,3.555000000000007],[0.2738541666666668,-0.06814814814814817,3.5718999996185374],[0.24947916666666667,-0.05055555555555547,3.5882999997138967],[0.2185416666666666,-0.0011111111111111532,3.6052999997138926],[0.1868750000000001,0.021851851851851768,3.6241999998092638],[0.1616666666666667,0.11074074074074065,3.6406999998092715],[0.13145833333333337,0.1794444444444444,3.655000000000001],[0.08229166666666667,0.24685185185185177,3.6718999996185318],[0.052291666666666715,0.25,3.691500000000005],[0.005833333333333357,0.27092592592592585,3.705599999904635],[-0.02302083333333336,0.27444444444444455,3.722299999713897],[-0.025937499999999978,0.3255555555555555,3.742299999713893],[-0.025937499999999978,0.3255555555555555,3.7553999996185325],[-0.04104166666666664,0.33666666666666656,3.771899999618526],[-0.058437500000000024,0.3961111111111111,3.792099999904636],[-0.058437500000000024,0.3961111111111111,3.805099999904627],[-0.058437500000000024,0.3961111111111111,3.8229999999999933],[-0.058437500000000024,0.3961111111111111,3.840599999904626],[-0.058437500000000024,0.3961111111111111,3.857199999809268],[-0.10208333333333333,0.3661111111111112,3.888999999999996],[-0.10208333333333333,0.3661111111111112,3.896500000000003],[-0.10208333333333333,0.3661111111111112,3.907899999618536],[-0.11833333333333336,0.30629629629629623,3.9410000000000025],[-0.11833333333333336,0.30629629629629623,3.947899999618528],[-0.12687499999999996,0.290925925925926,3.9773999996185267],[-0.12687499999999996,0.290925925925926,3.984199999809263],[-0.16239583333333332,0.1714814814814815,4.0075999999046275],[-0.16239583333333332,0.1714814814814815,4.015399999618538],[-0.1922916666666667,0.07296296296296292,4.041699999809268],[-0.1922916666666667,0.07296296296296292,4.049000000000007],[-0.20812499999999995,-0.05240740740740743,4.072500000000005],[-0.20812499999999995,-0.05240740740740743,4.080199999809267],[-0.22645833333333332,-0.18425925925925926,4.107599999904636],[-0.22645833333333332,-0.18425925925925926,4.115899999618534],[-0.2733333333333333,-0.3227777777777778,4.141299999713894],[-0.2733333333333333,-0.3227777777777778,4.147999999999996],[-0.30343749999999997,-0.40925925925925927,4.1743999996185295],[-0.30343749999999997,-0.40925925925925927,4.181099999904632],[-0.3382291666666667,-0.5335185185185186,4.205699999809269],[-0.3382291666666667,-0.5335185185185186,4.214500000000001],[-0.3663541666666667,-0.6348148148148148,4.239099999904639],[-0.3663541666666667,-0.6348148148148148,4.247099999904634],[-0.39781249999999996,-0.8133333333333334,4.274500000000003],[-0.39781249999999996,-0.8133333333333334,4.281599999904628],[-0.4122916666666666,-0.9418518518518519,4.305799999713898],[-0.4122916666666666,-0.9418518518518519,4.313399999618525],[-0.41604166666666664,-0.9674074074074074,4.339099999904633],[-0.41604166666666664,-0.9674074074074074,4.346500000000006],[-0.4321875,-0.9681481481481481,4.374399999618532],[-0.4321875,-0.9681481481481481,4.382699999809262],[-0.4917708333333334,-0.9501851851851852,4.405799999713892],[-0.4917708333333334,-0.9501851851851852,4.413499999999999],[-0.5220833333333333,-0.937037037037037,4.439099999904627],[-0.5220833333333333,-0.937037037037037,4.446599999904635],[-0.5329166666666667,-0.950925925925926,4.472699999809265],[-0.5329166666666667,-0.950925925925926,4.480099999904638],[-0.5709375,-0.9431481481481482,4.510799999713896],[-0.5709375,-0.9431481481481482,4.5305000000000035],[-0.5545833333333333,-0.9457407407407408,4.544699999809268],[-0.5545833333333333,-0.9457407407407408,4.554399999618525],[-0.5545833333333333,-0.9457407407407408,4.562399999618535],[-0.5941666666666666,-0.9125925925925926,4.594399999618531],[-0.5941666666666666,-0.9125925925925926,4.602899999618529],[-0.6086458333333333,-0.8187037037037037,4.62689999961853],[-0.6086458333333333,-0.8187037037037037,4.634699999809271],[-0.6490625,-0.7825925925925926,4.659899999618531],[-0.6490625,-0.7825925925925926,4.667299999713904],[-0.6882291666666667,-0.7855555555555556,4.693299999713901],[-0.6882291666666667,-0.7855555555555556,4.700500000000005],[-0.6713541666666667,-0.8116666666666666,4.722599999904631],[-0.6713541666666667,-0.8116666666666666,4.741199999809268],[-0.6698958333333334,-0.7527777777777778,4.7575999999046275],[-0.6698958333333334,-0.7527777777777778,4.766699999809262],[-0.6354166666666666,-0.7148148148148148,4.792099999904636],[-0.6354166666666666,-0.7148148148148148,4.799999999999997],[-0.5876041666666667,-0.5479629629629629,4.824699999809269]]","[0.00019999980926854732,0.054199999809270594,0.07189999961853744,0.08989999961852391,0.10519999980927253,0.1218999996185346,0.14039999961853766,0.16100000000000136,0.17909999990463632,0.19259999990462973,0.20719999980926218,0.22179999971389464,0.2385999999046362,0.2550999999046297,0.2717999997138918,0.2884999999999991,0.3050999999046269,0.32189999961853744,0.33839999961853096,0.3551999998092725,0.3718999996185346,0.3884999999999934,0.4050999999046354,0.42199999999999704,0.44239999961853016,0.45509999990463257,0.47179999971389464,0.48850000000000193,0.505199999809264,0.5218999996185261,0.5384999999999991,0.5550999999046269,0.5716999998092689,0.5885999999046305,0.6071999998092679,0.6218999996185346,0.6384999999999934,0.6550999999046354,0.6750999999046314,0.6886999998092591,0.7053999996185354,0.7221999998092627,0.7421999998092588,0.7553999996185325,0.7722999997138942,0.7921999998092701,0.805499999999995,0.8250000000000028,0.8388999996185333,0.8571999998092679,0.8718999996185346,0.8901999998092691,0.9085000000000036,0.9256999998092681,0.9420999999046273,0.957499999999996,0.9719999999999942,0.9886999998092705,1.0052999997138983,1.0248999996185262,1.038799999713902,1.0551999998092612,1.0718999996185374,1.0907999997138944,1.1056999998092607,1.1218999996185346,1.1384999999999934,1.1550999999046354,1.171999999999997,1.1922999997138959,1.2083999996185355,1.2217999997138946,1.238500000000002,1.257799999713896,1.2731999998092647,1.2920000000000016,1.308000000000007,1.3218999996185374,1.3384999999999962,1.3570999999046336,1.3751999998092685,1.3885999999046277,1.425699999809268,1.4325000000000045,1.458599999904635,1.4650000000000034,1.4908999996185344,1.498099999904639,1.5238999996185356,1.5312999997138945,1.5577999997138932,1.5674999999999955,1.5892999997139015,1.598399999618536,1.6239999999999952,1.631299999713903,1.6577999997139017,1.6653999996185291,1.6906999998092687,1.6986999998092642,1.7242999997138924,1.7322999997139021,1.7385999999046362,1.7565000000000026,1.7912999997138996,1.7986999998092585,1.8247999997139033,1.8319999999999936,1.8599999999999994,1.8687999997139002,1.8908999996185258,1.897599999904628,1.9265999999046386,1.9336999998092637,1.9560999999046373,1.963399999618531,2.0070999999046393,2.0150000000000006,2.043999999999997,2.0515000000000043,2.0745000000000005,2.0808999996185236,2.1096999998092656,2.1170000000000044,2.1217999997139003,2.1406999998092715,2.179000000000002,2.1861999998092614,2.2080999999046327,2.2157999997138944,2.2439999999999998,2.2517999997138958,2.274699999809272,2.281499999999994,2.309899999618537,2.317999999999998,2.343199999809272,2.3504999999999967,2.3799999999999955,2.395399999618533,2.407899999618536,2.4222999997139,2.442699999809264,2.455199999809267,2.471899999618529,2.500699999809271,2.5065000000000026,2.5220000000000056,2.5426999998092725,2.5552999997138954,2.5720000000000027,2.5952999997139017,2.6052999997138926,2.622,2.6424999999999983,2.6551999998092697,2.6718999996185318,2.6932999997139007,2.7101999998092623,2.7221999998092627,2.742999999999995,2.7553999996185325,2.77219999980926,2.7942999997138998,2.8090999999046318,2.825899999618528,2.843299999713892,2.863899999618525,2.8717999997139003,2.8884999999999934,2.905399999618524,2.925699999809268,2.9420000000000073,2.9587999997139036,2.97669999980927,2.991799999713905,3.0070999999046393,3.0289999999999964,3.0386999998092676,3.055099999904627,3.0720000000000027,3.088399999618531,3.109499999999997,3.1221999998092684,3.1384999999999934,3.155399999618524,3.171699999809263,3.1883999996185253,3.2050999999046326,3.224899999618529,3.2383999996185366,3.2550999999046297,3.2770999999046353,3.2922999997139044,3.3095,3.326499999999996,3.342099999904633,3.3576999998092703,3.3751999998092685,3.392399999618533,3.4080000000000013,3.4247999997138976,3.441199999809271,3.455299999713901,3.4743999996185266,3.490099999904629,3.5049999999999955,3.5220000000000056,3.538399999618534,3.555000000000007,3.5718999996185374,3.5882999997138967,3.6052999997138926,3.6241999998092638,3.6406999998092715,3.655000000000001,3.6718999996185318,3.691500000000005,3.705599999904635,3.722299999713897,3.742299999713893,3.7553999996185325,3.771899999618526,3.792099999904636,3.805099999904627,3.8229999999999933,3.840599999904626,3.857199999809268,3.888999999999996,3.896500000000003,3.907899999618536,3.9410000000000025,3.947899999618528,3.9773999996185267,3.984199999809263,4.0075999999046275,4.015399999618538,4.041699999809268,4.049000000000007,4.072500000000005,4.080199999809267,4.107599999904636,4.115899999618534,4.141299999713894,4.147999999999996,4.1743999996185295,4.181099999904632,4.205699999809269,4.214500000000001,4.239099999904639,4.247099999904634,4.274500000000003,4.281599999904628,4.305799999713898,4.313399999618525,4.339099999904633,4.346500000000006,4.374399999618532,4.382699999809262,4.405799999713892,4.413499999999999,4.439099999904627,4.446599999904635,4.472699999809265,4.480099999904638,4.510799999713896,4.5305000000000035,4.544699999809268,4.554399999618525,4.562399999618535,4.594399999618531,4.602899999618529,4.62689999961853,4.634699999809271,4.659899999618531,4.667299999713904,4.693299999713901,4.700500000000005,4.722599999904631,4.741199999809268,4.7575999999046275,4.766699999809262,4.792099999904636,4.799999999999997,4.824699999809269]","[1732162542507,1732162542551,1732162542569,1732162542587,1732162542602,1732162542619,1732162542637,1732162542658,1732162542676,1732162542689,1732162542704,1732162542719,1732162542735,1732162542752,1732162542769,1732162542785,1732162542802,1732162542819,1732162542835,1732162542852,1732162542869,1732162542885,1732162542902,1732162542919,1732162542939,1732162542952,1732162542969,1732162542985,1732162543002,1732162543019,1732162543035,1732162543052,1732162543069,1732162543085,1732162543104,1732162543119,1732162543135,1732162543152,1732162543172,1732162543185,1732162543202,1732162543219,1732162543239,1732162543252,1732162543269,1732162543289,1732162543302,1732162543322,1732162543336,1732162543354,1732162543369,1732162543387,1732162543405,1732162543422,1732162543439,1732162543454,1732162543469,1732162543485,1732162543502,1732162543522,1732162543536,1732162543552,1732162543569,1732162543588,1732162543602,1732162543619,1732162543635,1732162543652,1732162543669,1732162543689,1732162543705,1732162543719,1732162543735,1732162543755,1732162543770,1732162543789,1732162543805,1732162543819,1732162543835,1732162543854,1732162543872,1732162543885,1732162543922,1732162543929,1732162543955,1732162543962,1732162543988,1732162543995,1732162544021,1732162544028,1732162544055,1732162544064,1732162544086,1732162544095,1732162544121,1732162544128,1732162544155,1732162544162,1732162544187,1732162544195,1732162544221,1732162544229,1732162544235,1732162544253,1732162544288,1732162544295,1732162544322,1732162544329,1732162544357,1732162544366,1732162544388,1732162544394,1732162544423,1732162544430,1732162544453,1732162544460,1732162544504,1732162544512,1732162544541,1732162544548,1732162544571,1732162544578,1732162544606,1732162544614,1732162544619,1732162544637,1732162544676,1732162544683,1732162544705,1732162544713,1732162544741,1732162544749,1732162544771,1732162544778,1732162544807,1732162544815,1732162544840,1732162544847,1732162544877,1732162544892,1732162544905,1732162544919,1732162544940,1732162544952,1732162544969,1732162544997,1732162545003,1732162545019,1732162545040,1732162545052,1732162545069,1732162545092,1732162545102,1732162545119,1732162545139,1732162545152,1732162545169,1732162545190,1732162545207,1732162545219,1732162545240,1732162545252,1732162545269,1732162545291,1732162545306,1732162545323,1732162545340,1732162545361,1732162545369,1732162545385,1732162545402,1732162545423,1732162545439,1732162545456,1732162545474,1732162545489,1732162545504,1732162545526,1732162545536,1732162545552,1732162545569,1732162545585,1732162545606,1732162545619,1732162545635,1732162545652,1732162545669,1732162545685,1732162545702,1732162545722,1732162545735,1732162545752,1732162545774,1732162545789,1732162545806,1732162545823,1732162545839,1732162545854,1732162545872,1732162545889,1732162545905,1732162545922,1732162545938,1732162545952,1732162545971,1732162545987,1732162546002,1732162546019,1732162546035,1732162546052,1732162546069,1732162546085,1732162546102,1732162546121,1732162546137,1732162546152,1732162546169,1732162546188,1732162546202,1732162546219,1732162546239,1732162546252,1732162546269,1732162546289,1732162546302,1732162546320,1732162546337,1732162546354,1732162546386,1732162546393,1732162546405,1732162546438,1732162546445,1732162546474,1732162546481,1732162546504,1732162546512,1732162546538,1732162546546,1732162546569,1732162546577,1732162546604,1732162546613,1732162546638,1732162546645,1732162546671,1732162546678,1732162546703,1732162546711,1732162546736,1732162546744,1732162546771,1732162546778,1732162546803,1732162546810,1732162546836,1732162546843,1732162546871,1732162546880,1732162546903,1732162546910,1732162546936,1732162546943,1732162546969,1732162546977,1732162547008,1732162547027,1732162547041,1732162547051,1732162547059,1732162547091,1732162547100,1732162547124,1732162547131,1732162547157,1732162547164,1732162547190,1732162547197,1732162547219,1732162547238,1732162547254,1732162547263,1732162547289,1732162547297,1732162547322]","[[511.9,331.7],[511.9,331.7],[506.1,306.5],[501.7,259.3],[501.7,259.3],[483.2,230],[461.6,201.1],[420.1,186.7],[420.1,186.7],[385.2,175.9],[369,180.6],[369,180.6],[383.7,182.9],[386,203],[388.6,198.5],[375.3,203.3],[375.3,203.3],[343.6,226.9],[343.6,226.9],[324.9,256.5],[324.9,256.5],[334.3,269],[334.3,269],[353.1,262.5],[371,260.4],[371,260.4],[373.2,272.7],[373.2,272.7],[385.4,266.8],[385.4,266.8],[386.5,281],[377,306.6],[388.2,322.4],[397.9,343.1],[399.6,326.9],[399.6,326.9],[400.5,332.8],[398.4,353],[399.6,387.8],[399.6,387.8],[467.2,405.4],[467.2,405.4],[507.9,412.3],[507.9,412.3],[572.7,425],[667,427.2],[737,447.1],[819.2,457.1],[885.5,489.7],[937.3,517.5],[974.1,529.6],[995.8,530.1],[953.2,530.7],[957.9,549.4],[949.8,540.1],[887,549.4],[880.9,536.9],[862.6,534.3],[843.5,553.2],[843.5,553.2],[842.8,545.8],[857.5,525.9],[866.9,503.5],[875.5,488.4],[863.4,492],[857.9,485.3],[857.9,485.3],[899.7,467.8],[904.9,485.2],[905.9,489.6],[913.8,472.9],[913.8,472.9],[893.9,472.5],[809,496.4],[821,488.6],[820.9,486.4],[821.2,472.7],[821.2,472.7],[835.3,474.3],[808.7,484.7],[779.9,461.6],[773.6,455.5],[780.7,445.2],[780.7,445.2],[809.5,436.3],[809.5,436.3],[923.4,408.1],[923.4,408.1],[913.9,428],[913.9,428],[920.9,445.7],[920.9,445.7],[930.7,457.1],[930.7,457.1],[929.3,468.2],[929.3,468.2],[910.1,493],[910.1,493],[924.7,520.9],[924.7,520.9],[941.9,528.7],[941.9,528.7],[941.9,528.7],[941.9,528.7],[991.1,543.1],[991.1,543.1],[1023.6,562.6],[1023.6,562.6],[1030.7,583.7],[1030.7,583.7],[1027.3,615.4],[1027.3,615.4],[1012.9,640],[1012.9,640],[1010,643.4],[1010,643.4],[995.4,644.6],[995.4,644.6],[1040.7,632.6],[1040.7,632.6],[1039.1,591.1],[1039.1,591.1],[1016.6,565.7],[1016.6,565.7],[1016.6,565.7],[1016.6,565.7],[967.6,544.5],[967.6,544.5],[916,517.2],[916,517.2],[891,498.4],[891,498.4],[909.7,462.6],[909.7,462.6],[935.8,443.6],[935.8,443.6],[930.6,430.2],[930.6,430.2],[949,395.9],[949,395.9],[919.9,356.5],[919.9,356.5],[917.1,349.5],[917.1,349.5],[910.6,344.3],[910.6,344.3],[898,332.5],[898,332.5],[891.8,320.2],[891.8,320.2],[877,313.2],[877,313.2],[858.4,289.7],[858.4,289.7],[846.4,244.5],[846.4,244.5],[842.6,228.6],[811.3,249.2],[816.9,245.5],[816.9,245.5],[815.7,238.5],[815.7,238.5],[850.4,251.3],[854.9,288.8],[885.9,292.7],[912.4,284.3],[943,281.8],[966.2,287.9],[966.2,287.9],[972,291.8],[972,291.8],[974.2,274.1],[966.6,274],[935.1,282],[901.4,284.2],[893.2,238.4],[860.1,230.6],[810.1,225.2],[810.1,225.2],[770.6,211.5],[770.6,211.5],[721.7,224.9],[708.3,212.8],[708.3,212.8],[701.3,231.4],[701.3,231.4],[710,295.6],[710,295.6],[717.9,340.3],[717.7,358.9],[717.7,358.9],[758.3,385.3],[758.6,406.9],[820.4,402.4],[870,409.3],[919.6,394.9],[957,427],[1019.9,462.2],[1065.2,459.9],[1135.2,469],[1174.7,456.2],[1180.7,454.8],[1226.7,436.5],[1253.5,479.2],[1244.3,506.3],[1244.5,527.6],[1272,534.1],[1260,522.5],[1261.6,503.4],[1246.3,493.7],[1222.9,503.2],[1199.5,512.7],[1169.8,539.4],[1139.4,551.8],[1115.2,599.8],[1086.2,636.9],[1039,673.3],[1010.2,675],[965.6,686.3],[937.9,688.2],[935.1,715.8],[935.1,715.8],[920.6,721.8],[903.9,753.9],[903.9,753.9],[903.9,753.9],[903.9,753.9],[903.9,753.9],[862,737.7],[862,737.7],[862,737.7],[846.4,705.4],[846.4,705.4],[838.2,697.1],[838.2,697.1],[804.1,632.6],[804.1,632.6],[775.4,579.4],[775.4,579.4],[760.2,511.7],[760.2,511.7],[742.6,440.5],[742.6,440.5],[697.6,365.7],[697.6,365.7],[668.7,319],[668.7,319],[635.3,251.9],[635.3,251.9],[608.3,197.2],[608.3,197.2],[578.1,100.8],[578.1,100.8],[564.2,31.4],[564.2,31.4],[560.6,17.6],[560.6,17.6],[545.1,17.2],[545.1,17.2],[487.9,26.9],[487.9,26.9],[458.8,34],[458.8,34],[448.4,26.5],[448.4,26.5],[411.9,30.7],[411.9,30.7],[427.6,29.3],[427.6,29.3],[427.6,29.3],[389.6,47.2],[389.6,47.2],[375.7,97.9],[375.7,97.9],[336.9,117.4],[336.9,117.4],[299.3,115.8],[299.3,115.8],[315.5,101.7],[315.5,101.7],[316.9,133.5],[316.9,133.5],[350,154],[350,154],[395.9,244.1]]","[-0.2,0.6000000000000001]","[0.2,0.6000000000000001]","[0.6000000000000001,0.6000000000000001]","[-0.6000000000000001,0.2]","[-0.6000000000000001,-0.6000000000000001]","[-0.6000000000000001,-0.2]","[-0.2,0.2]","[0.2,0.2]","[0.6000000000000001,0.2]","[-0.2,-0.6000000000000001]","[0.2,-0.6000000000000001]","[0.6000000000000001,-0.6000000000000001]","[-0.2,-0.2]","[0.2,-0.2]","[0.6000000000000001,-0.2]",0,0,0,0,1,2,Monitor,15,20,8,3,70,4,3,60,4
