inst1_resp.keys,inst1_resp.rt,calibrationMouse.x,calibrationMouse.y,calibrationMouse.leftButton,calibrationMouse.midButton,calibrationMouse.rightButton,calibrationClick.x,calibrationClick.y,calibrationClick.leftButton,calibrationClick.midButton,calibrationClick.rightButton,calibrationClick.clicked_name,trialsc.thisRepN,trialsc.thisTrialN,trialsc.thisN,trialsc.thisIndex,trialsc.ran,calibration_x,calibration_y,participant,session,date,expName,psychopyVersion,OS,frameRate,ScreenRes_pixels,Camera_pixels,mouse_2.x,mouse_2.y,mouse_2.leftButton,mouse_2.midButton,mouse_2.rightButton,mouse_2.time,mouse_2.clicked_name,mouse.x,mouse.y,mouse.leftButton,mouse.midButton,mouse.rightButton,mouse.time,mouse.clicked_name,Choice,Trial,TrialDuration,MOUSE_GAZE,ET_GAZE,ET_GAZE_x_T,time,unixTime,ET_GAZE_NF,Loc_Bus_label,Loc_Metro_label,Loc_RH_label,Loc_Cost_label,Loc_Travel_label,Loc_Comfort_label,Loc_Bus_cost,Loc_Metro_cost,Loc_RH_cost,Loc_Bus_travel,Loc_Metro_travel,Loc_RH_travel,Loc_Bus_comfort,Loc_Metro_comfort,Loc_RH_comfort,trials.thisRepN,trials.thisTrialN,trials.thisN,trials.thisIndex,trials.ran,Block,Device,RH_cost,RH_travel_time,RH_Comfort,metro_cost,metro_travel_time,metro_Comfort,Bus_cost,Bus_travel_time,Bus_Comfort
space,2.0601,-0.183333333,-0.077777778,1,0,0,-0.670833333,-0.32962963,1,0,0,calibration_square,0,0,0,1,1,-0.67,-0.33,32,001,2024-11-18_11h16.19.586,Attention_exp_legacy,2023.1.0,Win32,59.88023952,,,,,,,,,,,,,,,,,,,,,,,,,,,,,,,,,,,,,,,,,,,,,,,,,,,,,,,,
,,,,,,,0.333333333,-0.672222222,1,0,0,calibration_square,0,1,1,14,1,0.33,-0.67,32,001,2024-11-18_11h16.19.586,Attention_exp_legacy,2023.1.0,Win32,59.88023952,,,,,,,,,,,,,,,,,,,,,,,,,,,,,,,,,,,,,,,,,,,,,,,,,,,,,,,,
,,,,,,,-0.002083333,-0.662962963,1,0,0,calibration_square,0,2,2,9,1,0,-0.67,32,001,2024-11-18_11h16.19.586,Attention_exp_legacy,2023.1.0,Win32,59.88023952,,,,,,,,,,,,,,,,,,,,,,,,,,,,,,,,,,,,,,,,,,,,,,,,,,,,,,,,
,,,,,,,-0.330208333,0.674074074,1,0,0,calibration_square,0,3,3,8,1,-0.33,0.67,32,001,2024-11-18_11h16.19.586,Attention_exp_legacy,2023.1.0,Win32,59.88023952,,,,,,,,,,,,,,,,,,,,,,,,,,,,,,,,,,,,,,,,,,,,,,,,,,,,,,,,
,,,,,,,-0.333333333,-0.32962963,1,0,0,calibration_square,0,4,4,5,1,-0.33,-0.33,32,001,2024-11-18_11h16.19.586,Attention_exp_legacy,2023.1.0,Win32,59.88023952,,,,,,,,,,,,,,,,,,,,,,,,,,,,,,,,,,,,,,,,,,,,,,,,,,,,,,,,
,,,,,,,0.680208333,0.662962963,1,0,0,,0,5,5,19,1,0.67,0.67,32,001,2024-11-18_11h16.19.586,Attention_exp_legacy,2023.1.0,Win32,59.88023952,,,,,,,,,,,,,,,,,,,,,,,,,,,,,,,,,,,,,,,,,,,,,,,,,,,,,,,,
,,,,,,,0.325,0.674074074,1,0,0,calibration_square,0,6,6,18,1,0.33,0.67,32,001,2024-11-18_11h16.19.586,Attention_exp_legacy,2023.1.0,Win32,59.88023952,,,,,,,,,,,,,,,,,,,,,,,,,,,,,,,,,,,,,,,,,,,,,,,,,,,,,,,,
,,,,,,,0.003125,0.009259259,1,0,0,calibration_square,0,7,7,11,1,0,0,32,001,2024-11-18_11h16.19.586,Attention_exp_legacy,2023.1.0,Win32,59.88023952,,,,,,,,,,,,,,,,,,,,,,,,,,,,,,,,,,,,,,,,,,,,,,,,,,,,,,,,
,,,,,,,-0.672916667,0.331481481,1,0,0,calibration_square,0,8,8,3,1,-0.67,0.33,32,001,2024-11-18_11h16.19.586,Attention_exp_legacy,2023.1.0,Win32,59.88023952,,,,,,,,,,,,,,,,,,,,,,,,,,,,,,,,,,,,,,,,,,,,,,,,,,,,,,,,
,,,,,,,-0.335416667,0,1,0,0,calibration_square,0,9,9,6,1,-0.33,0,32,001,2024-11-18_11h16.19.586,Attention_exp_legacy,2023.1.0,Win32,59.88023952,,,,,,,,,,,,,,,,,,,,,,,,,,,,,,,,,,,,,,,,,,,,,,,,,,,,,,,,
,,,,,,,-0.680208333,-0.672222222,1,0,0,,0,10,10,0,1,-0.67,-0.67,32,001,2024-11-18_11h16.19.586,Attention_exp_legacy,2023.1.0,Win32,59.88023952,,,,,,,,,,,,,,,,,,,,,,,,,,,,,,,,,,,,,,,,,,,,,,,,,,,,,,,,
,,,,,,,0.328125,-0.005555556,1,0,0,calibration_square,0,11,11,16,1,0.33,0,32,001,2024-11-18_11h16.19.586,Attention_exp_legacy,2023.1.0,Win32,59.88023952,,,,,,,,,,,,,,,,,,,,,,,,,,,,,,,,,,,,,,,,,,,,,,,,,,,,,,,,
,,,,,,,-0.33125,-0.662962963,1,0,0,calibration_square,0,12,12,4,1,-0.33,-0.67,32,001,2024-11-18_11h16.19.586,Attention_exp_legacy,2023.1.0,Win32,59.88023952,,,,,,,,,,,,,,,,,,,,,,,,,,,,,,,,,,,,,,,,,,,,,,,,,,,,,,,,
,,,,,,,0.008333333,0.662962963,1,0,0,calibration_square,0,13,13,13,1,0,0.67,32,001,2024-11-18_11h16.19.586,Attention_exp_legacy,2023.1.0,Win32,59.88023952,,,,,,,,,,,,,,,,,,,,,,,,,,,,,,,,,,,,,,,,,,,,,,,,,,,,,,,,
,,,,,,,-0.003125,-0.327777778,1,0,0,calibration_square,0,14,14,10,1,0,-0.33,32,001,2024-11-18_11h16.19.586,Attention_exp_legacy,2023.1.0,Win32,59.88023952,,,,,,,,,,,,,,,,,,,,,,,,,,,,,,,,,,,,,,,,,,,,,,,,,,,,,,,,
,,,,,,,-0.673958333,-0.003703704,1,0,0,calibration_square,0,15,15,2,1,-0.67,0,32,001,2024-11-18_11h16.19.586,Attention_exp_legacy,2023.1.0,Win32,59.88023952,,,,,,,,,,,,,,,,,,,,,,,,,,,,,,,,,,,,,,,,,,,,,,,,,,,,,,,,
,,,,,,,0.327083333,-0.327777778,1,0,0,calibration_square,0,16,16,15,1,0.33,-0.33,32,001,2024-11-18_11h16.19.586,Attention_exp_legacy,2023.1.0,Win32,59.88023952,,,,,,,,,,,,,,,,,,,,,,,,,,,,,,,,,,,,,,,,,,,,,,,,,,,,,,,,
,,,,,,,0.666666667,-0.677777778,1,0,0,calibration_square,0,17,17,20,1,0.67,-0.67,32,001,2024-11-18_11h16.19.586,Attention_exp_legacy,2023.1.0,Win32,59.88023952,,,,,,,,,,,,,,,,,,,,,,,,,,,,,,,,,,,,,,,,,,,,,,,,,,,,,,,,
,,,,,,,0.328125,0.335185185,1,0,0,calibration_square,0,18,18,17,1,0.33,0.33,32,001,2024-11-18_11h16.19.586,Attention_exp_legacy,2023.1.0,Win32,59.88023952,,,,,,,,,,,,,,,,,,,,,,,,,,,,,,,,,,,,,,,,,,,,,,,,,,,,,,,,
,,,,,,,0.001041667,0.335185185,1,0,0,calibration_square,0,19,19,12,1,0,0.33,32,001,2024-11-18_11h16.19.586,Attention_exp_legacy,2023.1.0,Win32,59.88023952,,,,,,,,,,,,,,,,,,,,,,,,,,,,,,,,,,,,,,,,,,,,,,,,,,,,,,,,
,,,,,,,-0.341666667,0.327777778,1,0,0,,0,20,20,7,1,-0.33,0.33,32,001,2024-11-18_11h16.19.586,Attention_exp_legacy,2023.1.0,Win32,59.88023952,,,,,,,,,,,,,,,,,,,,,,,,,,,,,,,,,,,,,,,,,,,,,,,,,,,,,,,,
,,,,,,,,,,,,,,,,,,,,32,001,2024-11-18_11h16.19.586,Attention_exp_legacy,2023.1.0,Win32,59.88023952,"[1920,1080]","[640,480]",[0.019791666666666666],[-0.524074074074074],[1],[0],[0],[2.2258000001907305],"[""StartButton""]",[0.19375],[0.6185185185185185],[1],[0],[0],[6.902699999809258],"[""Metro_label""]",Metro_label,1,7.9272,"[[0.44479166666666664,-0.016666666666666666],[0.44479166666666664,-0.016666666666666666],[0.44479166666666664,-0.016666666666666666],[0.44479166666666664,-0.016666666666666666],[0.44479166666666664,-0.016666666666666666],[0.44479166666666664,-0.016666666666666666],[0.44479166666666664,-0.016666666666666666],[0.44479166666666664,-0.016666666666666666],[0.44479166666666664,-0.016666666666666666],[0.44479166666666664,-0.016666666666666666],[0.44479166666666664,-0.016666666666666666],[0.44479166666666664,-0.016666666666666666],[0.44479166666666664,-0.016666666666666666],[0.44479166666666664,-0.016666666666666666],[0.44479166666666664,-0.016666666666666666],[0.44479166666666664,-0.016666666666666666],[0.44479166666666664,-0.016666666666666666],[0.44479166666666664,-0.016666666666666666],[0.44479166666666664,-0.016666666666666666],[0.44479166666666664,-0.016666666666666666],[0.44479166666666664,-0.016666666666666666],[0.44479166666666664,-0.016666666666666666],[0.44479166666666664,-0.016666666666666666],[0.44479166666666664,-0.016666666666666666],[0.44479166666666664,-0.016666666666666666],[0.44479166666666664,-0.016666666666666666],[0.44479166666666664,-0.016666666666666666],[0.44479166666666664,-0.016666666666666666],[0.44479166666666664,-0.016666666666666666],[0.44479166666666664,-0.016666666666666666],[0.44479166666666664,-0.016666666666666666],[0.44479166666666664,-0.016666666666666666],[0.44479166666666664,-0.016666666666666666],[0.44479166666666664,-0.016666666666666666],[0.44479166666666664,-0.016666666666666666],[0.44479166666666664,-0.016666666666666666],[0.44479166666666664,-0.016666666666666666],[0.44479166666666664,-0.016666666666666666],[0.44479166666666664,-0.016666666666666666],[0.44479166666666664,-0.016666666666666666],[0.44479166666666664,-0.016666666666666666],[0.44479166666666664,-0.016666666666666666],[0.44479166666666664,-0.016666666666666666],[0.44479166666666664,-0.016666666666666666],[0.44479166666666664,-0.016666666666666666],[0.44479166666666664,-0.016666666666666666],[0.44479166666666664,-0.016666666666666666],[0.44479166666666664,-0.016666666666666666],[0.44479166666666664,-0.016666666666666666],[0.44479166666666664,-0.016666666666666666],[0.44479166666666664,-0.016666666666666666],[0.44479166666666664,-0.016666666666666666],[0.44479166666666664,-0.016666666666666666],[0.44479166666666664,-0.016666666666666666],[0.44479166666666664,-0.016666666666666666],[0.44479166666666664,-0.016666666666666666],[0.44479166666666664,-0.016666666666666666],[0.44479166666666664,-0.016666666666666666],[0.44479166666666664,-0.016666666666666666],[0.44479166666666664,-0.016666666666666666],[0.44479166666666664,-0.016666666666666666],[0.44479166666666664,-0.016666666666666666],[0.44479166666666664,-0.016666666666666666],[0.44479166666666664,-0.016666666666666666],[0.44479166666666664,-0.016666666666666666],[0.44479166666666664,-0.016666666666666666],[0.44479166666666664,-0.016666666666666666],[0.44479166666666664,-0.016666666666666666],[0.44479166666666664,-0.016666666666666666],[0.44479166666666664,-0.016666666666666666],[0.44479166666666664,-0.016666666666666666],[0.44479166666666664,-0.016666666666666666],[0.44479166666666664,-0.016666666666666666],[0.44479166666666664,-0.016666666666666666],[0.44479166666666664,-0.016666666666666666],[0.44479166666666664,-0.016666666666666666],[0.44479166666666664,-0.016666666666666666],[0.44479166666666664,-0.016666666666666666],[0.44479166666666664,-0.016666666666666666],[0.44375,-0.016666666666666666],[0.44375,-0.016666666666666666],[0.44375,-0.016666666666666666],[0.44375,-0.016666666666666666],[0.4427083333333333,-0.016666666666666666],[0.4427083333333333,-0.016666666666666666],[0.4427083333333333,-0.016666666666666666],[0.4427083333333333,-0.016666666666666666],[0.44166666666666665,-0.016666666666666666],[0.44166666666666665,-0.016666666666666666],[0.44166666666666665,-0.016666666666666666],[0.44166666666666665,-0.016666666666666666],[0.44166666666666665,-0.016666666666666666],[0.44166666666666665,-0.016666666666666666],[0.44166666666666665,-0.016666666666666666],[0.44166666666666665,-0.016666666666666666],[0.44166666666666665,-0.016666666666666666],[0.44166666666666665,-0.016666666666666666],[0.44166666666666665,-0.016666666666666666],[0.44166666666666665,-0.016666666666666666],[0.44166666666666665,-0.016666666666666666],[0.44166666666666665,-0.016666666666666666],[0.44166666666666665,-0.016666666666666666],[0.44166666666666665,-0.016666666666666666],[0.440625,-0.016666666666666666],[0.440625,-0.016666666666666666],[0.440625,-0.016666666666666666],[0.4395833333333333,-0.016666666666666666],[0.43854166666666666,-0.016666666666666666],[0.43854166666666666,-0.016666666666666666],[0.43854166666666666,-0.016666666666666666],[0.43854166666666666,-0.016666666666666666],[0.43854166666666666,-0.016666666666666666],[0.43854166666666666,-0.016666666666666666],[0.43854166666666666,-0.016666666666666666],[0.43854166666666666,-0.016666666666666666],[0.43854166666666666,-0.016666666666666666],[0.4375,-0.016666666666666666],[0.43645833333333334,-0.016666666666666666],[0.4354166666666667,-0.016666666666666666],[0.4354166666666667,-0.016666666666666666],[0.434375,-0.016666666666666666],[0.434375,-0.016666666666666666],[0.43333333333333335,-0.016666666666666666],[0.4322916666666667,-0.016666666666666666],[0.4322916666666667,-0.016666666666666666],[0.43125,-0.016666666666666666],[0.43125,-0.016666666666666666],[0.43020833333333336,-0.016666666666666666],[0.42916666666666664,-0.016666666666666666],[0.42916666666666664,-0.016666666666666666],[0.42916666666666664,-0.016666666666666666],[0.42916666666666664,-0.016666666666666666],[0.42916666666666664,-0.016666666666666666],[0.428125,-0.016666666666666666],[0.428125,-0.016666666666666666],[0.428125,-0.016666666666666666],[0.4270833333333333,-0.016666666666666666],[0.4270833333333333,-0.016666666666666666],[0.4270833333333333,-0.016666666666666666],[0.4270833333333333,-0.016666666666666666],[0.4270833333333333,-0.016666666666666666],[0.4270833333333333,-0.016666666666666666],[0.4270833333333333,-0.016666666666666666],[0.4270833333333333,-0.016666666666666666],[0.4270833333333333,-0.016666666666666666],[0.4270833333333333,-0.016666666666666666],[0.4270833333333333,-0.016666666666666666],[0.4270833333333333,-0.016666666666666666],[0.4270833333333333,-0.016666666666666666],[0.42604166666666665,-0.016666666666666666],[0.42604166666666665,-0.016666666666666666],[0.425,-0.016666666666666666],[0.425,-0.016666666666666666],[0.425,-0.016666666666666666],[0.4239583333333333,-0.016666666666666666],[0.4239583333333333,-0.016666666666666666],[0.4239583333333333,-0.016666666666666666],[0.4239583333333333,-0.016666666666666666],[0.4239583333333333,-0.016666666666666666],[0.4239583333333333,-0.016666666666666666],[0.4239583333333333,-0.016666666666666666],[0.4239583333333333,-0.016666666666666666],[0.4239583333333333,-0.016666666666666666],[0.4239583333333333,-0.016666666666666666],[0.4239583333333333,-0.016666666666666666],[0.4239583333333333,-0.016666666666666666],[0.4239583333333333,-0.016666666666666666],[0.4239583333333333,-0.016666666666666666],[0.4239583333333333,-0.016666666666666666],[0.4239583333333333,-0.016666666666666666],[0.4239583333333333,-0.016666666666666666],[0.4239583333333333,-0.016666666666666666],[0.4239583333333333,-0.016666666666666666],[0.4239583333333333,-0.016666666666666666],[0.4239583333333333,-0.016666666666666666],[0.4239583333333333,-0.016666666666666666],[0.4239583333333333,-0.016666666666666666],[0.4239583333333333,-0.016666666666666666],[0.4239583333333333,-0.016666666666666666],[0.4239583333333333,-0.016666666666666666],[0.4239583333333333,-0.016666666666666666],[0.4239583333333333,-0.016666666666666666],[0.4239583333333333,-0.016666666666666666],[0.4239583333333333,-0.016666666666666666],[0.4239583333333333,-0.016666666666666666],[0.4239583333333333,-0.016666666666666666],[0.4239583333333333,-0.016666666666666666],[0.4239583333333333,-0.016666666666666666],[0.4239583333333333,-0.016666666666666666],[0.4239583333333333,-0.016666666666666666],[0.4239583333333333,-0.016666666666666666],[0.4239583333333333,-0.016666666666666666],[0.4239583333333333,-0.016666666666666666],[0.4239583333333333,-0.016666666666666666],[0.4239583333333333,-0.016666666666666666],[0.4239583333333333,-0.016666666666666666],[0.4239583333333333,-0.016666666666666666],[0.4239583333333333,-0.016666666666666666],[0.4239583333333333,-0.016666666666666666],[0.4239583333333333,-0.016666666666666666],[0.4239583333333333,-0.016666666666666666],[0.4239583333333333,-0.016666666666666666],[0.4239583333333333,-0.016666666666666666],[0.4239583333333333,-0.016666666666666666],[0.4239583333333333,-0.016666666666666666],[0.4239583333333333,-0.016666666666666666],[0.4239583333333333,-0.016666666666666666],[0.4239583333333333,-0.016666666666666666],[0.4239583333333333,-0.016666666666666666],[0.4239583333333333,-0.016666666666666666],[0.4239583333333333,-0.016666666666666666],[0.4239583333333333,-0.016666666666666666],[0.4239583333333333,-0.016666666666666666],[0.4239583333333333,-0.016666666666666666],[0.4239583333333333,-0.016666666666666666],[0.4239583333333333,-0.016666666666666666],[0.4239583333333333,-0.016666666666666666],[0.4239583333333333,-0.016666666666666666],[0.4239583333333333,-0.016666666666666666],[0.4239583333333333,-0.016666666666666666],[0.4239583333333333,-0.016666666666666666],[0.4239583333333333,-0.016666666666666666],[0.4239583333333333,-0.016666666666666666],[0.4239583333333333,-0.016666666666666666],[0.4239583333333333,-0.016666666666666666],[0.4239583333333333,-0.016666666666666666],[0.4239583333333333,-0.016666666666666666],[0.4239583333333333,-0.016666666666666666],[0.4239583333333333,-0.016666666666666666],[0.4239583333333333,-0.016666666666666666],[0.4239583333333333,-0.016666666666666666],[0.4239583333333333,-0.016666666666666666],[0.4239583333333333,-0.016666666666666666],[0.4239583333333333,-0.016666666666666666],[0.4239583333333333,-0.016666666666666666],[0.4239583333333333,-0.016666666666666666],[0.4239583333333333,-0.016666666666666666],[0.4239583333333333,-0.016666666666666666],[0.4239583333333333,-0.016666666666666666],[0.4239583333333333,-0.016666666666666666],[0.4239583333333333,-0.016666666666666666],[0.4239583333333333,-0.016666666666666666],[0.4239583333333333,-0.016666666666666666],[0.4239583333333333,-0.016666666666666666],[0.4239583333333333,-0.016666666666666666],[0.4239583333333333,-0.016666666666666666],[0.4239583333333333,-0.016666666666666666],[0.4239583333333333,-0.016666666666666666],[0.4239583333333333,-0.016666666666666666],[0.4239583333333333,-0.016666666666666666],[0.4239583333333333,-0.016666666666666666],[0.4239583333333333,-0.016666666666666666],[0.4239583333333333,-0.016666666666666666],[0.4239583333333333,-0.016666666666666666],[0.4239583333333333,-0.016666666666666666],[0.4239583333333333,-0.016666666666666666],[0.4239583333333333,-0.016666666666666666],[0.4239583333333333,-0.016666666666666666],[0.4239583333333333,-0.016666666666666666],[0.4239583333333333,-0.016666666666666666],[0.4239583333333333,-0.016666666666666666],[0.4239583333333333,-0.016666666666666666],[0.4239583333333333,-0.016666666666666666],[0.4239583333333333,-0.016666666666666666],[0.4239583333333333,-0.016666666666666666],[0.4239583333333333,-0.016666666666666666],[0.4239583333333333,-0.016666666666666666],[0.4239583333333333,-0.016666666666666666],[0.4239583333333333,-0.016666666666666666],[0.4239583333333333,-0.016666666666666666],[0.4239583333333333,-0.016666666666666666],[0.4239583333333333,-0.016666666666666666],[0.4239583333333333,-0.016666666666666666],[0.4239583333333333,-0.016666666666666666],[0.4239583333333333,-0.016666666666666666],[0.4239583333333333,-0.016666666666666666],[0.4239583333333333,-0.016666666666666666],[0.4239583333333333,-0.016666666666666666],[0.4239583333333333,-0.016666666666666666],[0.4239583333333333,-0.016666666666666666],[0.4239583333333333,-0.016666666666666666],[0.4239583333333333,-0.016666666666666666],[0.4239583333333333,-0.016666666666666666],[0.4239583333333333,-0.016666666666666666],[0.4239583333333333,-0.016666666666666666],[0.4239583333333333,-0.016666666666666666],[0.4239583333333333,-0.016666666666666666],[0.4239583333333333,-0.016666666666666666],[0.4239583333333333,-0.016666666666666666],[0.4239583333333333,-0.016666666666666666],[0.4239583333333333,-0.016666666666666666],[0.4239583333333333,-0.016666666666666666],[0.4239583333333333,-0.016666666666666666],[0.4239583333333333,-0.016666666666666666],[0.4239583333333333,-0.016666666666666666],[0.4239583333333333,-0.016666666666666666],[0.4239583333333333,-0.016666666666666666],[0.4239583333333333,-0.016666666666666666],[0.4239583333333333,-0.016666666666666666],[0.4239583333333333,-0.016666666666666666],[0.4239583333333333,-0.016666666666666666],[0.4239583333333333,-0.016666666666666666],[0.4239583333333333,-0.016666666666666666],[0.4239583333333333,-0.016666666666666666],[0.4239583333333333,-0.016666666666666666],[0.4239583333333333,-0.016666666666666666],[0.4239583333333333,-0.016666666666666666],[0.4239583333333333,-0.016666666666666666],[0.4239583333333333,-0.016666666666666666],[0.4239583333333333,-0.016666666666666666],[0.4239583333333333,-0.016666666666666666],[0.4239583333333333,-0.016666666666666666],[0.4239583333333333,-0.016666666666666666],[0.4239583333333333,-0.016666666666666666],[0.4239583333333333,-0.016666666666666666],[0.4239583333333333,-0.016666666666666666],[0.4239583333333333,-0.016666666666666666],[0.4239583333333333,-0.016666666666666666],[0.4239583333333333,-0.016666666666666666],[0.4239583333333333,-0.016666666666666666],[0.4239583333333333,-0.016666666666666666],[0.4239583333333333,-0.016666666666666666],[0.4239583333333333,-0.016666666666666666],[0.4239583333333333,-0.016666666666666666],[0.4239583333333333,-0.016666666666666666],[0.4239583333333333,-0.016666666666666666],[0.4239583333333333,-0.016666666666666666],[0.4239583333333333,-0.016666666666666666],[0.4239583333333333,-0.016666666666666666],[0.4239583333333333,-0.016666666666666666],[0.4239583333333333,-0.016666666666666666],[0.4239583333333333,-0.016666666666666666],[0.4239583333333333,-0.016666666666666666],[0.4239583333333333,-0.016666666666666666],[0.4239583333333333,-0.016666666666666666],[0.4239583333333333,-0.016666666666666666],[0.4239583333333333,-0.016666666666666666],[0.4239583333333333,-0.016666666666666666],[0.4239583333333333,-0.016666666666666666],[0.4239583333333333,-0.016666666666666666],[0.4239583333333333,-0.016666666666666666],[0.4239583333333333,-0.016666666666666666],[0.4239583333333333,-0.016666666666666666],[0.4239583333333333,-0.016666666666666666],[0.4239583333333333,-0.016666666666666666],[0.4239583333333333,-0.016666666666666666],[0.4239583333333333,-0.016666666666666666],[0.4239583333333333,-0.016666666666666666],[0.4239583333333333,-0.016666666666666666],[0.4239583333333333,-0.016666666666666666],[0.4239583333333333,-0.016666666666666666],[0.4239583333333333,-0.016666666666666666],[0.4239583333333333,-0.016666666666666666],[0.4239583333333333,-0.016666666666666666],[0.4239583333333333,-0.016666666666666666],[0.4239583333333333,-0.016666666666666666],[0.4239583333333333,-0.016666666666666666],[0.4239583333333333,-0.016666666666666666],[0.4239583333333333,-0.016666666666666666],[0.4239583333333333,-0.016666666666666666],[0.4239583333333333,-0.016666666666666666],[0.4239583333333333,-0.016666666666666666],[0.4239583333333333,-0.016666666666666666],[0.4239583333333333,-0.016666666666666666],[0.4239583333333333,-0.016666666666666666],[0.4239583333333333,-0.016666666666666666],[0.4239583333333333,-0.016666666666666666],[0.4239583333333333,-0.016666666666666666],[0.4239583333333333,-0.016666666666666666],[0.4239583333333333,-0.016666666666666666],[0.4239583333333333,-0.016666666666666666],[0.4239583333333333,-0.016666666666666666],[0.4239583333333333,-0.016666666666666666],[0.4,0.08148148148148149],[0.30416666666666664,0.34629629629629627],[0.18958333333333333,0.5944444444444444],[0.125,0.7037037037037037],[0.11458333333333333,0.7222222222222222],[0.11354166666666667,0.725925925925926],[0.11354166666666667,0.725925925925926],[0.11145833333333334,0.7185185185185186],[0.10729166666666666,0.7111111111111111],[0.10416666666666667,0.7018518518518518],[0.103125,0.6888888888888889],[0.103125,0.674074074074074],[0.10520833333333333,0.6537037037037037],[0.11875,0.6185185185185185],[0.13854166666666667,0.5777777777777777],[0.16145833333333334,0.5333333333333333],[0.18541666666666667,0.4962962962962963],[0.20208333333333334,0.48518518518518516],[0.20520833333333333,0.5037037037037037],[0.20520833333333333,0.5611111111111111],[0.19583333333333333,0.6240740740740741],[0.18333333333333332,0.6648148148148149],[0.178125,0.6814814814814815],[0.178125,0.6814814814814815],[0.17708333333333334,0.6814814814814815],[0.17604166666666668,0.6796296296296296],[0.17395833333333333,0.6703703703703704],[0.17395833333333333,0.6648148148148149],[0.17395833333333333,0.6611111111111111],[0.17395833333333333,0.6555555555555556],[0.17395833333333333,0.6555555555555556],[0.17395833333333333,0.65],[0.17395833333333333,0.6425925925925926],[0.17708333333333334,0.6296296296296297],[0.18229166666666666,0.6240740740740741],[0.1875,0.6203703703703703],[0.19166666666666668,0.6203703703703703],[0.19270833333333334,0.6203703703703703],[0.19375,0.6185185185185185],[0.19375,0.6185185185185185],[0.19375,0.6185185185185185],[0.19479166666666667,0.6185185185185185],[0.19479166666666667,0.6185185185185185],[0.19479166666666667,0.6185185185185185],[0.19479166666666667,0.6185185185185185],[0.19479166666666667,0.6185185185185185],[0.19479166666666667,0.6185185185185185],[0.19479166666666667,0.6185185185185185],[0.19479166666666667,0.6185185185185185],[0.19479166666666667,0.6185185185185185],[0.19479166666666667,0.6185185185185185],[0.19479166666666667,0.6185185185185185],[0.19479166666666667,0.6185185185185185],[0.19479166666666667,0.6185185185185185],[0.19479166666666667,0.6185185185185185],[0.19479166666666667,0.6185185185185185],[0.19479166666666667,0.6185185185185185],[0.19479166666666667,0.6185185185185185],[0.19479166666666667,0.6185185185185185],[0.19479166666666667,0.6185185185185185],[0.19479166666666667,0.6185185185185185],[0.19479166666666667,0.6185185185185185],[0.19479166666666667,0.6185185185185185],[0.19479166666666667,0.6185185185185185],[0.19479166666666667,0.6185185185185185],[0.19479166666666667,0.6185185185185185],[0.19479166666666667,0.6185185185185185],[0.19479166666666667,0.6185185185185185],[0.19479166666666667,0.6185185185185185],[0.19479166666666667,0.6185185185185185],[0.19479166666666667,0.6185185185185185],[0.19479166666666667,0.6185185185185185],[0.19479166666666667,0.6185185185185185],[0.19479166666666667,0.6185185185185185],[0.19583333333333333,0.6185185185185185],[0.19895833333333332,0.6129629629629629],[0.19895833333333332,0.6111111111111112],[0.20208333333333334,0.6092592592592593],[0.20208333333333334,0.6092592592592593],[0.20208333333333334,0.6092592592592593],[0.203125,0.6092592592592593],[0.203125,0.6092592592592593],[0.203125,0.6092592592592593],[0.20520833333333333,0.6055555555555555],[0.20520833333333333,0.6055555555555555],[0.20520833333333333,0.6055555555555555],[0.20520833333333333,0.6055555555555555],[0.20520833333333333,0.6055555555555555],[0.20520833333333333,0.6055555555555555],[0.20520833333333333,0.6055555555555555],[0.20520833333333333,0.6055555555555555],[0.20520833333333333,0.6055555555555555],[0.20520833333333333,0.6055555555555555],[0.20520833333333333,0.6055555555555555],[0.20520833333333333,0.6055555555555555],[0.20520833333333333,0.6055555555555555],[0.20520833333333333,0.6055555555555555],[0.20520833333333333,0.6055555555555555],[0.20520833333333333,0.6055555555555555],[0.20520833333333333,0.6055555555555555],[0.20520833333333333,0.6055555555555555]]","[[0.09041666666666662,-0.04611111111111107],[0.09041666666666662,-0.04611111111111107],[0.07885416666666671,-0.04888888888888885],[0.09770833333333329,-0.03796296296296296],[0.0884375000000001,-0.03129629629629625],[0.0884375000000001,-0.03129629629629625],[0.08875000000000005,0.01518518518518527],[0.05302083333333331,-0.0007407407407406986],[0.065625,0.06074074074074066],[0.09291666666666672,0.06648148148148143],[0.10760416666666663,0.09314814814814806],[0.12156250000000005,0.11666666666666667],[0.1203125,0.11500000000000005],[0.09989583333333343,0.04222222222222214],[0.06499999999999997,-0.026481481481481398],[0.07041666666666657,-0.09277777777777782],[0.052083333333333336,-0.1359259259259259],[0.06499999999999997,-0.10907407407407403],[0.021875,-0.14666666666666664],[0.021875,-0.14666666666666664],[0.0012500000000000473,-0.09166666666666666],[-0.03895833333333331,-0.15722222222222218],[-0.06416666666666669,-0.17796296296296302],[-0.0734375,-0.172037037037037],[-0.0734375,-0.172037037037037],[-0.06510416666666667,-0.09722222222222222],[-0.07437499999999998,-0.08648148148148146],[-0.0936458333333333,-0.04870370370370362],[-0.08979166666666671,-0.041111111111111195],[-0.10406249999999997,-0.07185185185185188],[-0.10406249999999997,-0.07185185185185188],[-0.10718749999999998,-0.10870370370370368],[-0.1123958333333333,-0.1809259259259259],[-0.09604166666666672,-0.14944444444444444],[-0.0858333333333333,-0.1455555555555556],[-0.10843750000000002,-0.17759259259259255],[-0.14781249999999999,-0.26851851851851855],[-0.17999999999999997,-0.32333333333333336],[-0.21812499999999999,-0.384074074074074],[-0.24958333333333335,-0.4251851851851852],[-0.24958333333333335,-0.4251851851851852],[-0.28541666666666665,-0.43574074074074076],[-0.30281250000000004,-0.4485185185185185],[-0.30281250000000004,-0.4485185185185185],[-0.3466666666666666,-0.4903703703703704],[-0.3466666666666666,-0.4903703703703704],[-0.38302083333333337,-0.46888888888888886],[-0.428125,-0.4757407407407407],[-0.4405208333333333,-0.4874074074074074],[-0.44291666666666674,-0.48629629629629634],[-0.39874999999999994,-0.41351851851851856],[-0.36875,-0.3655555555555555],[-0.3255208333333333,-0.3235185185185185],[-0.27458333333333335,-0.30037037037037034],[-0.21760416666666665,-0.25703703703703706],[-0.13250000000000003,-0.19166666666666668],[-0.0578125,-0.17296296296296293],[-0.01427083333333338,-0.10685185185185184],[0.053125,-0.0294444444444444],[0.11812500000000009,0.04259259259259259],[0.14333333333333323,0.055740740740740785],[0.18864583333333323,0.09962962962962954],[0.18822916666666673,0.08111111111111102],[0.19500000000000003,0.07481481481481478],[0.22062499999999996,0.08796296296296297],[0.22062499999999996,0.08796296296296297],[0.22041666666666657,0.08888888888888889],[0.22041666666666657,0.08888888888888889],[0.20635416666666656,0.1411111111111112],[0.23250000000000004,0.14666666666666675],[0.2390625,0.12296296296296293],[0.2548958333333334,0.11259259259259251],[0.2504166666666668,0.09055555555555551],[0.2459374999999999,0.06851851851851852],[0.26447916666666677,0.04722222222222222],[0.2960416666666667,0.02092592592592584],[0.29489583333333325,-0.02759259259259255],[0.29375,-0.07611111111111116],[0.3077083333333334,-0.19685185185185186],[0.3077083333333334,-0.19685185185185186],[0.33656249999999993,-0.2361111111111111],[0.35208333333333336,-0.1838888888888889],[0.35208333333333336,-0.1838888888888889],[0.3607291666666666,-0.13962962962962958],[0.40989583333333335,-0.11055555555555553],[0.41770833333333335,-0.12444444444444443],[0.44593749999999993,-0.02166666666666675],[0.45895833333333325,0.04333333333333329],[0.49197916666666663,0.0544444444444444],[0.5162499999999999,0.08000000000000008],[0.4827083333333334,0.1579629629629629],[0.4827083333333334,0.1579629629629629],[0.42510416666666656,0.1648148148148148],[0.42510416666666656,0.1648148148148148],[0.3953125,0.14351851851851852],[0.3953125,0.14351851851851852],[0.3866666666666667,0.09425925925925922],[0.3866666666666667,0.09425925925925922],[0.3408333333333334,0.002407407407407323],[0.36218750000000005,-0.03129629629629625],[0.3506249999999999,-0.12314814814814815],[0.3506249999999999,-0.12314814814814815],[0.3186458333333334,-0.22388888888888886],[0.28937499999999994,-0.2035185185185185],[0.28937499999999994,-0.2035185185185185],[0.3037499999999999,-0.21074074074074076],[0.3776041666666667,-0.24870370370370373],[0.44468750000000007,-0.3042592592592593],[0.47593750000000007,-0.34314814814814815],[0.47593750000000007,-0.34314814814814815],[0.4881249999999999,-0.3205555555555556],[0.4860416666666666,-0.2757407407407407],[0.4579166666666666,-0.24055555555555552],[0.4553124999999999,-0.19296296296296295],[0.4664583333333333,-0.10888888888888891],[0.4664583333333333,-0.10888888888888891],[0.46875,-0.08925925925925923],[0.4279166666666666,-0.02444444444444453],[0.36833333333333323,0.07277777777777769],[0.32864583333333336,0.18592592592592588],[0.2947916666666667,0.2511111111111112],[0.2947916666666667,0.2511111111111112],[0.2829166666666666,0.2294444444444444],[0.2860416666666666,0.2668518518518519],[0.3177083333333333,0.3435185185185185],[0.33624999999999994,0.39166666666666666],[0.33624999999999994,0.39166666666666666],[0.33395833333333325,0.3881481481481482],[0.3519791666666668,0.40370370370370373],[0.3474999999999999,0.3683333333333333],[0.39177083333333323,0.34074074074074073],[0.43333333333333335,0.2748148148148148],[0.4748958333333334,0.2803703703703703],[0.4748958333333334,0.2803703703703703],[0.5108333333333335,0.2822222222222222],[0.5209374999999999,0.2624074074074075],[0.5175,0.16666666666666666],[0.5096875,0.12240740740740745],[0.5128125,0.07185185185185176],[0.5057291666666667,0.02296296296296292],[0.5101041666666667,0.01629629629629621],[0.4939583333333334,0],[0.44406249999999997,-0.020740740740740823],[0.44406249999999997,-0.020740740740740823],[0.42635416666666665,-0.0668518518518519],[0.39385416666666656,-0.10037037037037035],[0.38385416666666666,-0.08222222222222218],[0.3650000000000001,-0.01962962962962967],[0.39656250000000004,-0.040370370370370286],[0.4359375,-0.0005555555555554713],[0.4460416666666667,-0.005185185185185101],[0.4639583333333334,-0.01703703703703712],[0.46927083333333336,-0.09462962962962967],[0.5232291666666666,-0.10018518518518522],[0.541875,-0.11592592592592597],[0.5400000000000001,-0.10388888888888893],[0.5381249999999999,-0.09092592592592597],[0.5533333333333333,-0.13351851851851856],[0.5240624999999999,-0.13055555555555556],[0.4914583333333333,-0.14203703703703702],[0.4914583333333333,-0.14203703703703702],[0.49406249999999996,-0.14351851851851852],[0.4665625000000001,-0.10777777777777775],[0.4379166666666668,-0.07407407407407407],[0.4087500000000001,-0.08296296296296299],[0.4037499999999999,-0.08703703703703704],[0.40947916666666656,-0.01574074074074074],[0.42635416666666665,-0.06592592592592597],[0.4461458333333333,-0.05388888888888893],[0.4662499999999999,-0.06518518518518517],[0.4554166666666667,-0.07611111111111116],[0.45031249999999995,-0.05722222222222218],[0.49406249999999996,-0.12259259259259257],[0.5368750000000001,-0.07111111111111107],[0.5601041666666667,-0.08425925925925926],[0.5676041666666668,-0.11944444444444445],[0.5926041666666667,-0.2088888888888889],[0.5971875,-0.20851851851851855],[0.6055208333333333,-0.25574074074074077],[0.6180208333333332,-0.2814814814814815],[0.6385416666666667,-0.31851851851851853],[0.6302083333333334,-0.3737037037037037],[0.6164583333333333,-0.3672222222222222],[0.6138541666666666,-0.4351851851851852],[0.6138541666666666,-0.4351851851851852],[0.6034375,-0.4516666666666666],[0.6034375,-0.4516666666666666],[0.5942708333333333,-0.4377777777777777],[0.5773958333333333,-0.40314814814814814],[0.5757291666666667,-0.3962962962962963],[0.5541666666666667,-0.39000000000000007],[0.5333333333333333,-0.35240740740740745],[0.5190625,-0.33296296296296296],[0.5385416666666667,-0.2977777777777778],[0.5333333333333333,-0.24277777777777781],[0.5221874999999999,-0.19296296296296295],[0.5361458333333334,-0.1427777777777778],[0.5578125,-0.10796296296296298],[0.5647916666666667,-0.10703703703703706],[0.5580208333333334,-0.09018518518518516],[0.5398958333333332,-0.046481481481481526],[0.5071875000000001,-0.03314814814814811],[0.49458333333333326,0.012407407407407492],[0.4588541666666667,0.00851851851851856],[0.45458333333333345,-0.01629629629629621],[0.45031249999999995,-0.041111111111111195],[0.4301041666666668,-0.045740740740740825],[0.4069791666666667,-0.05740740740740741],[0.3814583333333334,-0.029814814814814856],[0.3945833333333333,-0.014259259259259343],[0.40114583333333326,-0.0005555555555554713],[0.40114583333333326,-0.0005555555555554713],[0.4205208333333334,0.0485185185185186],[0.4205208333333334,0.0485185185185186],[0.42999999999999994,0.06129629629629634],[0.42999999999999994,0.06129629629629634],[0.44583333333333336,0.1051851851851851],[0.44583333333333336,0.1051851851851851],[0.465625,0.15037037037037046],[0.465625,0.15037037037037046],[0.48427083333333343,0.16314814814814818],[0.5158333333333334,0.19981481481481478],[0.5158333333333334,0.19981481481481478],[0.5483333333333335,0.2212962962962963],[0.5802083333333333,0.22037037037037038],[0.6166666666666667,0.22018518518518515],[0.6417708333333333,0.23703703703703705],[0.6796875,0.20611111111111102],[0.6940624999999999,0.21388888888888888],[0.6940624999999999,0.21388888888888888],[0.7167708333333332,0.19574074074074083],[0.6955208333333334,0.2024074074074073],[0.6640625,0.25203703703703706],[0.6096874999999999,0.293888888888889],[0.5670833333333334,0.34074074074074073],[0.5442708333333334,0.3696296296296297],[0.4857291666666666,0.37703703703703706],[0.4466666666666666,0.3705555555555556],[0.3910416666666668,0.4016666666666666],[0.36479166666666674,0.4281481481481482],[0.3296875,0.4703703703703704],[0.3259375000000001,0.45685185185185195],[0.3259375000000001,0.45685185185185195],[0.27468750000000003,0.422037037037037],[0.27468750000000003,0.422037037037037],[0.25416666666666665,0.3851851851851852],[0.22239583333333332,0.322037037037037],[0.184375,0.28944444444444434],[0.15166666666666656,0.2948148148148149],[0.10197916666666676,0.28666666666666657],[0.059583333333333384,0.21870370370370373],[0.016979166666666618,0.20333333333333325],[-0.014999999999999977,0.19907407407407407],[-0.06531250000000005,0.18425925925925926],[-0.020937500000000022,0.15833333333333333],[-0.03093750000000005,0.17074074074074083],[-0.021249999999999977,0.19740740740740745],[-0.03885416666666662,0.21796296296296305],[-0.007604166666666619,0.19796296296296292],[0.012916666666666642,0.23074074074074077],[0.04500000000000005,0.29018518518518527],[0.06447916666666664,0.33055555555555555],[0.09343750000000005,0.3338888888888888],[0.11291666666666676,0.3757407407407407],[0.12750000000000009,0.4101851851851852],[0.12958333333333344,0.39240740740740737],[0.15177083333333338,0.40925925925925927],[0.16729166666666656,0.43499999999999994],[0.16197916666666667,0.4516666666666666],[0.184375,0.42907407407407416],[0.1955208333333334,0.4196296296296297],[0.209375,0.3955555555555556],[0.203125,0.3851851851851852],[0.23114583333333344,0.3792592592592592],[0.21645833333333328,0.38370370370370377],[0.24812500000000004,0.4196296296296297],[0.2404166666666666,0.4094444444444445],[0.27614583333333326,0.39148148148148143],[0.28406250000000005,0.39944444444444455],[0.29229166666666656,0.44296296296296306],[0.303125,0.44296296296296306],[0.3330208333333334,0.4514814814814814],[0.3323958333333332,0.4449999999999999],[0.33322916666666674,0.452962962962963],[0.32927083333333323,0.4524074074074073],[0.31229166666666663,0.4101851851851852],[0.2933333333333332,0.4462962962962963],[0.27614583333333326,0.45999999999999996],[0.2546875,0.4714814814814815],[0.2453125,0.4674074074074074],[0.20927083333333343,0.47685185185185186],[0.1875,0.4988888888888888],[0.1875,0.4988888888888888],[0.17760416666666667,0.5338888888888889],[0.1681250000000001,0.5322222222222222],[0.16864583333333344,0.5503703703703705],[0.1820833333333333,0.5994444444444446],[0.20239583333333327,0.5668518518518519],[0.20979166666666677,0.5722222222222222],[0.23250000000000004,0.5924074074074074],[0.23250000000000004,0.5924074074074074],[0.23895833333333344,0.5303703703703704],[0.2547916666666666,0.5488888888888889],[0.2646874999999999,0.4740740740740741],[0.28010416666666677,0.49148148148148146],[0.28010416666666677,0.49148148148148146],[0.2986458333333334,0.4566666666666667],[0.3147916666666667,0.4735185185185186],[0.3351041666666667,0.3962962962962963],[0.33177083333333335,0.4257407407407407],[0.32927083333333323,0.3955555555555556],[0.31885416666666655,0.36055555555555563],[0.31885416666666655,0.36055555555555563],[0.3251041666666666,0.3998148148148148],[0.3400000000000001,0.4166666666666667],[0.34614583333333326,0.4161111111111112],[0.3267708333333334,0.4177777777777778],[0.30020833333333335,0.40796296296296286],[0.2783333333333334,0.4075925925925926],[0.24895833333333334,0.4474074074074075],[0.2390625,0.452962962962963],[0.22364583333333338,0.4366666666666666],[0.2171875,0.47388888888888886],[0.18614583333333337,0.43703703703703706],[0.1609375,0.41814814814814805],[0.1131249999999999,0.4449999999999999],[0.11270833333333338,0.43944444444444436],[0.09604166666666672,0.45111111111111113],[0.1046875,0.40907407407407403],[0.10072916666666672,0.3881481481481482],[0.10114583333333324,0.3588888888888888],[0.10114583333333324,0.3588888888888888],[0.10135416666666662,0.33907407407407414],[0.10135416666666662,0.33907407407407414],[0.10072916666666672,0.3374074074074075],[0.10072916666666672,0.3374074074074075],[0.08125,0.3653703703703703],[0.08125,0.3653703703703703],[0.058124999999999954,0.3375925925925925],[0.058124999999999954,0.3375925925925925],[0.03968750000000002,0.29074074074074074],[0.03968750000000002,0.29074074074074074],[-0.00791666666666669,0.24240740740740738],[-0.040625,0.18499999999999997],[-0.0967708333333333,0.13851851851851843],[-0.0967708333333333,0.13851851851851843],[-0.12614583333333335,0.0955555555555556],[-0.16958333333333328,0.04666666666666675],[-0.2375,0.0025925925925925505],[-0.275,-0.11148148148148146],[-0.2960416666666667,-0.1655555555555555],[-0.3151041666666667,-0.18648148148148147],[-0.32302083333333337,-0.17814814814814814],[-0.3147916666666667,-0.18666666666666668],[-0.3042708333333334,-0.14759259259259258],[-0.2913541666666667,-0.11925925925925922],[-0.3116666666666667,-0.08037037037037033],[-0.3311458333333333,-0.0485185185185186],[-0.2642708333333334,0.013703703703703662],[-0.240625,0.08074074074074078],[-0.17197916666666668,0.14981481481481476],[-0.12124999999999998,0.15092592592592594],[-0.04500000000000005,0.21592592592592597],[-0.0007291666666667141,0.21999999999999992],[-0.0007291666666667141,0.21999999999999992],[0.0626041666666667,0.25166666666666665],[0.12822916666666656,0.2361111111111111],[0.12822916666666656,0.2361111111111111],[0.21989583333333323,0.22537037037037044],[0.3023958333333333,0.21722222222222215],[0.325,0.21962962962962967],[0.34052083333333344,0.2101851851851852],[0.34791666666666665,0.19092592592592597],[0.3671875,0.18092592592592602],[0.3671875,0.18092592592592602],[0.3554166666666667,0.13833333333333342],[0.3616666666666667,0.15185185185185185],[0.35520833333333335,0.15314814814814823],[0.33624999999999994,0.15981481481481474],[0.28125,0.1581481481481481],[0.2709374999999999,0.12185185185185177],[0.2493750000000001,0.03333333333333333],[0.2507291666666667,-0.10944444444444448],[0.2203125,-0.23555555555555555],[0.20583333333333323,-0.33907407407407414],[0.2022916666666667,-0.4074074074074074],[0.18677083333333327,-0.5051851851851852],[0.1820833333333333,-0.5812962962962962],[0.1820833333333333,-0.5812962962962962],[0.17416666666666672,-0.6664814814814815],[0.18447916666666658,-0.7150000000000001],[0.16656250000000009,-0.7531481481481481],[0.17833333333333337,-0.7633333333333333],[0.2,-0.6640740740740741],[0.19072916666666656,-0.6522222222222221],[0.1896874999999999,-0.5555555555555556],[0.20114583333333325,-0.5716666666666667],[0.18958333333333333,-0.5640740740740741],[0.1853125000000001,-0.5996296296296296],[0.16760416666666675,-0.5925925925925926],[0.1788541666666667,-0.5901851851851851],[0.1564583333333334,-0.600925925925926],[0.19520833333333343,-0.590925925925926],[0.2241666666666667,-0.615],[0.2838541666666667,-0.5724074074074075],[0.3068749999999999,-0.6411111111111111],[0.3229166666666667,-0.6157407407407407],[0.3229166666666667,-0.6157407407407407],[0.3642708333333334,-0.5898148148148148],[0.3885416666666667,-0.5855555555555555],[0.3885416666666667,-0.5855555555555555],[0.43114583333333345,-0.5587037037037037],[0.4538541666666667,-0.5587037037037037],[0.4965625000000001,-0.5264814814814816],[0.4804166666666667,-0.5020370370370371],[0.4046875,-0.4690740740740741],[0.33645833333333336,-0.490925925925926],[0.3203125,-0.42185185185185187],[0.27218749999999997,-0.40407407407407403],[0.22864583333333333,-0.3603703703703704],[0.17385416666666675,-0.32166666666666666],[0.15229166666666671,-0.3344444444444445],[0.12625000000000006,-0.285],[0.1118750000000001,-0.2718518518518519],[0.05916666666666662,-0.2655555555555555],[0.05916666666666662,-0.2655555555555555],[0.05416666666666667,-0.26851851851851855],[0.05416666666666667,-0.26851851851851855],[0.05572916666666667,-0.2559259259259259],[0.05572916666666667,-0.2559259259259259],[0.024479166666666666,-0.2796296296296296],[0.024479166666666666,-0.2796296296296296],[0.024479166666666666,-0.2796296296296296],[0.024479166666666666,-0.2796296296296296],[0.007604166666666619,-0.3087037037037037],[0.007604166666666619,-0.3087037037037037],[0.0036458333333333334,-0.3592592592592593],[0.0036458333333333334,-0.3592592592592593],[-0.0016666666666666904,-0.3792592592592593],[-0.0016666666666666904,-0.3792592592592593],[-0.025,-0.36574074074074076],[-0.025,-0.36574074074074076],[-0.044375000000000026,-0.4111111111111111],[-0.044375000000000026,-0.4111111111111111],[-0.05520833333333333,-0.4262962962962963],[-0.05520833333333333,-0.4262962962962963],[-0.03093750000000005,-0.4375925925925926],[-0.03093750000000005,-0.4375925925925926],[-0.02312500000000005,-0.47537037037037033],[-0.02312500000000005,-0.47537037037037033],[-0.016145833333333335,-0.49370370370370376],[-0.016145833333333335,-0.49370370370370376],[-0.009791666666666643,-0.5700000000000001],[-0.009791666666666643,-0.5700000000000001],[-0.0002083333333333807,-0.5835185185185185],[-0.0002083333333333807,-0.5835185185185185],[0.03718750000000005,-0.652962962962963],[0.03718750000000005,-0.652962962962963],[0.06510416666666667,-0.6618518518518518],[0.06510416666666667,-0.6618518518518518],[0.07072916666666676,-0.6407407407407407],[0.07072916666666676,-0.6407407407407407],[0.09166666666666666,-0.617037037037037],[0.09166666666666666,-0.617037037037037],[0.08822916666666672,-0.6211111111111111],[0.08822916666666672,-0.6211111111111111],[0.08406250000000005,-0.6353703703703704],[0.08406250000000005,-0.6353703703703704],[0.09385416666666657,-0.609074074074074],[0.09385416666666657,-0.609074074074074],[0.11229166666666662,-0.6392592592592592],[0.11229166666666662,-0.6392592592592592],[0.11437499999999995,-0.5735185185185185],[0.11437499999999995,-0.5735185185185185]]","[[0.09041666666666662,-0.04611111111111107,0.0003999996185228838],[0.09041666666666662,-0.04611111111111107,0.05039999961853425],[0.07885416666666671,-0.04888888888888885,0.060599999904624724],[0.09770833333333329,-0.03796296296296296,0.07809999990463723],[0.0884375000000001,-0.03129629629629625,0.09909999990463803],[0.0884375000000001,-0.03129629629629625,0.11339999961852243],[0.08875000000000005,0.01518518518518527,0.12729999971389816],[0.05302083333333331,-0.0007407407407406986,0.14729999971389418],[0.065625,0.06074074074074066,0.16369999980926764],[0.09291666666666672,0.06648148148148143,0.18009999990462688],[0.10760416666666663,0.09314814814814806,0.195299999713896],[0.12156250000000005,0.11666666666666667,0.21069999980926468],[0.1203125,0.11500000000000005,0.22969999980927014],[0.09989583333333343,0.04222222222222214,0.24659999990463177],[0.06499999999999997,-0.026481481481481398,0.2607999997138961],[0.07041666666666657,-0.09277777777777782,0.27769999980925775],[0.052083333333333336,-0.1359259259259259,0.2945999999046336],[0.06499999999999997,-0.10907407407407403,0.310699999809259],[0.021875,-0.14666666666666664,0.327299999713901],[0.021875,-0.14666666666666664,0.3533999996185315],[0.0012500000000000473,-0.09166666666666666,0.3652999997138977],[-0.03895833333333331,-0.15722222222222218,0.37999999999999545],[-0.06416666666666669,-0.17796296296296302,0.3940999999046255],[-0.0734375,-0.172037037037037,0.4124999999999943],[-0.0734375,-0.172037037037037,0.4272999997138953],[-0.06510416666666667,-0.09722222222222222,0.4440000000000026],[-0.07437499999999998,-0.08648148148148146,0.4605999999046304],[-0.0936458333333333,-0.04870370370370362,0.4771999998092582],[-0.08979166666666671,-0.041111111111111195,0.4938999996185345],[-0.10406249999999997,-0.07185185185185188,0.5104999999999933],[-0.10406249999999997,-0.07185185185185188,0.5278999996185263],[-0.10718749999999998,-0.10870370370370368,0.5439999999999969],[-0.1123958333333333,-0.1809259259259259,0.5605999999046247],[-0.09604166666666672,-0.14944444444444444,0.577299999713901],[-0.0858333333333333,-0.1455555555555556,0.5938999996185288],[-0.10843750000000002,-0.17759259259259255,0.6106999998092704],[-0.14781249999999999,-0.26851851851851855,0.6272999997138982],[-0.17999999999999997,-0.32333333333333336,0.643899999618526],[-0.21812499999999999,-0.384074074074074,0.660499999999999],[-0.24958333333333335,-0.4251851851851852,0.6773999996185296],[-0.24958333333333335,-0.4251851851851852,0.6938999996185231],[-0.28541666666666665,-0.43574074074074076,0.7105999999046304],[-0.30281250000000004,-0.4485185185185185,0.7272999997138925],[-0.30281250000000004,-0.4485185185185185,0.7439999999999998],[-0.3466666666666666,-0.4903703703703704,0.7605999999046276],[-0.3466666666666666,-0.4903703703703704,0.7772999997138896],[-0.38302083333333337,-0.46888888888888886,0.7938999996185316],[-0.428125,-0.4757407407407407,0.8105999999046247],[-0.4405208333333333,-0.4874074074074074,0.8271999998092667],[-0.44291666666666674,-0.48629629629629634,0.8463999996185265],[-0.39874999999999994,-0.41351851851851856,0.8605999999046361],[-0.36875,-0.3655555555555555,0.8771999998092639],[-0.3255208333333333,-0.3235185185185185,0.893899999618526],[-0.27458333333333335,-0.30037037037037034,0.9105999999046333],[-0.21760416666666665,-0.25703703703703706,0.927199999809261],[-0.13250000000000003,-0.19166666666666668,0.9442999997138912],[-0.0578125,-0.17296296296296293,0.9608999996185332],[-0.01427083333333338,-0.10685185185185184,0.980099999904624],[0.053125,-0.0294444444444444,0.9938999996185345],[0.11812500000000009,0.04259259259259259,1.0105999999046276],[0.14333333333333323,0.055740740740740785,1.0271999998092696],[0.18864583333333323,0.09962962962962954,1.0473999996185341],[0.18822916666666673,0.08111111111111102,1.0607999997138933],[0.19500000000000003,0.07481481481481478,1.0773999996185353],[0.22062499999999996,0.08796296296296297,1.0977999997138994],[0.22062499999999996,0.08796296296296297,1.110599999904636],[0.22041666666666657,0.08888888888888889,1.1272999997138982],[0.22041666666666657,0.08888888888888889,1.143899999618526],[0.20635416666666656,0.1411111111111112,1.1605999999046333],[0.23250000000000004,0.14666666666666675,1.177199999809261],[0.2390625,0.12296296296296293,1.1938999996185231],[0.2548958333333334,0.11259259259259251,1.2104999999999961],[0.2504166666666668,0.09055555555555551,1.2271999998092582],[0.2459374999999999,0.06851851851851852,1.2438999996185345],[0.26447916666666677,0.04722222222222222,1.261499999999998],[0.2960416666666667,0.02092592592592584,1.2785999999046282],[0.29489583333333325,-0.02759259259259255,1.2946999998092679],[0.29375,-0.07611111111111116,1.3105000000000047],[0.3077083333333334,-0.19685185185185186,1.3271999998092667],[0.3077083333333334,-0.19685185185185186,1.346899999618529],[0.33656249999999993,-0.2361111111111111,1.3606999998092704],[0.35208333333333336,-0.1838888888888889,1.3786999998092568],[0.35208333333333336,-0.1838888888888889,1.393899999618526],[0.3607291666666666,-0.13962962962962958,1.4133999996185338],[0.40989583333333335,-0.11055555555555553,1.4277999997138977],[0.41770833333333335,-0.12444444444444443,1.444599999904625],[0.44593749999999993,-0.02166666666666675,1.4624999999999915],[0.45895833333333325,0.04333333333333329,1.4808999996185293],[0.49197916666666663,0.0544444444444444,1.494099999904634],[0.5162499999999999,0.08000000000000008,1.5108999996185304],[0.4827083333333334,0.1579629629629629,1.5271999998092696],[0.4827083333333334,0.1579629629629629,1.5438999996185316],[0.42510416666666656,0.1648148148148148,1.5605999999046247],[0.42510416666666656,0.1648148148148148,1.5771999998092667],[0.3953125,0.14351851851851852,1.5938999996185288],[0.3953125,0.14351851851851852,1.610599999904636],[0.3866666666666667,0.09425925925925922,1.6271999998092639],[0.3866666666666667,0.09425925925925922,1.643899999618526],[0.3408333333333334,0.002407407407407323,1.660499999999999],[0.36218750000000005,-0.03129629629629625,1.6820999999046364],[0.3506249999999999,-0.12314814814814815,1.698999999999998],[0.3506249999999999,-0.12314814814814815,1.7104999999999961],[0.3186458333333334,-0.22388888888888886,1.7271999998092582],[0.28937499999999994,-0.2035185185185185,1.7508999996185253],[0.28937499999999994,-0.2035185185185185,1.7605999999046276],[0.3037499999999999,-0.21074074074074076,1.7772999997138896],[0.3776041666666667,-0.24870370370370373,1.7955999999046242],[0.44468750000000007,-0.3042592592592593,1.8142999997138958],[0.47593750000000007,-0.34314814814814815,1.836199999809267],[0.47593750000000007,-0.34314814814814815,1.843999999999994],[0.4881249999999999,-0.3205555555555556,1.860599999904636],[0.4860416666666666,-0.2757407407407407,1.8776999998092663],[0.4579166666666666,-0.24055555555555552,1.894599999904628],[0.4553124999999999,-0.19296296296296295,1.9107999997139018],[0.4664583333333333,-0.10888888888888891,1.927199999809261],[0.4664583333333333,-0.10888888888888891,1.9438999996185231],[0.46875,-0.08925925925925923,1.9634999999999962],[0.4279166666666666,-0.02444444444444453,1.9821999998092679],[0.36833333333333323,0.07277777777777769,1.9980999999046247],[0.32864583333333336,0.18592592592592588,2.0145999999046325],[0.2947916666666667,0.2511111111111112,2.0319999999999965],[0.2947916666666667,0.2511111111111112,2.0438999996185316],[0.2829166666666666,0.2294444444444444,2.0607999997138933],[0.2860416666666666,0.2668518518518519,2.0782999997138916],[0.3177083333333333,0.3435185185185185,2.0952999997139017],[0.33624999999999994,0.39166666666666666,2.1185999999046317],[0.33624999999999994,0.39166666666666666,2.1276999998092663],[0.33395833333333325,0.3881481481481482,2.1440999999046255],[0.3519791666666668,0.40370370370370373,2.162399999618529],[0.3474999999999999,0.3683333333333333,2.180799999713898],[0.39177083333333323,0.34074074074074073,2.196699999809269],[0.43333333333333335,0.2748148148148148,2.21569999980926],[0.4748958333333334,0.2803703703703703,2.2317999997138998],[0.4748958333333334,0.2803703703703703,2.2513999996185277],[0.5108333333333335,0.2822222222222222,2.2604999999999933],[0.5209374999999999,0.2624074074074075,2.2775000000000034],[0.5175,0.16666666666666666,2.297399999618534],[0.5096875,0.12240740740740745,2.3133999996185253],[0.5128125,0.07185185185185176,2.3299999999999983],[0.5057291666666667,0.02296296296296292,2.347599999904631],[0.5101041666666667,0.01629629629629621,2.362499999999997],[0.4939583333333334,0,2.3796999998092616],[0.44406249999999997,-0.020740740740740823,2.395699999809267],[0.44406249999999997,-0.020740740740740823,2.4106999998092675],[0.42635416666666665,-0.0668518518518519,2.4272999997138953],[0.39385416666666656,-0.10037037037037035,2.4457999997138984],[0.38385416666666666,-0.08222222222222218,2.46259999990464],[0.3650000000000001,-0.01962962962962967,2.4787999997138996],[0.39656250000000004,-0.040370370370370286,2.495599999904641],[0.4359375,-0.0005555555555554713,2.5137999997138962],[0.4460416666666667,-0.005185185185185101,2.5290999999046306],[0.4639583333333334,-0.01703703703703712,2.5448999996185364],[0.46927083333333336,-0.09462962962962967,2.560599999904639],[0.5232291666666666,-0.10018518518518522,2.5800999999046326],[0.541875,-0.11592592592592597,2.597999999999999],[0.5400000000000001,-0.10388888888888893,2.6132999997139024],[0.5381249999999999,-0.09092592592592597,2.6310999999046345],[0.5533333333333333,-0.13351851851851856,2.6481999998092647],[0.5240624999999999,-0.13055555555555556,2.663899999618536],[0.4914583333333333,-0.14203703703703702,2.69239999961853],[0.4914583333333333,-0.14203703703703702,2.6991999998092666],[0.49406249999999996,-0.14351851851851852,2.7105999999046304],[0.4665625000000001,-0.10777777777777775,2.7287999997138996],[0.4379166666666668,-0.07407407407407407,2.7442999997139026],[0.4087500000000001,-0.08296296296296299,2.7609999999999957],[0.4037499999999999,-0.08703703703703704,2.7796999998092673],[0.40947916666666656,-0.01574074074074074,2.7956999998092726],[0.42635416666666665,-0.06592592592592597,2.810599999904639],[0.4461458333333333,-0.05388888888888893,2.8271999998092667],[0.4662499999999999,-0.06518518518518517,2.844299999713897],[0.4554166666666667,-0.07611111111111116,2.860500000000002],[0.45031249999999995,-0.05722222222222218,2.877599999904632],[0.49406249999999996,-0.12259259259259257,2.893899999618526],[0.5368750000000001,-0.07111111111111107,2.9105999999046333],[0.5601041666666667,-0.08425925925925926,2.927199999809261],[0.5676041666666668,-0.11944444444444445,2.945299999713896],[0.5926041666666667,-0.2088888888888889,2.9609999999999985],[0.5971875,-0.20851851851851855,2.9797999997139044],[0.6055208333333333,-0.25574074074074077,2.9956999998092613],[0.6180208333333332,-0.2814814814814815,3.0105999999046276],[0.6385416666666667,-0.31851851851851853,3.0308999996185264],[0.6302083333333334,-0.3737037037037037,3.047699999809268],[0.6164583333333333,-0.3672222222222222,3.0635000000000048],[0.6138541666666666,-0.4351851851851852,3.0808999996185378],[0.6138541666666666,-0.4351851851851852,3.0940999999046284],[0.6034375,-0.4516666666666666,3.110599999904636],[0.6034375,-0.4516666666666666,3.1273999996185324],[0.5942708333333333,-0.4377777777777777,3.143799999713906],[0.5773958333333333,-0.40314814814814814,3.162000000000006],[0.5757291666666667,-0.3962962962962963,3.177500000000009],[0.5541666666666667,-0.39000000000000007,3.1938999996185373],[0.5333333333333333,-0.35240740740740745,3.212299999713906],[0.5190625,-0.33296296296296296,3.2271999998092724],[0.5385416666666667,-0.2977777777777778,3.2464999999999975],[0.5333333333333333,-0.24277777777777781,3.2635000000000076],[0.5221874999999999,-0.19296296296296295,3.280000000000001],[0.5361458333333334,-0.1427777777777778,3.2970999999046313],[0.5578125,-0.10796296296296298,3.3130000000000024],[0.5647916666666667,-0.10703703703703706,3.3285999999046396],[0.5580208333333334,-0.09018518518518516,3.3441999998092626],[0.5398958333333332,-0.046481481481481526,3.360899999618539],[0.5071875000000001,-0.03314814814814811,3.377199999809264],[0.49458333333333326,0.012407407407407492,3.393899999618526],[0.4588541666666667,0.00851851851851856,3.4125999999046286],[0.45458333333333345,-0.01629629629629621,3.4276999998092634],[0.45031249999999995,-0.041111111111111195,3.4443999996185255],[0.4301041666666668,-0.045740740740740825,3.4642999997139015],[0.4069791666666667,-0.05740740740740741,3.4800999999046383],[0.3814583333333334,-0.029814814814814856,3.495599999904641],[0.3945833333333333,-0.014259259259259343,3.513399999618528],[0.40114583333333326,-0.0005555555555554713,3.530599999904638],[0.40114583333333326,-0.0005555555555554713,3.543999999999997],[0.4205208333333334,0.0485185185185186,3.5605000000000047],[0.4205208333333334,0.0485185185185186,3.5771999998092667],[0.42999999999999994,0.06129629629629634,3.593899999618529],[0.42999999999999994,0.06129629629629634,3.610599999904636],[0.44583333333333336,0.1051851851851851,3.627199999809264],[0.44583333333333336,0.1051851851851851,3.644699999809262],[0.465625,0.15037037037037046,3.660499999999999],[0.465625,0.15037037037037046,3.677199999809261],[0.48427083333333343,0.16314814814814818,3.6940000000000026],[0.5158333333333334,0.19981481481481478,3.7168999996185335],[0.5158333333333334,0.19981481481481478,3.7271999998092724],[0.5483333333333335,0.2212962962962963,3.7438999996185345],[0.5802083333333333,0.22037037037037038,3.7626999998092714],[0.6166666666666667,0.22018518518518515,3.7771999998092696],[0.6417708333333333,0.23703703703703705,3.7937999997138974],[0.6796875,0.20611111111111102,3.8122999997139004],[0.6940624999999999,0.21388888888888888,3.832899999618533],[0.6940624999999999,0.21388888888888888,3.8440000000000083],[0.7167708333333332,0.19574074074074083,3.8606999998092704],[0.6955208333333334,0.2024074074074073,3.8810999999046345],[0.6640625,0.25203703703703706,3.8981999998092647],[0.6096874999999999,0.293888888888889,3.9146999998092724],[0.5670833333333334,0.34074074074074073,3.9303999996185297],[0.5442708333333334,0.3696296296296297,3.946699999809269],[0.4857291666666666,0.37703703703703706,3.9606999998092647],[0.4466666666666666,0.3705555555555556,3.978899999618534],[0.3910416666666668,0.4016666666666666,3.995299999713893],[0.36479166666666674,0.4281481481481482,4.0120000000000005],[0.3296875,0.4703703703703704,4.028599999904628],[0.3259375000000001,0.45685185185185195,4.049599999904629],[0.3259375000000001,0.45685185185185195,4.067799999713898],[0.27468750000000003,0.422037037037037,4.089799999713904],[0.27468750000000003,0.422037037037037,4.0981999998092675],[0.25416666666666665,0.3851851851851852,4.110500000000002],[0.22239583333333332,0.322037037037037,4.127199999809264],[0.184375,0.28944444444444434,4.145399999618533],[0.15166666666666656,0.2948148148148149,4.160499999999999],[0.10197916666666676,0.28666666666666657,4.177199999809261],[0.059583333333333384,0.21870370370370373,4.193899999618537],[0.016979166666666618,0.20333333333333325,4.210499999999996],[-0.014999999999999977,0.19907407407407407,4.227199999809272],[-0.06531250000000005,0.18425925925925926,4.244],[-0.020937500000000022,0.15833333333333333,4.2605000000000075],[-0.03093750000000005,0.17074074074074083,4.27719999980927],[-0.021249999999999977,0.19740740740740745,4.293799999713897],[-0.03885416666666662,0.21796296296296305,4.310399999618539],[-0.007604166666666619,0.19796296296296292,4.327199999809267],[0.012916666666666642,0.23074074074074077,4.34659999990464],[0.04500000000000005,0.29018518518518527,4.360599999904636],[0.06447916666666664,0.33055555555555555,4.37709999990463],[0.09343750000000005,0.3338888888888888,4.394399999618528],[0.11291666666666676,0.3757407407407407,4.4125000000000085],[0.12750000000000009,0.4101851851851852,4.427299999713895],[0.12958333333333344,0.39240740740740737,4.443799999713903],[0.15177083333333338,0.40925925925925927,4.460499999999996],[0.16729166666666656,0.43499999999999994,4.477199999809272],[0.16197916666666667,0.4516666666666666,4.4938999996185345],[0.184375,0.42907407407407416,4.5105000000000075],[0.1955208333333334,0.4196296296296297,4.52719999980927],[0.209375,0.3955555555555556,4.5442999997139],[0.203125,0.3851851851851852,4.563399999618525],[0.23114583333333344,0.3792592592592592,4.577199999809267],[0.21645833333333328,0.38370370370370377,4.5937999997138945],[0.24812500000000004,0.4196296296296297,4.6103999996185365],[0.2404166666666666,0.4094444444444445,4.62709999990463],[0.27614583333333326,0.39148148148148143,4.64409999990464],[0.28406250000000005,0.39944444444444455,4.660499999999999],[0.29229166666666656,0.44296296296296306,4.677199999809261],[0.303125,0.44296296296296306,4.693799999713903],[0.3330208333333334,0.4514814814814814,4.71259999990464],[0.3323958333333332,0.4449999999999999,4.727299999713907],[0.33322916666666674,0.452962962962963,4.7438999996185345],[0.32927083333333323,0.4524074074074073,4.760399999618528],[0.31229166666666663,0.4101851851851852,4.777500000000003],[0.2933333333333332,0.4462962962962963,4.793799999713897],[0.27614583333333326,0.45999999999999996,4.810500000000005],[0.2546875,0.4714814814814815,4.827199999809267],[0.2453125,0.4674074074074074,4.846899999618529],[0.20927083333333343,0.47685185185185186,4.860500000000002],[0.1875,0.4988888888888888,4.87709999990463],[0.1875,0.4988888888888888,4.893799999713906],[0.17760416666666667,0.5338888888888889,4.910599999904633],[0.1681250000000001,0.5322222222222222,4.927199999809261],[0.16864583333333344,0.5503703703703705,4.943899999618537],[0.1820833333333333,0.5994444444444446,4.96059999990463],[0.20239583333333327,0.5668518518518519,4.977199999809272],[0.20979166666666677,0.5722222222222222,4.9937999997139],[0.23250000000000004,0.5924074074074074,5.0105000000000075],[0.23250000000000004,0.5924074074074074,5.02719999980927],[0.23895833333333344,0.5303703703703704,5.043999999999997],[0.2547916666666666,0.5488888888888889,5.060599999904639],[0.2646874999999999,0.4740740740740741,5.077500000000001],[0.28010416666666677,0.49148148148148146,5.097699999809265],[0.28010416666666677,0.49148148148148146,5.110500000000002],[0.2986458333333334,0.4566666666666667,5.127199999809264],[0.3147916666666667,0.4735185185185186,5.146699999809272],[0.3351041666666667,0.3962962962962963,5.1606999998092675],[0.33177083333333335,0.4257407407407407,5.177199999809261],[0.32927083333333323,0.3955555555555556,5.193799999713903],[0.31885416666666655,0.36055555555555563,5.210499999999996],[0.31885416666666655,0.36055555555555563,5.227199999809272],[0.3251041666666666,0.3998148148148148,5.2437999997139],[0.3400000000000001,0.4166666666666667,5.2605000000000075],[0.34614583333333326,0.4161111111111112,5.27719999980927],[0.3267708333333334,0.4177777777777778,5.293899999618532],[0.30020833333333335,0.40796296296296286,5.310500000000005],[0.2783333333333334,0.4075925925925926,5.327199999809267],[0.24895833333333334,0.4474074074074075,5.346799999713895],[0.2390625,0.452962962962963,5.360500000000002],[0.22364583333333338,0.4366666666666666,5.377199999809264],[0.2171875,0.47388888888888886,5.393899999618526],[0.18614583333333337,0.43703703703703706,5.413199999809265],[0.1609375,0.41814814814814805,5.429000000000002],[0.1131249999999999,0.4449999999999999,5.446399999618535],[0.11270833333333338,0.43944444444444436,5.460499999999996],[0.09604166666666672,0.45111111111111113,5.477199999809272],[0.1046875,0.40907407407407403,5.4937999997139],[0.10072916666666672,0.3881481481481482,5.51109999990463],[0.10114583333333324,0.3588888888888888,5.52719999980927],[0.10114583333333324,0.3588888888888888,5.543899999618532],[0.10135416666666662,0.33907407407407414,5.560599999904639],[0.10135416666666662,0.33907407407407414,5.5770999999046325],[0.10072916666666672,0.3374074074074075,5.594000000000008],[0.10072916666666672,0.3374074074074075,5.610500000000002],[0.08125,0.3653703703703703,5.627199999809264],[0.08125,0.3653703703703703,5.643899999618526],[0.058124999999999954,0.3375925925925925,5.660499999999999],[0.058124999999999954,0.3375925925925925,5.677099999904641],[0.03968750000000002,0.29074074074074074,5.693799999713903],[0.03968750000000002,0.29074074074074074,5.710499999999996],[-0.00791666666666669,0.24240740740740738,5.727199999809272],[-0.040625,0.18499999999999997,5.744299999713903],[-0.0967708333333333,0.13851851851851843,5.760399999618528],[-0.0967708333333333,0.13851851851851843,5.77719999980927],[-0.12614583333333335,0.0955555555555556,5.793799999713897],[-0.16958333333333328,0.04666666666666675,5.810799999713893],[-0.2375,0.0025925925925925505,5.82959999990463],[-0.275,-0.11148148148148146,5.847599999904631],[-0.2960416666666667,-0.1655555555555555,5.8636999998092705],[-0.3151041666666667,-0.18648148148148147,5.8799999999999955],[-0.32302083333333337,-0.17814814814814814,5.895199999809265],[-0.3147916666666667,-0.18666666666666668,5.910499999999999],[-0.3042708333333334,-0.14759259259259258,5.930099999904641],[-0.2913541666666667,-0.11925925925925922,5.946299999713901],[-0.3116666666666667,-0.08037037037037033,5.960399999618531],[-0.3311458333333333,-0.0485185185185186,5.979500000000002],[-0.2642708333333334,0.013703703703703662,5.994500000000002],[-0.240625,0.08074074074074078,6.0105000000000075],[-0.17197916666666668,0.14981481481481476,6.02719999980927],[-0.12124999999999998,0.15092592592592594,6.046599999904629],[-0.04500000000000005,0.21592592592592597,6.061199999809261],[-0.0007291666666667141,0.21999999999999992,6.0796999998092645],[-0.0007291666666667141,0.21999999999999992,6.0937999997138945],[0.0626041666666667,0.25166666666666665,6.110599999904636],[0.12822916666666656,0.2361111111111111,6.131699999809271],[0.12822916666666656,0.2361111111111111,6.143799999713906],[0.21989583333333323,0.22537037037037044,6.160499999999999],[0.3023958333333333,0.21722222222222215,6.177099999904641],[0.325,0.21962962962962967,6.194000000000003],[0.34052083333333344,0.2101851851851852,6.210499999999996],[0.34791666666666665,0.19092592592592597,6.227199999809272],[0.3671875,0.18092592592592602,6.250399999618537],[0.3671875,0.18092592592592602,6.260699999809262],[0.3554166666666667,0.13833333333333342,6.277399999618538],[0.3616666666666667,0.15185185185185185,6.293999999999997],[0.35520833333333335,0.15314814814814823,6.313000000000002],[0.33624999999999994,0.15981481481481474,6.327399999618535],[0.28125,0.1581481481481481,6.346099999904638],[0.2709374999999999,0.12185185185185177,6.365199999809263],[0.2493750000000001,0.03333333333333333,6.3821999998092735],[0.2507291666666667,-0.10944444444444448,6.397199999809274],[0.2203125,-0.23555555555555555,6.412599999904629],[0.20583333333333323,-0.33907407407407414,6.429899999618527],[0.2022916666666667,-0.4074074074074074,6.44539999961853],[0.18677083333333327,-0.5051851851851852,6.460799999713899],[0.1820833333333333,-0.5812962962962962,6.481299999713897],[0.1820833333333333,-0.5812962962962962,6.494],[0.17416666666666672,-0.6664814814814815,6.510699999809262],[0.18447916666666658,-0.7150000000000001,6.527699999809272],[0.16656250000000009,-0.7531481481481481,6.546699999809263],[0.17833333333333337,-0.7633333333333333,6.560599999904639],[0.2,-0.6640740740740741,6.577399999618535],[0.19072916666666656,-0.6522222222222221,6.594000000000008],[0.1896874999999999,-0.5555555555555556,6.613399999618537],[0.20114583333333325,-0.5716666666666667,6.627699999809266],[0.18958333333333333,-0.5640740740740741,6.646799999713906],[0.1853125000000001,-0.5996296296296296,6.663799999713902],[0.16760416666666675,-0.5925925925925926,6.6785],[0.1788541666666667,-0.5901851851851851,6.694099999904637],[0.1564583333333334,-0.600925925925926,6.714399999618536],[0.19520833333333343,-0.590925925925926,6.730799999713895],[0.2241666666666667,-0.615,6.746299999713898],[0.2838541666666667,-0.5724074074074075,6.760999999999996],[0.3068749999999999,-0.6411111111111111,6.780899999618526],[0.3229166666666667,-0.6157407407407407,6.7972999997139],[0.3229166666666667,-0.6157407407407407,6.810599999904639],[0.3642708333333334,-0.5898148148148148,6.827299999713901],[0.3885416666666667,-0.5855555555555555,6.849099999904638],[0.3885416666666667,-0.5855555555555555,6.860599999904636],[0.43114583333333345,-0.5587037037037037,6.877399999618532],[0.4538541666666667,-0.5587037037037037,6.893799999713906],[0.4965625000000001,-0.5264814814814816,6.912699999809263],[0.4804166666666667,-0.5020370370370371,6.9285],[0.4046875,-0.4690740740740741,6.945499999999996],[0.33645833333333336,-0.490925925925926,6.960399999618531],[0.3203125,-0.42185185185185187,6.979399999618536],[0.27218749999999997,-0.40407407407407403,6.9937999997139],[0.22864583333333333,-0.3603703703703704,7.0105000000000075],[0.17385416666666675,-0.32166666666666666,7.028399999618529],[0.15229166666666671,-0.3344444444444445,7.049099999904641],[0.12625000000000006,-0.285,7.063299999713905],[0.1118750000000001,-0.2718518518518519,7.080599999904635],[0.05916666666666662,-0.2655555555555555,7.1136999998092705],[0.05916666666666662,-0.2655555555555555,7.126799999713896],[0.05416666666666667,-0.26851851851851855,7.146199999809269],[0.05416666666666667,-0.26851851851851855,7.153000000000006],[0.05572916666666667,-0.2559259259259259,7.179399999618539],[0.05572916666666667,-0.2559259259259259,7.1858999996185275],[0.024479166666666666,-0.2796296296296296,7.212899999618529],[0.024479166666666666,-0.2796296296296296,7.220299999713902],[0.024479166666666666,-0.2796296296296296,7.227199999809272],[0.024479166666666666,-0.2796296296296296,7.246199999809264],[0.007604166666666619,-0.3087037037037037,7.279499999999999],[0.007604166666666619,-0.3087037037037037,7.286299999713904],[0.0036458333333333334,-0.3592592592592593,7.313099999904637],[0.0036458333333333334,-0.3592592592592593,7.319599999904639],[-0.0016666666666666904,-0.3792592592592593,7.3462999997139065],[-0.0016666666666666904,-0.3792592592592593,7.353299999713897],[-0.025,-0.36574074074074076,7.379699999809262],[-0.025,-0.36574074074074076,7.3870000000000005],[-0.044375000000000026,-0.4111111111111111,7.413099999904631],[-0.044375000000000026,-0.4111111111111111,7.4202999997139045],[-0.05520833333333333,-0.4262962962962963,7.446899999618537],[-0.05520833333333333,-0.4262962962962963,7.454499999999996],[-0.03093750000000005,-0.4375925925925926,7.479599999904636],[-0.03093750000000005,-0.4375925925925926,7.495999999999995],[-0.02312500000000005,-0.47537037037037033,7.5130999999046395],[-0.02312500000000005,-0.47537037037037033,7.519899999618531],[-0.016145833333333335,-0.49370370370370376,7.551799999713893],[-0.016145833333333335,-0.49370370370370376,7.559199999809266],[-0.009791666666666643,-0.5700000000000001,7.582499999999996],[-0.009791666666666643,-0.5700000000000001,7.590099999904638],[-0.0002083333333333807,-0.5835185185185185,7.616],[-0.0002083333333333807,-0.5835185185185185,7.622899999618539],[0.03718750000000005,-0.652962962962963,7.662799999713897],[0.03718750000000005,-0.652962962962963,7.670399999618539],[0.06510416666666667,-0.6618518518518518,7.681199999809266],[0.06510416666666667,-0.6618518518518518,7.693799999713903],[0.07072916666666676,-0.6407407407407407,7.710499999999996],[0.07072916666666676,-0.6407407407407407,7.727199999809272],[0.09166666666666666,-0.617037037037037,7.7438999996185345],[0.09166666666666666,-0.617037037037037,7.7605000000000075],[0.08822916666666672,-0.6211111111111111,7.77719999980927],[0.08822916666666672,-0.6211111111111111,7.793799999713897],[0.08406250000000005,-0.6353703703703704,7.810500000000005],[0.08406250000000005,-0.6353703703703704,7.827199999809267],[0.09385416666666657,-0.609074074074074,7.843899999618529],[0.09385416666666657,-0.609074074074074,7.860500000000002],[0.11229166666666662,-0.6392592592592592,7.877299999713898],[0.11229166666666662,-0.6392592592592592,7.893899999618526],[0.11437499999999995,-0.5735185185185185,7.910499999999999],[0.11437499999999995,-0.5735185185185185,7.927199999809261]]","[0.0003999996185228838,0.05039999961853425,0.060599999904624724,0.07809999990463723,0.09909999990463803,0.11339999961852243,0.12729999971389816,0.14729999971389418,0.16369999980926764,0.18009999990462688,0.195299999713896,0.21069999980926468,0.22969999980927014,0.24659999990463177,0.2607999997138961,0.27769999980925775,0.2945999999046336,0.310699999809259,0.327299999713901,0.3533999996185315,0.3652999997138977,0.37999999999999545,0.3940999999046255,0.4124999999999943,0.4272999997138953,0.4440000000000026,0.4605999999046304,0.4771999998092582,0.4938999996185345,0.5104999999999933,0.5278999996185263,0.5439999999999969,0.5605999999046247,0.577299999713901,0.5938999996185288,0.6106999998092704,0.6272999997138982,0.643899999618526,0.660499999999999,0.6773999996185296,0.6938999996185231,0.7105999999046304,0.7272999997138925,0.7439999999999998,0.7605999999046276,0.7772999997138896,0.7938999996185316,0.8105999999046247,0.8271999998092667,0.8463999996185265,0.8605999999046361,0.8771999998092639,0.893899999618526,0.9105999999046333,0.927199999809261,0.9442999997138912,0.9608999996185332,0.980099999904624,0.9938999996185345,1.0105999999046276,1.0271999998092696,1.0473999996185341,1.0607999997138933,1.0773999996185353,1.0977999997138994,1.110599999904636,1.1272999997138982,1.143899999618526,1.1605999999046333,1.177199999809261,1.1938999996185231,1.2104999999999961,1.2271999998092582,1.2438999996185345,1.261499999999998,1.2785999999046282,1.2946999998092679,1.3105000000000047,1.3271999998092667,1.346899999618529,1.3606999998092704,1.3786999998092568,1.393899999618526,1.4133999996185338,1.4277999997138977,1.444599999904625,1.4624999999999915,1.4808999996185293,1.494099999904634,1.5108999996185304,1.5271999998092696,1.5438999996185316,1.5605999999046247,1.5771999998092667,1.5938999996185288,1.610599999904636,1.6271999998092639,1.643899999618526,1.660499999999999,1.6820999999046364,1.698999999999998,1.7104999999999961,1.7271999998092582,1.7508999996185253,1.7605999999046276,1.7772999997138896,1.7955999999046242,1.8142999997138958,1.836199999809267,1.843999999999994,1.860599999904636,1.8776999998092663,1.894599999904628,1.9107999997139018,1.927199999809261,1.9438999996185231,1.9634999999999962,1.9821999998092679,1.9980999999046247,2.0145999999046325,2.0319999999999965,2.0438999996185316,2.0607999997138933,2.0782999997138916,2.0952999997139017,2.1185999999046317,2.1276999998092663,2.1440999999046255,2.162399999618529,2.180799999713898,2.196699999809269,2.21569999980926,2.2317999997138998,2.2513999996185277,2.2604999999999933,2.2775000000000034,2.297399999618534,2.3133999996185253,2.3299999999999983,2.347599999904631,2.362499999999997,2.3796999998092616,2.395699999809267,2.4106999998092675,2.4272999997138953,2.4457999997138984,2.46259999990464,2.4787999997138996,2.495599999904641,2.5137999997138962,2.5290999999046306,2.5448999996185364,2.560599999904639,2.5800999999046326,2.597999999999999,2.6132999997139024,2.6310999999046345,2.6481999998092647,2.663899999618536,2.69239999961853,2.6991999998092666,2.7105999999046304,2.7287999997138996,2.7442999997139026,2.7609999999999957,2.7796999998092673,2.7956999998092726,2.810599999904639,2.8271999998092667,2.844299999713897,2.860500000000002,2.877599999904632,2.893899999618526,2.9105999999046333,2.927199999809261,2.945299999713896,2.9609999999999985,2.9797999997139044,2.9956999998092613,3.0105999999046276,3.0308999996185264,3.047699999809268,3.0635000000000048,3.0808999996185378,3.0940999999046284,3.110599999904636,3.1273999996185324,3.143799999713906,3.162000000000006,3.177500000000009,3.1938999996185373,3.212299999713906,3.2271999998092724,3.2464999999999975,3.2635000000000076,3.280000000000001,3.2970999999046313,3.3130000000000024,3.3285999999046396,3.3441999998092626,3.360899999618539,3.377199999809264,3.393899999618526,3.4125999999046286,3.4276999998092634,3.4443999996185255,3.4642999997139015,3.4800999999046383,3.495599999904641,3.513399999618528,3.530599999904638,3.543999999999997,3.5605000000000047,3.5771999998092667,3.593899999618529,3.610599999904636,3.627199999809264,3.644699999809262,3.660499999999999,3.677199999809261,3.6940000000000026,3.7168999996185335,3.7271999998092724,3.7438999996185345,3.7626999998092714,3.7771999998092696,3.7937999997138974,3.8122999997139004,3.832899999618533,3.8440000000000083,3.8606999998092704,3.8810999999046345,3.8981999998092647,3.9146999998092724,3.9303999996185297,3.946699999809269,3.9606999998092647,3.978899999618534,3.995299999713893,4.0120000000000005,4.028599999904628,4.049599999904629,4.067799999713898,4.089799999713904,4.0981999998092675,4.110500000000002,4.127199999809264,4.145399999618533,4.160499999999999,4.177199999809261,4.193899999618537,4.210499999999996,4.227199999809272,4.244,4.2605000000000075,4.27719999980927,4.293799999713897,4.310399999618539,4.327199999809267,4.34659999990464,4.360599999904636,4.37709999990463,4.394399999618528,4.4125000000000085,4.427299999713895,4.443799999713903,4.460499999999996,4.477199999809272,4.4938999996185345,4.5105000000000075,4.52719999980927,4.5442999997139,4.563399999618525,4.577199999809267,4.5937999997138945,4.6103999996185365,4.62709999990463,4.64409999990464,4.660499999999999,4.677199999809261,4.693799999713903,4.71259999990464,4.727299999713907,4.7438999996185345,4.760399999618528,4.777500000000003,4.793799999713897,4.810500000000005,4.827199999809267,4.846899999618529,4.860500000000002,4.87709999990463,4.893799999713906,4.910599999904633,4.927199999809261,4.943899999618537,4.96059999990463,4.977199999809272,4.9937999997139,5.0105000000000075,5.02719999980927,5.043999999999997,5.060599999904639,5.077500000000001,5.097699999809265,5.110500000000002,5.127199999809264,5.146699999809272,5.1606999998092675,5.177199999809261,5.193799999713903,5.210499999999996,5.227199999809272,5.2437999997139,5.2605000000000075,5.27719999980927,5.293899999618532,5.310500000000005,5.327199999809267,5.346799999713895,5.360500000000002,5.377199999809264,5.393899999618526,5.413199999809265,5.429000000000002,5.446399999618535,5.460499999999996,5.477199999809272,5.4937999997139,5.51109999990463,5.52719999980927,5.543899999618532,5.560599999904639,5.5770999999046325,5.594000000000008,5.610500000000002,5.627199999809264,5.643899999618526,5.660499999999999,5.677099999904641,5.693799999713903,5.710499999999996,5.727199999809272,5.744299999713903,5.760399999618528,5.77719999980927,5.793799999713897,5.810799999713893,5.82959999990463,5.847599999904631,5.8636999998092705,5.8799999999999955,5.895199999809265,5.910499999999999,5.930099999904641,5.946299999713901,5.960399999618531,5.979500000000002,5.994500000000002,6.0105000000000075,6.02719999980927,6.046599999904629,6.061199999809261,6.0796999998092645,6.0937999997138945,6.110599999904636,6.131699999809271,6.143799999713906,6.160499999999999,6.177099999904641,6.194000000000003,6.210499999999996,6.227199999809272,6.250399999618537,6.260699999809262,6.277399999618538,6.293999999999997,6.313000000000002,6.327399999618535,6.346099999904638,6.365199999809263,6.3821999998092735,6.397199999809274,6.412599999904629,6.429899999618527,6.44539999961853,6.460799999713899,6.481299999713897,6.494,6.510699999809262,6.527699999809272,6.546699999809263,6.560599999904639,6.577399999618535,6.594000000000008,6.613399999618537,6.627699999809266,6.646799999713906,6.663799999713902,6.6785,6.694099999904637,6.714399999618536,6.730799999713895,6.746299999713898,6.760999999999996,6.780899999618526,6.7972999997139,6.810599999904639,6.827299999713901,6.849099999904638,6.860599999904636,6.877399999618532,6.893799999713906,6.912699999809263,6.9285,6.945499999999996,6.960399999618531,6.979399999618536,6.9937999997139,7.0105000000000075,7.028399999618529,7.049099999904641,7.063299999713905,7.080599999904635,7.1136999998092705,7.126799999713896,7.146199999809269,7.153000000000006,7.179399999618539,7.1858999996185275,7.212899999618529,7.220299999713902,7.227199999809272,7.246199999809264,7.279499999999999,7.286299999713904,7.313099999904637,7.319599999904639,7.3462999997139065,7.353299999713897,7.379699999809262,7.3870000000000005,7.413099999904631,7.4202999997139045,7.446899999618537,7.454499999999996,7.479599999904636,7.495999999999995,7.5130999999046395,7.519899999618531,7.551799999713893,7.559199999809266,7.582499999999996,7.590099999904638,7.616,7.622899999618539,7.662799999713897,7.670399999618539,7.681199999809266,7.693799999713903,7.710499999999996,7.727199999809272,7.7438999996185345,7.7605000000000075,7.77719999980927,7.793799999713897,7.810500000000005,7.827199999809267,7.843899999618529,7.860500000000002,7.877299999713898,7.893899999618526,7.910499999999999,7.927199999809261]","[1731899829403,1731899829443,1731899829454,1731899829471,1731899829492,1731899829506,1731899829520,1731899829540,1731899829557,1731899829573,1731899829588,1731899829604,1731899829623,1731899829640,1731899829654,1731899829671,1731899829688,1731899829704,1731899829720,1731899829746,1731899829758,1731899829773,1731899829787,1731899829805,1731899829820,1731899829837,1731899829854,1731899829870,1731899829887,1731899829904,1731899829921,1731899829937,1731899829954,1731899829970,1731899829987,1731899830004,1731899830020,1731899830037,1731899830053,1731899830070,1731899830087,1731899830104,1731899830120,1731899830137,1731899830154,1731899830170,1731899830187,1731899830204,1731899830220,1731899830239,1731899830254,1731899830270,1731899830287,1731899830304,1731899830320,1731899830337,1731899830354,1731899830373,1731899830387,1731899830404,1731899830420,1731899830440,1731899830454,1731899830470,1731899830491,1731899830504,1731899830520,1731899830537,1731899830554,1731899830570,1731899830587,1731899830604,1731899830620,1731899830637,1731899830655,1731899830672,1731899830688,1731899830704,1731899830720,1731899830740,1731899830754,1731899830772,1731899830787,1731899830806,1731899830821,1731899830838,1731899830855,1731899830874,1731899830887,1731899830904,1731899830920,1731899830937,1731899830954,1731899830970,1731899830987,1731899831004,1731899831020,1731899831037,1731899831054,1731899831075,1731899831092,1731899831103,1731899831120,1731899831144,1731899831154,1731899831170,1731899831189,1731899831207,1731899831229,1731899831237,1731899831254,1731899831271,1731899831288,1731899831304,1731899831320,1731899831337,1731899831357,1731899831375,1731899831391,1731899831408,1731899831425,1731899831437,1731899831454,1731899831471,1731899831488,1731899831512,1731899831521,1731899831537,1731899831555,1731899831574,1731899831590,1731899831609,1731899831625,1731899831644,1731899831654,1731899831670,1731899831690,1731899831706,1731899831723,1731899831741,1731899831755,1731899831773,1731899831789,1731899831804,1731899831820,1731899831839,1731899831856,1731899831872,1731899831889,1731899831907,1731899831922,1731899831938,1731899831954,1731899831973,1731899831991,1731899832006,1731899832024,1731899832041,1731899832057,1731899832085,1731899832092,1731899832104,1731899832122,1731899832137,1731899832154,1731899832173,1731899832189,1731899832204,1731899832220,1731899832237,1731899832254,1731899832271,1731899832287,1731899832303,1731899832320,1731899832338,1731899832354,1731899832373,1731899832389,1731899832404,1731899832424,1731899832441,1731899832456,1731899832474,1731899832487,1731899832504,1731899832520,1731899832537,1731899832555,1731899832571,1731899832587,1731899832605,1731899832620,1731899832639,1731899832657,1731899832673,1731899832690,1731899832706,1731899832722,1731899832737,1731899832754,1731899832770,1731899832787,1731899832806,1731899832821,1731899832837,1731899832857,1731899832873,1731899832888,1731899832906,1731899832924,1731899832937,1731899832954,1731899832970,1731899832987,1731899833004,1731899833020,1731899833038,1731899833054,1731899833070,1731899833087,1731899833110,1731899833120,1731899833137,1731899833156,1731899833170,1731899833187,1731899833205,1731899833226,1731899833237,1731899833254,1731899833274,1731899833291,1731899833308,1731899833323,1731899833340,1731899833354,1731899833372,1731899833388,1731899833405,1731899833422,1731899833443,1731899833461,1731899833483,1731899833491,1731899833503,1731899833520,1731899833538,1731899833553,1731899833570,1731899833587,1731899833603,1731899833620,1731899833637,1731899833653,1731899833670,1731899833687,1731899833703,1731899833720,1731899833740,1731899833754,1731899833770,1731899833787,1731899833805,1731899833820,1731899833837,1731899833853,1731899833870,1731899833887,1731899833903,1731899833920,1731899833937,1731899833956,1731899833970,1731899833987,1731899834003,1731899834020,1731899834037,1731899834053,1731899834070,1731899834087,1731899834106,1731899834120,1731899834137,1731899834153,1731899834170,1731899834187,1731899834203,1731899834220,1731899834240,1731899834254,1731899834270,1731899834287,1731899834304,1731899834320,1731899834337,1731899834354,1731899834370,1731899834387,1731899834403,1731899834420,1731899834437,1731899834454,1731899834470,1731899834491,1731899834504,1731899834520,1731899834540,1731899834554,1731899834570,1731899834587,1731899834603,1731899834620,1731899834637,1731899834654,1731899834670,1731899834687,1731899834703,1731899834720,1731899834740,1731899834753,1731899834770,1731899834787,1731899834806,1731899834822,1731899834839,1731899834853,1731899834870,1731899834887,1731899834904,1731899834920,1731899834937,1731899834954,1731899834970,1731899834987,1731899835003,1731899835020,1731899835037,1731899835053,1731899835070,1731899835087,1731899835103,1731899835120,1731899835137,1731899835153,1731899835170,1731899835187,1731899835204,1731899835223,1731899835241,1731899835257,1731899835273,1731899835288,1731899835303,1731899835323,1731899835339,1731899835353,1731899835373,1731899835387,1731899835403,1731899835420,1731899835440,1731899835454,1731899835473,1731899835487,1731899835504,1731899835525,1731899835537,1731899835553,1731899835570,1731899835587,1731899835603,1731899835620,1731899835643,1731899835654,1731899835670,1731899835687,1731899835706,1731899835720,1731899835739,1731899835758,1731899835775,1731899835790,1731899835806,1731899835823,1731899835838,1731899835854,1731899835874,1731899835887,1731899835904,1731899835921,1731899835940,1731899835954,1731899835970,1731899835987,1731899836006,1731899836021,1731899836040,1731899836057,1731899836071,1731899836087,1731899836107,1731899836124,1731899836139,1731899836154,1731899836174,1731899836190,1731899836204,1731899836220,1731899836242,1731899836254,1731899836270,1731899836287,1731899836306,1731899836321,1731899836339,1731899836353,1731899836372,1731899836387,1731899836403,1731899836421,1731899836442,1731899836456,1731899836474,1731899836507,1731899836520,1731899836539,1731899836546,1731899836572,1731899836579,1731899836606,1731899836613,1731899836620,1731899836639,1731899836672,1731899836679,1731899836706,1731899836713,1731899836739,1731899836746,1731899836773,1731899836780,1731899836806,1731899836813,1731899836840,1731899836847,1731899836873,1731899836889,1731899836906,1731899836913,1731899836945,1731899836952,1731899836975,1731899836983,1731899837009,1731899837016,1731899837056,1731899837063,1731899837074,1731899837087,1731899837103,1731899837120,1731899837137,1731899837153,1731899837170,1731899837187,1731899837203,1731899837220,1731899837237,1731899837253,1731899837270,1731899837287,1731899837303,1731899837320]","[[1046.8,515.1],[1046.8,515.1],[1035.7,513.6],[1053.8,519.5],[1044.9,523.1],[1044.9,523.1],[1045.2,548.2],[1010.9,539.6],[1023,572.8],[1049.2,575.9],[1063.3,590.3],[1076.7,603],[1075.5,602.1],[1055.9,562.8],[1022.4,525.7],[1027.6,489.9],[1010,466.6],[1022.4,481.1],[981,460.8],[981,460.8],[961.2,490.5],[922.6,455.1],[898.4,443.9],[889.5,447.1],[889.5,447.1],[897.5,487.5],[888.6,493.3],[870.1,513.7],[873.8,517.8],[860.1,501.2],[860.1,501.2],[857.1,481.3],[852.1,442.3],[867.8,459.3],[877.6,461.4],[855.9,444.1],[818.1,395],[787.2,365.4],[750.6,332.6],[720.4,310.4],[720.4,310.4],[686,304.7],[669.3,297.8],[669.3,297.8],[627.2,275.2],[627.2,275.2],[592.3,286.8],[549,283.1],[537.1,276.8],[534.8,277.4],[577.2,316.7],[606,342.6],[647.5,365.3],[696.4,377.8],[751.1,401.2],[832.8,436.5],[904.5,446.6],[946.3,482.3],[1011,524.1],[1073.4,563],[1097.6,570.1],[1141.1,593.8],[1140.7,583.8],[1147.2,580.4],[1171.8,587.5],[1171.8,587.5],[1171.6,588],[1171.6,588],[1158.1,616.2],[1183.2,619.2],[1189.5,606.4],[1204.7,600.8],[1200.4,588.9],[1196.1,577],[1213.9,565.5],[1244.2,551.3],[1243.1,525.1],[1242,498.9],[1255.4,433.7],[1255.4,433.7],[1283.1,412.5],[1298,440.7],[1298,440.7],[1306.3,464.6],[1353.5,480.3],[1361,472.8],[1388.1,528.3],[1400.6,563.4],[1432.3,569.4],[1455.6,583.2],[1423.4,625.3],[1423.4,625.3],[1368.1,629],[1368.1,629],[1339.5,617.5],[1339.5,617.5],[1331.2,590.9],[1331.2,590.9],[1287.2,541.3],[1307.7,523.1],[1296.6,473.5],[1296.6,473.5],[1265.9,419.1],[1237.8,430.1],[1237.8,430.1],[1251.6,426.2],[1322.5,405.7],[1386.9,375.7],[1416.9,354.7],[1416.9,354.7],[1428.6,366.9],[1426.6,391.1],[1399.6,410.1],[1397.1,435.8],[1407.8,481.2],[1407.8,481.2],[1410,491.8],[1370.8,526.8],[1313.6,579.3],[1275.5,640.4],[1243,675.6],[1243,675.6],[1231.6,663.9],[1234.6,684.1],[1265,725.5],[1282.8,751.5],[1282.8,751.5],[1280.6,749.6],[1297.9,758],[1293.6,738.9],[1336.1,724],[1376,688.4],[1415.9,691.4],[1415.9,691.4],[1450.4,692.4],[1460.1,681.7],[1456.8,630],[1449.3,606.1],[1452.3,578.8],[1445.5,552.4],[1449.7,548.8],[1434.2,540],[1386.3,528.8],[1386.3,528.8],[1369.3,503.9],[1338.1,485.8],[1328.5,495.6],[1310.4,529.4],[1340.7,518.2],[1378.5,539.7],[1388.2,537.2],[1405.4,530.8],[1410.5,488.9],[1462.3,485.9],[1480.2,477.4],[1478.4,483.9],[1476.6,490.9],[1491.2,467.9],[1463.1,469.5],[1431.8,463.3],[1431.8,463.3],[1434.3,462.5],[1407.9,481.8],[1380.4,500],[1352.4,495.2],[1347.6,493],[1353.1,531.5],[1369.3,504.4],[1388.3,510.9],[1407.6,504.8],[1397.2,498.9],[1392.3,509.1],[1434.3,473.8],[1475.4,501.6],[1497.7,494.5],[1504.9,475.5],[1528.9,427.2],[1533.3,427.4],[1541.3,401.9],[1553.3,388],[1573,368],[1565,338.2],[1551.8,341.7],[1549.3,305],[1549.3,305],[1539.3,296.1],[1539.3,296.1],[1530.5,303.6],[1514.3,322.3],[1512.7,326],[1492,329.4],[1472,349.7],[1458.3,360.2],[1477,379.2],[1472,408.9],[1461.3,435.8],[1474.7,462.9],[1495.5,481.7],[1502.2,482.2],[1495.7,491.3],[1478.3,514.9],[1446.9,522.1],[1434.8,546.7],[1400.5,544.6],[1396.4,531.2],[1392.3,517.8],[1372.9,515.3],[1350.7,509],[1326.2,523.9],[1338.8,532.3],[1345.1,539.7],[1345.1,539.7],[1363.7,566.2],[1363.7,566.2],[1372.8,573.1],[1372.8,573.1],[1388,596.8],[1388,596.8],[1407,621.2],[1407,621.2],[1424.9,628.1],[1455.2,647.9],[1455.2,647.9],[1486.4,659.5],[1517,659],[1552,658.9],[1576.1,668],[1612.5,651.3],[1626.3,655.5],[1626.3,655.5],[1648.1,645.7],[1627.7,649.3],[1597.5,676.1],[1545.3,698.7],[1504.4,724],[1482.5,739.6],[1426.3,743.6],[1388.8,740.1],[1335.4,756.9],[1310.2,771.2],[1276.5,794],[1272.9,786.7],[1272.9,786.7],[1223.7,767.9],[1223.7,767.9],[1204,748],[1173.5,713.9],[1137,696.3],[1105.6,699.2],[1057.9,694.8],[1017.2,658.1],[976.3,649.8],[945.6,647.5],[897.3,639.5],[939.9,625.5],[930.3,632.2],[939.6,646.6],[922.7,657.7],[952.7,646.9],[972.4,664.6],[1003.2,696.7],[1021.9,718.5],[1049.7,720.3],[1068.4,742.9],[1082.4,761.5],[1084.4,751.9],[1105.7,761],[1120.6,774.9],[1115.5,783.9],[1137,771.7],[1147.7,766.6],[1161,753.6],[1155,748],[1181.9,744.8],[1167.8,747.2],[1198.2,766.6],[1190.8,761.1],[1225.1,751.4],[1232.7,755.7],[1240.6,779.2],[1251,779.2],[1279.7,783.8],[1279.1,780.3],[1279.9,784.6],[1276.1,784.3],[1259.8,761.5],[1241.6,781],[1225.1,788.4],[1204.5,794.6],[1195.5,792.4],[1160.9,797.5],[1140,809.4],[1140,809.4],[1130.5,828.3],[1121.4,827.4],[1121.9,837.2],[1134.8,863.7],[1154.3,846.1],[1161.4,849],[1183.2,859.9],[1183.2,859.9],[1189.4,826.4],[1204.6,836.4],[1214.1,796],[1228.9,805.4],[1228.9,805.4],[1246.7,786.6],[1262.2,795.7],[1281.7,754],[1278.5,769.9],[1276.1,753.6],[1266.1,734.7],[1266.1,734.7],[1272.1,755.9],[1286.4,765],[1292.3,764.7],[1273.7,765.6],[1248.2,760.3],[1227.2,760.1],[1199,781.6],[1189.5,784.6],[1174.7,775.8],[1168.5,795.9],[1138.7,776],[1114.5,765.8],[1068.6,780.3],[1068.2,777.3],[1052.2,783.6],[1060.5,760.9],[1056.7,749.6],[1057.1,733.8],[1057.1,733.8],[1057.3,723.1],[1057.3,723.1],[1056.7,722.2],[1056.7,722.2],[1038,737.3],[1038,737.3],[1015.8,722.3],[1015.8,722.3],[998.1,697],[998.1,697],[952.4,670.9],[921,639.9],[867.1,614.8],[867.1,614.8],[838.9,591.6],[797.2,565.2],[732,541.4],[696,479.8],[675.8,450.6],[657.5,439.3],[649.9,443.8],[657.8,439.2],[667.9,460.3],[680.3,475.6],[660.8,496.6],[642.1,513.8],[706.3,547.4],[729,583.6],[794.9,620.9],[843.6,621.5],[916.8,656.6],[959.3,658.8],[959.3,658.8],[1020.1,675.9],[1083.1,667.5],[1083.1,667.5],[1171.1,661.7],[1250.3,657.3],[1272,658.6],[1286.9,653.5],[1294,643.1],[1312.5,637.7],[1312.5,637.7],[1301.2,614.7],[1307.2,622],[1301,622.7],[1282.8,626.3],[1230,625.4],[1220.1,605.8],[1199.4,558],[1200.7,480.9],[1171.5,412.8],[1157.6,356.9],[1154.2,320],[1139.3,267.2],[1134.8,226.1],[1134.8,226.1],[1127.2,180.1],[1137.1,153.9],[1119.9,133.3],[1131.2,127.8],[1152,181.4],[1143.1,187.8],[1142.1,240],[1153.1,231.3],[1142,235.4],[1137.9,216.2],[1120.9,220],[1131.7,221.3],[1110.2,215.5],[1147.4,220.9],[1175.2,207.9],[1232.5,230.9],[1254.6,193.8],[1270,207.5],[1270,207.5],[1309.7,221.5],[1333,223.8],[1333,223.8],[1373.9,238.3],[1395.7,238.3],[1436.7,255.7],[1421.2,268.9],[1348.5,286.7],[1283,274.9],[1267.5,312.2],[1221.3,321.8],[1179.5,345.4],[1126.9,366.3],[1106.2,359.4],[1081.2,386.1],[1067.4,393.2],[1016.8,396.6],[1016.8,396.6],[1012,395],[1012,395],[1013.5,401.8],[1013.5,401.8],[983.5,389],[983.5,389],[983.5,389],[983.5,389],[967.3,373.3],[967.3,373.3],[963.5,346],[963.5,346],[958.4,335.2],[958.4,335.2],[936,342.5],[936,342.5],[917.4,318],[917.4,318],[907,309.8],[907,309.8],[930.3,303.7],[930.3,303.7],[937.8,283.3],[937.8,283.3],[944.5,273.4],[944.5,273.4],[950.6,232.2],[950.6,232.2],[959.8,224.9],[959.8,224.9],[995.7,187.4],[995.7,187.4],[1022.5,182.6],[1022.5,182.6],[1027.9,194],[1027.9,194],[1048,206.8],[1048,206.8],[1044.7,204.6],[1044.7,204.6],[1040.7,196.9],[1040.7,196.9],[1050.1,211.1],[1050.1,211.1],[1067.8,194.8],[1067.8,194.8],[1069.8,230.3],[1069.8,230.3]]","[-0.2,0.6000000000000001]","[0.2,0.6000000000000001]","[0.6000000000000001,0.6000000000000001]","[-0.6000000000000001,0.2]","[-0.6000000000000001,-0.2]","[-0.6000000000000001,-0.6000000000000001]","[-0.2,0.2]","[0.2,0.2]","[0.6000000000000001,0.2]","[-0.2,-0.2]","[0.2,-0.2]","[0.6000000000000001,-0.2]","[-0.2,-0.6000000000000001]","[0.2,-0.6000000000000001]","[0.6000000000000001,-0.6000000000000001]",0,0,0,0,1,4,Monitor,25,20,8,1,60,4,1,60,3
