inst1_resp.keys,inst1_resp.rt,calibrationMouse.x,calibrationMouse.y,calibrationMouse.leftButton,calibrationMouse.midButton,calibrationMouse.rightButton,calibrationClick.x,calibrationClick.y,calibrationClick.leftButton,calibrationClick.midButton,calibrationClick.rightButton,calibrationClick.clicked_name,trialsc.thisRepN,trialsc.thisTrialN,trialsc.thisN,trialsc.thisIndex,trialsc.ran,calibration_x,calibration_y,participant,session,date,expName,psychopyVersion,OS,frameRate,ScreenRes_pixels,Camera_pixels,mouse_2.x,mouse_2.y,mouse_2.leftButton,mouse_2.midButton,mouse_2.rightButton,mouse_2.time,mouse_2.clicked_name,mouse.x,mouse.y,mouse.leftButton,mouse.midButton,mouse.rightButton,mouse.time,mouse.clicked_name,Choice,Trial,TrialDuration,MOUSE_GAZE,ET_GAZE,ET_GAZE_x_T,time,unixTime,ET_GAZE_NF,Loc_Bus_label,Loc_Metro_label,Loc_RH_label,Loc_Cost_label,Loc_Travel_label,Loc_Comfort_label,Loc_Bus_cost,Loc_Metro_cost,Loc_RH_cost,Loc_Bus_travel,Loc_Metro_travel,Loc_RH_travel,Loc_Bus_comfort,Loc_Metro_comfort,Loc_RH_comfort,trials.thisRepN,trials.thisTrialN,trials.thisN,trials.thisIndex,trials.ran,Block,Device,RH_cost,RH_travel_time,RH_Comfort,metro_cost,metro_travel_time,metro_Comfort,Bus_cost,Bus_travel_time,Bus_Comfort
space,6.8976,-0.101041667,0.094444444,1,0,0,0.003125,-0.32037037,1,0,0,calibration_square,0,0,0,10,1,0,-0.33,09,001,2024-11-25_12h42.40.281,Attention_exp_legacy,2023.1.0,Win32,60.24096386,,,,,,,,,,,,,,,,,,,,,,,,,,,,,,,,,,,,,,,,,,,,,,,,,,,,,,,,
,,,,,,,0.665625,-0.659259259,1,0,0,,0,1,1,20,1,0.67,-0.67,09,001,2024-11-25_12h42.40.281,Attention_exp_legacy,2023.1.0,Win32,60.24096386,,,,,,,,,,,,,,,,,,,,,,,,,,,,,,,,,,,,,,,,,,,,,,,,,,,,,,,,
,,,,,,,0.330208333,0.340740741,1,0,0,,0,2,2,17,1,0.33,0.33,09,001,2024-11-25_12h42.40.281,Attention_exp_legacy,2023.1.0,Win32,60.24096386,,,,,,,,,,,,,,,,,,,,,,,,,,,,,,,,,,,,,,,,,,,,,,,,,,,,,,,,
,,,,,,,0.33125,-0.331481481,1,0,0,calibration_square,0,3,3,15,1,0.33,-0.33,09,001,2024-11-25_12h42.40.281,Attention_exp_legacy,2023.1.0,Win32,60.24096386,,,,,,,,,,,,,,,,,,,,,,,,,,,,,,,,,,,,,,,,,,,,,,,,,,,,,,,,
,,,,,,,-0.663541667,-0.312962963,1,0,0,,0,4,4,1,1,-0.67,-0.33,09,001,2024-11-25_12h42.40.281,Attention_exp_legacy,2023.1.0,Win32,60.24096386,,,,,,,,,,,,,,,,,,,,,,,,,,,,,,,,,,,,,,,,,,,,,,,,,,,,,,,,
,,,,,,,-0.670833333,-0.655555556,1,0,0,,0,5,5,0,1,-0.67,-0.67,09,001,2024-11-25_12h42.40.281,Attention_exp_legacy,2023.1.0,Win32,60.24096386,,,,,,,,,,,,,,,,,,,,,,,,,,,,,,,,,,,,,,,,,,,,,,,,,,,,,,,,
,,,,,,,0.004166667,0.001851852,1,0,0,calibration_square,0,6,6,11,1,0,0,09,001,2024-11-25_12h42.40.281,Attention_exp_legacy,2023.1.0,Win32,60.24096386,,,,,,,,,,,,,,,,,,,,,,,,,,,,,,,,,,,,,,,,,,,,,,,,,,,,,,,,
,,,,,,,-0.335416667,-0.333333333,1,0,0,calibration_square,0,7,7,5,1,-0.33,-0.33,09,001,2024-11-25_12h42.40.281,Attention_exp_legacy,2023.1.0,Win32,60.24096386,,,,,,,,,,,,,,,,,,,,,,,,,,,,,,,,,,,,,,,,,,,,,,,,,,,,,,,,
,,,,,,,0.321875,0.683333333,1,0,0,,0,8,8,18,1,0.33,0.67,09,001,2024-11-25_12h42.40.281,Attention_exp_legacy,2023.1.0,Win32,60.24096386,,,,,,,,,,,,,,,,,,,,,,,,,,,,,,,,,,,,,,,,,,,,,,,,,,,,,,,,
,,,,,,,0.003125,0.666666667,1,0,0,calibration_square,0,9,9,13,1,0,0.67,09,001,2024-11-25_12h42.40.281,Attention_exp_legacy,2023.1.0,Win32,60.24096386,,,,,,,,,,,,,,,,,,,,,,,,,,,,,,,,,,,,,,,,,,,,,,,,,,,,,,,,
,,,,,,,-0.322916667,0.012962963,1,0,0,,0,10,10,6,1,-0.33,0,09,001,2024-11-25_12h42.40.281,Attention_exp_legacy,2023.1.0,Win32,60.24096386,,,,,,,,,,,,,,,,,,,,,,,,,,,,,,,,,,,,,,,,,,,,,,,,,,,,,,,,
,,,,,,,-0.311458333,0.666666667,1,0,0,,0,11,11,8,1,-0.33,0.67,09,001,2024-11-25_12h42.40.281,Attention_exp_legacy,2023.1.0,Win32,60.24096386,,,,,,,,,,,,,,,,,,,,,,,,,,,,,,,,,,,,,,,,,,,,,,,,,,,,,,,,
,,,,,,,0.33125,0.001851852,1,0,0,calibration_square,0,12,12,16,1,0.33,0,09,001,2024-11-25_12h42.40.281,Attention_exp_legacy,2023.1.0,Win32,60.24096386,,,,,,,,,,,,,,,,,,,,,,,,,,,,,,,,,,,,,,,,,,,,,,,,,,,,,,,,
,,,,,,,0.001041667,0.342592593,1,0,0,,0,13,13,12,1,0,0.33,09,001,2024-11-25_12h42.40.281,Attention_exp_legacy,2023.1.0,Win32,60.24096386,,,,,,,,,,,,,,,,,,,,,,,,,,,,,,,,,,,,,,,,,,,,,,,,,,,,,,,,
,,,,,,,-0.661458333,0.009259259,1,0,0,calibration_square,0,14,14,2,1,-0.67,0,09,001,2024-11-25_12h42.40.281,Attention_exp_legacy,2023.1.0,Win32,60.24096386,,,,,,,,,,,,,,,,,,,,,,,,,,,,,,,,,,,,,,,,,,,,,,,,,,,,,,,,
,,,,,,,0.002083333,-0.67037037,1,0,0,calibration_square,0,15,15,9,1,0,-0.67,09,001,2024-11-25_12h42.40.281,Attention_exp_legacy,2023.1.0,Win32,60.24096386,,,,,,,,,,,,,,,,,,,,,,,,,,,,,,,,,,,,,,,,,,,,,,,,,,,,,,,,
,,,,,,,-0.336458333,0.331481481,1,0,0,calibration_square,0,16,16,7,1,-0.33,0.33,09,001,2024-11-25_12h42.40.281,Attention_exp_legacy,2023.1.0,Win32,60.24096386,,,,,,,,,,,,,,,,,,,,,,,,,,,,,,,,,,,,,,,,,,,,,,,,,,,,,,,,
,,,,,,,-0.327083333,-0.683333333,1,0,0,,0,17,17,4,1,-0.33,-0.67,09,001,2024-11-25_12h42.40.281,Attention_exp_legacy,2023.1.0,Win32,60.24096386,,,,,,,,,,,,,,,,,,,,,,,,,,,,,,,,,,,,,,,,,,,,,,,,,,,,,,,,
,,,,,,,0.669791667,0.668518519,1,0,0,calibration_square,0,18,18,19,1,0.67,0.67,09,001,2024-11-25_12h42.40.281,Attention_exp_legacy,2023.1.0,Win32,60.24096386,,,,,,,,,,,,,,,,,,,,,,,,,,,,,,,,,,,,,,,,,,,,,,,,,,,,,,,,
,,,,,,,-0.670833333,0.327777778,1,0,0,calibration_square,0,19,19,3,1,-0.67,0.33,09,001,2024-11-25_12h42.40.281,Attention_exp_legacy,2023.1.0,Win32,60.24096386,,,,,,,,,,,,,,,,,,,,,,,,,,,,,,,,,,,,,,,,,,,,,,,,,,,,,,,,
,,,,,,,0.335416667,-0.683333333,1,0,0,,0,20,20,14,1,0.33,-0.67,09,001,2024-11-25_12h42.40.281,Attention_exp_legacy,2023.1.0,Win32,60.24096386,,,,,,,,,,,,,,,,,,,,,,,,,,,,,,,,,,,,,,,,,,,,,,,,,,,,,,,,
,,,,,,,,,,,,,,,,,,,,09,001,2024-11-25_12h42.40.281,Attention_exp_legacy,2023.1.0,Win32,60.24096386,"[1920,1080]","[640,480]",[0.017708333333333333],[-0.48703703703703705],[1],[0],[0],[16.92820000000298],"[""StartButton""]",[-0.06041666666666667],[0.17222222222222222],[1],[0],[0],[6.210600000008938],"[""Bus_label""]",Bus_label,1,7.2238,"[[-0.2635416666666667,0.4462962962962963],[-0.2635416666666667,0.4462962962962963],[-0.2635416666666667,0.4462962962962963],[-0.2635416666666667,0.4462962962962963],[-0.2635416666666667,0.4462962962962963],[-0.2635416666666667,0.4462962962962963],[-0.2635416666666667,0.4462962962962963],[-0.2635416666666667,0.4462962962962963],[-0.2635416666666667,0.4462962962962963],[-0.2635416666666667,0.4462962962962963],[-0.2635416666666667,0.4462962962962963],[-0.2635416666666667,0.4462962962962963],[-0.2635416666666667,0.4462962962962963],[-0.2635416666666667,0.4462962962962963],[-0.2635416666666667,0.4462962962962963],[-0.2635416666666667,0.4462962962962963],[-0.2635416666666667,0.4462962962962963],[-0.2635416666666667,0.4462962962962963],[-0.2635416666666667,0.4462962962962963],[-0.2635416666666667,0.4462962962962963],[-0.2635416666666667,0.4462962962962963],[-0.2635416666666667,0.4462962962962963],[-0.2635416666666667,0.4462962962962963],[-0.2635416666666667,0.4462962962962963],[-0.2635416666666667,0.4462962962962963],[-0.2635416666666667,0.4462962962962963],[-0.2635416666666667,0.4462962962962963],[-0.2635416666666667,0.4462962962962963],[-0.2635416666666667,0.4462962962962963],[-0.2635416666666667,0.4462962962962963],[-0.2635416666666667,0.4462962962962963],[-0.2635416666666667,0.4462962962962963],[-0.2635416666666667,0.4462962962962963],[-0.2635416666666667,0.4462962962962963],[-0.2635416666666667,0.4462962962962963],[-0.2635416666666667,0.4462962962962963],[-0.2635416666666667,0.4462962962962963],[-0.2635416666666667,0.4462962962962963],[-0.2635416666666667,0.4462962962962963],[-0.2635416666666667,0.4462962962962963],[-0.2635416666666667,0.4462962962962963],[-0.2635416666666667,0.4462962962962963],[-0.2635416666666667,0.4462962962962963],[-0.2635416666666667,0.4462962962962963],[-0.2635416666666667,0.4462962962962963],[-0.2635416666666667,0.4462962962962963],[-0.2635416666666667,0.4462962962962963],[-0.2635416666666667,0.4462962962962963],[-0.2635416666666667,0.4462962962962963],[-0.2635416666666667,0.4462962962962963],[-0.2635416666666667,0.4462962962962963],[-0.2635416666666667,0.4462962962962963],[-0.2604166666666667,0.4444444444444444],[-0.25833333333333336,0.44074074074074077],[-0.2552083333333333,0.43333333333333335],[-0.25,0.4222222222222222],[-0.24270833333333333,0.4111111111111111],[-0.2375,0.40185185185185185],[-0.22708333333333333,0.3888888888888889],[-0.22291666666666668,0.3814814814814815],[-0.21875,0.37592592592592594],[-0.21354166666666666,0.36666666666666664],[-0.209375,0.3611111111111111],[-0.20520833333333333,0.3537037037037037],[-0.20208333333333334,0.34629629629629627],[-0.19791666666666666,0.337037037037037],[-0.19375,0.3296296296296296],[-0.190625,0.32222222222222224],[-0.1875,0.31666666666666665],[-0.184375,0.3111111111111111],[-0.18229166666666666,0.3037037037037037],[-0.17916666666666667,0.30185185185185187],[-0.17708333333333334,0.29814814814814816],[-0.17604166666666668,0.2962962962962963],[-0.17291666666666666,0.29074074074074074],[-0.16979166666666667,0.2851851851851852],[-0.16666666666666666,0.2833333333333333],[-0.16354166666666667,0.2796296296296296],[-0.1625,0.2777777777777778],[-0.16145833333333334,0.2777777777777778],[-0.15833333333333333,0.2740740740740741],[-0.15625,0.2740740740740741],[-0.15104166666666666,0.26851851851851855],[-0.14791666666666667,0.26481481481481484],[-0.14375,0.2611111111111111],[-0.13854166666666667,0.2537037037037037],[-0.13229166666666667,0.24444444444444444],[-0.12708333333333333,0.2388888888888889],[-0.12291666666666666,0.2351851851851852],[-0.115625,0.22962962962962963],[-0.11145833333333334,0.2222222222222222],[-0.10416666666666667,0.21481481481481482],[-0.09895833333333333,0.2074074074074074],[-0.09791666666666667,0.20555555555555555],[-0.09583333333333334,0.20185185185185187],[-0.09375,0.2],[-0.09375,0.2],[-0.09270833333333334,0.19814814814814816],[-0.09166666666666666,0.1962962962962963],[-0.090625,0.1962962962962963],[-0.090625,0.19444444444444445],[-0.08958333333333333,0.1925925925925926],[-0.08958333333333333,0.19074074074074074],[-0.0875,0.18703703703703703],[-0.08645833333333333,0.18333333333333332],[-0.08645833333333333,0.17962962962962964],[-0.084375,0.17407407407407408],[-0.08229166666666667,0.1685185185185185],[-0.08125,0.1648148148148148],[-0.08020833333333334,0.15925925925925927],[-0.07916666666666666,0.15555555555555556],[-0.07916666666666666,0.15185185185185185],[-0.078125,0.15],[-0.078125,0.14629629629629629],[-0.07708333333333334,0.1425925925925926],[-0.07604166666666666,0.14074074074074075],[-0.075,0.13703703703703704],[-0.075,0.13333333333333333],[-0.07083333333333333,0.12222222222222222],[-0.06875,0.11666666666666667],[-0.065625,0.10555555555555556],[-0.06041666666666667,0.09259259259259259],[-0.05625,0.07962962962962963],[-0.052083333333333336,0.06481481481481481],[-0.046875,0.05],[-0.042708333333333334,0.040740740740740744],[-0.040625,0.037037037037037035],[-0.0375,0.03148148148148148],[-0.036458333333333336,0.03148148148148148],[-0.036458333333333336,0.02962962962962963],[-0.035416666666666666,0.027777777777777776],[-0.03333333333333333,0.027777777777777776],[-0.029166666666666667,0.025925925925925925],[-0.027083333333333334,0.024074074074074074],[-0.025,0.022222222222222223],[-0.01875,0.018518518518518517],[-0.016666666666666666,0.016666666666666666],[-0.013541666666666667,0.014814814814814815],[-0.011458333333333333,0.014814814814814815],[-0.00625,0.014814814814814815],[-0.0010416666666666667,0.011111111111111112],[0,0.011111111111111112],[0.00625,0.009259259259259259],[0.009375,0.009259259259259259],[0.0125,0.009259259259259259],[0.01875,0.007407407407407408],[0.022916666666666665,0.005555555555555556],[0.029166666666666667,0.003703703703703704],[0.035416666666666666,0.001851851851851852],[0.041666666666666664,0],[0.05,-0.003703703703703704],[0.05520833333333333,-0.003703703703703704],[0.06145833333333333,-0.003703703703703704],[0.065625,-0.005555555555555556],[0.07083333333333333,-0.007407407407407408],[0.07708333333333334,-0.009259259259259259],[0.08333333333333333,-0.012962962962962963],[0.08958333333333333,-0.014814814814814815],[0.09375,-0.018518518518518517],[0.096875,-0.020370370370370372],[0.096875,-0.020370370370370372],[0.096875,-0.020370370370370372],[0.096875,-0.020370370370370372],[0.096875,-0.020370370370370372],[0.096875,-0.020370370370370372],[0.096875,-0.020370370370370372],[0.096875,-0.020370370370370372],[0.096875,-0.020370370370370372],[0.096875,-0.020370370370370372],[0.096875,-0.020370370370370372],[0.096875,-0.020370370370370372],[0.096875,-0.020370370370370372],[0.096875,-0.020370370370370372],[0.096875,-0.020370370370370372],[0.096875,-0.020370370370370372],[0.096875,-0.020370370370370372],[0.096875,-0.020370370370370372],[0.096875,-0.020370370370370372],[0.1,-0.020370370370370372],[0.10208333333333333,-0.020370370370370372],[0.103125,-0.020370370370370372],[0.10520833333333333,-0.020370370370370372],[0.10729166666666666,-0.020370370370370372],[0.109375,-0.016666666666666666],[0.11354166666666667,-0.014814814814814815],[0.11770833333333333,-0.011111111111111112],[0.12083333333333333,-0.011111111111111112],[0.125,-0.005555555555555556],[0.12604166666666666,-0.005555555555555556],[0.128125,-0.003703703703703704],[0.13020833333333334,-0.003703703703703704],[0.13125,-0.003703703703703704],[0.13125,-0.003703703703703704],[0.13125,-0.003703703703703704],[0.13125,-0.003703703703703704],[0.13125,-0.003703703703703704],[0.13125,-0.003703703703703704],[0.13125,-0.003703703703703704],[0.13125,-0.003703703703703704],[0.13125,-0.003703703703703704],[0.13125,-0.003703703703703704],[0.13125,-0.003703703703703704],[0.13125,-0.003703703703703704],[0.13125,-0.003703703703703704],[0.13125,-0.003703703703703704],[0.13125,-0.007407407407407408],[0.13020833333333334,-0.011111111111111112],[0.12916666666666668,-0.014814814814814815],[0.128125,-0.018518518518518517],[0.12604166666666666,-0.025925925925925925],[0.12604166666666666,-0.02962962962962963],[0.12291666666666666,-0.03518518518518519],[0.11979166666666667,-0.04259259259259259],[0.11875,-0.046296296296296294],[0.11666666666666667,-0.05],[0.11458333333333333,-0.05555555555555555],[0.1125,-0.06111111111111111],[0.1125,-0.06481481481481481],[0.11145833333333334,-0.06666666666666667],[0.11041666666666666,-0.07037037037037037],[0.109375,-0.07222222222222222],[0.109375,-0.07222222222222222],[0.109375,-0.07222222222222222],[0.109375,-0.07407407407407407],[0.109375,-0.07407407407407407],[0.109375,-0.07407407407407407],[0.109375,-0.07407407407407407],[0.109375,-0.07407407407407407],[0.109375,-0.07407407407407407],[0.109375,-0.07407407407407407],[0.109375,-0.07407407407407407],[0.109375,-0.07407407407407407],[0.109375,-0.07407407407407407],[0.109375,-0.07407407407407407],[0.109375,-0.07407407407407407],[0.109375,-0.07407407407407407],[0.109375,-0.07407407407407407],[0.109375,-0.07407407407407407],[0.109375,-0.07407407407407407],[0.109375,-0.07407407407407407],[0.109375,-0.07407407407407407],[0.109375,-0.07407407407407407],[0.109375,-0.07407407407407407],[0.109375,-0.07407407407407407],[0.109375,-0.07407407407407407],[0.109375,-0.07407407407407407],[0.109375,-0.07407407407407407],[0.109375,-0.07407407407407407],[0.109375,-0.07407407407407407],[0.109375,-0.07407407407407407],[0.109375,-0.07407407407407407],[0.109375,-0.07407407407407407],[0.109375,-0.07407407407407407],[0.109375,-0.07407407407407407],[0.109375,-0.07407407407407407],[0.109375,-0.07407407407407407],[0.10729166666666666,-0.07777777777777778],[0.10729166666666666,-0.07777777777777778],[0.10625,-0.07777777777777778],[0.10416666666666667,-0.07777777777777778],[0.103125,-0.07777777777777778],[0.103125,-0.07777777777777778],[0.1,-0.07777777777777778],[0.1,-0.07777777777777778],[0.09895833333333333,-0.07777777777777778],[0.09791666666666667,-0.07777777777777778],[0.096875,-0.07777777777777778],[0.09583333333333334,-0.07777777777777778],[0.09375,-0.07777777777777778],[0.090625,-0.07777777777777778],[0.084375,-0.07962962962962963],[0.08020833333333334,-0.08148148148148149],[0.07083333333333333,-0.08518518518518518],[0.06041666666666667,-0.08703703703703704],[0.041666666666666664,-0.09259259259259259],[0.0375,-0.09259259259259259],[0.028125,-0.09444444444444444],[0.021875,-0.09444444444444444],[0.016666666666666666,-0.09444444444444444],[0.013541666666666667,-0.09444444444444444],[0.010416666666666666,-0.0962962962962963],[0.007291666666666667,-0.0962962962962963],[0.004166666666666667,-0.09814814814814815],[-0.0010416666666666667,-0.10185185185185185],[-0.004166666666666667,-0.10185185185185185],[-0.008333333333333333,-0.1037037037037037],[-0.016666666666666666,-0.10740740740740741],[-0.020833333333333332,-0.10925925925925926],[-0.023958333333333335,-0.1111111111111111],[-0.026041666666666668,-0.11296296296296296],[-0.029166666666666667,-0.11481481481481481],[-0.03125,-0.11666666666666667],[-0.03333333333333333,-0.11666666666666667],[-0.035416666666666666,-0.11851851851851852],[-0.036458333333333336,-0.12222222222222222],[-0.0375,-0.12222222222222222],[-0.03854166666666667,-0.12407407407407407],[-0.03958333333333333,-0.1259259259259259],[-0.03958333333333333,-0.1259259259259259],[-0.03958333333333333,-0.1259259259259259],[-0.03958333333333333,-0.12777777777777777],[-0.03958333333333333,-0.12962962962962962],[-0.03958333333333333,-0.13518518518518519],[-0.03958333333333333,-0.1388888888888889],[-0.03958333333333333,-0.14814814814814814],[-0.03958333333333333,-0.15185185185185185],[-0.03958333333333333,-0.1537037037037037],[-0.03958333333333333,-0.1537037037037037],[-0.03958333333333333,-0.1537037037037037],[-0.03958333333333333,-0.1537037037037037],[-0.03958333333333333,-0.1537037037037037],[-0.03958333333333333,-0.15555555555555556],[-0.03958333333333333,-0.15555555555555556],[-0.040625,-0.1425925925925926],[-0.042708333333333334,-0.12222222222222222],[-0.04583333333333333,-0.09444444444444444],[-0.04895833333333333,-0.06111111111111111],[-0.052083333333333336,-0.03148148148148148],[-0.05625,0.001851851851851852],[-0.0625,0.040740740740740744],[-0.06770833333333333,0.06481481481481481],[-0.06875,0.07037037037037037],[-0.07083333333333333,0.07777777777777778],[-0.07083333333333333,0.07962962962962963],[-0.07083333333333333,0.08148148148148149],[-0.07083333333333333,0.08518518518518518],[-0.07083333333333333,0.09074074074074075],[-0.07083333333333333,0.0962962962962963],[-0.07083333333333333,0.10185185185185185],[-0.07083333333333333,0.10740740740740741],[-0.07083333333333333,0.11666666666666667],[-0.07083333333333333,0.12222222222222222],[-0.06979166666666667,0.12962962962962962],[-0.06875,0.13703703703703704],[-0.06875,0.14074074074074075],[-0.06770833333333333,0.1425925925925926],[-0.06666666666666667,0.14629629629629629],[-0.06666666666666667,0.14814814814814814],[-0.06666666666666667,0.1537037037037037],[-0.065625,0.1574074074074074],[-0.06458333333333334,0.16111111111111112],[-0.0625,0.1648148148148148],[-0.06145833333333333,0.1685185185185185],[-0.06145833333333333,0.17037037037037037],[-0.06041666666666667,0.17037037037037037],[-0.06041666666666667,0.17037037037037037],[-0.06041666666666667,0.17222222222222222],[-0.06041666666666667,0.17222222222222222],[-0.06041666666666667,0.17222222222222222],[-0.06041666666666667,0.17222222222222222],[-0.06041666666666667,0.17222222222222222],[-0.06041666666666667,0.17222222222222222],[-0.06041666666666667,0.17222222222222222],[-0.06041666666666667,0.17222222222222222],[-0.06041666666666667,0.17222222222222222],[-0.06041666666666667,0.17222222222222222],[-0.06041666666666667,0.17222222222222222],[-0.06041666666666667,0.17222222222222222],[-0.06041666666666667,0.17222222222222222],[-0.06041666666666667,0.17222222222222222],[-0.06041666666666667,0.17222222222222222],[-0.06041666666666667,0.17222222222222222],[-0.06041666666666667,0.17222222222222222],[-0.06041666666666667,0.17222222222222222],[-0.06041666666666667,0.17222222222222222],[-0.06041666666666667,0.17222222222222222],[-0.06041666666666667,0.17222222222222222],[-0.06041666666666667,0.17222222222222222],[-0.06041666666666667,0.17222222222222222],[-0.06041666666666667,0.17222222222222222],[-0.06041666666666667,0.17222222222222222],[-0.06041666666666667,0.17222222222222222],[-0.06041666666666667,0.17222222222222222],[-0.06041666666666667,0.17222222222222222],[-0.06041666666666667,0.17222222222222222],[-0.06041666666666667,0.17222222222222222],[-0.06041666666666667,0.17222222222222222],[-0.06041666666666667,0.17222222222222222],[-0.06041666666666667,0.17222222222222222],[-0.06041666666666667,0.17222222222222222],[-0.06041666666666667,0.17222222222222222],[-0.06041666666666667,0.17222222222222222],[-0.06041666666666667,0.17222222222222222],[-0.06041666666666667,0.17222222222222222],[-0.06041666666666667,0.17222222222222222],[-0.06041666666666667,0.17222222222222222],[-0.06041666666666667,0.17222222222222222],[-0.06041666666666667,0.17222222222222222],[-0.06041666666666667,0.17222222222222222],[-0.06041666666666667,0.17222222222222222],[-0.06041666666666667,0.17222222222222222],[-0.06041666666666667,0.17222222222222222],[-0.06041666666666667,0.17222222222222222],[-0.06041666666666667,0.17222222222222222],[-0.06041666666666667,0.17222222222222222],[-0.06041666666666667,0.17222222222222222],[-0.06041666666666667,0.17222222222222222],[-0.06041666666666667,0.17222222222222222],[-0.06041666666666667,0.17222222222222222],[-0.06041666666666667,0.17222222222222222],[-0.06041666666666667,0.17222222222222222],[-0.06041666666666667,0.17222222222222222],[-0.06041666666666667,0.17222222222222222],[-0.06041666666666667,0.17222222222222222],[-0.06041666666666667,0.17222222222222222],[-0.059375,0.16666666666666666],[-0.057291666666666664,0.1574074074074074],[-0.057291666666666664,0.14814814814814814],[-0.05625,0.13703703703703704],[-0.05520833333333333,0.12037037037037036],[-0.052083333333333336,0.1037037037037037],[-0.052083333333333336,0.08148148148148149],[-0.052083333333333336,0.06481481481481481],[-0.052083333333333336,0.046296296296296294],[-0.052083333333333336,0.025925925925925925],[-0.052083333333333336,0.009259259259259259],[-0.052083333333333336,-0.025925925925925925],[-0.052083333333333336,-0.044444444444444446],[-0.052083333333333336,-0.05555555555555555],[-0.052083333333333336,-0.07037037037037037],[-0.053125,-0.08148148148148149],[-0.05416666666666667,-0.09444444444444444],[-0.05416666666666667,-0.1],[-0.05416666666666667,-0.10555555555555556],[-0.05416666666666667,-0.1111111111111111],[-0.05416666666666667,-0.11481481481481481],[-0.05416666666666667,-0.12037037037037036],[-0.05416666666666667,-0.12222222222222222],[-0.05416666666666667,-0.1259259259259259],[-0.05416666666666667,-0.1259259259259259],[-0.05416666666666667,-0.1259259259259259],[-0.05416666666666667,-0.12777777777777777]]","[[-0.05291666666666662,0.19148148148148145],[-0.05291666666666662,0.19148148148148145],[-0.05375000000000003,0.21203703703703702],[-0.05375000000000003,0.21203703703703702],[-0.05947916666666669,0.19222222222222213],[-0.05947916666666669,0.19222222222222213],[-0.05583333333333336,0.19981481481481478],[-0.05583333333333336,0.19981481481481478],[-0.049583333333333354,0.1838888888888888],[-0.049583333333333354,0.1838888888888888],[-0.04718749999999995,0.1757407407407407],[-0.04718749999999995,0.1757407407407407],[-0.04760416666666671,0.17814814814814822],[-0.04760416666666671,0.17814814814814822],[-0.059375,0.1603703703703704],[-0.059375,0.1603703703703704],[-0.06072916666666662,0.1633333333333334],[-0.06072916666666662,0.1633333333333334],[-0.05656249999999995,0.18777777777777774],[-0.05656249999999995,0.18777777777777774],[-0.057187499999999974,0.17759259259259255],[-0.057187499999999974,0.17759259259259255],[-0.0626041666666667,0.1648148148148148],[-0.0626041666666667,0.1648148148148148],[-0.058437500000000024,0.18851851851851845],[-0.058437500000000024,0.18851851851851845],[-0.06385416666666661,0.1727777777777777],[-0.06385416666666661,0.1727777777777777],[-0.08635416666666665,0.1594444444444445],[-0.11364583333333336,0.1381481481481482],[-0.14249999999999996,0.13481481481481472],[-0.16000000000000003,0.15166666666666662],[-0.1794791666666666,0.19703703703703698],[-0.20020833333333338,0.23537037037037042],[-0.2295833333333333,0.256111111111111],[-0.2726041666666667,0.2687037037037037],[-0.31749999999999995,0.3475925925925927],[-0.35833333333333334,0.444074074074074],[-0.3803125,0.5446296296296297],[-0.3880208333333333,0.6162962962962962],[-0.4079166666666667,0.6900000000000001],[-0.378125,0.7320370370370369],[-0.34781249999999997,0.7312962962962962],[-0.33239583333333333,0.6648148148148149],[-0.2876041666666667,0.6361111111111111],[-0.24666666666666662,0.5762962962962964],[-0.19572916666666665,0.4918518518518519],[-0.16614583333333333,0.38425925925925924],[-0.12166666666666662,0.302962962962963],[-0.09906250000000003,0.24055555555555552],[-0.0703125,0.1685185185185185],[-0.08468749999999996,0.14870370370370362],[-0.10572916666666667,0.14462962962962966],[-0.1202083333333333,0.10351851851851848],[-0.1404166666666666,0.08000000000000008],[-0.14635416666666667,0.06111111111111111],[-0.17322916666666663,0.047037037037036995],[-0.17458333333333337,0.009629629629629714],[-0.19593750000000001,-0.038703703703703664],[-0.20104166666666667,-0.07685185185185185],[-0.19781249999999997,-0.10314814814814813],[-0.20114583333333336,-0.15],[-0.19781249999999997,-0.2125925925925926],[-0.21041666666666667,-0.18333333333333332],[-0.22822916666666668,-0.16814814814814816],[-0.22791666666666663,-0.15333333333333335],[-0.22208333333333338,-0.19037037037037038],[-0.2375,-0.19888888888888884],[-0.24781249999999996,-0.22907407407407404],[-0.22999999999999995,-0.21425925925925923],[-0.2205208333333334,-0.21129629629629634],[-0.21666666666666667,-0.16925925925925922],[-0.21666666666666667,-0.16925925925925922],[-0.23031250000000003,-0.1624074074074074],[-0.22229166666666664,-0.15407407407407406],[-0.22229166666666664,-0.15407407407407406],[-0.20104166666666667,-0.16796296296296295],[-0.1984375,-0.13222222222222219],[-0.18885416666666663,-0.0705555555555556],[-0.1720833333333334,-0.052037037037037076],[-0.1720833333333334,-0.052037037037037076],[-0.14624999999999996,-0.029259259259259176],[-0.15614583333333332,-0.048333333333333374],[-0.16687500000000005,-0.0668518518518519],[-0.165625,-0.15629629629629627],[-0.15197916666666664,-0.18499999999999997],[-0.13572916666666662,-0.20425925925925928],[-0.12781250000000005,-0.21296296296296297],[-0.12427083333333329,-0.2294444444444444],[-0.1172916666666667,-0.2831481481481481],[-0.10427083333333335,-0.28129629629629627],[-0.09229166666666669,-0.2892592592592592],[-0.09229166666666669,-0.2892592592592592],[-0.07531249999999995,-0.2868518518518518],[-0.04854166666666669,-0.25037037037037035],[-0.04697916666666669,-0.225],[-0.03572916666666662,-0.21666666666666667],[-0.021875,-0.20629629629629626],[0.0002083333333333807,-0.17777777777777778],[0.0002083333333333807,-0.17777777777777778],[0.0037500000000000237,-0.17333333333333337],[-0.007500000000000047,-0.13555555555555554],[-0.01583333333333338,-0.12462962962962965],[-0.0296875,-0.11222222222222226],[-0.06635416666666671,-0.11407407407407412],[-0.11197916666666667,-0.15055555555555558],[-0.10447916666666662,-0.13703703703703704],[-0.1015625,-0.13203703703703706],[-0.10364583333333334,-0.1205555555555556],[-0.11885416666666669,-0.11555555555555551],[-0.11770833333333333,-0.11185185185185181],[-0.1336458333333333,-0.13296296296296298],[-0.15249999999999997,-0.1272222222222222],[-0.16458333333333333,-0.10611111111111113],[-0.13802083333333334,-0.10092592592592593],[-0.13802083333333334,-0.10092592592592593],[-0.1391666666666667,-0.0809259259259259],[-0.1391666666666667,-0.0809259259259259],[-0.1486458333333334,-0.046481481481481526],[-0.21052083333333335,0.009259259259259259],[-0.2700000000000001,0.05648148148148148],[-0.23145833333333338,0.005555555555555556],[-0.2326041666666666,-0.032037037037036954],[-0.21135416666666665,-0.07629629629629628],[-0.17395833333333333,-0.07851851851851847],[-0.15750000000000006,-0.08574074074074076],[-0.1577083333333333,-0.036666666666666584],[-0.13020833333333334,-0.002407407407407323],[-0.12562500000000001,-0.04611111111111107],[-0.07374999999999995,-0.09685185185185187],[-0.01875,-0.11074074074074076],[-0.01875,-0.11074074074074076],[-0.058333333333333334,-0.058333333333333334],[-0.06812499999999998,0.030555555555555555],[-0.07791666666666662,0.11944444444444445],[-0.07437499999999998,0.16111111111111112],[-0.06843750000000005,0.1983333333333334],[-0.07864583333333333,0.1824074074074074],[-0.0751041666666667,0.16055555555555565],[-0.03854166666666667,0.20888888888888882],[0.003125,0.24296296296296305],[0.003125,0.24296296296296305],[0.009062500000000048,0.2212962962962963],[0.0109375,0.20037037037037045],[0.028125,0.14129629629629623],[0.049791666666666616,0.1448148148148149],[0.030104166666666644,0.11999999999999991],[0.019687499999999976,0.0933333333333333],[0.041458333333333285,0.09722222222222222],[0.049479166666666664,0.10703703703703696],[0.03229166666666667,0.0801851851851851],[0.015104166666666667,0.05333333333333325],[0.029895833333333382,0.0772222222222223],[0.029895833333333382,0.0772222222222223],[0.0453125,0.13222222222222219],[0.05687500000000002,0.18314814814814812],[0.050416666666666644,0.1698148148148149],[0.06697916666666662,0.20833333333333334],[0.08354166666666671,0.24685185185185177],[0.08354166666666671,0.24685185185185177],[0.10062499999999991,0.262037037037037],[0.12791666666666662,0.2631481481481482],[0.1443749999999999,0.28722222222222227],[0.1443749999999999,0.28722222222222227],[0.16437499999999997,0.322037037037037],[0.19322916666666667,0.3122222222222223],[0.22208333333333338,0.30240740740740735],[0.26458333333333334,0.331111111111111],[0.2946875000000001,0.3398148148148148],[0.35260416666666666,0.34037037037037027],[0.4010416666666667,0.3122222222222223],[0.43635416666666677,0.2903703703703703],[0.4618750000000001,0.29314814814814805],[0.4873958333333334,0.2959259259259258],[0.5128125,0.2729629629629629],[0.5232291666666666,0.25759259259259265],[0.528125,0.24962962962962953],[0.5232291666666666,0.20722222222222217],[0.5378124999999999,0.1648148148148148],[0.48250000000000004,0.12222222222222222],[0.4473958333333333,0.10629629629629625],[0.4122916666666666,0.09037037037037028],[0.3767708333333334,0.06388888888888888],[0.3316666666666668,0.02240740740740745],[0.28312499999999996,-0.004074074074074159],[0.2430208333333333,-0.05407407407407405],[0.20729166666666668,-0.06666666666666667],[0.1984375,-0.0257407407407407],[0.19604166666666673,0.03685185185185181],[0.21145833333333333,0.07981481481481485],[0.22333333333333344,0.09148148148148144],[0.2352083333333333,0.10314814814814824],[0.2150000000000001,0.0698148148148149],[0.20437500000000006,0.0514814814814814],[0.22520833333333337,0.130925925925926],[0.2443749999999999,0.2390740740740741],[0.23020833333333332,0.19981481481481478],[0.18916666666666657,0.10703703703703696],[0.1631249999999999,0.10259259259259255],[0.1502083333333334,0.10777777777777786],[0.1634375000000001,0.1824074074074074],[0.17239583333333333,0.23129629629629625],[0.18125,0.28351851851851856],[0.19010416666666666,0.3357407407407407],[0.18458333333333338,0.3135185185185184],[0.1759375000000001,0.29314814814814805],[0.1915625000000001,0.3322222222222222],[0.19718749999999996,0.36999999999999994],[0.19083333333333338,0.3218518518518518],[0.18104166666666663,0.26444444444444437],[0.18104166666666663,0.26444444444444437],[0.1243750000000001,0.15481481481481485],[0.07947916666666661,0.13333333333333333],[0.058854166666666666,0.1411111111111112],[0.052187500000000026,0.15055555555555547],[0.035000000000000024,0.12074074074074083],[0.035000000000000024,0.12074074074074083],[0.01416666666666669,0.10611111111111103],[-0.0265625,0.11092592592592589],[-0.0265625,0.11092592592592589],[-0.03979166666666671,0.1],[-0.08656250000000003,0.19407407407407398],[-0.17093750000000002,0.31296296296296294],[-0.24177083333333335,0.4479629629629629],[-0.22822916666666668,0.4050000000000001],[-0.20677083333333332,0.3744444444444445],[-0.2283333333333334,0.3520370370370371],[-0.2564583333333334,0.3455555555555556],[-0.2564583333333334,0.3455555555555556],[-0.2673958333333334,0.327962962962963],[-0.2673958333333334,0.327962962962963],[-0.23864583333333336,0.2948148148148149],[-0.23666666666666672,0.28055555555555556],[-0.1875,0.16703703703703712],[-0.10427083333333335,0.03370370370370379],[-0.0578125,-0.052962962962963],[-0.12208333333333338,-0.014074074074074116],[-0.18635416666666665,0.03092592592592601],[-0.22385416666666663,0.08574074074074066],[-0.26114583333333335,0.127962962962963],[-0.24635416666666668,0.08092592592592601],[-0.25718749999999996,0.07444444444444454],[-0.24208333333333332,0.0787037037037037],[-0.24895833333333334,0.0705555555555556],[-0.26458333333333334,0.11851851851851852],[-0.24343750000000006,0.1198148148148149],[-0.22864583333333333,0.11685185185185189],[-0.2079166666666667,0.13722222222222227],[-0.20062500000000003,0.12481481481481477],[-0.1935416666666666,0.125],[-0.23270833333333332,0.19666666666666674],[-0.25583333333333336,0.26703703703703713],[-0.3210416666666667,0.3255555555555555],[-0.3711458333333333,0.38870370370370366],[-0.3711458333333333,0.38870370370370366],[-0.4055208333333333,0.4],[-0.4301041666666666,0.4233333333333334],[-0.42854166666666665,0.3787037037037037],[-0.41687500000000005,0.2868518518518518],[-0.3686458333333333,0.2553703703703703],[-0.3686458333333333,0.2553703703703703],[-0.30927083333333333,0.21500000000000005],[-0.2773958333333333,0.21370370370370367],[-0.23104166666666662,0.20111111111111116],[-0.1592708333333333,0.18777777777777774],[-0.07427083333333329,0.15481481481481485],[0.0018749999999999527,0.04814814814814815],[0.06822916666666666,-0.0705555555555556],[0.11666666666666667,-0.06277777777777774],[0.14770833333333327,-0.024629629629629547],[0.15260416666666668,-0.01314814814814819],[0.14635416666666667,0.00722222222222218],[0.16604166666666675,0.06462962962962959],[0.17239583333333333,0.03351851851851856],[0.1742708333333333,-0.007592592592592635],[0.153125,-0.0294444444444444],[0.153125,-0.0294444444444444],[0.10812499999999996,0.06518518518518526],[0.07249999999999991,0.17555555555555546],[0.05343749999999995,0.18925925925925935],[0.0453125,0.19092592592592597],[0.04760416666666671,0.1983333333333334],[0.04989583333333331,0.20574074074074078],[0.041458333333333285,0.14833333333333337],[0.03208333333333328,0.19037037037037027],[0.027499999999999976,0.25333333333333324],[0.049270833333333285,0.3081481481481481],[0.09385416666666657,0.2994444444444445],[0.1290625000000001,0.275],[0.16593749999999996,0.30240740740740735],[0.17083333333333334,0.3287037037037037],[0.17062499999999994,0.3287037037037037],[0.15677083333333333,0.2862962962962963],[0.15427083333333325,0.29074074074074074],[0.1736458333333334,0.26962962962962966],[0.19270833333333334,0.23759259259259252],[0.1805208333333333,0.2094444444444445],[0.1493750000000001,0.20500000000000007],[0.11531250000000005,0.1685185185185185],[0.07999999999999995,0.11259259259259251],[0.0703125,0.0794444444444444],[0.049791666666666616,0.03722222222222227],[0.042916666666666714,0.03740740740740749],[0.03833333333333329,0.0014814814814813973],[0.011666666666666714,-0.00851851851851856],[-0.011562500000000024,0.016666666666666666],[-0.029895833333333382,0.04611111111111107],[-0.027395833333333286,0.0485185185185186],[-0.027395833333333286,0.0485185185185186],[-0.021979166666666692,0.08296296296296288],[-0.021354166666666667,0.11259259259259251],[-0.017083333333333308,0.12814814814814823],[-0.007187499999999976,0.16648148148148145],[0.002708333333333357,0.20481481481481487],[0.002395833333333286,0.18907407407407412],[-0.005104166666666643,0.19759259259259268],[-0.016458333333333287,0.15240740740740732],[-0.02781250000000005,0.10722222222222218],[-0.05281250000000005,0.09222222222222214],[-0.04510416666666662,0.12092592592592584],[-0.051041666666666666,0.12777777777777777],[-0.051041666666666666,0.12777777777777777],[-0.0704166666666667,0.11314814814814819],[-0.09187500000000005,0.08499999999999996],[-0.08968750000000002,0.08814814814814818],[-0.09489583333333336,0.13518518518518519],[-0.09291666666666672,0.1579629629629629],[-0.08947916666666664,0.1925925925925926],[-0.0860416666666667,0.2272222222222223],[-0.0860416666666667,0.2272222222222223],[-0.057500000000000044,0.24962962962962953],[-0.06312500000000003,0.23499999999999996],[-0.057291666666666664,0.23629629629629634],[-0.057291666666666664,0.23629629629629634],[-0.036249999999999956,0.23074074074074077],[-0.014374999999999952,0.2627777777777777],[-0.01875,0.25999999999999995],[-0.02312500000000005,0.2572222222222222],[-0.042499999999999954,0.21814814814814806],[-0.04802083333333336,0.17462962962962955],[-0.04708333333333338,0.16870370370370374],[-0.049583333333333354,0.16888888888888898],[-0.058437500000000024,0.14000000000000004],[-0.058437500000000024,0.14000000000000004],[-0.06031249999999998,0.12185185185185177],[-0.0782291666666667,0.10925925925925926],[-0.10843750000000002,0.130925925925926],[-0.11208333333333335,0.06722222222222214],[-0.13072916666666667,0.1235185185185186],[-0.14906250000000001,0.24351851851851852],[-0.18229166666666666,0.37462962962962953],[-0.23072916666666668,0.444074074074074],[-0.2791666666666667,0.5135185185185185],[-0.2998958333333333,0.5729629629629629],[-0.32062499999999994,0.6324074074074074],[-0.3164583333333333,0.6824074074074075],[-0.29354166666666665,0.6603703703703704],[-0.2930208333333333,0.6775925925925925],[-0.2640625,0.5959259259259259],[-0.21875,0.447037037037037],[-0.16770833333333332,0.3475925925925927],[-0.12000000000000005,0.28703703703703703],[-0.07281249999999997,0.22537037037037044],[-0.04614583333333329,0.20851851851851855],[-0.02677083333333338,0.19666666666666674],[-0.04885416666666664,0.22370370370370363],[-0.05572916666666667,0.24722222222222223],[-0.0703125,0.3292592592592592],[-0.10322916666666669,0.38333333333333336],[-0.13781249999999995,0.4772222222222223],[-0.14874999999999997,0.47907407407407415],[-0.1476041666666667,0.4661111111111112],[-0.1701041666666666,0.4551851851851851],[-0.19197916666666662,0.43185185185185193],[-0.20656249999999995,0.4035185185185185],[-0.17302083333333335,0.36444444444444435],[-0.1546875,0.32888888888888895],[-0.13250000000000003,0.2681481481481481],[-0.10541666666666671,0.21425925925925934],[-0.07552083333333333,0.15111111111111114],[-0.075,0.13055555555555556],[-0.0860416666666667,0.10629629629629625],[-0.07291666666666667,0.08111111111111102],[-0.03156249999999995,0.03333333333333333],[0.009791666666666643,-0.01444444444444436],[0.009375,-0.07185185185185188],[0.008958333333333356,-0.12925925925925927],[0.012395833333333309,-0.14314814814814816],[0.011354166666666643,-0.19814814814814816],[0.007500000000000047,-0.24388888888888888],[0.008437500000000023,-0.2748148148148148],[0.020937500000000022,-0.3020370370370371],[0.033958333333333354,-0.32759259259259255],[0.019270833333333334,-0.3322222222222222],[-0.005937500000000048,-0.3757407407407407],[-0.013541666666666667,-0.4137037037037037],[-0.022083333333333382,-0.4375925925925926],[-0.03218749999999997,-0.48870370370370364],[-0.03781249999999995,-0.4987037037037037],[-0.027708333333333356,-0.4274074074074074],[-0.022395833333333334,-0.37092592592592594],[-0.03239583333333336,-0.30907407407407406],[-0.03802083333333333,-0.22999999999999998],[-0.04052083333333331,-0.1594444444444445],[-0.03250000000000005,-0.05],[-0.028854166666666715,0.047037037037036995],[-0.028854166666666715,0.047037037037036995],[-0.025937499999999978,0.08851851851851844],[-0.026250000000000048,0.1361111111111111],[-0.026250000000000048,0.1361111111111111],[-0.03708333333333336,0.19148148148148145],[-0.05510416666666664,0.16407407407407412],[-0.07833333333333338,0.1388888888888889],[-0.07718750000000002,0.11925925925925922],[-0.07718750000000002,0.11925925925925922],[-0.09406249999999995,0.08425925925925926],[-0.1423958333333334,0.13796296296296295],[-0.18093750000000006,0.18870370370370365],[-0.2289583333333333,0.24814814814814815],[-0.2289583333333333,0.24814814814814815],[-0.24104166666666665,0.27314814814814814],[-0.19750000000000004,0.25685185185185194],[-0.14343750000000005,0.23277777777777786],[-0.12364583333333339,0.26740740740740737],[-0.09864583333333338,0.29981481481481476],[-0.08489583333333334,0.3020370370370371],[-0.05802083333333338,0.3007407407407407],[-0.003958333333333286,0.23759259259259252],[0.04031250000000005,0.17740740740740732],[0.084375,0.12629629629629638],[0.07885416666666671,0.16500000000000004],[0.03718750000000005,0.23074074074074077]]","[[-0.05291666666666662,0.19148148148148145,0.0002999999970256795],[-0.05291666666666662,0.19148148148148145,0.05379999999702534],[-0.05375000000000003,0.21203703703703702,0.07250000000000512],[-0.05375000000000003,0.21203703703703702,0.0792999999970192],[-0.05947916666666669,0.19222222222222213,0.10579999999701784],[-0.05947916666666669,0.19222222222222213,0.11329999999702522],[-0.05583333333333336,0.19981481481481478,0.13909999999404477],[-0.05583333333333336,0.19981481481481478,0.14669999998808692],[-0.049583333333333354,0.1838888888888888,0.17249999999999943],[-0.049583333333333354,0.1838888888888888,0.1793999999910625],[-0.04718749999999995,0.1757407407407407,0.2042999999970192],[-0.04718749999999995,0.1757407407407407,0.21209999999403806],[-0.04760416666666671,0.17814814814814822,0.23909999999403908],[-0.04760416666666671,0.17814814814814822,0.24589999999106738],[-0.059375,0.1603703703703704,0.27250000000000796],[-0.059375,0.1603703703703704,0.27909999999404533],[-0.06072916666666662,0.1633333333333334,0.30559999999404397],[-0.06072916666666662,0.1633333333333334,0.31329999999702807],[-0.05656249999999995,0.18777777777777774,0.3375000000000057],[-0.05656249999999995,0.18777777777777774,0.3445000000000107],[-0.057187499999999974,0.17759259259259255,0.3728999999910627],[-0.057187499999999974,0.17759259259259255,0.38069999998808157],[-0.0626041666666667,0.1648148148148148,0.4070000000000107],[-0.0626041666666667,0.1648148148148148,0.4162999999970225],[-0.058437500000000024,0.18851851851851845,0.43969999998807907],[-0.058437500000000024,0.18851851851851845,0.4650000000000034],[-0.06385416666666661,0.1727777777777777,0.47819999998807816],[-0.06385416666666661,0.1727777777777777,0.48749999999999716],[-0.08635416666666665,0.1594444444444445,0.5036999999880862],[-0.11364583333333336,0.1381481481481482,0.5203999999910565],[-0.14249999999999996,0.13481481481481472,0.5370999999940409],[-0.16000000000000003,0.15166666666666662,0.5537999999970253],[-0.1794791666666666,0.19703703703703698,0.5705000000000098],[-0.20020833333333338,0.23537037037037042,0.5870000000000033],[-0.2295833333333333,0.256111111111111,0.6036999999880805],[-0.2726041666666667,0.2687037037037037,0.620399999991065],[-0.31749999999999995,0.3475925925925927,0.6370000000000005],[-0.35833333333333334,0.444074074074074,0.6536999999880777],[-0.3803125,0.5446296296296297,0.6703999999910621],[-0.3880208333333333,0.6162962962962962,0.6871999999880813],[-0.4079166666666667,0.6900000000000001,0.7036999999880891],[-0.378125,0.7320370370370369,0.7203999999910593],[-0.34781249999999997,0.7312962962962962,0.7370999999940437],[-0.33239583333333333,0.6648148148148149,0.7537999999970282],[-0.2876041666666667,0.6361111111111111,0.7702999999970217],[-0.24666666666666662,0.5762962962962964,0.7895000000000039],[-0.19572916666666665,0.4918518518518519,0.8036999999880834],[-0.16614583333333333,0.38425925925925924,0.8203999999910678],[-0.12166666666666662,0.302962962962963,0.8392999999970243],[-0.09906250000000003,0.24055555555555552,0.8536999999880805],[-0.0703125,0.1685185185185185,0.870399999991065],[-0.08468749999999996,0.14870370370370362,0.8870000000000005],[-0.10572916666666667,0.14462962962962966,0.9053999999910616],[-0.1202083333333333,0.10351851851851848,0.9205999999940389],[-0.1404166666666666,0.08000000000000008,0.9372999999970233],[-0.14635416666666667,0.06111111111111111,0.9555999999940497],[-0.17322916666666663,0.047037037037036995,0.9705000000000013],[-0.17458333333333337,0.009629629629629714,0.9872999999970204],[-0.19593750000000001,-0.038703703703703664,1.003899999991063],[-0.20104166666666667,-0.07685185185185185,1.022299999997017],[-0.19781249999999997,-0.10314814814814813,1.0373999999910666],[-0.20114583333333336,-0.15,1.0537999999970253],[-0.19781249999999997,-0.2125925925925926,1.0721999999880865],[-0.21041666666666667,-0.18333333333333332,1.087199999988087],[-0.22822916666666668,-0.16814814814814816,1.1038999999910573],[-0.22791666666666663,-0.15333333333333335,1.122599999994037],[-0.22208333333333338,-0.19037037037037038,1.1371999999880842],[-0.2375,-0.19888888888888884,1.1538999999910686],[-0.24781249999999996,-0.22907407407407404,1.1721999999880808],[-0.22999999999999995,-0.21425925925925923,1.1871999999880813],[-0.2205208333333334,-0.21129629629629634,1.2040000000000077],[-0.21666666666666667,-0.16925925925925922,1.223799999997027],[-0.21666666666666667,-0.16925925925925922,1.2373999999910694],[-0.23031250000000003,-0.1624074074074074,1.2541999999880886],[-0.22229166666666664,-0.15407407407407406,1.2758999999910685],[-0.22229166666666664,-0.15407407407407406,1.2871999999880899],[-0.20104166666666667,-0.16796296296296295,1.304000000000002],[-0.1984375,-0.13222222222222219,1.3213999999910584],[-0.18885416666666663,-0.0705555555555556,1.3389999999999986],[-0.1720833333333334,-0.052037037037037076,1.3545000000000016],[-0.1720833333333334,-0.052037037037037076,1.3705999999940417],[-0.14624999999999996,-0.029259259259259176,1.3894999999999982],[-0.15614583333333332,-0.048333333333333374,1.4038999999910686],[-0.16687500000000005,-0.0668518518518519,1.420500000000004],[-0.165625,-0.15629629629629627,1.4395000000000095],[-0.15197916666666664,-0.18499999999999997,1.456000000000003],[-0.13572916666666662,-0.20425925925925928,1.4740999999940385],[-0.12781250000000005,-0.21296296296296297,1.4911999999880834],[-0.12427083333333329,-0.2294444444444444,1.5045000000000073],[-0.1172916666666667,-0.2831481481481481,1.5205999999940474],[-0.10427083333333335,-0.28129629629629627,1.5371999999880899],[-0.09229166666666669,-0.2892592592592592,1.5565999999940487],[-0.09229166666666669,-0.2892592592592592,1.5707999999970212],[-0.07531249999999995,-0.2868518518518518,1.587299999997029],[-0.04854166666666669,-0.25037037037037035,1.606499999999997],[-0.04697916666666669,-0.225,1.6206999999880765],[-0.03572916666666662,-0.21666666666666667,1.6370000000000005],[-0.021875,-0.20629629629629626,1.6538999999910686],[0.0002083333333333807,-0.17777777777777778,1.6748999999910694],[0.0002083333333333807,-0.17777777777777778,1.6871999999880813],[0.0037500000000000237,-0.17333333333333337,1.7040000000000077],[-0.007500000000000047,-0.13555555555555554,1.7205000000000013],[-0.01583333333333338,-0.12462962962962965,1.7393999999910648],[-0.0296875,-0.11222222222222226,1.753899999991063],[-0.06635416666666671,-0.11407407407407412,1.7705999999940474],[-0.11197916666666667,-0.15055555555555558,1.7905000000000086],[-0.10447916666666662,-0.13703703703703704,1.8037999999970253],[-0.1015625,-0.13203703703703706,1.8205000000000098],[-0.10364583333333334,-0.1205555555555556,1.837199999988087],[-0.11885416666666669,-0.11555555555555551,1.856499999999997],[-0.11770833333333333,-0.11185185185185181,1.8717999999970232],[-0.1336458333333333,-0.13296296296296298,1.8882999999970167],[-0.15249999999999997,-0.1272222222222222,1.9038999999910686],[-0.16458333333333333,-0.10611111111111113,1.9226999999880832],[-0.13802083333333334,-0.10092592592592593,1.9372999999970233],[-0.13802083333333334,-0.10092592592592593,1.9537999999970168],[-0.1391666666666667,-0.0809259259259259,1.9797999999970273],[-0.1391666666666667,-0.0809259259259259,1.9871999999880785],[-0.1486458333333334,-0.046481481481481526,2.003899999991063],[-0.21052083333333335,0.009259259259259259,2.0204999999999984],[-0.2700000000000001,0.05648148148148148,2.0403999999910667],[-0.23145833333333338,0.005555555555555556,2.0567999999970255],[-0.2326041666666666,-0.032037037037036954,2.0712999999970236],[-0.21135416666666665,-0.07629629629629628,2.087199999988087],[-0.17395833333333333,-0.07851851851851847,2.1077999999970274],[-0.15750000000000006,-0.08574074074074076,2.121799999997023],[-0.1577083333333333,-0.036666666666666584,2.137199999988084],[-0.13020833333333334,-0.002407407407407323,2.1577999999970245],[-0.12562500000000001,-0.04611111111111107,2.173599999994039],[-0.07374999999999995,-0.09685185185185187,2.1895000000000095],[-0.01875,-0.11074074074074076,2.209799999997017],[-0.01875,-0.11074074074074076,2.2205000000000013],[-0.058333333333333334,-0.058333333333333334,2.2371999999880785],[-0.06812499999999998,0.030555555555555555,2.253899999991063],[-0.07791666666666662,0.11944444444444445,2.273299999997022],[-0.07437499999999998,0.16111111111111112,2.289399999991062],[-0.06843750000000005,0.1983333333333334,2.3037999999970253],[-0.07864583333333333,0.1824074074074074,2.324699999988084],[-0.0751041666666667,0.16055555555555565,2.3385000000000105],[-0.03854166666666667,0.20888888888888882,2.3537999999970225],[0.003125,0.24296296296296305,2.376599999994042],[0.003125,0.24296296296296305,2.3870999999940494],[0.009062500000000048,0.2212962962962963,2.4037999999970197],[0.0109375,0.20037037037037045,2.420699999988088],[0.028125,0.14129629629629623,2.440399999991058],[0.049791666666666616,0.1448148148148149,2.454599999994045],[0.030104166666666644,0.11999999999999991,2.4712999999970293],[0.019687499999999976,0.0933333333333333,2.4904999999999973],[0.041458333333333285,0.09722222222222222,2.5045000000000073],[0.049479166666666664,0.10703703703703696,2.521500000000003],[0.03229166666666667,0.0801851851851851,2.53719999998809],[0.015104166666666667,0.05333333333333325,2.556199999988081],[0.029895833333333382,0.0772222222222223,2.5707999999970212],[0.029895833333333382,0.0772222222222223,2.587199999988087],[0.0453125,0.13222222222222219,2.6069999999999993],[0.05687500000000002,0.18314814814814812,2.622],[0.050416666666666644,0.1698148148148149,2.6377999999970285],[0.06697916666666662,0.20833333333333334,2.6537999999970197],[0.08354166666666671,0.24685185185185177,2.67379999999703],[0.08354166666666671,0.24685185185185177,2.6871999999880813],[0.10062499999999991,0.262037037037037,2.703699999988089],[0.12791666666666662,0.2631481481481482,2.7202999999970245],[0.1443749999999999,0.28722222222222227,2.737000000000009],[0.1443749999999999,0.28722222222222227,2.7536999999880862],[0.16437499999999997,0.322037037037037,2.7703999999910565],[0.19322916666666667,0.3122222222222223,2.787099999994041],[0.22208333333333338,0.30240740740740735,2.8036999999880834],[0.26458333333333334,0.331111111111111,2.820399999991068],[0.2946875000000001,0.3398148148148148,2.837099999994038],[0.35260416666666666,0.34037037037037027,2.854899999991062],[0.4010416666666667,0.3122222222222223,2.8713999999910698],[0.43635416666666677,0.2903703703703703,2.8870000000000005],[0.4618750000000001,0.29314814814814805,2.90419999998808],[0.4873958333333334,0.2959259259259258,2.9202999999970274],[0.5128125,0.2729629629629629,2.9369999999999976],[0.5232291666666666,0.25759259259259265,2.95359999999404],[0.528125,0.24962962962962953,2.9703999999910593],[0.5232291666666666,0.20722222222222217,2.9870999999940437],[0.5378124999999999,0.1648148148148148,3.0088999999910584],[0.48250000000000004,0.12222222222222222,3.023899999991059],[0.4473958333333333,0.10629629629629625,3.0388999999910595],[0.4122916666666666,0.09037037037037028,3.0559999999999974],[0.3767708333333334,0.06388888888888888,3.074199999988082],[0.3316666666666668,0.02240740740740745,3.088599999994045],[0.28312499999999996,-0.004074074074074159,3.1038999999910573],[0.2430208333333333,-0.05407407407407405,3.125699999988086],[0.20729166666666668,-0.06666666666666667,3.1398999999910586],[0.1984375,-0.0257407407407407,3.1563999999910664],[0.19604166666666673,0.03685185185185181,3.173500000000004],[0.21145833333333333,0.07981481481481485,3.1916999999880886],[0.22333333333333344,0.09148148148148144,3.207599999994045],[0.2352083333333333,0.10314814814814824,3.223699999988085],[0.2150000000000001,0.0698148148148149,3.2380999999940485],[0.20437500000000006,0.0514814814814814,3.253799999997028],[0.22520833333333337,0.130925925925926,3.273799999997024],[0.2443749999999999,0.2390740740740741,3.288499999999999],[0.23020833333333332,0.19981481481481478,3.3036999999880834],[0.18916666666666657,0.10703703703703696,3.323399999991068],[0.1631249999999999,0.10259259259259255,3.3373999999910637],[0.1502083333333334,0.10777777777777786,3.3536999999880805],[0.1634375000000001,0.1824074074074074,3.370500000000007],[0.17239583333333333,0.23129629629629625,3.3883999999910657],[0.18125,0.28351851851851856,3.4036999999880777],[0.19010416666666666,0.3357407407407407,3.420399999991062],[0.18458333333333338,0.3135185185185184,3.4370999999940466],[0.1759375000000001,0.29314814814814805,3.456199999988087],[0.1915625000000001,0.3322222222222222,3.472999999999999],[0.19718749999999996,0.36999999999999994,3.48929999999703],[0.19083333333333338,0.3218518518518518,3.5065000000000026],[0.18104166666666663,0.26444444444444437,3.5221999999880893],[0.18104166666666663,0.26444444444444437,3.53719999998809],[0.1243750000000001,0.15481481481481485,3.556399999991058],[0.07947916666666661,0.13333333333333333,3.5720999999940375],[0.058854166666666666,0.1411111111111112,3.5891999999880824],[0.052187500000000026,0.15055555555555547,3.6037999999970225],[0.035000000000000024,0.12074074074074083,3.6232999999970303],[0.035000000000000024,0.12074074074074083,3.637199999988084],[0.01416666666666669,0.10611111111111103,3.6538999999910686],[-0.0265625,0.11092592592592589,3.6731999999880856],[-0.0265625,0.11092592592592589,3.6871999999880813],[-0.03979166666666671,0.1,3.703799999997017],[-0.08656250000000003,0.19407407407407398,3.7203999999910593],[-0.17093750000000002,0.31296296296296294,3.7381999999880833],[-0.24177083333333335,0.4479629629629629,3.7566999999880863],[-0.22822916666666668,0.4050000000000001,3.7728999999910684],[-0.20677083333333332,0.3744444444444445,3.7903999999910667],[-0.2283333333333334,0.3520370370370371,3.806399999991058],[-0.2564583333333334,0.3455555555555556,3.8220999999940375],[-0.2564583333333334,0.3455555555555556,3.845099999994048],[-0.2673958333333334,0.327962962962963,3.8691999999880835],[-0.2673958333333334,0.327962962962963,3.8770999999940443],[-0.23864583333333336,0.2948148148148149,3.8870000000000005],[-0.23666666666666672,0.28055555555555556,3.9063999999910664],[-0.1875,0.16703703703703712,3.9202999999970274],[-0.10427083333333335,0.03370370370370379,3.9369999999999976],[-0.0578125,-0.052962962962963,3.955899999991061],[-0.12208333333333338,-0.014074074074074116,3.9702999999970245],[-0.18635416666666665,0.03092592592592601,3.9870999999940437],[-0.22385416666666663,0.08574074074074066,4.003699999988086],[-0.26114583333333335,0.127962962962963,4.023099999994045],[-0.24635416666666668,0.08092592592592601,4.037099999994041],[-0.25718749999999996,0.07444444444444454,4.053799999997025],[-0.24208333333333332,0.0787037037037037,4.070399999991068],[-0.24895833333333334,0.0705555555555556,4.086899999991061],[-0.26458333333333334,0.11851851851851852,4.1036999999880805],[-0.24343750000000006,0.1198148148148149,4.12029999999703],[-0.22864583333333333,0.11685185185185189,4.1370000000000005],[-0.2079166666666667,0.13722222222222227,4.15379999999702],[-0.20062500000000003,0.12481481481481477,4.170299999997027],[-0.1935416666666666,0.125,4.187099999994047],[-0.23270833333333332,0.19666666666666674,4.203699999988089],[-0.25583333333333336,0.26703703703703713,4.220399999991059],[-0.3210416666666667,0.3255555555555555,4.237000000000009],[-0.3711458333333333,0.38870370370370366,4.253699999988086],[-0.3711458333333333,0.38870370370370366,4.270299999997022],[-0.4055208333333333,0.4,4.287099999994041],[-0.4301041666666666,0.4233333333333334,4.305599999994044],[-0.42854166666666665,0.3787037037037037,4.321099999994047],[-0.41687500000000005,0.2868518518518518,4.337099999994038],[-0.3686458333333333,0.2553703703703703,4.35569999998809],[-0.3686458333333333,0.2553703703703703,4.370599999994042],[-0.30927083333333333,0.21500000000000005,4.387099999994049],[-0.2773958333333333,0.21370370370370367,4.405299999997027],[-0.23104166666666662,0.20111111111111116,4.420399999991062],[-0.1592708333333333,0.18777777777777774,4.437199999988081],[-0.07427083333333329,0.15481481481481485,4.4563999999910635],[0.0018749999999999527,0.04814814814814815,4.471299999997029],[0.06822916666666666,-0.0705555555555556,4.491199999988083],[0.11666666666666667,-0.06277777777777774,4.506599999994037],[0.14770833333333327,-0.024629629629629547,4.520599999994047],[0.15260416666666668,-0.01314814814814819,4.5397999999970295],[0.14635416666666667,0.00722222222222218,4.55389999999106],[0.16604166666666675,0.06462962962962959,4.5720999999940375],[0.17239583333333333,0.03351851851851856,4.587199999988087],[0.1742708333333333,-0.007592592592592635,4.6037999999970225],[0.153125,-0.0294444444444444,4.622299999997026],[0.153125,-0.0294444444444444,4.637199999988084],[0.10812499999999996,0.06518518518518526,4.654000000000011],[0.07249999999999991,0.17555555555555546,4.670500000000004],[0.05343749999999995,0.18925925925925935,4.689399999991068],[0.0453125,0.19092592592592597,4.703899999991066],[0.04760416666666671,0.1983333333333334,4.72059999999405],[0.04989583333333331,0.20574074074074078,4.7403999999910695],[0.041458333333333285,0.14833333333333337,4.756799999997028],[0.03208333333333328,0.19037037037037027,4.77109999999405],[0.027499999999999976,0.25333333333333324,4.79189999999106],[0.049270833333333285,0.3081481481481481,4.8065],[0.09385416666666657,0.2994444444444445,4.82050000000001],[0.1290625000000001,0.275,4.837099999994038],[0.16593749999999996,0.30240740740740735,4.856399999991069],[0.17083333333333334,0.3287037037037037,4.870500000000007],[0.17062499999999994,0.3287037037037037,4.887299999997026],[0.15677083333333333,0.2862962962962963,4.908000000000001],[0.15427083333333325,0.29074074074074074,4.921500000000009],[0.1736458333333334,0.26962962962962966,4.937199999988081],[0.19270833333333334,0.23759259259259252,4.953899999991066],[0.1805208333333333,0.2094444444444445,4.972000000000008],[0.1493750000000001,0.20500000000000007,4.9871999999880785],[0.11531250000000005,0.1685185185185185,5.003699999988086],[0.07999999999999995,0.11259259259259251,5.0203999999910565],[0.0703125,0.0794444444444444,5.039299999997027],[0.049791666666666616,0.03722222222222227,5.054899999991065],[0.042916666666666714,0.03740740740740749,5.07050000000001],[0.03833333333333329,0.0014814814814813973,5.087199999988087],[0.011666666666666714,-0.00851851851851856,5.10739999999106],[-0.011562500000000024,0.016666666666666666,5.122],[-0.029895833333333382,0.04611111111111107,5.137199999988084],[-0.027395833333333286,0.0485185185185186,5.153699999988078],[-0.027395833333333286,0.0485185185185186,5.170399999991062],[-0.021979166666666692,0.08296296296296288,5.186999999999998],[-0.021354166666666667,0.11259259259259251,5.203699999988089],[-0.017083333333333308,0.12814814814814823,5.222599999994046],[-0.007187499999999976,0.16648148148148145,5.237000000000009],[0.002708333333333357,0.20481481481481487,5.253899999991063],[0.002395833333333286,0.18907407407407412,5.27409999999405],[-0.005104166666666643,0.19759259259259268,5.288499999999999],[-0.016458333333333287,0.15240740740740732,5.303799999997025],[-0.02781250000000005,0.10722222222222218,5.3205999999940445],[-0.05281250000000005,0.09222222222222214,5.340500000000006],[-0.04510416666666662,0.12092592592592584,5.35629999999702],[-0.051041666666666666,0.12777777777777777,5.373699999988077],[-0.051041666666666666,0.12777777777777777,5.387199999988084],[-0.0704166666666667,0.11314814814814819,5.40619999998809],[-0.09187500000000005,0.08499999999999996,5.420500000000004],[-0.08968750000000002,0.08814814814814818,5.437099999994047],[-0.09489583333333336,0.13518518518518519,5.453799999997017],[-0.09291666666666672,0.1579629629629629,5.4740999999940385],[-0.08947916666666664,0.1925925925925926,5.490099999994044],[-0.0860416666666667,0.2272222222222223,5.505699999988082],[-0.0860416666666667,0.2272222222222223,5.52300000000001],[-0.057500000000000044,0.24962962962962953,5.537099999994041],[-0.06312500000000003,0.23499999999999996,5.553799999997025],[-0.057291666666666664,0.23629629629629634,5.57389999999107],[-0.057291666666666664,0.23629629629629634,5.587099999994038],[-0.036249999999999956,0.23074074074074077,5.603899999991057],[-0.014374999999999952,0.2627777777777777,5.62329999999703],[-0.01875,0.25999999999999995,5.6392999999970215],[-0.02312500000000005,0.2572222222222222,5.655299999997027],[-0.042499999999999954,0.21814814814814806,5.673500000000004],[-0.04802083333333336,0.17462962962962955,5.690399999991058],[-0.04708333333333338,0.16870370370370374,5.706799999997017],[-0.049583333333333354,0.16888888888888898,5.725199999988078],[-0.058437500000000024,0.14000000000000004,5.74139999999106],[-0.058437500000000024,0.14000000000000004,5.753799999997028],[-0.06031249999999998,0.12185185185185177,5.770499999999998],[-0.0782291666666667,0.10925925925925926,5.787000000000006],[-0.10843750000000002,0.130925925925926,5.806399999991058],[-0.11208333333333335,0.06722222222222214,5.820799999997021],[-0.13072916666666667,0.1235185185185186,5.837000000000003],[-0.14906250000000001,0.24351851851851852,5.856899999991057],[-0.18229166666666666,0.37462962962962953,5.8715999999940465],[-0.23072916666666668,0.444074074074074,5.8870000000000005],[-0.2791666666666667,0.5135185185185185,5.907299999997022],[-0.2998958333333333,0.5729629629629629,5.921699999988078],[-0.32062499999999994,0.6324074074074074,5.93689999999107],[-0.3164583333333333,0.6824074074074075,5.95359999999404],[-0.29354166666666665,0.6603703703703704,5.9702999999970245],[-0.2930208333333333,0.6775925925925925,5.987000000000009],[-0.2640625,0.5959259259259259,6.003599999994037],[-0.21875,0.447037037037037,6.020299999997022],[-0.16770833333333332,0.3475925925925927,6.037000000000006],[-0.12000000000000005,0.28703703703703703,6.053599999994049],[-0.07281249999999997,0.22537037037037044,6.0730000000000075],[-0.04614583333333329,0.20851851851851855,6.087000000000003],[-0.02677083333333338,0.19666666666666674,6.103899999991057],[-0.04885416666666664,0.22370370370370363,6.121299999997021],[-0.05572916666666667,0.24722222222222223,6.1370000000000005],[-0.0703125,0.3292592592592592,6.153599999994043],[-0.10322916666666669,0.38333333333333336,6.171500000000009],[-0.13781249999999995,0.4772222222222223,6.186999999999998],[-0.14874999999999997,0.47907407407407415,6.20359999999404],[-0.1476041666666667,0.4661111111111112,6.2202999999970245],[-0.1701041666666666,0.4551851851851851,6.237000000000009],[-0.19197916666666662,0.43185185185185193,6.253599999994037],[-0.20656249999999995,0.4035185185185185,6.2703999999910565],[-0.17302083333333335,0.36444444444444435,6.287000000000006],[-0.1546875,0.32888888888888895,6.303599999994049],[-0.13250000000000003,0.2681481481481481,6.320299999997019],[-0.10541666666666671,0.21425925925925934,6.337299999997029],[-0.07552083333333333,0.15111111111111114,6.3536999999880805],[-0.075,0.13055555555555556,6.37029999999703],[-0.0860416666666667,0.10629629629629625,6.387299999997026],[-0.07291666666666667,0.08111111111111102,6.403599999994043],[-0.03156249999999995,0.03333333333333333,6.420299999997027],[0.009791666666666643,-0.01444444444444436,6.436999999999998],[0.009375,-0.07185185185185188,6.453699999988089],[0.008958333333333356,-0.12925925925925927,6.4702999999970245],[0.012395833333333309,-0.14314814814814816,6.487000000000009],[0.011354166666666643,-0.19814814814814816,6.503599999994037],[0.007500000000000047,-0.24388888888888888,6.520299999997022],[0.008437500000000023,-0.2748148148148148,6.537000000000006],[0.020937500000000022,-0.3020370370370371,6.553599999994049],[0.033958333333333354,-0.32759259259259255,6.570399999991068],[0.019270833333333334,-0.3322222222222222,6.586899999991061],[-0.005937500000000048,-0.3757407407407407,6.603599999994046],[-0.013541666666666667,-0.4137037037037037,6.62029999999703],[-0.022083333333333382,-0.4375925925925926,6.637099999994049],[-0.03218749999999997,-0.48870370370370364,6.653599999994043],[-0.03781249999999995,-0.4987037037037037,6.670299999997027],[-0.027708333333333356,-0.4274074074074074,6.686999999999998],[-0.022395833333333334,-0.37092592592592594,6.70359999999404],[-0.03239583333333336,-0.30907407407407406,6.7202999999970245],[-0.03802083333333333,-0.22999999999999998,6.737000000000009],[-0.04052083333333331,-0.1594444444444445,6.753799999997028],[-0.03250000000000005,-0.05,6.770299999997022],[-0.028854166666666715,0.047037037037036995,6.789299999997027],[-0.028854166666666715,0.047037037037036995,6.803799999997025],[-0.025937499999999978,0.08851851851851844,6.82050000000001],[-0.026250000000000048,0.1361111111111111,6.840299999997029],[-0.026250000000000048,0.1361111111111111,6.8537999999970225],[-0.03708333333333336,0.19148148148148145,6.870599999994042],[-0.05510416666666664,0.16407407407407412,6.890000000000001],[-0.07833333333333338,0.1388888888888889,6.90509999999405],[-0.07718750000000002,0.11925925925925922,6.923599999994039],[-0.07718750000000002,0.11925925925925922,6.937099999994047],[-0.09406249999999995,0.08425925925925926,6.957799999997022],[-0.1423958333333334,0.13796296296296295,6.9741999999880875],[-0.18093750000000006,0.18870370370370365,6.989899999991067],[-0.2289583333333333,0.24814814814814815,7.009199999988084],[-0.2289583333333333,0.24814814814814815,7.020499999999998],[-0.24104166666666665,0.27314814814814814,7.03719999998809],[-0.19750000000000004,0.25685185185185194,7.053799999997025],[-0.14343750000000005,0.23277777777777786,7.074099999994047],[-0.12364583333333339,0.26740740740740737,7.089399999991059],[-0.09864583333333338,0.29981481481481476,7.1037999999970225],[-0.08489583333333334,0.3020370370370371,7.1214999999999975],[-0.05802083333333338,0.3007407407407407,7.1400999999940495],[-0.003958333333333286,0.23759259259259252,7.154799999997024],[0.04031250000000005,0.17740740740740732,7.174599999994044],[0.084375,0.12629629629629638,7.189399999991068],[0.07885416666666671,0.16500000000000004,7.20359999999404],[0.03718750000000005,0.23074074074074077,7.223799999997027]]","[0.0002999999970256795,0.05379999999702534,0.07250000000000512,0.0792999999970192,0.10579999999701784,0.11329999999702522,0.13909999999404477,0.14669999998808692,0.17249999999999943,0.1793999999910625,0.2042999999970192,0.21209999999403806,0.23909999999403908,0.24589999999106738,0.27250000000000796,0.27909999999404533,0.30559999999404397,0.31329999999702807,0.3375000000000057,0.3445000000000107,0.3728999999910627,0.38069999998808157,0.4070000000000107,0.4162999999970225,0.43969999998807907,0.4650000000000034,0.47819999998807816,0.48749999999999716,0.5036999999880862,0.5203999999910565,0.5370999999940409,0.5537999999970253,0.5705000000000098,0.5870000000000033,0.6036999999880805,0.620399999991065,0.6370000000000005,0.6536999999880777,0.6703999999910621,0.6871999999880813,0.7036999999880891,0.7203999999910593,0.7370999999940437,0.7537999999970282,0.7702999999970217,0.7895000000000039,0.8036999999880834,0.8203999999910678,0.8392999999970243,0.8536999999880805,0.870399999991065,0.8870000000000005,0.9053999999910616,0.9205999999940389,0.9372999999970233,0.9555999999940497,0.9705000000000013,0.9872999999970204,1.003899999991063,1.022299999997017,1.0373999999910666,1.0537999999970253,1.0721999999880865,1.087199999988087,1.1038999999910573,1.122599999994037,1.1371999999880842,1.1538999999910686,1.1721999999880808,1.1871999999880813,1.2040000000000077,1.223799999997027,1.2373999999910694,1.2541999999880886,1.2758999999910685,1.2871999999880899,1.304000000000002,1.3213999999910584,1.3389999999999986,1.3545000000000016,1.3705999999940417,1.3894999999999982,1.4038999999910686,1.420500000000004,1.4395000000000095,1.456000000000003,1.4740999999940385,1.4911999999880834,1.5045000000000073,1.5205999999940474,1.5371999999880899,1.5565999999940487,1.5707999999970212,1.587299999997029,1.606499999999997,1.6206999999880765,1.6370000000000005,1.6538999999910686,1.6748999999910694,1.6871999999880813,1.7040000000000077,1.7205000000000013,1.7393999999910648,1.753899999991063,1.7705999999940474,1.7905000000000086,1.8037999999970253,1.8205000000000098,1.837199999988087,1.856499999999997,1.8717999999970232,1.8882999999970167,1.9038999999910686,1.9226999999880832,1.9372999999970233,1.9537999999970168,1.9797999999970273,1.9871999999880785,2.003899999991063,2.0204999999999984,2.0403999999910667,2.0567999999970255,2.0712999999970236,2.087199999988087,2.1077999999970274,2.121799999997023,2.137199999988084,2.1577999999970245,2.173599999994039,2.1895000000000095,2.209799999997017,2.2205000000000013,2.2371999999880785,2.253899999991063,2.273299999997022,2.289399999991062,2.3037999999970253,2.324699999988084,2.3385000000000105,2.3537999999970225,2.376599999994042,2.3870999999940494,2.4037999999970197,2.420699999988088,2.440399999991058,2.454599999994045,2.4712999999970293,2.4904999999999973,2.5045000000000073,2.521500000000003,2.53719999998809,2.556199999988081,2.5707999999970212,2.587199999988087,2.6069999999999993,2.622,2.6377999999970285,2.6537999999970197,2.67379999999703,2.6871999999880813,2.703699999988089,2.7202999999970245,2.737000000000009,2.7536999999880862,2.7703999999910565,2.787099999994041,2.8036999999880834,2.820399999991068,2.837099999994038,2.854899999991062,2.8713999999910698,2.8870000000000005,2.90419999998808,2.9202999999970274,2.9369999999999976,2.95359999999404,2.9703999999910593,2.9870999999940437,3.0088999999910584,3.023899999991059,3.0388999999910595,3.0559999999999974,3.074199999988082,3.088599999994045,3.1038999999910573,3.125699999988086,3.1398999999910586,3.1563999999910664,3.173500000000004,3.1916999999880886,3.207599999994045,3.223699999988085,3.2380999999940485,3.253799999997028,3.273799999997024,3.288499999999999,3.3036999999880834,3.323399999991068,3.3373999999910637,3.3536999999880805,3.370500000000007,3.3883999999910657,3.4036999999880777,3.420399999991062,3.4370999999940466,3.456199999988087,3.472999999999999,3.48929999999703,3.5065000000000026,3.5221999999880893,3.53719999998809,3.556399999991058,3.5720999999940375,3.5891999999880824,3.6037999999970225,3.6232999999970303,3.637199999988084,3.6538999999910686,3.6731999999880856,3.6871999999880813,3.703799999997017,3.7203999999910593,3.7381999999880833,3.7566999999880863,3.7728999999910684,3.7903999999910667,3.806399999991058,3.8220999999940375,3.845099999994048,3.8691999999880835,3.8770999999940443,3.8870000000000005,3.9063999999910664,3.9202999999970274,3.9369999999999976,3.955899999991061,3.9702999999970245,3.9870999999940437,4.003699999988086,4.023099999994045,4.037099999994041,4.053799999997025,4.070399999991068,4.086899999991061,4.1036999999880805,4.12029999999703,4.1370000000000005,4.15379999999702,4.170299999997027,4.187099999994047,4.203699999988089,4.220399999991059,4.237000000000009,4.253699999988086,4.270299999997022,4.287099999994041,4.305599999994044,4.321099999994047,4.337099999994038,4.35569999998809,4.370599999994042,4.387099999994049,4.405299999997027,4.420399999991062,4.437199999988081,4.4563999999910635,4.471299999997029,4.491199999988083,4.506599999994037,4.520599999994047,4.5397999999970295,4.55389999999106,4.5720999999940375,4.587199999988087,4.6037999999970225,4.622299999997026,4.637199999988084,4.654000000000011,4.670500000000004,4.689399999991068,4.703899999991066,4.72059999999405,4.7403999999910695,4.756799999997028,4.77109999999405,4.79189999999106,4.8065,4.82050000000001,4.837099999994038,4.856399999991069,4.870500000000007,4.887299999997026,4.908000000000001,4.921500000000009,4.937199999988081,4.953899999991066,4.972000000000008,4.9871999999880785,5.003699999988086,5.0203999999910565,5.039299999997027,5.054899999991065,5.07050000000001,5.087199999988087,5.10739999999106,5.122,5.137199999988084,5.153699999988078,5.170399999991062,5.186999999999998,5.203699999988089,5.222599999994046,5.237000000000009,5.253899999991063,5.27409999999405,5.288499999999999,5.303799999997025,5.3205999999940445,5.340500000000006,5.35629999999702,5.373699999988077,5.387199999988084,5.40619999998809,5.420500000000004,5.437099999994047,5.453799999997017,5.4740999999940385,5.490099999994044,5.505699999988082,5.52300000000001,5.537099999994041,5.553799999997025,5.57389999999107,5.587099999994038,5.603899999991057,5.62329999999703,5.6392999999970215,5.655299999997027,5.673500000000004,5.690399999991058,5.706799999997017,5.725199999988078,5.74139999999106,5.753799999997028,5.770499999999998,5.787000000000006,5.806399999991058,5.820799999997021,5.837000000000003,5.856899999991057,5.8715999999940465,5.8870000000000005,5.907299999997022,5.921699999988078,5.93689999999107,5.95359999999404,5.9702999999970245,5.987000000000009,6.003599999994037,6.020299999997022,6.037000000000006,6.053599999994049,6.0730000000000075,6.087000000000003,6.103899999991057,6.121299999997021,6.1370000000000005,6.153599999994043,6.171500000000009,6.186999999999998,6.20359999999404,6.2202999999970245,6.237000000000009,6.253599999994037,6.2703999999910565,6.287000000000006,6.303599999994049,6.320299999997019,6.337299999997029,6.3536999999880805,6.37029999999703,6.387299999997026,6.403599999994043,6.420299999997027,6.436999999999998,6.453699999988089,6.4702999999970245,6.487000000000009,6.503599999994037,6.520299999997022,6.537000000000006,6.553599999994049,6.570399999991068,6.586899999991061,6.603599999994046,6.62029999999703,6.637099999994049,6.653599999994043,6.670299999997027,6.686999999999998,6.70359999999404,6.7202999999970245,6.737000000000009,6.753799999997028,6.770299999997022,6.789299999997027,6.803799999997025,6.82050000000001,6.840299999997029,6.8537999999970225,6.870599999994042,6.890000000000001,6.90509999999405,6.923599999994039,6.937099999994047,6.957799999997022,6.9741999999880875,6.989899999991067,7.009199999988084,7.020499999999998,7.03719999998809,7.053799999997025,7.074099999994047,7.089399999991059,7.1037999999970225,7.1214999999999975,7.1400999999940495,7.154799999997024,7.174599999994044,7.189399999991068,7.20359999999404,7.223799999997027]","[1732509837184,1732509837228,1732509837246,1732509837253,1732509837279,1732509837287,1732509837313,1732509837320,1732509837346,1732509837353,1732509837378,1732509837386,1732509837413,1732509837420,1732509837446,1732509837453,1732509837479,1732509837487,1732509837511,1732509837518,1732509837546,1732509837554,1732509837581,1732509837590,1732509837613,1732509837639,1732509837652,1732509837661,1732509837677,1732509837694,1732509837711,1732509837727,1732509837744,1732509837761,1732509837777,1732509837794,1732509837811,1732509837827,1732509837844,1732509837861,1732509837877,1732509837894,1732509837911,1732509837927,1732509837944,1732509837963,1732509837977,1732509837994,1732509838013,1732509838027,1732509838044,1732509838061,1732509838079,1732509838094,1732509838111,1732509838129,1732509838144,1732509838161,1732509838178,1732509838196,1732509838211,1732509838228,1732509838246,1732509838261,1732509838278,1732509838296,1732509838311,1732509838328,1732509838346,1732509838361,1732509838378,1732509838397,1732509838411,1732509838428,1732509838450,1732509838461,1732509838478,1732509838495,1732509838513,1732509838528,1732509838544,1732509838563,1732509838578,1732509838594,1732509838613,1732509838630,1732509838648,1732509838665,1732509838678,1732509838694,1732509838711,1732509838730,1732509838744,1732509838761,1732509838780,1732509838794,1732509838811,1732509838828,1732509838849,1732509838861,1732509838878,1732509838894,1732509838913,1732509838928,1732509838944,1732509838964,1732509838977,1732509838994,1732509839011,1732509839030,1732509839045,1732509839062,1732509839077,1732509839096,1732509839111,1732509839127,1732509839153,1732509839161,1732509839178,1732509839194,1732509839214,1732509839230,1732509839245,1732509839261,1732509839281,1732509839295,1732509839311,1732509839331,1732509839347,1732509839363,1732509839383,1732509839394,1732509839411,1732509839428,1732509839447,1732509839463,1732509839477,1732509839498,1732509839512,1732509839527,1732509839550,1732509839561,1732509839578,1732509839594,1732509839614,1732509839628,1732509839645,1732509839664,1732509839678,1732509839695,1732509839711,1732509839730,1732509839745,1732509839761,1732509839781,1732509839796,1732509839811,1732509839827,1732509839847,1732509839861,1732509839877,1732509839894,1732509839911,1732509839927,1732509839944,1732509839961,1732509839977,1732509839994,1732509840011,1732509840029,1732509840045,1732509840061,1732509840078,1732509840094,1732509840111,1732509840127,1732509840144,1732509840161,1732509840183,1732509840198,1732509840213,1732509840230,1732509840248,1732509840262,1732509840277,1732509840299,1732509840313,1732509840330,1732509840347,1732509840365,1732509840381,1732509840397,1732509840412,1732509840427,1732509840447,1732509840462,1732509840477,1732509840497,1732509840511,1732509840527,1732509840544,1732509840562,1732509840577,1732509840594,1732509840611,1732509840630,1732509840647,1732509840663,1732509840680,1732509840696,1732509840711,1732509840730,1732509840746,1732509840763,1732509840777,1732509840797,1732509840811,1732509840828,1732509840847,1732509840861,1732509840877,1732509840894,1732509840912,1732509840930,1732509840947,1732509840964,1732509840980,1732509840996,1732509841019,1732509841043,1732509841051,1732509841061,1732509841080,1732509841094,1732509841111,1732509841130,1732509841144,1732509841161,1732509841177,1732509841197,1732509841211,1732509841227,1732509841244,1732509841261,1732509841277,1732509841294,1732509841311,1732509841327,1732509841344,1732509841361,1732509841377,1732509841394,1732509841411,1732509841427,1732509841444,1732509841461,1732509841479,1732509841495,1732509841511,1732509841529,1732509841544,1732509841561,1732509841579,1732509841594,1732509841611,1732509841630,1732509841645,1732509841665,1732509841680,1732509841694,1732509841714,1732509841727,1732509841746,1732509841761,1732509841777,1732509841796,1732509841811,1732509841828,1732509841844,1732509841863,1732509841877,1732509841894,1732509841914,1732509841930,1732509841945,1732509841966,1732509841980,1732509841994,1732509842011,1732509842030,1732509842044,1732509842061,1732509842082,1732509842095,1732509842111,1732509842128,1732509842146,1732509842161,1732509842177,1732509842194,1732509842213,1732509842228,1732509842244,1732509842261,1732509842281,1732509842296,1732509842311,1732509842327,1732509842344,1732509842361,1732509842377,1732509842396,1732509842411,1732509842427,1732509842448,1732509842462,1732509842477,1732509842494,1732509842514,1732509842530,1732509842548,1732509842561,1732509842580,1732509842594,1732509842611,1732509842627,1732509842648,1732509842664,1732509842679,1732509842697,1732509842711,1732509842727,1732509842748,1732509842761,1732509842777,1732509842797,1732509842813,1732509842829,1732509842847,1732509842864,1732509842880,1732509842899,1732509842915,1732509842927,1732509842944,1732509842961,1732509842980,1732509842994,1732509843011,1732509843031,1732509843045,1732509843061,1732509843081,1732509843095,1732509843111,1732509843127,1732509843144,1732509843161,1732509843177,1732509843194,1732509843211,1732509843227,1732509843247,1732509843261,1732509843278,1732509843295,1732509843311,1732509843327,1732509843345,1732509843361,1732509843377,1732509843394,1732509843411,1732509843427,1732509843444,1732509843461,1732509843477,1732509843494,1732509843511,1732509843527,1732509843544,1732509843561,1732509843577,1732509843594,1732509843611,1732509843627,1732509843644,1732509843661,1732509843677,1732509843694,1732509843711,1732509843727,1732509843744,1732509843761,1732509843777,1732509843794,1732509843811,1732509843827,1732509843844,1732509843861,1732509843877,1732509843894,1732509843911,1732509843927,1732509843944,1732509843963,1732509843977,1732509843994,1732509844014,1732509844027,1732509844044,1732509844064,1732509844079,1732509844097,1732509844111,1732509844131,1732509844148,1732509844164,1732509844183,1732509844194,1732509844211,1732509844227,1732509844248,1732509844263,1732509844277,1732509844295,1732509844314,1732509844328,1732509844348,1732509844363,1732509844377,1732509844397]","[[909.2,643.4],[909.2,643.4],[908.4,654.5],[908.4,654.5],[902.9,643.8],[902.9,643.8],[906.4,647.9],[906.4,647.9],[912.4,639.3],[912.4,639.3],[914.7,634.9],[914.7,634.9],[914.3,636.2],[914.3,636.2],[903,626.6],[903,626.6],[901.7,628.2],[901.7,628.2],[905.7,641.4],[905.7,641.4],[905.1,635.9],[905.1,635.9],[899.9,629],[899.9,629],[903.9,641.8],[903.9,641.8],[898.7,633.3],[898.7,633.3],[877.1,626.1],[850.9,614.6],[823.2,612.8],[806.4,621.9],[787.7,646.4],[767.8,667.1],[739.6,678.3],[698.3,685.1],[655.2,727.7],[616,779.8],[594.9,834.1],[587.5,872.8],[568.4,912.6],[597,935.3],[626.1,934.9],[640.9,899],[683.9,883.5],[723.2,851.2],[772.1,805.6],[800.5,747.5],[843.2,703.6],[864.9,669.9],[892.5,631],[878.7,620.3],[858.5,618.1],[844.6,595.9],[825.2,583.2],[819.5,573],[793.7,565.4],[792.4,545.2],[771.9,519.1],[767,498.5],[770.1,484.3],[766.9,459],[770.1,425.2],[758,441],[740.9,449.2],[741.2,457.2],[746.8,437.2],[732,432.6],[722.1,416.3],[739.2,424.3],[748.3,425.9],[752,448.6],[752,448.6],[738.9,452.3],[746.6,456.8],[746.6,456.8],[767,449.3],[769.5,468.6],[778.7,501.9],[794.8,511.9],[794.8,511.9],[819.6,524.2],[810.1,513.9],[799.8,503.9],[801,455.6],[814.1,440.1],[829.7,429.7],[837.3,425],[840.7,416.1],[847.4,387.1],[859.9,388.1],[871.4,383.8],[871.4,383.8],[887.7,385.1],[913.4,404.8],[914.9,418.5],[925.7,423],[939,428.6],[960.2,444],[960.2,444],[963.6,446.4],[952.8,466.8],[944.8,472.7],[931.5,479.4],[896.3,478.4],[852.5,458.7],[859.7,466],[862.5,468.7],[860.5,474.9],[845.9,477.6],[847,479.6],[831.7,468.2],[813.6,471.3],[802,482.7],[827.5,485.5],[827.5,485.5],[826.4,496.3],[826.4,496.3],[817.3,514.9],[757.9,545],[700.8,570.5],[737.8,543],[736.7,522.7],[757.1,498.8],[793,497.6],[808.8,493.7],[808.6,520.2],[835,538.7],[839.4,515.1],[889.2,487.7],[942,480.2],[942,480.2],[904,508.5],[894.6,556.5],[885.2,604.5],[888.6,627],[894.3,647.1],[884.5,638.5],[887.9,626.7],[923,652.8],[963,671.2],[963,671.2],[968.7,659.5],[970.5,648.2],[987,616.3],[1007.8,618.2],[988.9,604.8],[978.9,590.4],[999.8,592.5],[1007.5,597.8],[991,583.3],[974.5,568.8],[988.7,581.7],[988.7,581.7],[1003.5,611.4],[1014.6,638.9],[1008.4,631.7],[1024.3,652.5],[1040.2,673.3],[1040.2,673.3],[1056.6,681.5],[1082.8,682.1],[1098.6,695.1],[1098.6,695.1],[1117.8,713.9],[1145.5,708.6],[1173.2,703.3],[1214,718.8],[1242.9,723.5],[1298.5,723.8],[1345,708.6],[1378.9,696.8],[1403.4,698.3],[1427.9,699.8],[1452.3,687.4],[1462.3,679.1],[1467,674.8],[1462.3,651.9],[1476.3,629],[1423.2,606],[1389.5,597.4],[1355.8,588.8],[1321.7,574.5],[1278.4,552.1],[1231.8,537.8],[1193.3,510.8],[1159,504],[1150.5,526.1],[1148.2,559.9],[1163,583.1],[1174.4,589.4],[1185.8,595.7],[1166.4,577.7],[1156.2,567.8],[1176.2,610.7],[1194.6,669.1],[1181,647.9],[1141.6,597.8],[1116.6,595.4],[1104.2,598.2],[1116.9,638.5],[1125.5,664.9],[1134,693.1],[1142.5,721.3],[1137.2,709.3],[1128.9,698.3],[1143.9,719.4],[1149.3,739.8],[1143.2,713.8],[1133.8,682.8],[1133.8,682.8],[1079.4,623.6],[1036.3,612],[1016.5,616.2],[1010.1,621.3],[993.6,605.2],[993.6,605.2],[973.6,597.3],[934.5,599.9],[934.5,599.9],[921.8,594],[876.9,644.8],[795.9,709],[727.9,781.9],[740.9,758.7],[761.5,742.2],[740.8,730.1],[713.8,726.6],[713.8,726.6],[703.3,717.1],[703.3,717.1],[730.9,699.2],[732.8,691.5],[780,630.2],[859.9,558.2],[904.5,511.4],[842.8,532.4],[781.1,556.7],[745.1,586.3],[709.3,609.1],[723.5,583.7],[713.1,580.2],[727.6,582.5],[721,578.1],[706,604],[726.3,604.7],[740.5,603.1],[760.4,614.1],[767.4,607.4],[774.2,607.5],[736.6,646.2],[714.4,684.2],[651.8,715.8],[603.7,749.9],[603.7,749.9],[570.7,756],[547.1,768.6],[548.6,744.5],[559.8,694.9],[606.1,677.9],[606.1,677.9],[663.1,656.1],[693.7,655.4],[738.2,648.6],[807.1,641.4],[888.7,623.6],[961.8,566],[1025.5,501.9],[1072,506.1],[1101.8,526.7],[1106.5,532.9],[1100.5,543.9],[1119.4,574.9],[1125.5,558.1],[1127.3,535.9],[1107,524.1],[1107,524.1],[1063.8,575.2],[1029.6,634.8],[1011.3,642.2],[1003.5,643.1],[1005.7,647.1],[1007.9,651.1],[999.8,620.1],[990.8,642.8],[986.4,676.8],[1007.3,706.4],[1050.1,701.7],[1083.9,688.5],[1119.3,703.3],[1124,717.5],[1123.8,717.5],[1110.5,694.6],[1108.1,697],[1126.7,685.6],[1145,668.3],[1133.3,653.1],[1103.4,650.7],[1070.7,631],[1036.8,600.8],[1027.5,582.9],[1007.8,560.1],[1001.2,560.2],[996.8,540.8],[971.2,535.4],[948.9,549],[931.3,564.9],[933.7,566.2],[933.7,566.2],[938.9,584.8],[939.5,600.8],[943.6,609.2],[953.1,629.9],[962.6,650.6],[962.3,642.1],[955.1,646.7],[944.2,622.3],[933.3,597.9],[909.3,589.8],[916.7,605.3],[911,609],[911,609],[892.4,601.1],[871.8,585.9],[873.9,587.6],[868.9,613],[870.8,625.3],[874.1,644],[877.4,662.7],[877.4,662.7],[904.8,674.8],[899.4,666.9],[905,667.6],[905,667.6],[925.2,664.6],[946.2,681.9],[942,680.4],[937.8,678.9],[919.2,657.8],[913.9,634.3],[914.8,631.1],[912.4,631.2],[903.9,615.6],[903.9,615.6],[902.1,605.8],[884.9,599],[855.9,610.7],[852.4,576.3],[834.5,606.7],[816.9,671.5],[785,742.3],[738.5,779.8],[692,817.3],[672.1,849.4],[652.2,881.5],[656.2,908.5],[678.2,896.6],[678.7,905.9],[706.5,861.8],[750,781.4],[799,727.7],[844.8,695],[890.1,661.7],[915.7,652.6],[934.3,646.2],[913.1,660.8],[906.5,673.5],[892.5,717.8],[860.9,747],[827.7,797.7],[817.2,798.7],[818.3,791.7],[796.7,785.8],[775.7,773.2],[761.7,757.9],[793.9,736.8],[811.5,717.6],[832.8,684.8],[858.8,655.7],[887.5,621.6],[888,610.5],[877.4,597.4],[890,583.8],[929.7,558],[969.4,532.2],[969,501.2],[968.6,470.2],[971.9,462.7],[970.9,433],[967.2,408.3],[968.1,391.6],[980.1,376.9],[992.6,363.1],[978.5,360.6],[954.3,337.1],[947,316.6],[938.8,303.7],[929.1,276.1],[923.7,270.7],[933.4,309.2],[938.5,339.7],[928.9,373.1],[923.5,415.8],[921.1,453.9],[928.8,513],[932.3,565.4],[932.3,565.4],[935.1,587.8],[934.8,613.5],[934.8,613.5],[924.4,643.4],[907.1,628.6],[884.8,615],[885.9,604.4],[885.9,604.4],[869.7,585.5],[823.3,614.5],[786.3,641.9],[740.2,674],[740.2,674],[728.6,687.5],[770.4,678.7],[822.3,665.7],[841.3,684.4],[865.3,701.9],[878.5,703.1],[904.3,702.4],[956.2,668.3],[998.7,635.8],[1041,608.2],[1035.7,629.1],[995.7,664.6]]","[-0.056692,0.170076]","[0.056692,0.170076]","[0.170076,0.170076]","[-0.170076,-0.056692]","[-0.170076,-0.170076]","[-0.170076,0.056692]","[-0.056692,-0.056692]","[0.056692,-0.056692]","[0.170076,-0.056692]","[-0.056692,-0.170076]","[0.056692,-0.170076]","[0.170076,-0.170076]","[-0.056692,0.056692]","[0.056692,0.056692]","[0.170076,0.056692]",0,0,0,0,1,2,Smartphone,15,20,8,3,70,4,3,60,4
