inst1_resp.keys,inst1_resp.rt,calibrationMouse.x,calibrationMouse.y,calibrationMouse.leftButton,calibrationMouse.midButton,calibrationMouse.rightButton,calibrationClick.x,calibrationClick.y,calibrationClick.leftButton,calibrationClick.midButton,calibrationClick.rightButton,trialsc.thisRepN,trialsc.thisTrialN,trialsc.thisN,trialsc.thisIndex,trialsc.ran,calibration_x,calibration_y,participant,session,date,expName,psychopyVersion,OS,frameRate,calibrationClick.clicked_name,ScreenRes_pixels,Camera_pixels,mouse_2.x,mouse_2.y,mouse_2.leftButton,mouse_2.midButton,mouse_2.rightButton,mouse_2.time,mouse_2.clicked_name,mouse.x,mouse.y,mouse.leftButton,mouse.midButton,mouse.rightButton,mouse.time,mouse.clicked_name,Choice,Trial,TrialDuration,MOUSE_GAZE,ET_GAZE,ET_GAZE_x_T,time,unixTime,ET_GAZE_NF,Loc_Bus_label,Loc_Metro_label,Loc_RH_label,Loc_Cost_label,Loc_Travel_label,Loc_Comfort_label,Loc_Bus_cost,Loc_Metro_cost,Loc_RH_cost,Loc_Bus_travel,Loc_Metro_travel,Loc_RH_travel,Loc_Bus_comfort,Loc_Metro_comfort,Loc_RH_comfort,trials.thisRepN,trials.thisTrialN,trials.thisN,trials.thisIndex,trials.ran,Block,Device,RH_cost,RH_travel_time,RH_Comfort,metro_cost,metro_travel_time,metro_Comfort,Bus_cost,Bus_travel_time,Bus_Comfort
space,1.7943,0.060416667,0.192592593,1,0,0,-0.340625,0.324074074,1,0,0,0,0,0,7,1,-0.33,0.33,15,001,2024-11-25_13h08.12.758,Attention_exp_legacy,2023.1.0,Win32,60.24096386,,,,,,,,,,,,,,,,,,,,,,,,,,,,,,,,,,,,,,,,,,,,,,,,,,,,,,,,,
,,,,,,,-0.655208333,0.296296296,1,0,0,0,1,1,3,1,-0.67,0.33,15,001,2024-11-25_13h08.12.758,Attention_exp_legacy,2023.1.0,Win32,60.24096386,,,,,,,,,,,,,,,,,,,,,,,,,,,,,,,,,,,,,,,,,,,,,,,,,,,,,,,,,
,,,,,,,0.334375,-0.344444444,1,0,0,0,2,2,15,1,0.33,-0.33,15,001,2024-11-25_13h08.12.758,Attention_exp_legacy,2023.1.0,Win32,60.24096386,,,,,,,,,,,,,,,,,,,,,,,,,,,,,,,,,,,,,,,,,,,,,,,,,,,,,,,,,
,,,,,,,-0.646875,-0.331481481,1,0,0,0,3,3,1,1,-0.67,-0.33,15,001,2024-11-25_13h08.12.758,Attention_exp_legacy,2023.1.0,Win32,60.24096386,,,,,,,,,,,,,,,,,,,,,,,,,,,,,,,,,,,,,,,,,,,,,,,,,,,,,,,,,
,,,,,,,0.326041667,0.675925926,1,0,0,0,4,4,18,1,0.33,0.67,15,001,2024-11-25_13h08.12.758,Attention_exp_legacy,2023.1.0,Win32,60.24096386,calibration_square,,,,,,,,,,,,,,,,,,,,,,,,,,,,,,,,,,,,,,,,,,,,,,,,,,,,,,,,
,,,,,,,0.329166667,-0.646296296,1,0,0,0,5,5,14,1,0.33,-0.67,15,001,2024-11-25_13h08.12.758,Attention_exp_legacy,2023.1.0,Win32,60.24096386,,,,,,,,,,,,,,,,,,,,,,,,,,,,,,,,,,,,,,,,,,,,,,,,,,,,,,,,,
,,,,,,,-0.328125,0.009259259,1,0,0,0,6,6,6,1,-0.33,0,15,001,2024-11-25_13h08.12.758,Attention_exp_legacy,2023.1.0,Win32,60.24096386,calibration_square,,,,,,,,,,,,,,,,,,,,,,,,,,,,,,,,,,,,,,,,,,,,,,,,,,,,,,,,
,,,,,,,-0.344791667,-0.325925926,1,0,0,0,7,7,5,1,-0.33,-0.33,15,001,2024-11-25_13h08.12.758,Attention_exp_legacy,2023.1.0,Win32,60.24096386,,,,,,,,,,,,,,,,,,,,,,,,,,,,,,,,,,,,,,,,,,,,,,,,,,,,,,,,,
,,,,,,,-0.325,-0.65,1,0,0,0,8,8,4,1,-0.33,-0.67,15,001,2024-11-25_13h08.12.758,Attention_exp_legacy,2023.1.0,Win32,60.24096386,,,,,,,,,,,,,,,,,,,,,,,,,,,,,,,,,,,,,,,,,,,,,,,,,,,,,,,,,
,,,,,,,-0.002083333,-0.333333333,1,0,0,0,9,9,10,1,0,-0.33,15,001,2024-11-25_13h08.12.758,Attention_exp_legacy,2023.1.0,Win32,60.24096386,calibration_square,,,,,,,,,,,,,,,,,,,,,,,,,,,,,,,,,,,,,,,,,,,,,,,,,,,,,,,,
,,,,,,,-0.670833333,0.001851852,1,0,0,0,10,10,2,1,-0.67,0,15,001,2024-11-25_13h08.12.758,Attention_exp_legacy,2023.1.0,Win32,60.24096386,calibration_square,,,,,,,,,,,,,,,,,,,,,,,,,,,,,,,,,,,,,,,,,,,,,,,,,,,,,,,,
,,,,,,,0.00625,-0.653703704,1,0,0,0,11,11,9,1,0,-0.67,15,001,2024-11-25_13h08.12.758,Attention_exp_legacy,2023.1.0,Win32,60.24096386,,,,,,,,,,,,,,,,,,,,,,,,,,,,,,,,,,,,,,,,,,,,,,,,,,,,,,,,,
,,,,,,,-0.001041667,0.681481481,1,0,0,0,12,12,13,1,0,0.67,15,001,2024-11-25_13h08.12.758,Attention_exp_legacy,2023.1.0,Win32,60.24096386,,,,,,,,,,,,,,,,,,,,,,,,,,,,,,,,,,,,,,,,,,,,,,,,,,,,,,,,,
,,,,,,,0.670833333,-0.677777778,1,0,0,0,13,13,20,1,0.67,-0.67,15,001,2024-11-25_13h08.12.758,Attention_exp_legacy,2023.1.0,Win32,60.24096386,calibration_square,,,,,,,,,,,,,,,,,,,,,,,,,,,,,,,,,,,,,,,,,,,,,,,,,,,,,,,,
,,,,,,,-0.335416667,0.661111111,1,0,0,0,14,14,8,1,-0.33,0.67,15,001,2024-11-25_13h08.12.758,Attention_exp_legacy,2023.1.0,Win32,60.24096386,calibration_square,,,,,,,,,,,,,,,,,,,,,,,,,,,,,,,,,,,,,,,,,,,,,,,,,,,,,,,,
,,,,,,,0.670833333,0.662962963,1,0,0,0,15,15,19,1,0.67,0.67,15,001,2024-11-25_13h08.12.758,Attention_exp_legacy,2023.1.0,Win32,60.24096386,calibration_square,,,,,,,,,,,,,,,,,,,,,,,,,,,,,,,,,,,,,,,,,,,,,,,,,,,,,,,,
,,,,,,,0.33125,0.342592593,1,0,0,0,16,16,17,1,0.33,0.33,15,001,2024-11-25_13h08.12.758,Attention_exp_legacy,2023.1.0,Win32,60.24096386,,,,,,,,,,,,,,,,,,,,,,,,,,,,,,,,,,,,,,,,,,,,,,,,,,,,,,,,,
,,,,,,,-0.002083333,0.001851852,1,0,0,0,17,17,11,1,0,0,15,001,2024-11-25_13h08.12.758,Attention_exp_legacy,2023.1.0,Win32,60.24096386,calibration_square,,,,,,,,,,,,,,,,,,,,,,,,,,,,,,,,,,,,,,,,,,,,,,,,,,,,,,,,
,,,,,,,-0.663541667,-0.677777778,1,0,0,0,18,18,0,1,-0.67,-0.67,15,001,2024-11-25_13h08.12.758,Attention_exp_legacy,2023.1.0,Win32,60.24096386,calibration_square,,,,,,,,,,,,,,,,,,,,,,,,,,,,,,,,,,,,,,,,,,,,,,,,,,,,,,,,
,,,,,,,-0.008333333,0.32037037,1,0,0,0,19,19,12,1,0,0.33,15,001,2024-11-25_13h08.12.758,Attention_exp_legacy,2023.1.0,Win32,60.24096386,calibration_square,,,,,,,,,,,,,,,,,,,,,,,,,,,,,,,,,,,,,,,,,,,,,,,,,,,,,,,,
,,,,,,,0.340625,0.005555556,1,0,0,0,20,20,16,1,0.33,0,15,001,2024-11-25_13h08.12.758,Attention_exp_legacy,2023.1.0,Win32,60.24096386,,,,,,,,,,,,,,,,,,,,,,,,,,,,,,,,,,,,,,,,,,,,,,,,,,,,,,,,,
,,,,,,,,,,,,,,,,,,,15,001,2024-11-25_13h08.12.758,Attention_exp_legacy,2023.1.0,Win32,60.24096386,,"[1920,1080]","[640,480]",[0.015625],[-0.5166666666666667],[1],[0],[0],[4.99440000000596],"[""StartButton""]",[0.09791666666666667],[0.387037037037037],[1],[0],[0],[11.067200000002984],"[""Metro_label""]",Metro_label,1,12.0731,"[[-0.007291666666666667,0.1425925925925926],[-0.003125,0.14814814814814814],[-0.003125,0.14814814814814814],[-0.0010416666666666667,0.15],[0.0010416666666666667,0.1537037037037037],[0.003125,0.15555555555555556],[0.005208333333333333,0.15925925925925927],[0.007291666666666667,0.1648148148148148],[0.009375,0.1685185185185185],[0.011458333333333333,0.17407407407407408],[0.014583333333333334,0.1814814814814815],[0.016666666666666666,0.18703703703703703],[0.01875,0.1925925925925926],[0.020833333333333332,0.2],[0.023958333333333335,0.21296296296296297],[0.026041666666666668,0.22037037037037038],[0.028125,0.22962962962962963],[0.029166666666666667,0.2388888888888889],[0.03229166666666667,0.2462962962962963],[0.03333333333333333,0.2518518518518518],[0.034375,0.2574074074074074],[0.034375,0.2611111111111111],[0.034375,0.26296296296296295],[0.034375,0.26481481481481484],[0.034375,0.26666666666666666],[0.03229166666666667,0.27037037037037037],[0.019791666666666666,0.2722222222222222],[0.010416666666666666,0.2722222222222222],[-0.004166666666666667,0.27037037037037037],[-0.026041666666666668,0.2537037037037037],[-0.04479166666666667,0.22962962962962963],[-0.0625,0.20555555555555555],[-0.07916666666666666,0.17407407407407408],[-0.1,0.13148148148148148],[-0.11979166666666667,0.08148148148148149],[-0.13854166666666667,0.03333333333333333],[-0.15729166666666666,-0.012962962962962963],[-0.178125,-0.053703703703703705],[-0.19270833333333334,-0.07407407407407407],[-0.20729166666666668,-0.08888888888888889],[-0.225,-0.1],[-0.24375,-0.10925925925925926],[-0.26666666666666666,-0.12222222222222222],[-0.28854166666666664,-0.12777777777777777],[-0.31145833333333334,-0.13148148148148148],[-0.33229166666666665,-0.13148148148148148],[-0.35,-0.13148148148148148],[-0.36354166666666665,-0.12777777777777777],[-0.3729166666666667,-0.1259259259259259],[-0.375,-0.12222222222222222],[-0.3770833333333333,-0.11851851851851852],[-0.378125,-0.1111111111111111],[-0.378125,-0.10185185185185185],[-0.378125,-0.08518518518518518],[-0.378125,-0.06481481481481481],[-0.37604166666666666,-0.037037037037037035],[-0.3697916666666667,-0.001851851851851852],[-0.359375,0.04814814814814815],[-0.346875,0.0962962962962963],[-0.31875,0.1925925925925926],[-0.28854166666666664,0.2814814814814815],[-0.2708333333333333,0.3277777777777778],[-0.21041666666666667,0.5203703703703704],[-0.17395833333333333,0.6148148148148148],[-0.13645833333333332,0.6907407407407408],[-0.10833333333333334,0.7462962962962963],[-0.08958333333333333,0.7814814814814814],[-0.071875,0.8055555555555556],[-0.057291666666666664,0.8240740740740741],[-0.04479166666666667,0.837037037037037],[-0.03958333333333333,0.8388888888888889],[-0.035416666666666666,0.8407407407407408],[-0.03229166666666667,0.8407407407407408],[-0.028125,0.8351851851851851],[-0.025,0.7925925925925926],[-0.025,0.7425925925925926],[-0.03125,0.6851851851851852],[-0.04479166666666667,0.6129629629629629],[-0.051041666666666666,0.5592592592592592],[-0.059375,0.512962962962963],[-0.07083333333333333,0.4648148148148148],[-0.07916666666666666,0.42962962962962964],[-0.08854166666666667,0.39814814814814814],[-0.096875,0.3685185185185185],[-0.09791666666666667,0.3648148148148148],[-0.10104166666666667,0.3611111111111111],[-0.10416666666666667,0.3574074074074074],[-0.10729166666666666,0.35555555555555557],[-0.11041666666666666,0.3537037037037037],[-0.11458333333333333,0.3537037037037037],[-0.11875,0.35555555555555557],[-0.12291666666666666,0.3574074074074074],[-0.125,0.3611111111111111],[-0.12916666666666668,0.362962962962963],[-0.13020833333333334,0.3648148148148148],[-0.13229166666666667,0.36666666666666664],[-0.134375,0.3685185185185185],[-0.13541666666666666,0.37222222222222223],[-0.13645833333333332,0.37407407407407406],[-0.1375,0.37592592592592594],[-0.1375,0.37592592592592594],[-0.1375,0.37592592592592594],[-0.1375,0.37592592592592594],[-0.1375,0.37592592592592594],[-0.1375,0.37592592592592594],[-0.13854166666666667,0.37592592592592594],[-0.140625,0.34629629629629627],[-0.14479166666666668,0.3037037037037037],[-0.14895833333333333,0.25925925925925924],[-0.15208333333333332,0.21666666666666667],[-0.15625,0.1537037037037037],[-0.159375,0.12222222222222222],[-0.16145833333333334,0.09444444444444444],[-0.1625,0.07037037037037037],[-0.1625,0.05740740740740741],[-0.1625,0.04814814814814815],[-0.1625,0.04259259259259259],[-0.1625,0.040740740740740744],[-0.1625,0.037037037037037035],[-0.1625,0.037037037037037035],[-0.1625,0.03333333333333333],[-0.1625,0.03148148148148148],[-0.1625,0.025925925925925925],[-0.1625,0.020370370370370372],[-0.1625,0.011111111111111112],[-0.1625,0.001851851851851852],[-0.1625,-0.007407407407407408],[-0.1625,-0.018518518518518517],[-0.1625,-0.02962962962962963],[-0.1625,-0.040740740740740744],[-0.1625,-0.05],[-0.1625,-0.06111111111111111],[-0.1625,-0.07962962962962963],[-0.1625,-0.08333333333333333],[-0.1625,-0.09814814814814815],[-0.1625,-0.10740740740740741],[-0.1625,-0.11481481481481481],[-0.1625,-0.12222222222222222],[-0.1625,-0.13148148148148148],[-0.1625,-0.1388888888888889],[-0.1625,-0.14444444444444443],[-0.1625,-0.15],[-0.16145833333333334,-0.1574074074074074],[-0.16145833333333334,-0.16296296296296298],[-0.16041666666666668,-0.17407407407407408],[-0.16041666666666668,-0.18888888888888888],[-0.159375,-0.1962962962962963],[-0.159375,-0.2037037037037037],[-0.15729166666666666,-0.20925925925925926],[-0.15729166666666666,-0.21666666666666667],[-0.15416666666666667,-0.22407407407407406],[-0.15,-0.23333333333333334],[-0.1375,-0.2537037037037037],[-0.13333333333333333,-0.2574074074074074],[-0.125,-0.2722222222222222],[-0.11875,-0.2796296296296296],[-0.11041666666666666,-0.28888888888888886],[-0.09583333333333334,-0.3],[-0.07604166666666666,-0.3148148148148148],[-0.06041666666666667,-0.32222222222222224],[-0.046875,-0.3277777777777778],[-0.036458333333333336,-0.3351851851851852],[-0.023958333333333335,-0.3425925925925926],[-0.008333333333333333,-0.35],[0.003125,-0.35555555555555557],[0.016666666666666666,-0.3611111111111111],[0.03333333333333333,-0.3648148148148148],[0.052083333333333336,-0.37037037037037035],[0.078125,-0.37407407407407406],[0.08645833333333333,-0.37962962962962965],[0.09791666666666667,-0.3814814814814815],[0.103125,-0.38333333333333336],[0.10625,-0.38333333333333336],[0.10833333333333334,-0.38333333333333336],[0.11041666666666666,-0.38333333333333336],[0.11458333333333333,-0.38333333333333336],[0.11979166666666667,-0.38333333333333336],[0.125,-0.38333333333333336],[0.13333333333333333,-0.38333333333333336],[0.15208333333333332,-0.37777777777777777],[0.16875,-0.37407407407407406],[0.18229166666666666,-0.37407407407407406],[0.20416666666666666,-0.37407407407407406],[0.21875,-0.37407407407407406],[0.23541666666666666,-0.37407407407407406],[0.24895833333333334,-0.37407407407407406],[0.2552083333333333,-0.37407407407407406],[0.26145833333333335,-0.37407407407407406],[0.265625,-0.37407407407407406],[0.26875,-0.37407407407407406],[0.27395833333333336,-0.37037037037037035],[0.28020833333333334,-0.3685185185185185],[0.2875,-0.3685185185185185],[0.303125,-0.3648148148148148],[0.340625,-0.35555555555555557],[0.365625,-0.34814814814814815],[0.38958333333333334,-0.3425925925925926],[0.409375,-0.3333333333333333],[0.42291666666666666,-0.32592592592592595],[0.43854166666666666,-0.3148148148148148],[0.440625,-0.31296296296296294],[0.44479166666666664,-0.3111111111111111],[0.45,-0.3055555555555556],[0.45729166666666665,-0.30185185185185187],[0.4666666666666667,-0.29444444444444445],[0.4739583333333333,-0.28888888888888886],[0.4791666666666667,-0.2814814814814815],[0.4875,-0.2722222222222222],[0.49270833333333336,-0.25925925925925924],[0.49895833333333334,-0.23333333333333334],[0.5041666666666667,-0.1925925925925926],[0.5072916666666667,-0.1388888888888889],[0.5072916666666667,-0.07962962962962963],[0.5072916666666667,0.007407407407407408],[0.4895833333333333,0.15555555555555556],[0.47604166666666664,0.23703703703703705],[0.46770833333333334,0.29259259259259257],[0.46145833333333336,0.34074074074074073],[0.45625,0.38333333333333336],[0.453125,0.42777777777777776],[0.45208333333333334,0.4777777777777778],[0.45208333333333334,0.5222222222222223],[0.45208333333333334,0.5555555555555556],[0.45208333333333334,0.5796296296296296],[0.45208333333333334,0.5925925925925926],[0.45208333333333334,0.6037037037037037],[0.45208333333333334,0.6092592592592593],[0.45208333333333334,0.6092592592592593],[0.4510416666666667,0.6111111111111112],[0.4510416666666667,0.6111111111111112],[0.4510416666666667,0.6111111111111112],[0.4510416666666667,0.6092592592592593],[0.44583333333333336,0.5833333333333334],[0.43854166666666666,0.5444444444444444],[0.43125,0.5],[0.4239583333333333,0.4537037037037037],[0.4197916666666667,0.4166666666666667],[0.41770833333333335,0.37962962962962965],[0.41458333333333336,0.34814814814814815],[0.41458333333333336,0.31296296296296294],[0.41458333333333336,0.29814814814814816],[0.41458333333333336,0.2833333333333333],[0.415625,0.26851851851851855],[0.415625,0.25555555555555554],[0.415625,0.24814814814814815],[0.415625,0.24074074074074073],[0.4166666666666667,0.23333333333333334],[0.4166666666666667,0.2222222222222222],[0.4166666666666667,0.21296296296296297],[0.4166666666666667,0.2],[0.4166666666666667,0.18703703703703703],[0.4166666666666667,0.17777777777777778],[0.4166666666666667,0.1648148148148148],[0.4166666666666667,0.16111111111111112],[0.4166666666666667,0.1574074074074074],[0.4166666666666667,0.1537037037037037],[0.4166666666666667,0.15],[0.4166666666666667,0.14629629629629629],[0.4166666666666667,0.1425925925925926],[0.4166666666666667,0.14074074074074075],[0.415625,0.1388888888888889],[0.415625,0.13518518518518519],[0.415625,0.12962962962962962],[0.415625,0.12222222222222222],[0.415625,0.1111111111111111],[0.415625,0.0962962962962963],[0.41458333333333336,0.08518518518518518],[0.41458333333333336,0.07592592592592592],[0.41458333333333336,0.07037037037037037],[0.41458333333333336,0.06851851851851852],[0.41458333333333336,0.06481481481481481],[0.41458333333333336,0.06481481481481481],[0.41458333333333336,0.06296296296296296],[0.41458333333333336,0.05925925925925926],[0.41458333333333336,0.05740740740740741],[0.41458333333333336,0.05185185185185185],[0.41458333333333336,0.05185185185185185],[0.41458333333333336,0.046296296296296294],[0.41354166666666664,0.037037037037037035],[0.41354166666666664,0.02962962962962963],[0.41354166666666664,0.018518518518518517],[0.41354166666666664,0.005555555555555556],[0.4114583333333333,-0.009259259259259259],[0.41041666666666665,-0.022222222222222223],[0.41041666666666665,-0.03518518518518519],[0.4083333333333333,-0.053703703703703705],[0.4083333333333333,-0.06666666666666667],[0.4083333333333333,-0.08703703703703704],[0.4083333333333333,-0.09259259259259259],[0.40729166666666666,-0.10185185185185185],[0.40625,-0.11296296296296296],[0.40520833333333334,-0.11851851851851852],[0.40520833333333334,-0.12407407407407407],[0.40520833333333334,-0.12777777777777777],[0.403125,-0.13333333333333333],[0.403125,-0.13703703703703704],[0.403125,-0.13703703703703704],[0.403125,-0.14074074074074075],[0.40208333333333335,-0.1425925925925926],[0.40208333333333335,-0.14629629629629629],[0.4010416666666667,-0.14814814814814814],[0.4,-0.14814814814814814],[0.4,-0.15185185185185185],[0.39895833333333336,-0.1537037037037037],[0.39895833333333336,-0.1574074074074074],[0.39791666666666664,-0.15925925925925927],[0.396875,-0.16296296296296298],[0.3958333333333333,-0.1648148148148148],[0.3958333333333333,-0.1648148148148148],[0.39479166666666665,-0.1648148148148148],[0.39166666666666666,-0.1648148148148148],[0.3885416666666667,-0.1648148148148148],[0.38125,-0.16111111111111112],[0.3645833333333333,-0.1388888888888889],[0.328125,-0.08518518518518518],[0.29791666666666666,-0.037037037037037035],[0.275,0.007407407407407408],[0.23541666666666666,0.06666666666666667],[0.19583333333333333,0.13148148148148148],[0.159375,0.2111111111111111],[0.134375,0.2759259259259259],[0.12083333333333333,0.32222222222222224],[0.115625,0.36666666666666664],[0.115625,0.4],[0.115625,0.42777777777777776],[0.11770833333333333,0.45925925925925926],[0.11979166666666667,0.47962962962962963],[0.12395833333333334,0.49444444444444446],[0.12708333333333333,0.5037037037037037],[0.128125,0.5111111111111111],[0.13229166666666667,0.5185185185185185],[0.134375,0.5203703703703704],[0.13645833333333332,0.524074074074074],[0.1375,0.5259259259259259],[0.13958333333333334,0.5259259259259259],[0.13958333333333334,0.5259259259259259],[0.140625,0.5259259259259259],[0.14375,0.5259259259259259],[0.14583333333333334,0.524074074074074],[0.146875,0.512962962962963],[0.14895833333333333,0.5037037037037037],[0.14895833333333333,0.4888888888888889],[0.14895833333333333,0.4722222222222222],[0.14895833333333333,0.45925925925925926],[0.14583333333333334,0.44074074074074077],[0.140625,0.42407407407407405],[0.13541666666666666,0.40925925925925927],[0.12708333333333333,0.3925925925925926],[0.12291666666666666,0.38333333333333336],[0.121875,0.3814814814814815],[0.1125,0.37407407407407406],[0.10416666666666667,0.37037037037037035],[0.08854166666666667,0.36666666666666664],[0.06979166666666667,0.3611111111111111],[0.052083333333333336,0.3592592592592593],[0.029166666666666667,0.3574074074074074],[0.00625,0.3574074074074074],[-0.027083333333333334,0.3574074074074074],[-0.03854166666666667,0.3574074074074074],[-0.0625,0.35185185185185186],[-0.06979166666666667,0.35],[-0.08229166666666667,0.34629629629629627],[-0.09791666666666667,0.34074074074074073],[-0.10208333333333333,0.3388888888888889],[-0.10520833333333333,0.3388888888888889],[-0.10833333333333334,0.3351851851851852],[-0.109375,0.3351851851851852],[-0.11145833333333334,0.3351851851851852],[-0.1125,0.3351851851851852],[-0.11458333333333333,0.3351851851851852],[-0.11666666666666667,0.3351851851851852],[-0.11979166666666667,0.337037037037037],[-0.121875,0.337037037037037],[-0.12395833333333334,0.3388888888888889],[-0.125,0.3425925925925926],[-0.12604166666666666,0.34444444444444444],[-0.128125,0.34814814814814815],[-0.13020833333333334,0.35],[-0.13229166666666667,0.3537037037037037],[-0.134375,0.35555555555555557],[-0.13645833333333332,0.3574074074074074],[-0.1375,0.3592592592592593],[-0.13854166666666667,0.3611111111111111],[-0.13958333333333334,0.362962962962963],[-0.140625,0.362962962962963],[-0.14166666666666666,0.3648148148148148],[-0.14270833333333333,0.36666666666666664],[-0.14375,0.3685185185185185],[-0.14375,0.3685185185185185],[-0.14375,0.3685185185185185],[-0.14375,0.3685185185185185],[-0.14375,0.37222222222222223],[-0.14479166666666668,0.37222222222222223],[-0.14479166666666668,0.37407407407407406],[-0.14479166666666668,0.37592592592592594],[-0.14479166666666668,0.37777777777777777],[-0.14583333333333334,0.37962962962962965],[-0.14583333333333334,0.3814814814814815],[-0.146875,0.3814814814814815],[-0.146875,0.3814814814814815],[-0.146875,0.38333333333333336],[-0.146875,0.38333333333333336],[-0.146875,0.38333333333333336],[-0.146875,0.38333333333333336],[-0.146875,0.3851851851851852],[-0.146875,0.3851851851851852],[-0.146875,0.3851851851851852],[-0.146875,0.3851851851851852],[-0.146875,0.3851851851851852],[-0.146875,0.3851851851851852],[-0.146875,0.3851851851851852],[-0.146875,0.3851851851851852],[-0.146875,0.3851851851851852],[-0.146875,0.3851851851851852],[-0.146875,0.3851851851851852],[-0.146875,0.3851851851851852],[-0.146875,0.3851851851851852],[-0.146875,0.3851851851851852],[-0.146875,0.3851851851851852],[-0.146875,0.3851851851851852],[-0.146875,0.3851851851851852],[-0.146875,0.3851851851851852],[-0.146875,0.3851851851851852],[-0.146875,0.3851851851851852],[-0.146875,0.3851851851851852],[-0.146875,0.3851851851851852],[-0.146875,0.3851851851851852],[-0.146875,0.3851851851851852],[-0.146875,0.3851851851851852],[-0.146875,0.3851851851851852],[-0.146875,0.3851851851851852],[-0.146875,0.3851851851851852],[-0.146875,0.3851851851851852],[-0.146875,0.3851851851851852],[-0.146875,0.3851851851851852],[-0.146875,0.3851851851851852],[-0.146875,0.3851851851851852],[-0.146875,0.3851851851851852],[-0.146875,0.3851851851851852],[-0.146875,0.3851851851851852],[-0.146875,0.3851851851851852],[-0.146875,0.3851851851851852],[-0.146875,0.3851851851851852],[-0.146875,0.3851851851851852],[-0.146875,0.3851851851851852],[-0.146875,0.3851851851851852],[-0.146875,0.3851851851851852],[-0.146875,0.3851851851851852],[-0.146875,0.3851851851851852],[-0.146875,0.3851851851851852],[-0.146875,0.3851851851851852],[-0.146875,0.3851851851851852],[-0.146875,0.3851851851851852],[-0.146875,0.3851851851851852],[-0.146875,0.3851851851851852],[-0.146875,0.3851851851851852],[-0.146875,0.3851851851851852],[-0.146875,0.3851851851851852],[-0.146875,0.3851851851851852],[-0.146875,0.3851851851851852],[-0.146875,0.3851851851851852],[-0.146875,0.3851851851851852],[-0.146875,0.3851851851851852],[-0.146875,0.3851851851851852],[-0.146875,0.3851851851851852],[-0.146875,0.3851851851851852],[-0.146875,0.3851851851851852],[-0.146875,0.3851851851851852],[-0.146875,0.3851851851851852],[-0.146875,0.3851851851851852],[-0.146875,0.3851851851851852],[-0.146875,0.3851851851851852],[-0.146875,0.3851851851851852],[-0.146875,0.3851851851851852],[-0.146875,0.3851851851851852],[-0.146875,0.3851851851851852],[-0.146875,0.3851851851851852],[-0.146875,0.3851851851851852],[-0.146875,0.3851851851851852],[-0.146875,0.3851851851851852],[-0.146875,0.3851851851851852],[-0.146875,0.3851851851851852],[-0.146875,0.3851851851851852],[-0.146875,0.3851851851851852],[-0.146875,0.3851851851851852],[-0.146875,0.3851851851851852],[-0.146875,0.3851851851851852],[-0.146875,0.3851851851851852],[-0.146875,0.3851851851851852],[-0.146875,0.3851851851851852],[-0.146875,0.3851851851851852],[-0.146875,0.3851851851851852],[-0.146875,0.3851851851851852],[-0.146875,0.3851851851851852],[-0.146875,0.3851851851851852],[-0.146875,0.3851851851851852],[-0.146875,0.3851851851851852],[-0.146875,0.3851851851851852],[-0.146875,0.3851851851851852],[-0.146875,0.3851851851851852],[-0.146875,0.3851851851851852],[-0.146875,0.3851851851851852],[-0.146875,0.3851851851851852],[-0.146875,0.3851851851851852],[-0.146875,0.3851851851851852],[-0.146875,0.3851851851851852],[-0.146875,0.3851851851851852],[-0.146875,0.3851851851851852],[-0.146875,0.3851851851851852],[-0.146875,0.3851851851851852],[-0.146875,0.3851851851851852],[-0.146875,0.3851851851851852],[-0.146875,0.3851851851851852],[-0.146875,0.3851851851851852],[-0.146875,0.3851851851851852],[-0.146875,0.3851851851851852],[-0.146875,0.3851851851851852],[-0.146875,0.3851851851851852],[-0.146875,0.3851851851851852],[-0.146875,0.3851851851851852],[-0.146875,0.3851851851851852],[-0.146875,0.3851851851851852],[-0.146875,0.3851851851851852],[-0.146875,0.3851851851851852],[-0.146875,0.3851851851851852],[-0.146875,0.3851851851851852],[-0.146875,0.3851851851851852],[-0.146875,0.3851851851851852],[-0.146875,0.3851851851851852],[-0.146875,0.3851851851851852],[-0.146875,0.3851851851851852],[-0.146875,0.3851851851851852],[-0.146875,0.3851851851851852],[-0.146875,0.3851851851851852],[-0.146875,0.3851851851851852],[-0.146875,0.3851851851851852],[-0.146875,0.3851851851851852],[-0.146875,0.3851851851851852],[-0.146875,0.3851851851851852],[-0.146875,0.3851851851851852],[-0.146875,0.3851851851851852],[-0.146875,0.3851851851851852],[-0.146875,0.3851851851851852],[-0.146875,0.3851851851851852],[-0.146875,0.3851851851851852],[-0.146875,0.3851851851851852],[-0.146875,0.3851851851851852],[-0.146875,0.3851851851851852],[-0.146875,0.3851851851851852],[-0.146875,0.3851851851851852],[-0.146875,0.3851851851851852],[-0.146875,0.3851851851851852],[-0.146875,0.3851851851851852],[-0.146875,0.3851851851851852],[-0.146875,0.3851851851851852],[-0.146875,0.3851851851851852],[-0.146875,0.3851851851851852],[-0.146875,0.3851851851851852],[-0.146875,0.3851851851851852],[-0.146875,0.3851851851851852],[-0.146875,0.3851851851851852],[-0.146875,0.3851851851851852],[-0.146875,0.3851851851851852],[-0.146875,0.3851851851851852],[-0.146875,0.3851851851851852],[-0.146875,0.3851851851851852],[-0.146875,0.3851851851851852],[-0.146875,0.3851851851851852],[-0.146875,0.3851851851851852],[-0.146875,0.3851851851851852],[-0.146875,0.387037037037037],[-0.146875,0.387037037037037],[-0.146875,0.3888888888888889],[-0.14479166666666668,0.3925925925925926],[-0.14166666666666666,0.3925925925925926],[-0.13541666666666666,0.39444444444444443],[-0.128125,0.3962962962962963],[-0.11979166666666667,0.3962962962962963],[-0.1,0.3962962962962963],[-0.08958333333333333,0.3962962962962963],[-0.07708333333333334,0.3962962962962963],[-0.06875,0.39444444444444443],[-0.05625,0.3925925925925926],[-0.04791666666666667,0.3907407407407407],[-0.03854166666666667,0.387037037037037],[-0.03125,0.387037037037037],[-0.025,0.387037037037037],[-0.01875,0.387037037037037],[-0.0020833333333333333,0.387037037037037],[0.0125,0.387037037037037],[0.030208333333333334,0.387037037037037],[0.04479166666666667,0.387037037037037],[0.06041666666666667,0.387037037037037],[0.071875,0.387037037037037],[0.07916666666666666,0.387037037037037],[0.08333333333333333,0.387037037037037],[0.08645833333333333,0.387037037037037],[0.08958333333333333,0.387037037037037],[0.090625,0.387037037037037],[0.09166666666666666,0.387037037037037],[0.09270833333333334,0.387037037037037],[0.09375,0.387037037037037],[0.09479166666666666,0.387037037037037],[0.09583333333333334,0.387037037037037],[0.09583333333333334,0.387037037037037],[0.09791666666666667,0.387037037037037],[0.09791666666666667,0.387037037037037],[0.09791666666666667,0.387037037037037],[0.09791666666666667,0.387037037037037],[0.09791666666666667,0.387037037037037],[0.09791666666666667,0.387037037037037],[0.09791666666666667,0.387037037037037],[0.09791666666666667,0.387037037037037],[0.09791666666666667,0.387037037037037],[0.09791666666666667,0.387037037037037],[0.09791666666666667,0.387037037037037],[0.09791666666666667,0.387037037037037],[0.09791666666666667,0.387037037037037],[0.09791666666666667,0.387037037037037],[0.09791666666666667,0.387037037037037],[0.09791666666666667,0.387037037037037],[0.09791666666666667,0.387037037037037],[0.09791666666666667,0.387037037037037],[0.09791666666666667,0.387037037037037],[0.09791666666666667,0.387037037037037],[0.09791666666666667,0.387037037037037],[0.09791666666666667,0.387037037037037],[0.09791666666666667,0.387037037037037],[0.09791666666666667,0.387037037037037],[0.09791666666666667,0.387037037037037],[0.09791666666666667,0.387037037037037],[0.09791666666666667,0.387037037037037],[0.09791666666666667,0.387037037037037],[0.09791666666666667,0.387037037037037],[0.09791666666666667,0.387037037037037],[0.09791666666666667,0.387037037037037],[0.09791666666666667,0.387037037037037],[0.09791666666666667,0.387037037037037],[0.09791666666666667,0.387037037037037],[0.09791666666666667,0.387037037037037],[0.09791666666666667,0.387037037037037],[0.09791666666666667,0.387037037037037],[0.09791666666666667,0.387037037037037],[0.09791666666666667,0.387037037037037],[0.09791666666666667,0.387037037037037],[0.09791666666666667,0.387037037037037],[0.09791666666666667,0.387037037037037],[0.09791666666666667,0.387037037037037],[0.09791666666666667,0.387037037037037],[0.09791666666666667,0.387037037037037],[0.09791666666666667,0.387037037037037],[0.09791666666666667,0.387037037037037],[0.09791666666666667,0.387037037037037],[0.09791666666666667,0.387037037037037],[0.09791666666666667,0.387037037037037],[0.09791666666666667,0.387037037037037],[0.09791666666666667,0.387037037037037],[0.09791666666666667,0.387037037037037],[0.09791666666666667,0.387037037037037],[0.09791666666666667,0.387037037037037],[0.09791666666666667,0.387037037037037],[0.09791666666666667,0.387037037037037],[0.09791666666666667,0.387037037037037],[0.09791666666666667,0.387037037037037],[0.09791666666666667,0.387037037037037],[0.09791666666666667,0.387037037037037],[0.09791666666666667,0.387037037037037],[0.09791666666666667,0.387037037037037],[0.09791666666666667,0.387037037037037],[0.09791666666666667,0.387037037037037],[0.09791666666666667,0.387037037037037],[0.09791666666666667,0.387037037037037],[0.09791666666666667,0.387037037037037],[0.09791666666666667,0.387037037037037],[0.09791666666666667,0.387037037037037],[0.09791666666666667,0.387037037037037],[0.09791666666666667,0.387037037037037],[0.09791666666666667,0.387037037037037],[0.09791666666666667,0.387037037037037],[0.09791666666666667,0.387037037037037],[0.09791666666666667,0.387037037037037],[0.09791666666666667,0.387037037037037],[0.09791666666666667,0.387037037037037],[0.09791666666666667,0.387037037037037],[0.09583333333333334,0.387037037037037],[0.09166666666666666,0.387037037037037],[0.084375,0.387037037037037],[0.08020833333333334,0.387037037037037],[0.07395833333333333,0.387037037037037],[0.06875,0.387037037037037],[0.06145833333333333,0.387037037037037],[0.05416666666666667,0.387037037037037],[0.04583333333333333,0.387037037037037],[0.035416666666666666,0.387037037037037],[0.026041666666666668,0.387037037037037],[0.016666666666666666,0.3888888888888889],[0.0020833333333333333,0.3888888888888889],[-0.0020833333333333333,0.3907407407407407],[-0.01875,0.3962962962962963],[-0.027083333333333334,0.39814814814814814],[-0.036458333333333336,0.4],[-0.046875,0.40555555555555556],[-0.058333333333333334,0.4074074074074074],[-0.06666666666666667,0.4074074074074074],[-0.07395833333333333,0.4074074074074074],[-0.08125,0.4074074074074074],[-0.08958333333333333,0.4074074074074074],[-0.09895833333333333,0.4074074074074074],[-0.10416666666666667,0.4074074074074074],[-0.10729166666666666,0.4074074074074074],[-0.11041666666666666,0.4074074074074074],[-0.11041666666666666,0.4074074074074074],[-0.11041666666666666,0.4074074074074074],[-0.11041666666666666,0.4074074074074074],[-0.11041666666666666,0.4074074074074074],[-0.11041666666666666,0.4074074074074074],[-0.11041666666666666,0.4074074074074074],[-0.11041666666666666,0.4074074074074074],[-0.11041666666666666,0.4074074074074074],[-0.11041666666666666,0.4074074074074074],[-0.11041666666666666,0.4074074074074074],[-0.11041666666666666,0.4074074074074074],[-0.11041666666666666,0.4074074074074074],[-0.11041666666666666,0.4074074074074074]]","[[-0.08354166666666671,-0.1618518518518518],[-0.08354166666666671,-0.1618518518518518],[-0.049791666666666616,-0.1537037037037037],[-0.04802083333333336,-0.16944444444444445],[-0.05406249999999998,-0.1816666666666667],[-0.05406249999999998,-0.1816666666666667],[-0.05260416666666667,-0.18314814814814812],[-0.03312499999999995,-0.18555555555555553],[-0.035625000000000046,-0.192037037037037],[-0.03822916666666672,-0.17925925925925928],[-0.04083333333333338,-0.16648148148148145],[-0.04104166666666664,-0.14981481481481476],[-0.01593749999999995,-0.1507407407407407],[-0.01260416666666669,-0.1653703703703704],[-0.00927083333333331,-0.17999999999999997],[0.04239583333333338,-0.1816666666666667],[0.04479166666666667,-0.18796296296296297],[0.028750000000000022,-0.1905555555555555],[0.034687499999999954,-0.18907407407407412],[0.03739583333333331,-0.1905555555555555],[0.04010416666666667,-0.192037037037037],[0.04041666666666662,-0.19740740740740745],[0.041458333333333285,-0.2035185185185185],[0.050625000000000024,-0.21148148148148146],[0.024687500000000046,-0.22166666666666665],[-0.03177083333333333,-0.2351851851851852],[-0.05770833333333331,-0.2205555555555556],[-0.06333333333333328,-0.2131481481481482],[-0.0672916666666667,-0.21629629629629632],[-0.09375,-0.21351851851851855],[-0.12885416666666671,-0.2081481481481481],[-0.16395833333333332,-0.20277777777777778],[-0.20052083333333334,-0.20537037037037034],[-0.24229166666666668,-0.20259259259259255],[-0.2538541666666667,-0.1881481481481482],[-0.2579166666666667,-0.16203703703703703],[-0.2582291666666666,-0.16129629629629633],[-0.25375000000000003,-0.15629629629629627],[-0.23010416666666664,-0.12888888888888894],[-0.20302083333333332,-0.10240740740740743],[-0.16218750000000004,-0.07814814814814813],[-0.17781250000000004,-0.06314814814814819],[-0.19750000000000004,-0.035740740740740656],[-0.24989583333333332,-0.003888888888888931],[-0.29739583333333336,0.018518518518518517],[-0.30499999999999994,0.03814814814814819],[-0.3060416666666666,0.03092592592592601],[-0.31187499999999996,0.019444444444444445],[-0.3564583333333334,0.003333333333333249],[-0.4044791666666666,-0.01185185185185181],[-0.47770833333333335,-0.0031481481481482323],[-0.48614583333333333,0.010370370370370412],[-0.49645833333333333,-0.003888888888888931],[-0.4740625,-0.022592592592592678],[-0.4538541666666667,-0.012777777777777735],[-0.4860416666666667,-0.005555555555555556],[-0.5040625,0.008703703703703788],[-0.5220833333333333,0.02296296296296292],[-0.5290625,0.02814814814814823],[-0.5127083333333333,0.04407407407407399],[-0.47625,0.035740740740740656],[-0.47625,0.035740740740740656],[-0.43635416666666665,0.011481481481481566],[-0.3611458333333334,0.02907407407407416],[-0.30354166666666665,0.056666666666666705],[-0.25677083333333334,0.004074074074074159],[-0.20499999999999996,-0.05481481481481486],[-0.16854166666666662,-0.06648148148148143],[-0.13208333333333327,-0.07814814814814813],[-0.08833333333333329,-0.15907407407407403],[-0.06864583333333331,-0.227962962962963],[-0.04895833333333333,-0.29685185185185187],[-0.05531250000000002,-0.3516666666666666],[-0.07760416666666667,-0.4388888888888889],[-0.07572916666666671,-0.4951851851851851],[-0.07843749999999995,-0.5287037037037037],[-0.07531249999999995,-0.5599999999999999],[-0.07229166666666664,-0.6174074074074074],[-0.07229166666666664,-0.6174074074074074],[-0.08062499999999997,-0.6848148148148149],[-0.09718749999999995,-0.6901851851851851],[-0.09718749999999995,-0.6901851851851851],[-0.08812500000000002,-0.6857407407407408],[-0.09979166666666663,-0.6979629629629629],[-0.09979166666666663,-0.6979629629629629],[-0.09718749999999995,-0.7038888888888889],[-0.10697916666666671,-0.6622222222222223],[-0.12718750000000004,-0.6748148148148148],[-0.09562499999999995,-0.6707407407407407],[-0.04624999999999998,-0.6438888888888888],[-0.05447916666666662,-0.6107407407407408],[-0.06791666666666671,-0.5811111111111111],[-0.07354166666666669,-0.5424074074074073],[-0.10406249999999997,-0.5362962962962964],[-0.10010416666666669,-0.5111111111111111],[-0.10010416666666669,-0.5111111111111111],[-0.09083333333333338,-0.4892592592592592],[-0.09083333333333338,-0.4892592592592592],[-0.06697916666666662,-0.5064814814814815],[-0.03927083333333338,-0.5103703703703704],[-0.10187499999999995,-0.4844444444444445],[-0.10187499999999995,-0.4844444444444445],[-0.18812500000000001,-0.48351851851851857],[-0.22822916666666668,-0.4853703703703704],[-0.21749999999999994,-0.46722222222222226],[-0.1892708333333334,-0.4655555555555555],[-0.18083333333333335,-0.4281481481481481],[-0.17864583333333334,-0.42000000000000004],[-0.18177083333333333,-0.40851851851851856],[-0.2203125,-0.4027777777777778],[-0.25885416666666666,-0.397037037037037],[-0.22041666666666668,-0.37666666666666665],[-0.19093749999999995,-0.34685185185185186],[-0.16687500000000005,-0.32833333333333337],[-0.17708333333333334,-0.3162962962962963],[-0.22520833333333337,-0.28425925925925927],[-0.25354166666666667,-0.287962962962963],[-0.28937499999999994,-0.26481481481481484],[-0.3232291666666666,-0.23333333333333334],[-0.34135416666666674,-0.18629629629629635],[-0.37145833333333333,-0.13648148148148145],[-0.45197916666666665,-0.11277777777777774],[-0.494375,-0.08351851851851856],[-0.5252083333333333,-0.0477777777777777],[-0.5346875,-0.007037037037036953],[-0.503125,0.00722222222222218],[-0.476875,-0.002962962962963005],[-0.450625,-0.01314814814814819],[-0.4361458333333334,0.004444444444444402],[-0.4111458333333334,0.0016666666666666245],[-0.3741666666666667,-0.003888888888888931],[-0.2638541666666666,0.007407407407407408],[-0.1827083333333333,0.003703703703703704],[-0.14020833333333335,0.020370370370370372],[-0.11906249999999995,0.032037037037036954],[-0.07999999999999995,0.04018518518518527],[-0.035625000000000046,0.07277777777777769],[-0.002499999999999976,0.09407407407407399],[0.01270833333333338,0.0955555555555556],[0.0015625,0.10574074074074079],[-0.009583333333333381,0.11592592592592597],[-0.06447916666666664,0.10314814814814824],[-0.11593749999999996,0.08759259259259251],[-0.12875000000000003,0.051666666666666625],[-0.12760416666666666,-0.0014814814814813973],[-0.16635416666666672,0.008703703703703788],[-0.21979166666666666,0.025370370370370456],[-0.26197916666666665,0.05333333333333325],[-0.26197916666666665,0.05333333333333325],[-0.26916666666666667,0.05555555555555555],[-0.2509375,0.06537037037037029],[-0.23270833333333332,0.07518518518518523],[-0.21447916666666664,0.10648148148148148],[-0.21447916666666664,0.10648148148148148],[-0.2163541666666667,0.12333333333333338],[-0.22239583333333332,0.14240740740740737],[-0.2423958333333334,0.1787037037037037],[-0.2389583333333333,0.18129629629629626],[-0.22083333333333333,0.17740740740740732],[-0.19145833333333329,0.19037037037037027],[-0.13812500000000003,0.19796296296296292],[-0.07552083333333333,0.22388888888888886],[-0.06531250000000005,0.24722222222222223],[-0.042916666666666714,0.23481481481481473],[-0.00302083333333331,0.2448148148148149],[0.013854166666666619,0.23444444444444448],[0.03333333333333333,0.24018518518518528],[0.04572916666666664,0.23870370370370367],[0.0626041666666667,0.2338888888888888],[0.07229166666666677,0.22481481481481477],[0.03270833333333331,0.23129629629629625],[-0.00635416666666669,0.2331481481481481],[-0.018437500000000048,0.2433333333333333],[-0.035625000000000046,0.2594444444444445],[-0.035104166666666714,0.2737037037037036],[-0.007500000000000047,0.2933333333333333],[-0.007500000000000047,0.2933333333333333],[0.017499999999999953,0.29685185185185176],[0.03312499999999995,0.32462962962962955],[0.03312499999999995,0.32462962962962955],[0.0328125,0.3516666666666666],[0.05395833333333329,0.3803703703703703],[0.06479166666666672,0.4012962962962964],[0.06052083333333336,0.39944444444444455],[0.08166666666666676,0.3918518518518519],[0.0678124999999999,0.4051851851851851],[0.08270833333333343,0.4038888888888889],[0.08520833333333329,0.43759259259259253],[0.08770833333333337,0.47129629629629627],[0.08458333333333339,0.48481481481481475],[0.14375,0.4661111111111112],[0.1178124999999999,0.4272222222222223],[0.1178124999999999,0.4272222222222223],[0.15072916666666672,0.3998148148148148],[0.1544791666666666,0.39222222222222214],[0.1560416666666666,0.38351851851851854],[0.21770833333333334,0.35907407407407405],[0.22374999999999995,0.362962962962963],[0.2693749999999999,0.34370370370370373],[0.2791666666666667,0.33777777777777773],[0.2791666666666667,0.33777777777777773],[0.31062500000000004,0.3096296296296297],[0.28229166666666666,0.30407407407407416],[0.3141666666666666,0.29685185185185176],[0.32572916666666674,0.3050000000000001],[0.3676041666666668,0.3066666666666667],[0.41166666666666674,0.30944444444444447],[0.41770833333333335,0.32148148148148153],[0.43552083333333325,0.3074074074074074],[0.3927083333333333,0.28648148148148156],[0.4271874999999999,0.2777777777777778],[0.39729166666666677,0.25462962962962965],[0.37604166666666666,0.24740740740740744],[0.3544791666666666,0.2455555555555556],[0.3412499999999999,0.23481481481481473],[0.3226041666666667,0.22388888888888886],[0.27791666666666665,0.19499999999999992],[0.27937500000000004,0.1294444444444444],[0.2787499999999999,0.09462962962962967],[0.3116666666666667,0.06759259259259259],[0.29145833333333326,0.034074074074074034],[0.29145833333333326,0.034074074074074034],[0.3315624999999999,0.02240740740740745],[0.3719791666666666,0.00851851851851856],[0.4014583333333334,-0.07111111111111107],[0.3955208333333334,-0.11240740740740739],[0.38958333333333334,-0.1537037037037037],[0.4359375,-0.24055555555555552],[0.44197916666666665,-0.29685185185185187],[0.4396874999999999,-0.2957407407407407],[0.4396874999999999,-0.2957407407407407],[0.43739583333333343,-0.2946296296296297],[0.4495833333333332,-0.3846296296296296],[0.4495833333333332,-0.3846296296296296],[0.45343749999999994,-0.3844444444444445],[0.4337500000000001,-0.4618518518518518],[0.44406249999999997,-0.36648148148148146],[0.45989583333333334,-0.39000000000000007],[0.4743750000000001,-0.3531481481481481],[0.4644791666666668,-0.32685185185185184],[0.4421875,-0.2548148148148149],[0.42687499999999995,-0.26185185185185184],[0.4158333333333334,-0.29314814814814816],[0.4019791666666668,-0.2524074074074074],[0.4209374999999999,-0.28962962962962957],[0.4634375000000001,-0.2492592592592593],[0.47000000000000003,-0.2846296296296296],[0.4462500000000001,-0.27018518518518514],[0.4431250000000001,-0.3042592592592593],[0.4431250000000001,-0.3042592592592593],[0.4418750000000001,-0.2651851851851852],[0.3966666666666666,-0.2796296296296296],[0.35145833333333343,-0.2940740740740741],[0.34406249999999994,-0.2772222222222222],[0.3366666666666667,-0.2603703703703704],[0.2960416666666667,-0.24018518518518517],[0.25541666666666674,-0.22000000000000003],[0.25541666666666674,-0.22000000000000003],[0.2211458333333333,-0.2242592592592593],[0.2211458333333333,-0.2242592592592593],[0.22062499999999996,-0.24166666666666667],[0.22427083333333328,-0.23648148148148146],[0.22125000000000009,-0.22166666666666665],[0.27458333333333323,-0.19907407407407407],[0.27979166666666655,-0.17981481481481484],[0.24291666666666673,-0.1675925925925926],[0.17510416666666656,-0.14666666666666664],[0.0984375,-0.1264814814814815],[0.0984375,-0.1264814814814815],[0.07979166666666657,-0.12481481481481477],[0.06916666666666677,-0.12240740740740745],[0.06916666666666677,-0.12240740740740745],[0.09249999999999996,-0.08055555555555556],[0.10750000000000005,-0.07333333333333338],[0.11260416666666657,-0.08814814814814818],[0.1408333333333334,-0.09462962962962967],[0.2171875,-0.0977777777777778],[0.28072916666666664,-0.09500000000000001],[0.37520833333333337,-0.10092592592592593],[0.46124999999999994,-0.09722222222222222],[0.4892708333333334,-0.075],[0.5182291666666666,-0.07833333333333335],[0.5182291666666666,-0.07240740740740745],[0.5302083333333333,-0.0735185185185185],[0.5549999999999999,-0.06129629629629634],[0.5566666666666668,-0.05740740740740741],[0.5146874999999999,-0.056296296296296254],[0.48552083333333323,-0.06111111111111111],[0.46604166666666674,-0.046481481481481526],[0.46031250000000007,-0.037037037037037035],[0.4539583333333333,-0.04000000000000004],[0.4488541666666668,-0.022777777777777692],[0.4561458333333334,-0.006666666666666709],[0.43635416666666677,0.016666666666666666],[0.4032291666666666,0.0492592592592593],[0.3701041666666666,0.08185185185185194],[0.40604166666666663,0.09814814814814815],[0.44197916666666665,0.11444444444444436],[0.4396874999999999,0.11129629629629634],[0.43093750000000003,0.12981481481481486],[0.4228125000000001,0.16074074074074066],[0.43114583333333345,0.17685185185185184],[0.42249999999999993,0.17629629629629637],[0.41354166666666664,0.16870370370370374],[0.4179166666666667,0.15185185185185185],[0.4358333333333334,0.1198148148148149],[0.4148958333333333,0.1300000000000001],[0.35427083333333326,0.1485185185185186],[0.32218749999999996,0.16703703703703712],[0.2912499999999999,0.1594444444444445],[0.2587500000000001,0.16296296296296298],[0.20979166666666677,0.18129629629629626],[0.20927083333333343,0.1838888888888888],[0.18624999999999994,0.18055555555555555],[0.1931250000000001,0.17240740740740745],[0.18645833333333334,0.1794444444444444],[0.21052083333333324,0.18222222222222217],[0.2742708333333333,0.1766666666666666],[0.2615624999999999,0.12814814814814823],[0.24562499999999995,0.07740740740740733],[0.25833333333333336,0.007962962962962878],[0.2439583333333334,-0.05388888888888893],[0.2538541666666667,-0.10203703703703708],[0.24489583333333323,-0.11796296296296294],[0.20604166666666662,-0.12907407407407406],[0.14958333333333323,-0.17240740740740745],[0.09739583333333333,-0.2368518518518518],[0.07395833333333333,-0.28777777777777774],[0.12697916666666675,-0.2957407407407407],[0.16270833333333337,-0.3255555555555556],[0.15635416666666657,-0.36277777777777775],[0.18239583333333323,-0.38685185185185184],[0.14479166666666668,-0.38425925925925924],[0.1506249999999999,-0.4251851851851852],[0.16375000000000003,-0.4746296296296296],[0.19635416666666666,-0.4933333333333333],[0.2046875,-0.5122222222222222],[0.17833333333333337,-0.5325925925925926],[0.17833333333333337,-0.5325925925925926],[0.18479166666666677,-0.5322222222222222],[0.19177083333333325,-0.5166666666666667],[0.21375000000000005,-0.4861111111111111],[0.2234375,-0.48518518518518516],[0.25322916666666656,-0.4885185185185185],[0.28125,-0.4675925925925926],[0.30197916666666674,-0.4381481481481482],[0.26583333333333337,-0.42592592592592593],[0.26583333333333337,-0.42592592592592593],[0.2537499999999999,-0.38925925925925925],[0.27541666666666675,-0.35351851851851845],[0.27541666666666675,-0.35351851851851845],[0.22958333333333342,-0.365925925925926],[0.16541666666666663,-0.3725925925925926],[0.09104166666666676,-0.36814814814814817],[0.09447916666666671,-0.32981481481481484],[0.07249999999999991,-0.3133333333333333],[0.019375000000000024,-0.3007407407407407],[0.03458333333333338,-0.27870370370370373],[0.04812500000000005,-0.2572222222222222],[0.04031250000000005,-0.2577777777777778],[0.04031250000000005,-0.2577777777777778],[0.0484375,-0.2594444444444445],[0.09500000000000004,-0.25759259259259265],[0.1798958333333334,-0.25259259259259254],[0.2234375,-0.26296296296296295],[0.1961458333333333,-0.2983333333333334],[0.2397916666666667,-0.2822222222222222],[0.22729166666666673,-0.32],[0.14645833333333325,-0.3672222222222222],[0.12229166666666676,-0.39518518518518514],[0.09020833333333324,-0.40703703703703703],[0.03156249999999995,-0.40777777777777774],[-0.03083333333333336,-0.3846296296296296],[-0.11333333333333329,-0.38259259259259265],[-0.121875,-0.3698148148148148],[-0.1328125,-0.35611111111111116],[-0.2109375,-0.39037037037037037],[-0.2125,-0.37759259259259254],[-0.2015625,-0.35611111111111116],[-0.17635416666666662,-0.3140740740740741],[-0.14322916666666666,-0.2881481481481482],[-0.14322916666666666,-0.2881481481481482],[-0.1420833333333333,-0.3044444444444444],[-0.15041666666666664,-0.3235185185185185],[-0.17197916666666668,-0.35481481481481486],[-0.21593749999999995,-0.3925925925925926],[-0.3064583333333334,-0.4155555555555555],[-0.3064583333333334,-0.40629629629629627],[-0.3033333333333334,-0.4027777777777778],[-0.2939583333333334,-0.41388888888888886],[-0.29666666666666663,-0.42962962962962964],[-0.299375,-0.44537037037037036],[-0.299375,-0.44537037037037036],[-0.30885416666666665,-0.4346296296296296],[-0.3360416666666667,-0.4324074074074074],[-0.3360416666666667,-0.4324074074074074],[-0.2897916666666667,-0.39462962962962966],[-0.26677083333333335,-0.36074074074074075],[-0.1944791666666667,-0.34870370370370374],[-0.23885416666666662,-0.3514814814814815],[-0.2920833333333333,-0.34],[-0.35125000000000006,-0.3383333333333333],[-0.4126041666666667,-0.35259259259259257],[-0.44593750000000004,-0.3655555555555555],[-0.45770833333333333,-0.3838888888888889],[-0.42208333333333337,-0.3861111111111111],[-0.42208333333333337,-0.3861111111111111],[-0.4340625000000001,-0.39462962962962966],[-0.435,-0.38259259259259265],[-0.4115625,-0.3896296296296296],[-0.39468749999999997,-0.38851851851851854],[-0.36135416666666664,-0.3851851851851852],[-0.34479166666666666,-0.375],[-0.3282291666666667,-0.3648148148148148],[-0.2916666666666667,-0.357962962962963],[-0.25510416666666663,-0.35111111111111115],[-0.2986458333333334,-0.3698148148148148],[-0.33468749999999997,-0.3844444444444445],[-0.34187500000000004,-0.4096296296296296],[-0.36958333333333326,-0.3907407407407407],[-0.3389583333333333,-0.4033333333333334],[-0.3016666666666667,-0.4101851851851852],[-0.2604166666666667,-0.4081481481481481],[-0.22083333333333333,-0.3979629629629629],[-0.22927083333333337,-0.3857407407407408],[-0.2421875,-0.37240740740740746],[-0.2421875,-0.37240740740740746],[-0.19520833333333332,-0.3383333333333333],[-0.14333333333333337,-0.27740740740740744],[-0.14333333333333337,-0.27740740740740744],[-0.12427083333333329,-0.2309259259259259],[-0.1015625,-0.2081481481481481],[-0.06864583333333331,-0.17407407407407408],[-0.05583333333333336,-0.1727777777777778],[-0.041458333333333285,-0.16074074074074077],[-0.025416666666666643,-0.15685185185185183],[0.016354166666666715,-0.13759259259259263],[0.0626041666666667,-0.11944444444444445],[0.0626041666666667,-0.11944444444444445],[0.10614583333333343,-0.14833333333333337],[0.10479166666666657,-0.1809259259259259],[0.11677083333333324,-0.20833333333333334],[0.115625,-0.23851851851851855],[0.10145833333333343,-0.2594444444444445],[0.09812500000000005,-0.2537037037037037],[0.07291666666666667,-0.26851851851851855],[0.04770833333333328,-0.2833333333333333],[-0.005312500000000024,-0.325],[-0.058333333333333334,-0.36666666666666664],[-0.058958333333333356,-0.36740740740740735],[-0.019583333333333286,-0.3912962962962963],[0.03208333333333328,-0.41],[0.06656249999999998,-0.41500000000000004],[0.07822916666666657,-0.4346296296296296],[0.07572916666666671,-0.4346296296296296],[0.07572916666666671,-0.4346296296296296],[0.08916666666666657,-0.422037037037037],[0.11739583333333338,-0.4111111111111111],[0.1337500000000001,-0.4074074074074074],[0.10729166666666666,-0.39944444444444444],[0.035000000000000024,-0.3827777777777778],[-0.03729166666666662,-0.3661111111111111],[-0.09093749999999995,-0.35759259259259263],[-0.12208333333333338,-0.3551851851851852],[-0.21166666666666673,-0.33296296296296296],[-0.2961458333333333,-0.3066666666666667],[-0.3711458333333333,-0.29259259259259257],[-0.4423958333333334,-0.2603703703703704],[-0.5054166666666666,-0.20555555555555555],[-0.5364583333333334,-0.16722222222222224],[-0.5713541666666667,-0.13148148148148148],[-0.6091666666666666,-0.07296296296296292],[-0.6751041666666667,-0.008333333333333333],[-0.6745833333333333,0.057777777777777865],[-0.6372916666666666,0.11462962962962958],[-0.5884375,0.11462962962962958],[-0.5706249999999999,0.13240740740740742],[-0.5405208333333333,0.13518518518518519],[-0.5403125000000001,0.14166666666666666],[-0.5292708333333334,0.1603703703703704],[-0.5173958333333333,0.1824074074074074],[-0.5026041666666666,0.1816666666666667],[-0.4532291666666667,0.18851851851851845],[-0.4703125,0.19388888888888897],[-0.49041666666666667,0.18296296296296288],[-0.5104166666666666,0.20555555555555555],[-0.5017708333333333,0.222037037037037],[-0.5239583333333333,0.23703703703703705],[-0.4897916666666667,0.2594444444444445],[-0.455625,0.2818518518518519],[-0.44864583333333335,0.2837037037037038],[-0.43208333333333326,0.2857407407407407],[-0.4467708333333333,0.29370370370370374],[-0.45281250000000006,0.29296296296296304],[-0.4473958333333333,0.2705555555555556],[-0.47979166666666667,0.2411111111111112],[-0.5063541666666667,0.22351851851851862],[-0.5736458333333334,0.19537037037037036],[-0.6019791666666666,0.15833333333333333],[-0.6266666666666667,0.1316666666666667],[-0.625,0.12222222222222222],[-0.6544791666666666,0.10944444444444448],[-0.676875,0.07444444444444454],[-0.7079166666666666,0.04814814814814815],[-0.7057291666666666,0.04888888888888885],[-0.6657291666666667,0.056666666666666705],[-0.6636458333333334,0.062037037037037036],[-0.6208333333333333,0.07796296296296301],[-0.6333333333333333,0.08833333333333342],[-0.668125,0.08981481481481482],[-0.7078125,0.07740740740740733],[-0.7259375,0.06814814814814807],[-0.71375,0.07907407407407416],[-0.720625,0.08944444444444435],[-0.7467708333333333,0.09185185185185189],[-0.7467708333333333,0.09185185185185189],[-0.7707291666666667,0.10166666666666663],[-0.7891666666666667,0.10666666666666672],[-0.8076041666666666,0.11166666666666658],[-0.8076041666666666,0.11166666666666658],[-0.8059375000000001,0.10925925925925926],[-0.8060416666666667,0.10314814814814824],[-0.80125,0.11092592592592589],[-0.7861458333333334,0.11796296296296305],[-0.8117708333333333,0.11351851851851844],[-0.8183333333333334,0.10962962962962972],[-0.8240625,0.11222222222222226],[-0.8319791666666667,0.10740740740740741],[-0.8026041666666667,0.09296296296296305],[-0.7732291666666666,0.07851851851851847],[-0.7684375,0.0668518518518519],[-0.7432291666666667,0.05740740740740741],[-0.7130208333333333,0.034074074074074034],[-0.693125,0.011481481481481566],[-0.6758333333333333,-0.008703703703703788],[-0.6557291666666667,-0.032037037037036954],[-0.6521875,-0.05555555555555555],[-0.6339583333333334,-0.06962962962962967],[-0.656875,-0.08870370370370366],[-0.6754166666666667,-0.09518518518518514],[-0.6939583333333333,-0.09259259259259259],[-0.6841666666666666,-0.10425925925925927],[-0.6678125,-0.10629629629629625],[-0.6641666666666667,-0.09740740740740746],[-0.6633333333333333,-0.08611111111111111],[-0.6577083333333333,-0.07111111111111107],[-0.6370833333333333,-0.05407407407407405],[-0.619375,-0.05962962962962961],[-0.58375,-0.06481481481481481],[-0.5525,-0.08259259259259263],[-0.5340625,-0.09444444444444444],[-0.5439583333333334,-0.09203703703703701],[-0.5741666666666667,-0.06166666666666669],[-0.5916666666666667,-0.04222222222222214],[-0.6127083333333334,-0.03833333333333342],[-0.6413541666666667,-0.034999999999999955],[-0.6538541666666667,-0.026851851851851852],[-0.678125,-0.005555555555555556],[-0.67,0.022592592592592678],[-0.6753125,0.04148148148148144],[-0.6984375,0.057037037037036956],[-0.7215625,0.07259259259259268],[-0.7579166666666667,0.06888888888888897],[-0.7786458333333334,0.052407407407407326],[-0.800625,0.03629629629629634],[-0.8120833333333334,0.009814814814814731],[-0.818125,-0.007407407407407408],[-0.8434375000000001,-0.03592592592592588],[-0.8913541666666667,-0.06388888888888888],[-0.9258333333333333,-0.07833333333333335],[-0.9295833333333333,-0.10037037037037035],[-0.8358333333333333,-0.13111111111111112],[-0.7201041666666667,-0.16629629629629633],[-0.62,-0.18870370370370365],[-0.5401041666666667,-0.2081481481481481],[-0.5401041666666667,-0.2081481481481481],[-0.47072916666666664,-0.21722222222222223],[-0.47072916666666664,-0.21722222222222223],[-0.43395833333333333,-0.25851851851851854],[-0.33791666666666664,-0.2574074074074074],[-0.27291666666666664,-0.26944444444444443],[-0.20979166666666665,-0.27814814814814814],[-0.14114583333333333,-0.31425925925925924],[-0.16760416666666664,-0.3440740740740741],[-0.19406249999999994,-0.3738888888888888],[-0.19406249999999994,-0.3738888888888888],[-0.16156250000000003,-0.36740740740740735],[-0.16760416666666664,-0.3738888888888888],[-0.1736458333333334,-0.3803703703703703],[-0.08104166666666662,-0.33925925925925926],[-0.028437499999999952,-0.3292592592592593],[0.024479166666666666,-0.3024074074074074],[0.08322916666666676,-0.2753703703703704],[0.13718750000000005,-0.2205555555555556],[0.1877083333333334,-0.18611111111111112],[0.24020833333333325,-0.15629629629629627],[0.21020833333333327,-0.17703703703703708],[0.2491666666666667,-0.17740740740740743],[0.2894791666666668,-0.17925925925925928],[0.2415625000000001,-0.20925925925925926],[0.190625,-0.23425925925925925],[0.17041666666666658,-0.26296296296296295],[0.16520833333333323,-0.2824074074074074],[0.15145833333333342,-0.32537037037037037],[0.15916666666666662,-0.33796296296296297],[0.1648958333333333,-0.34592592592592597],[0.1648958333333333,-0.3568518518518518],[0.13447916666666657,-0.36277777777777775],[0.10270833333333323,-0.3672222222222222],[0.07697916666666677,-0.3731481481481482],[0.06593749999999995,-0.3683333333333333],[0.06593749999999995,-0.3683333333333333],[0.052083333333333336,-0.3738888888888888],[0.02052083333333338,-0.42111111111111105],[-0.0032291666666666905,-0.44518518518518513],[-0.008854166666666666,-0.46703703703703703],[-0.014479166666666644,-0.4888888888888889],[-0.01114583333333338,-0.4964814814814815],[0.027395833333333286,-0.5016666666666666],[0.01114583333333338,-0.5444444444444444],[-0.010520833333333358,-0.587037037037037],[-0.04385416666666669,-0.6453703703703704],[-0.04229166666666669,-0.6372222222222222],[-0.04458333333333329,-0.6240740740740741],[-0.05416666666666667,-0.5748148148148148],[-0.11364583333333336,-0.5485185185185185],[-0.1686458333333333,-0.5462962962962963],[-0.2033333333333334,-0.5411111111111111],[-0.20406249999999998,-0.5135185185185185],[-0.1983333333333333,-0.4801851851851852],[-0.19364583333333332,-0.4270370370370371],[-0.1889583333333333,-0.3738888888888888],[-0.20197916666666665,-0.41],[-0.20197916666666665,-0.41],[-0.2219791666666667,-0.4275925925925925],[-0.22208333333333338,-0.46425925925925926],[-0.21083333333333332,-0.48777777777777775],[-0.19624999999999998,-0.5037037037037037],[-0.18031250000000001,-0.5181481481481481],[-0.2085416666666667,-0.505],[-0.18843749999999998,-0.45999999999999996],[-0.22749999999999998,-0.475],[-0.2663541666666667,-0.4903703703703704],[-0.2951041666666666,-0.43944444444444447],[-0.2856250000000001,-0.36796296296296294],[-0.2751041666666667,-0.31129629629629635],[-0.23666666666666672,-0.27814814814814814],[-0.20604166666666662,-0.22851851851851848],[-0.1922916666666667,-0.1742592592592593],[-0.19156249999999997,-0.18259259259259264],[-0.2171875,-0.2081481481481481],[-0.18260416666666662,-0.1935185185185185],[-0.10750000000000005,-0.15722222222222218],[-0.06031249999999998,-0.14777777777777779],[-0.09791666666666667,-0.1911111111111111],[-0.14916666666666673,-0.2366666666666667],[-0.18500000000000003,-0.22092592592592594],[-0.22083333333333333,-0.2051851851851852],[-0.24968750000000003,-0.22240740740740744],[-0.2911458333333333,-0.23074074074074077],[-0.3120833333333334,-0.2270370370370371],[-0.3536458333333333,-0.24462962962962967],[-0.4359375,-0.28351851851851856],[-0.4657291666666667,-0.32018518518518513],[-0.4657291666666667,-0.32018518518518513],[-0.43937499999999996,-0.3235185185185185],[-0.42385416666666664,-0.28574074074074074],[-0.42687499999999995,-0.29555555555555557],[-0.424375,-0.31296296296296294],[-0.4188541666666667,-0.2959259259259259],[-0.3967708333333333,-0.2898148148148148],[-0.37135416666666665,-0.2548148148148149],[-0.3111458333333334,-0.22333333333333338],[-0.25979166666666664,-0.17629629629629628],[-0.24208333333333332,-0.17685185185185184],[-0.2007291666666667,-0.1661111111111111],[-0.12916666666666668,-0.1977777777777778],[-0.08239583333333336,-0.21962962962962967],[-0.07562500000000003,-0.21648148148148144],[-0.06333333333333328,-0.22092592592592594],[-0.011979166666666667,-0.21574074074074073],[-0.011979166666666667,-0.21574074074074073],[0.03916666666666669,-0.2512962962962963],[0.03916666666666669,-0.2512962962962963],[0.0818749999999999,-0.25703703703703706],[0.12000000000000005,-0.28574074074074074],[0.12000000000000005,-0.28574074074074074],[0.1328125,-0.2683333333333333],[0.14510416666666662,-0.2614814814814815],[0.14812500000000003,-0.2559259259259259],[0.13385416666666666,-0.23703703703703705],[0.1603125000000001,-0.25092592592592594],[0.1701041666666666,-0.2727777777777778],[0.15197916666666675,-0.29518518518518516],[0.11624999999999991,-0.3001851851851852],[0.07937500000000004,-0.2946296296296297],[0.0834374999999999,-0.3164814814814814],[0.09739583333333333,-0.3453703703703704],[0.06052083333333336,-0.3737037037037037],[0.013541666666666667,-0.39944444444444444],[0.03312499999999995,-0.4305555555555556],[0.04645833333333336,-0.4462962962962963],[0.04458333333333329,-0.4633333333333333],[0.04489583333333336,-0.4588888888888889],[0.06239583333333331,-0.47370370370370374],[0.07531249999999995,-0.504074074074074],[0.06875,-0.4896296296296296],[0.06031249999999998,-0.46814814814814815],[0.07958333333333342,-0.4479629629629629],[0.10645833333333338,-0.42537037037037034],[0.06031249999999998,-0.4196296296296297],[0.023958333333333335,-0.41222222222222227],[0.026145833333333358,-0.40259259259259256],[0.001979166666666643,-0.40925925925925927],[-0.01906249999999995,-0.397037037037037],[-0.044375000000000026,-0.3977777777777778],[-0.07770833333333335,-0.40851851851851856],[-0.10916666666666662,-0.4262962962962963],[-0.1453125,-0.42481481481481476],[-0.1890625,-0.4257407407407407],[-0.2048958333333334,-0.4331481481481481],[-0.19864583333333338,-0.42833333333333334],[-0.25875,-0.43925925925925924],[-0.27854166666666663,-0.44814814814814813]]","[[-0.08354166666666671,-0.1618518518518518,0.0002999999970256795],[-0.08354166666666671,-0.1618518518518518,0.05540000000596024],[-0.049791666666666616,-0.1537037037037037,0.059100000008939446],[-0.04802083333333336,-0.16944444444444445,0.07340000000596092],[-0.05406249999999998,-0.1816666666666667,0.09000000000000341],[-0.05406249999999998,-0.1816666666666667,0.11010000000894138],[-0.05260416666666667,-0.18314814814814812,0.12350000000000705],[-0.03312499999999995,-0.18555555555555553,0.14010000000894252],[-0.035625000000000046,-0.192037037037037,0.15990000000596183],[-0.03822916666666672,-0.17925925925925928,0.17600000000000193],[-0.04083333333333338,-0.16648148148148145,0.19020000000298865],[-0.04104166666666664,-0.14981481481481476,0.20679999999701693],[-0.01593749999999995,-0.1507407407407407,0.22590000000596433],[-0.01260416666666669,-0.1653703703703704,0.24029999999702056],[-0.00927083333333331,-0.17999999999999997,0.2567999999970283],[0.04239583333333338,-0.1816666666666667,0.27510000000894763],[0.04479166666666667,-0.18796296296296297,0.29000000000000625],[0.028750000000000022,-0.1905555555555555,0.3069000000059674],[0.034687499999999954,-0.18907407407407412,0.32470000000297716],[0.03739583333333331,-0.1905555555555555,0.3400000000000034],[0.04010416666666667,-0.192037037037037,0.35670000000298785],[0.04041666666666662,-0.19740740740740745,0.3769000000059606],[0.041458333333333285,-0.2035185185185185,0.39000000000000057],[0.050625000000000024,-0.21148148148148146,0.40679999999701977],[0.024687500000000046,-0.22166666666666665,0.4232999999970275],[-0.03177083333333333,-0.2351851851851852,0.4419000000059583],[-0.05770833333333331,-0.2205555555555556,0.45670000000298216],[-0.06333333333333328,-0.2131481481481482,0.47329999999702466],[-0.0672916666666667,-0.21629629629629632,0.4900000000000091],[-0.09375,-0.21351851851851855,0.5097999999970284],[-0.12885416666666671,-0.2081481481481481,0.524799999997029],[-0.16395833333333332,-0.20277777777777778,0.5400000000000063],[-0.20052083333333334,-0.20537037037037034,0.5567000000029765],[-0.24229166666666668,-0.20259259259259255,0.5762000000029843],[-0.2538541666666667,-0.1881481481481482,0.5907000000029825],[-0.2579166666666667,-0.16203703703703703,0.6069000000059646],[-0.2582291666666666,-0.16129629629629633,0.6265000000000072],[-0.25375000000000003,-0.15629629629629627,0.6412999999970168],[-0.23010416666666664,-0.12888888888888894,0.656600000008936],[-0.20302083333333332,-0.10240740740740743,0.6732999999970275],[-0.16218750000000004,-0.07814814814814813,0.6932000000029888],[-0.17781250000000004,-0.06314814814814819,0.7089000000059684],[-0.19750000000000004,-0.035740740740740656,0.7232999999970247],[-0.24989583333333332,-0.003888888888888931,0.7400000000000091],[-0.29739583333333336,0.018518518518518517,0.7582000000029865],[-0.30499999999999994,0.03814814814814819,0.7732999999970218],[-0.3060416666666666,0.03092592592592601,0.7901000000089482],[-0.31187499999999996,0.019444444444444445,0.8091000000089394],[-0.3564583333333334,0.003333333333333249,0.823299999997019],[-0.4044791666666666,-0.01185185185185181,0.8401000000089454],[-0.47770833333333335,-0.0031481481481482323,0.8566000000089389],[-0.48614583333333333,0.010370370370370412,0.8752000000029767],[-0.49645833333333333,-0.003888888888888931,0.8901000000089425],[-0.4740625,-0.022592592592592678,0.9069999999999965],[-0.4538541666666667,-0.012777777777777735,0.9249999999999972],[-0.4860416666666667,-0.005555555555555556,0.9399999999999977],[-0.5040625,0.008703703703703788,0.9566000000089474],[-0.5220833333333333,0.02296296296296292,0.976100000008941],[-0.5290625,0.02814814814814823,0.9901000000089368],[-0.5127083333333333,0.04407407407407399,1.0106000000089495],[-0.47625,0.035740740740740656,1.0329000000059665],[-0.47625,0.035740740740740656,1.0401000000089482],[-0.43635416666666665,0.011481481481481566,1.0567000000029765],[-0.3611458333333334,0.02907407407407416,1.073400000005961],[-0.30354166666666665,0.056666666666666705,1.0922000000029755],[-0.25677083333333334,0.004074074074074159,1.109600000008939],[-0.20499999999999996,-0.05481481481481486,1.125100000008942],[-0.16854166666666662,-0.06648148148148143,1.1400000000000006],[-0.13208333333333327,-0.07814814814814813,1.161400000005969],[-0.08833333333333329,-0.15907407407407403,1.1766000000089463],[-0.06864583333333331,-0.227962962962963,1.1912000000029792],[-0.04895833333333333,-0.29685185185185187,1.2071000000089498],[-0.05531250000000002,-0.3516666666666666,1.2254999999999967],[-0.07760416666666667,-0.4388888888888889,1.240000000000009],[-0.07572916666666671,-0.4951851851851851,1.256900000005956],[-0.07843749999999995,-0.5287037037037037,1.2732999999970218],[-0.07531249999999995,-0.5599999999999999,1.2924000000059692],[-0.07229166666666664,-0.6174074074074074,1.3076000000089465],[-0.07229166666666664,-0.6174074074074074,1.323299999997019],[-0.08062499999999997,-0.6848148148148149,1.3437000000029826],[-0.09718749999999995,-0.6901851851851851,1.3602000000029761],[-0.09718749999999995,-0.6901851851851851,1.373400000005958],[-0.08812500000000002,-0.6857407407407408,1.393600000008945],[-0.09979166666666663,-0.6979629629629629,1.4099999999999966],[-0.09979166666666663,-0.6979629629629629,1.4237999999970157],[-0.09718749999999995,-0.7038888888888889,1.4431000000089398],[-0.10697916666666671,-0.6622222222222223,1.4572999999970193],[-0.12718750000000004,-0.6748148148148148,1.473900000005969],[-0.09562499999999995,-0.6707407407407407,1.490000000000009],[-0.04624999999999998,-0.6438888888888888,1.510100000008947],[-0.05447916666666662,-0.6107407407407408,1.52560000000895],[-0.06791666666666671,-0.5811111111111111,1.5409999999999968],[-0.07354166666666669,-0.5424074074074073,1.5566000000089417],[-0.10406249999999997,-0.5362962962962964,1.5775000000000006],[-0.10010416666666669,-0.5111111111111111,1.5979000000059642],[-0.10010416666666669,-0.5111111111111111,1.615799999997023],[-0.09083333333333338,-0.4892592592592592,1.6317999999970283],[-0.09083333333333338,-0.4892592592592592,1.6402000000029773],[-0.06697916666666662,-0.5064814814814815,1.656700000002985],[-0.03927083333333338,-0.5103703703703704,1.6732999999970275],[-0.10187499999999995,-0.4844444444444445,1.6924999999999955],[-0.10187499999999995,-0.4844444444444445,1.7066000000089474],[-0.18812500000000001,-0.48351851851851857,1.723100000008941],[-0.22822916666666668,-0.4853703703703704,1.7432999999970207],[-0.21749999999999994,-0.46722222222222226,1.7565000000000026],[-0.1892708333333334,-0.4655555555555555,1.7749000000059567],[-0.18083333333333335,-0.4281481481481481,1.7901000000089482],[-0.17864583333333334,-0.42000000000000004,1.807799999997016],[-0.18177083333333333,-0.40851851851851856,1.8254000000059563],[-0.2203125,-0.4027777777777778,1.8402000000029801],[-0.25885416666666666,-0.397037037037037,1.8567000000029878],[-0.22041666666666668,-0.37666666666666665,1.8747999999970233],[-0.19093749999999995,-0.34685185185185186,1.8901000000089425],[-0.16687500000000005,-0.32833333333333337,1.9067999999970198],[-0.17708333333333334,-0.3162962962962963,1.9254000000059648],[-0.22520833333333337,-0.28425925925925927,1.9401000000089397],[-0.25354166666666667,-0.287962962962963,1.9589000000059684],[-0.28937499999999994,-0.26481481481481484,1.9750000000000085],[-0.3232291666666666,-0.23333333333333334,1.9899000000059601],[-0.34135416666666674,-0.18629629629629635,2.0066000000089446],[-0.37145833333333333,-0.13648148148148145,2.023299999997022],[-0.45197916666666665,-0.11277777777777774,2.0421000000089435],[-0.494375,-0.08351851851851856,2.0597999999970256],[-0.5252083333333333,-0.0477777777777777,2.0744000000059657],[-0.5346875,-0.007037037037036953,2.0922000000029755],[-0.503125,0.00722222222222218,2.1077000000029784],[-0.476875,-0.002962962962963005,2.123299999997016],[-0.450625,-0.01314814814814819,2.142100000008938],[-0.4361458333333334,0.004444444444444402,2.1586000000089456],[-0.4111458333333334,0.0016666666666666245,2.1746000000089367],[-0.3741666666666667,-0.003888888888888931,2.1922999999970187],[-0.2638541666666666,0.007407407407407408,2.206700000002982],[-0.1827083333333333,0.003703703703703704,2.2254999999999967],[-0.14020833333333335,0.020370370370370372,2.240000000000009],[-0.11906249999999995,0.032037037037036954,2.2581000000089375],[-0.07999999999999995,0.04018518518518527,2.2734000000059638],[-0.035625000000000046,0.07277777777777769,2.2900000000000063],[-0.002499999999999976,0.09407407407407399,2.309299999997023],[0.01270833333333338,0.0955555555555556,2.324900000005968],[0.0015625,0.10574074074074079,2.3399000000059686],[-0.009583333333333381,0.11592592592592597,2.356700000002988],[-0.06447916666666664,0.10314814814814824,2.375900000005956],[-0.11593749999999996,0.08759259259259251,2.389900000005966],[-0.12875000000000003,0.051666666666666625,2.406700000002985],[-0.12760416666666666,-0.0014814814814813973,2.425900000005967],[-0.16635416666666672,0.008703703703703788,2.441299999997028],[-0.21979166666666666,0.025370370370370456,2.45710000000895],[-0.26197916666666665,0.05333333333333325,2.477600000008948],[-0.26197916666666665,0.05333333333333325,2.490100000008937],[-0.26916666666666667,0.05555555555555555,2.506900000005956],[-0.2509375,0.06537037037037029,2.5234000000059638],[-0.23270833333333332,0.07518518518518523,2.542500000000004],[-0.21447916666666664,0.10648148148148148,2.5635000000000048],[-0.21447916666666664,0.10648148148148148,2.573299999997019],[-0.2163541666666667,0.12333333333333338,2.592500000000001],[-0.22239583333333332,0.14240740740740737,2.607200000002976],[-0.2423958333333334,0.1787037037037037,2.623299999997016],[-0.2389583333333333,0.18129629629629626,2.6401000000089425],[-0.22083333333333333,0.17740740740740732,2.658400000005969],[-0.19145833333333329,0.19037037037037027,2.6732999999970275],[-0.13812500000000003,0.19796296296296292,2.6904000000059654],[-0.07552083333333333,0.22388888888888886,2.710000000000008],[-0.06531250000000005,0.24722222222222223,2.724400000005957],[-0.042916666666666714,0.23481481481481473,2.740200000002986],[-0.00302083333333331,0.2448148148148149,2.7590000000000003],[0.013854166666666619,0.23444444444444448,2.7750000000000057],[0.03333333333333333,0.24018518518518528,2.790900000005962],[0.04572916666666664,0.23870370370370367,2.810799999997016],[0.0626041666666667,0.2338888888888888,2.8254000000059563],[0.07229166666666677,0.22481481481481477,2.84020000000298],[0.03270833333333331,0.23129629629629625,2.8606000000089438],[-0.00635416666666669,0.2331481481481481,2.8747999999970233],[-0.018437500000000048,0.2433333333333333,2.8902000000029773],[-0.035625000000000046,0.2594444444444445,2.907299999997022],[-0.035104166666666714,0.2737037037037036,2.9257999999970252],[-0.007500000000000047,0.2933333333333333,2.9422999999970187],[-0.007500000000000047,0.2933333333333333,2.9572000000029846],[0.017499999999999953,0.29685185185185176,2.976100000008941],[0.03312499999999995,0.32462962962962955,2.992200000002981],[0.03312499999999995,0.32462962962962955,3.0067000000029793],[0.0328125,0.3516666666666666,3.023299999997022],[0.05395833333333329,0.3803703703703703,3.0427999999970154],[0.06479166666666672,0.4012962962962964,3.058600000008937],[0.06052083333333336,0.39944444444444455,3.0754000000059563],[0.08166666666666676,0.3918518518518519,3.0900000000000034],[0.0678124999999999,0.4051851851851851,3.1115000000000066],[0.08270833333333343,0.4038888888888889,3.126400000005958],[0.08520833333333329,0.43759259259259253,3.1407000000029797],[0.08770833333333337,0.47129629629629627,3.1567999999970198],[0.08458333333333339,0.48481481481481475,3.177700000002986],[0.14375,0.4661111111111112,3.192200000002984],[0.1178124999999999,0.4272222222222223,3.207499999999996],[0.1178124999999999,0.4272222222222223,3.2232999999970247],[0.15072916666666672,0.3998148148148148,3.2434999999999974],[0.1544791666666666,0.39222222222222214,3.2582999999970212],[0.1560416666666666,0.38351851851851854,3.2769000000059663],[0.21770833333333334,0.35907407407407405,3.293900000005962],[0.22374999999999995,0.362962962962963,3.311000000000007],[0.2693749999999999,0.34370370370370373,3.3267999999970215],[0.2791666666666667,0.33777777777777773,3.349500000000006],[0.2791666666666667,0.33777777777777773,3.356600000008939],[0.31062500000000004,0.3096296296296297,3.373500000000007],[0.28229166666666666,0.30407407407407416,3.3901000000089425],[0.3141666666666666,0.29685185185185176,3.4099999999999966],[0.32572916666666674,0.3050000000000001,3.426799999997016],[0.3676041666666668,0.3066666666666667,3.4421000000089492],[0.41166666666666674,0.30944444444444447,3.4566000000089474],[0.41770833333333335,0.32148148148148153,3.4775000000000063],[0.43552083333333325,0.3074074074074074,3.493200000002986],[0.3927083333333333,0.28648148148148156,3.5089000000059656],[0.4271874999999999,0.2777777777777778,3.525500000000008],[0.39729166666666677,0.25462962962962965,3.5411000000089388],[0.37604166666666666,0.24740740740740744,3.5567000000029765],[0.3544791666666666,0.2455555555555556,3.5759000000059586],[0.3412499999999999,0.23481481481481473,3.592700000002978],[0.3226041666666667,0.22388888888888886,3.6092999999970203],[0.27791666666666665,0.19499999999999992,3.626500000000007],[0.27937500000000004,0.1294444444444444,3.641999999999996],[0.2787499999999999,0.09462962962962967,3.6577000000029756],[0.3116666666666667,0.06759259259259259,3.6732999999970275],[0.29145833333333326,0.034074074074074034,3.6940000000000026],[0.29145833333333326,0.034074074074074034,3.706799999997017],[0.3315624999999999,0.02240740740740745,3.7234000000059666],[0.3719791666666666,0.00851851851851856,3.744600000008944],[0.4014583333333334,-0.07111111111111107,3.760000000000005],[0.3955208333333334,-0.11240740740740739,3.7759000000059615],[0.38958333333333334,-0.1537037037037037,3.793900000005962],[0.4359375,-0.24055555555555552,3.8107000000029814],[0.44197916666666665,-0.29685185185185187,3.8267999999970215],[0.4396874999999999,-0.2957407407407407,3.8414000000059616],[0.4396874999999999,-0.2957407407407407,3.856499999999997],[0.43739583333333343,-0.2946296296296297,3.8761000000089467],[0.4495833333333332,-0.3846296296296296,3.890400000005968],[0.4495833333333332,-0.3846296296296296,3.906700000002985],[0.45343749999999994,-0.3844444444444445,3.9232999999970275],[0.4337500000000001,-0.4618518518518518,3.9424000000059607],[0.44406249999999997,-0.36648148148148146,3.9581000000089404],[0.45989583333333334,-0.39000000000000007,3.974700000002983],[0.4743750000000001,-0.3531481481481481,3.993799999997023],[0.4644791666666668,-0.32685185185185184,4.011200000002987],[0.4421875,-0.2548148148148149,4.0267000000029896],[0.42687499999999995,-0.26185185185185184,4.043200000002983],[0.4158333333333334,-0.29314814814814816,4.0599000000059675],[0.4019791666666668,-0.2524074074074074,4.075500000000005],[0.4209374999999999,-0.28962962962962957,4.089900000005969],[0.4634375000000001,-0.2492592592592593,4.1116000000089485],[0.47000000000000003,-0.2846296296296296,4.126900000005961],[0.4462500000000001,-0.27018518518518514,4.142299999997022],[0.4431250000000001,-0.3042592592592593,4.15679999999702],[0.4431250000000001,-0.3042592592592593,4.176200000002979],[0.4418750000000001,-0.2651851851851852,4.189999999999998],[0.3966666666666666,-0.2796296296296296,4.206700000002982],[0.35145833333333343,-0.2940740740740741,4.227799999997018],[0.34406249999999994,-0.2772222222222222,4.242299999997016],[0.3366666666666667,-0.2603703703703704,4.256600000008945],[0.2960416666666667,-0.24018518518518517,4.273400000005964],[0.25541666666666674,-0.22000000000000003,4.295200000002978],[0.25541666666666674,-0.22000000000000003,4.313799999997016],[0.2211458333333333,-0.2242592592592593,4.328799999997017],[0.2211458333333333,-0.2242592592592593,4.34020000000298],[0.22062499999999996,-0.24166666666666667,4.3584000000059575],[0.22427083333333328,-0.23648148148148146,4.3739000000059605],[0.22125000000000009,-0.22166666666666665,4.389900000005966],[0.27458333333333323,-0.19907407407407407,4.40870000000298],[0.27979166666666655,-0.17981481481481484,4.4232999999970275],[0.24291666666666673,-0.1675925925925926,4.442299999997019],[0.17510416666666656,-0.14666666666666664,4.456600000008947],[0.0984375,-0.1264814814814815,4.4749000000059596],[0.0984375,-0.1264814814814815,4.490600000008939],[0.07979166666666657,-0.12481481481481477,4.506700000002979],[0.06916666666666677,-0.12240740740740745,4.525400000005959],[0.06916666666666677,-0.12240740740740745,4.539799999997015],[0.09249999999999996,-0.08055555555555556,4.5567000000029765],[0.10750000000000005,-0.07333333333333338,4.573299999997019],[0.11260416666666657,-0.08814814814814818,4.593600000008948],[0.1408333333333334,-0.09462962962962967,4.60929999999702],[0.2171875,-0.0977777777777778,4.623100000008947],[0.28072916666666664,-0.09500000000000001,4.6401000000089425],[0.37520833333333337,-0.10092592592592593,4.658299999997027],[0.46124999999999994,-0.09722222222222222,4.6732999999970275],[0.4892708333333334,-0.075,4.69010000000894],[0.5182291666666666,-0.07833333333333335,4.709100000008945],[0.5182291666666666,-0.07240740740740745,4.723299999997025],[0.5302083333333333,-0.0735185185185185,4.740000000000009],[0.5549999999999999,-0.06129629629629634,4.756600000008945],[0.5566666666666668,-0.05740740740740741,4.775100000008948],[0.5146874999999999,-0.056296296296296254,4.790000000000006],[0.48552083333333323,-0.06111111111111111,4.8095],[0.46604166666666674,-0.046481481481481526,4.824900000005968],[0.46031250000000007,-0.037037037037037035,4.840000000000003],[0.4539583333333333,-0.04000000000000004,4.859600000008939],[0.4488541666666668,-0.022777777777777692,4.877200000002986],[0.4561458333333334,-0.006666666666666709,4.890500000000003],[0.43635416666666677,0.016666666666666666,4.911100000008943],[0.4032291666666666,0.0492592592592593,4.924500000000009],[0.3701041666666666,0.08185185185185194,4.942000000000007],[0.40604166666666663,0.09814814814814815,4.9565000000000055],[0.44197916666666665,0.11444444444444436,4.973400000005967],[0.4396874999999999,0.11129629629629634,4.992299999997016],[0.43093750000000003,0.12981481481481486,5.010299999997017],[0.4228125000000001,0.16074074074074066,5.024900000005957],[0.43114583333333345,0.17685185185185184,5.041400000005964],[0.42249999999999993,0.17629629629629637,5.0567999999970255],[0.41354166666666664,0.16870370370370374,5.073499999999996],[0.4179166666666667,0.15185185185185185,5.090000000000003],[0.4358333333333334,0.1198148148148149,5.111700000002983],[0.4148958333333333,0.1300000000000001,5.126299999997016],[0.35427083333333326,0.1485185185185186,5.1401000000089425],[0.32218749999999996,0.16703703703703712,5.156600000008936],[0.2912499999999999,0.1594444444444445,5.176700000002981],[0.2587500000000001,0.16296296296296298,5.19010000000894],[0.20979166666666677,0.18129629629629626,5.206700000002982],[0.20927083333333343,0.1838888888888888,5.223200000002976],[0.18624999999999994,0.18055555555555555,5.241799999997028],[0.1931250000000001,0.17240740740740745,5.256600000008945],[0.18645833333333334,0.1794444444444444,5.2734999999999985],[0.21052083333333324,0.18222222222222217,5.290000000000006],[0.2742708333333333,0.1766666666666666,5.311000000000007],[0.2615624999999999,0.12814814814814823,5.327200000002989],[0.24562499999999995,0.07740740740740733,5.342500000000001],[0.25833333333333336,0.007962962962962878,5.356700000002988],[0.2439583333333334,-0.05388888888888893,5.376500000000007],[0.2538541666666667,-0.10203703703703708,5.39160000000895],[0.24489583333333323,-0.11796296296296294,5.406900000005962],[0.20604166666666662,-0.12907407407407406,5.4232000000029785],[0.14958333333333323,-0.17240740740740745,5.4424999999999955],[0.09739583333333333,-0.2368518518518518,5.4565000000000055],[0.07395833333333333,-0.28777777777777774,5.473299999997025],[0.12697916666666675,-0.2957407407407407,5.494500000000002],[0.16270833333333337,-0.3255555555555556,5.509200000002977],[0.15635416666666657,-0.36277777777777775,5.524000000000001],[0.18239583333333323,-0.38685185185185184,5.541200000002988],[0.14479166666666668,-0.38425925925925924,5.558700000002986],[0.1506249999999999,-0.4251851851851852,5.573400000005961],[0.16375000000000003,-0.4746296296296296,5.590900000005959],[0.19635416666666666,-0.4933333333333333,5.606400000005962],[0.2046875,-0.5122222222222222,5.625700000002979],[0.17833333333333337,-0.5325925925925926,5.645200000002987],[0.17833333333333337,-0.5325925925925926,5.656500000000008],[0.18479166666666677,-0.5322222222222222,5.676299999997028],[0.19177083333333325,-0.5166666666666667,5.6910000000000025],[0.21375000000000005,-0.4861111111111111,5.7072000000029846],[0.2234375,-0.48518518518518516,5.725999999999999],[0.25322916666666656,-0.4885185185185185,5.741600000008944],[0.28125,-0.4675925925925926,5.756600000008945],[0.30197916666666674,-0.4381481481481482,5.773299999997022],[0.26583333333333337,-0.42592592592592593,5.792700000002981],[0.26583333333333337,-0.42592592592592593,5.8067999999970255],[0.2537499999999999,-0.38925925925925925,5.823299999997019],[0.27541666666666675,-0.35351851851851845,5.8431000000089455],[0.27541666666666675,-0.35351851851851845,5.856600000008939],[0.22958333333333342,-0.365925925925926,5.873299999997016],[0.16541666666666663,-0.3725925925925926,5.889900000005966],[0.09104166666666676,-0.36814814814814817,5.911000000000001],[0.09447916666666671,-0.32981481481481484,5.926100000008944],[0.07249999999999991,-0.3133333333333333,5.941600000008947],[0.019375000000000024,-0.3007407407407407,5.960799999997022],[0.03458333333333338,-0.27870370370370373,5.976600000008943],[0.04812500000000005,-0.2572222222222222,5.992100000008946],[0.04031250000000005,-0.2577777777777778,6.012200000002977],[0.04031250000000005,-0.2577777777777778,6.023299999997022],[0.0484375,-0.2594444444444445,6.040100000008948],[0.09500000000000004,-0.25759259259259265,6.056600000008942],[0.1798958333333334,-0.25259259259259254,6.076299999997019],[0.2234375,-0.26296296296296295,6.091600000008938],[0.1961458333333333,-0.2983333333333334,6.107400000005967],[0.2397916666666667,-0.2822222222222222,6.126700000002984],[0.22729166666666673,-0.32,6.140600000008945],[0.14645833333333325,-0.3672222222222222,6.156900000005962],[0.12229166666666676,-0.39518518518518514,6.173700000002981],[0.09020833333333324,-0.40703703703703703,6.192799999997021],[0.03156249999999995,-0.40777777777777774,6.208500000000001],[-0.03083333333333336,-0.3846296296296296,6.225999999999999],[-0.11333333333333329,-0.38259259259259265,6.243400000005963],[-0.121875,-0.3698148148148148,6.257400000005958],[-0.1328125,-0.35611111111111116,6.273900000005966],[-0.2109375,-0.39037037037037037,6.289900000005957],[-0.2125,-0.37759259259259254,6.310100000008944],[-0.2015625,-0.35611111111111116,6.325000000000003],[-0.17635416666666662,-0.3140740740740741,6.34129999999702],[-0.14322916666666666,-0.2881481481481482,6.359200000002986],[-0.14322916666666666,-0.2881481481481482,6.373299999997016],[-0.1420833333333333,-0.3044444444444444,6.390000000000001],[-0.15041666666666664,-0.3235185185185185,6.40979999999702],[-0.17197916666666668,-0.35481481481481486,6.423900000005958],[-0.21593749999999995,-0.3925925925925926,6.443600000008942],[-0.3064583333333334,-0.4155555555555555,6.460499999999996],[-0.3064583333333334,-0.40629629629629627,6.475700000002988],[-0.3033333333333334,-0.4027777777777778,6.492799999997018],[-0.2939583333333334,-0.41388888888888886,6.509400000005968],[-0.29666666666666663,-0.42962962962962964,6.5234999999999985],[-0.299375,-0.44537037037037036,6.546500000000009],[-0.299375,-0.44537037037037036,6.556600000008942],[-0.30885416666666665,-0.4346296296296296,6.573499999999996],[-0.3360416666666667,-0.4324074074074074,6.598299999997025],[-0.3360416666666667,-0.4324074074074074,6.607299999997025],[-0.2897916666666667,-0.39462962962962966,6.623400000005958],[-0.26677083333333335,-0.36074074074074075,6.64070000000298],[-0.1944791666666667,-0.34870370370370374,6.659999999999997],[-0.23885416666666662,-0.3514814814814815,6.675200000002988],[-0.2920833333333333,-0.34,6.689900000005963],[-0.35125000000000006,-0.3383333333333333,6.7065000000000055],[-0.4126041666666667,-0.35259259259259257,6.722999999999999],[-0.44593750000000004,-0.3655555555555555,6.739799999997018],[-0.45770833333333333,-0.3838888888888889,6.761700000002989],[-0.42208333333333337,-0.3861111111111111,6.781700000002985],[-0.42208333333333337,-0.3861111111111111,6.789799999997015],[-0.4340625000000001,-0.39462962962962966,6.8065],[-0.435,-0.38259259259259265,6.8231000000089495],[-0.4115625,-0.3896296296296296,6.839799999997027],[-0.39468749999999997,-0.38851851851851854,6.856400000005962],[-0.36135416666666664,-0.3851851851851852,6.873100000008947],[-0.34479166666666666,-0.375,6.889799999997024],[-0.3282291666666667,-0.3648148148148148,6.906600000008936],[-0.2916666666666667,-0.357962962962963,6.923100000008944],[-0.25510416666666663,-0.35111111111111115,6.939799999997021],[-0.2986458333333334,-0.3698148148148148,6.9565000000000055],[-0.33468749999999997,-0.3844444444444445,6.973200000002976],[-0.34187500000000004,-0.4096296296296296,6.98990000000596],[-0.36958333333333326,-0.3907407407407407,7.008700000002989],[-0.3389583333333333,-0.4033333333333334,7.024600000008945],[-0.3016666666666667,-0.4101851851851852,7.039799999997015],[-0.2604166666666667,-0.4081481481481481,7.056400000005965],[-0.22083333333333333,-0.3979629629629629,7.073200000002984],[-0.22927083333333337,-0.3857407407407408,7.089799999997027],[-0.2421875,-0.37240740740740746,7.106400000005962],[-0.2421875,-0.37240740740740746,7.123100000008947],[-0.19520833333333332,-0.3383333333333333,7.139900000005966],[-0.14333333333333337,-0.27740740740740744,7.156500000000008],[-0.14333333333333337,-0.27740740740740744,7.1732000000029785],[-0.12427083333333329,-0.2309259259259259,7.189799999997021],[-0.1015625,-0.2081481481481481,7.207700000002987],[-0.06864583333333331,-0.17407407407407408,7.2249000000059596],[-0.05583333333333336,-0.1727777777777778,7.241100000008942],[-0.041458333333333285,-0.16074074074074077,7.256400000005968],[-0.025416666666666643,-0.15685185185185183,7.273200000002987],[0.016354166666666715,-0.13759259259259263,7.289900000005957],[0.0626041666666667,-0.11944444444444445,7.306900000005967],[0.0626041666666667,-0.11944444444444445,7.328900000005959],[0.10614583333333343,-0.14833333333333337,7.345900000005969],[0.10479166666666657,-0.1809259259259259,7.359000000000009],[0.11677083333333324,-0.20833333333333334,7.373000000000005],[0.115625,-0.23851851851851855,7.39260000000894],[0.10145833333333343,-0.2594444444444445,7.406600000008936],[0.09812500000000005,-0.2537037037037037,7.423100000008944],[0.07291666666666667,-0.26851851851851855,7.439799999997021],[0.04770833333333328,-0.2833333333333333,7.4564000000059565],[-0.005312500000000024,-0.325,7.473100000008941],[-0.058333333333333334,-0.36666666666666664,7.48990000000596],[-0.058958333333333356,-0.36740740740740735,7.506400000005968],[-0.019583333333333286,-0.3912962962962963,7.523100000008938],[0.03208333333333328,-0.41,7.539799999997015],[0.06656249999999998,-0.41500000000000004,7.5565],[0.07822916666666657,-0.4346296296296296,7.5731000000089495],[0.07572916666666671,-0.4346296296296296,7.589799999997027],[0.07572916666666671,-0.4346296296296296,7.606499999999997],[0.08916666666666657,-0.422037037037037,7.623100000008947],[0.11739583333333338,-0.4111111111111111,7.639700000002989],[0.1337500000000001,-0.4074074074074074,7.658799999997015],[0.10729166666666666,-0.39944444444444444,7.673100000008944],[0.035000000000000024,-0.3827777777777778,7.689700000002986],[-0.03729166666666662,-0.3661111111111111,7.7064000000059565],[-0.09093749999999995,-0.35759259259259263,7.723100000008941],[-0.12208333333333338,-0.3551851851851852,7.739799999997018],[-0.21166666666666673,-0.33296296296296296,7.756400000005968],[-0.2961458333333333,-0.3066666666666667,7.772999999999996],[-0.3711458333333333,-0.29259259259259257,7.789799999997015],[-0.4423958333333334,-0.2603703703703704,7.806400000005965],[-0.5054166666666666,-0.20555555555555555,7.8230000000000075],[-0.5364583333333334,-0.16722222222222224,7.839799999997027],[-0.5713541666666667,-0.13148148148148148,7.856600000008939],[-0.6091666666666666,-0.07296296296296292,7.873100000008947],[-0.6751041666666667,-0.008333333333333333,7.889700000002989],[-0.6745833333333333,0.057777777777777865,7.906500000000008],[-0.6372916666666666,0.11462962962962958,7.923100000008944],[-0.5884375,0.11462962962962958,7.939799999997021],[-0.5706249999999999,0.13240740740740742,7.9564000000059565],[-0.5405208333333333,0.13518518518518519,7.97529999999702],[-0.5403125000000001,0.14166666666666666,7.989700000002983],[-0.5292708333333334,0.1603703703703704,8.006500000000003],[-0.5173958333333333,0.1824074074074074,8.023100000008938],[-0.5026041666666666,0.1816666666666667,8.039799999997015],[-0.4532291666666667,0.18851851851851845,8.056400000005965],[-0.4703125,0.19388888888888897,8.075700000002982],[-0.49041666666666667,0.18296296296296288,8.089700000002978],[-0.5104166666666666,0.20555555555555555,8.106499999999997],[-0.5017708333333333,0.222037037037037,8.123100000008947],[-0.5239583333333333,0.23703703703703705,8.139700000002989],[-0.4897916666666667,0.2594444444444445,8.15640000000596],[-0.455625,0.2818518518518519,8.173200000002979],[-0.44864583333333335,0.2837037037037038,8.189900000005963],[-0.43208333333333326,0.2857407407407407,8.206500000000005],[-0.4467708333333333,0.29370370370370374,8.223100000008941],[-0.45281250000000006,0.29296296296296304,8.239799999997018],[-0.4473958333333333,0.2705555555555556,8.256400000005968],[-0.47979166666666667,0.2411111111111112,8.273100000008938],[-0.5063541666666667,0.22351851851851862,8.28970000000298],[-0.5736458333333334,0.19537037037037036,8.3065],[-0.6019791666666666,0.15833333333333333,8.32310000000895],[-0.6266666666666667,0.1316666666666667,8.339799999997027],[-0.625,0.12222222222222222,8.356400000005962],[-0.6544791666666666,0.10944444444444448,8.373200000002981],[-0.676875,0.07444444444444454,8.389799999997024],[-0.7079166666666666,0.04814814814814815,8.40640000000596],[-0.7057291666666666,0.04888888888888885,8.423100000008944],[-0.6657291666666667,0.056666666666666705,8.439799999997021],[-0.6636458333333334,0.062037037037037036,8.456400000005956],[-0.6208333333333333,0.07796296296296301,8.473100000008941],[-0.6333333333333333,0.08833333333333342,8.489799999997018],[-0.668125,0.08981481481481482,8.506500000000003],[-0.7078125,0.07740740740740733,8.523100000008938],[-0.7259375,0.06814814814814807,8.539799999997015],[-0.71375,0.07907407407407416,8.5565],[-0.720625,0.08944444444444435,8.573000000000008],[-0.7467708333333333,0.09185185185185189,8.589700000002978],[-0.7467708333333333,0.09185185185185189,8.606499999999997],[-0.7707291666666667,0.10166666666666663,8.623100000008947],[-0.7891666666666667,0.10666666666666672,8.639700000002989],[-0.8076041666666666,0.11166666666666658,8.65640000000596],[-0.8076041666666666,0.11166666666666658,8.673100000008944],[-0.8059375000000001,0.10925925925925926,8.689700000002986],[-0.8060416666666667,0.10314814814814824,8.71010000000895],[-0.80125,0.11092592592592589,8.72420000000298],[-0.7861458333333334,0.11796296296296305,8.739799999997018],[-0.8117708333333333,0.11351851851851844,8.756400000005968],[-0.8183333333333334,0.10962962962962972,8.773100000008938],[-0.8240625,0.11222222222222226,8.789799999997015],[-0.8319791666666667,0.10740740740740741,8.8065],[-0.8026041666666667,0.09296296296296305,8.82310000000895],[-0.7732291666666666,0.07851851851851847,8.839799999997027],[-0.7684375,0.0668518518518519,8.856400000005962],[-0.7432291666666667,0.05740740740740741,8.875900000005956],[-0.7130208333333333,0.034074074074074034,8.890200000002977],[-0.693125,0.011481481481481566,8.906600000008936],[-0.6758333333333333,-0.008703703703703788,8.926900000005958],[-0.6557291666666667,-0.032037037037036954,8.941799999997016],[-0.6521875,-0.05555555555555555,8.956400000005956],[-0.6339583333333334,-0.06962962962962967,8.976200000002976],[-0.656875,-0.08870370370370366,8.991],[-0.6754166666666667,-0.09518518518518514,9.006900000005956],[-0.6939583333333333,-0.09259259259259259,9.023100000008938],[-0.6841666666666666,-0.10425925925925927,9.039799999997015],[-0.6678125,-0.10629629629629625,9.056400000005965],[-0.6641666666666667,-0.09740740740740746,9.073200000002984],[-0.6633333333333333,-0.08611111111111111,9.089700000002978],[-0.6577083333333333,-0.07111111111111107,9.106499999999997],[-0.6370833333333333,-0.05407407407407405,9.123100000008947],[-0.619375,-0.05962962962962961,9.139799999997024],[-0.58375,-0.06481481481481481,9.156500000000008],[-0.5525,-0.08259259259259263,9.17340000000597],[-0.5340625,-0.09444444444444444,9.190700000002977],[-0.5439583333333334,-0.09203703703703701,9.206400000005956],[-0.5741666666666667,-0.06166666666666669,9.222999999999999],[-0.5916666666666667,-0.04222222222222214,9.243200000002986],[-0.6127083333333334,-0.03833333333333342,9.256400000005968],[-0.6413541666666667,-0.034999999999999955,9.273100000008938],[-0.6538541666666667,-0.026851851851851852,9.29270000000298],[-0.678125,-0.005555555555555556,9.307500000000005],[-0.67,0.022592592592592678,9.323000000000008],[-0.6753125,0.04148148148148144,9.342799999997027],[-0.6984375,0.057037037037036956,9.356799999997023],[-0.7215625,0.07259259259259268,9.373100000008947],[-0.7579166666666667,0.06888888888888897,9.390400000005968],[-0.7786458333333334,0.052407407407407326,9.408000000000001],[-0.800625,0.03629629629629634,9.425100000008939],[-0.8120833333333334,0.009814814814814731,9.442799999997021],[-0.818125,-0.007407407407407408,9.457400000005961],[-0.8434375000000001,-0.03592592592592588,9.473100000008941],[-0.8913541666666667,-0.06388888888888888,9.489799999997018],[-0.9258333333333333,-0.07833333333333335,9.506500000000003],[-0.9295833333333333,-0.10037037037037035,9.527200000002978],[-0.8358333333333333,-0.13111111111111112,9.543900000005962],[-0.7201041666666667,-0.16629629629629633,9.560000000000002],[-0.62,-0.18870370370370365,9.57710000000894],[-0.5401041666666667,-0.2081481481481481,9.591799999997022],[-0.5401041666666667,-0.2081481481481481,9.606600000008939],[-0.47072916666666664,-0.21722222222222223,9.623299999997016],[-0.47072916666666664,-0.21722222222222223,9.643500000000003],[-0.43395833333333333,-0.25851851851851854,9.656600000008936],[-0.33791666666666664,-0.2574074074074074,9.673200000002979],[-0.27291666666666664,-0.26944444444444443,9.689900000005963],[-0.20979166666666665,-0.27814814814814814,9.710999999999999],[-0.14114583333333333,-0.31425925925925924,9.725799999997022],[-0.16760416666666664,-0.3440740740740741,9.742600000008949],[-0.19406249999999994,-0.3738888888888888,9.763400000005959],[-0.19406249999999994,-0.3738888888888888,9.773400000005964],[-0.16156250000000003,-0.36740740740740735,9.790000000000006],[-0.16760416666666664,-0.3738888888888888,9.808299999997018],[-0.1736458333333334,-0.3803703703703703,9.826900000005963],[-0.08104166666666662,-0.33925925925925926,9.843000000000004],[-0.028437499999999952,-0.3292592592592593,9.85820000000298],[0.024479166666666666,-0.3024074074074074,9.873600000008949],[0.08322916666666676,-0.2753703703703704,9.892200000002987],[0.13718750000000005,-0.2205555555555556,9.907900000005966],[0.1877083333333334,-0.18611111111111112,9.923900000005958],[0.24020833333333325,-0.15629629629629627,9.942499999999995],[0.21020833333333327,-0.17703703703703708,9.956600000008947],[0.2491666666666667,-0.17740740740740743,9.973200000002976],[0.2894791666666668,-0.17925925925925928,9.992500000000007],[0.2415625000000001,-0.20925925925925926,10.008299999997021],[0.190625,-0.23425925925925925,10.024299999997027],[0.17041666666666658,-0.26296296296296295,10.039900000005957],[0.16520833333333323,-0.2824074074074074,10.059299999997023],[0.15145833333333342,-0.32537037037037037,10.075600000008947],[0.15916666666666662,-0.33796296296296297,10.090100000008945],[0.1648958333333333,-0.34592592592592597,10.110500000000002],[0.1648958333333333,-0.3568518518518518,10.126600000008949],[0.13447916666666657,-0.36277777777777775,10.144000000000005],[0.10270833333333323,-0.3672222222222222,10.15870000000298],[0.07697916666666677,-0.3731481481481482,10.174700000002986],[0.06593749999999995,-0.3683333333333333,10.195999999999998],[0.06593749999999995,-0.3683333333333333,10.206500000000005],[0.052083333333333336,-0.3738888888888888,10.222999999999999],[0.02052083333333338,-0.42111111111111105,10.243100000008937],[-0.0032291666666666905,-0.44518518518518513,10.257500000000007],[-0.008854166666666666,-0.46703703703703703,10.273100000008938],[-0.014479166666666644,-0.4888888888888889,10.289799999997015],[-0.01114583333333338,-0.4964814814814815,10.30840000000596],[0.027395833333333286,-0.5016666666666666,10.32310000000895],[0.01114583333333338,-0.5444444444444444,10.339700000002978],[-0.010520833333333358,-0.587037037037037,10.356400000005962],[-0.04385416666666669,-0.6453703703703704,10.373100000008947],[-0.04229166666666669,-0.6372222222222222,10.389799999997024],[-0.04458333333333329,-0.6240740740740741,10.408100000008943],[-0.05416666666666667,-0.5748148148148148,10.423000000000002],[-0.11364583333333336,-0.5485185185185185,10.439700000002986],[-0.1686458333333333,-0.5462962962962963,10.456400000005956],[-0.2033333333333334,-0.5411111111111111,10.473100000008941],[-0.20406249999999998,-0.5135185185185185,10.48990000000596],[-0.1983333333333333,-0.4801851851851852,10.507700000002984],[-0.19364583333333332,-0.4270370370370371,10.523100000008938],[-0.1889583333333333,-0.3738888888888888,10.540000000000006],[-0.20197916666666665,-0.41,10.573499999999996],[-0.20197916666666665,-0.41,10.58310000000894],[-0.2219791666666667,-0.4275925925925925,10.59320000000298],[-0.22208333333333338,-0.46425925925925926,10.607700000002978],[-0.21083333333333332,-0.48777777777777775,10.623500000000007],[-0.19624999999999998,-0.5037037037037037,10.63979