inst1_resp.keys,inst1_resp.rt,calibrationMouse.x,calibrationMouse.y,calibrationMouse.leftButton,calibrationMouse.midButton,calibrationMouse.rightButton,calibrationClick.x,calibrationClick.y,calibrationClick.leftButton,calibrationClick.midButton,calibrationClick.rightButton,trialsc.thisRepN,trialsc.thisTrialN,trialsc.thisN,trialsc.thisIndex,trialsc.ran,calibration_x,calibration_y,participant,session,date,expName,psychopyVersion,OS,frameRate,calibrationClick.clicked_name,ScreenRes_pixels,mouse_2.x,mouse_2.y,mouse_2.leftButton,mouse_2.midButton,mouse_2.rightButton,mouse_2.time,mouse_2.clicked_name,Camera_pixels,mouse.x,mouse.y,mouse.leftButton,mouse.midButton,mouse.rightButton,mouse.time,mouse.clicked_name,Choice,Trial,TrialDuration,MOUSE_GAZE,ET_GAZE,ET_GAZE_x_T,time,unixTime,ET_GAZE_NF,Loc_Bus_label,Loc_Metro_label,Loc_RH_label,Loc_Cost_label,Loc_Travel_label,Loc_Comfort_label,Loc_Bus_cost,Loc_Metro_cost,Loc_RH_cost,Loc_Bus_travel,Loc_Metro_travel,Loc_RH_travel,Loc_Bus_comfort,Loc_Metro_comfort,Loc_RH_comfort,trials.thisRepN,trials.thisTrialN,trials.thisN,trials.thisIndex,trials.ran,Block,Device,RH_cost,RH_travel_time,RH_Comfort,metro_cost,metro_travel_time,metro_Comfort,Bus_cost,Bus_travel_time,Bus_Comfort
space,0.7735,0.069791667,-0.327777778,1,0,0,-0.021875,-0.312962963,0,0,0,0,0,0,4,1,-0.33,-0.67,06,001,2024-11-21_12h57.44.752,Attention_exp_legacy,2023.1.0,Win32,59.88023952,,,,,,,,,,,,,,,,,,,,,,,,,,,,,,,,,,,,,,,,,,,,,,,,,,,,,,,,,
,,,,,,,-0.007291667,-0.003703704,1,0,0,0,1,1,11,1,0,0,06,001,2024-11-21_12h57.44.752,Attention_exp_legacy,2023.1.0,Win32,59.88023952,calibration_square,,,,,,,,,,,,,,,,,,,,,,,,,,,,,,,,,,,,,,,,,,,,,,,,,,,,,,,,
,,,,,,,0.33125,0.009259259,1,0,0,0,2,2,16,1,0.33,0,06,001,2024-11-21_12h57.44.752,Attention_exp_legacy,2023.1.0,Win32,59.88023952,calibration_square,,,,,,,,,,,,,,,,,,,,,,,,,,,,,,,,,,,,,,,,,,,,,,,,,,,,,,,,
,,,,,,,-0.676041667,0.325925926,1,0,0,0,3,3,3,1,-0.67,0.33,06,001,2024-11-21_12h57.44.752,Attention_exp_legacy,2023.1.0,Win32,59.88023952,calibration_square,,,,,,,,,,,,,,,,,,,,,,,,,,,,,,,,,,,,,,,,,,,,,,,,,,,,,,,,
,,,,,,,0.6625,0.674074074,1,0,0,0,4,4,19,1,0.67,0.67,06,001,2024-11-21_12h57.44.752,Attention_exp_legacy,2023.1.0,Win32,59.88023952,calibration_square,,,,,,,,,,,,,,,,,,,,,,,,,,,,,,,,,,,,,,,,,,,,,,,,,,,,,,,,
,,,,,,,-0.336458333,-0.337037037,1,0,0,0,5,5,5,1,-0.33,-0.33,06,001,2024-11-21_12h57.44.752,Attention_exp_legacy,2023.1.0,Win32,59.88023952,calibration_square,,,,,,,,,,,,,,,,,,,,,,,,,,,,,,,,,,,,,,,,,,,,,,,,,,,,,,,,
,,,,,,,0.333333333,0.672222222,1,0,0,0,6,6,18,1,0.33,0.67,06,001,2024-11-21_12h57.44.752,Attention_exp_legacy,2023.1.0,Win32,59.88023952,calibration_square,,,,,,,,,,,,,,,,,,,,,,,,,,,,,,,,,,,,,,,,,,,,,,,,,,,,,,,,
,,,,,,,0.326041667,-0.324074074,1,0,0,0,7,7,15,1,0.33,-0.33,06,001,2024-11-21_12h57.44.752,Attention_exp_legacy,2023.1.0,Win32,59.88023952,calibration_square,,,,,,,,,,,,,,,,,,,,,,,,,,,,,,,,,,,,,,,,,,,,,,,,,,,,,,,,
,,,,,,,0.003125,-0.67037037,1,0,0,0,8,8,9,1,0,-0.67,06,001,2024-11-21_12h57.44.752,Attention_exp_legacy,2023.1.0,Win32,59.88023952,calibration_square,,,,,,,,,,,,,,,,,,,,,,,,,,,,,,,,,,,,,,,,,,,,,,,,,,,,,,,,
,,,,,,,0.671875,-0.674074074,1,0,0,0,9,9,20,1,0.67,-0.67,06,001,2024-11-21_12h57.44.752,Attention_exp_legacy,2023.1.0,Win32,59.88023952,calibration_square,,,,,,,,,,,,,,,,,,,,,,,,,,,,,,,,,,,,,,,,,,,,,,,,,,,,,,,,
,,,,,,,-0.005208333,0.325925926,1,0,0,0,10,10,12,1,0,0.33,06,001,2024-11-21_12h57.44.752,Attention_exp_legacy,2023.1.0,Win32,59.88023952,calibration_square,,,,,,,,,,,,,,,,,,,,,,,,,,,,,,,,,,,,,,,,,,,,,,,,,,,,,,,,
,,,,,,,-0.328125,0.324074074,1,0,0,0,11,11,7,1,-0.33,0.33,06,001,2024-11-21_12h57.44.752,Attention_exp_legacy,2023.1.0,Win32,59.88023952,calibration_square,,,,,,,,,,,,,,,,,,,,,,,,,,,,,,,,,,,,,,,,,,,,,,,,,,,,,,,,
,,,,,,,-0.679166667,-0.314814815,1,0,0,0,12,12,1,1,-0.67,-0.33,06,001,2024-11-21_12h57.44.752,Attention_exp_legacy,2023.1.0,Win32,59.88023952,,,,,,,,,,,,,,,,,,,,,,,,,,,,,,,,,,,,,,,,,,,,,,,,,,,,,,,,,
,,,,,,,0.326041667,-0.677777778,1,0,0,0,13,13,14,1,0.33,-0.67,06,001,2024-11-21_12h57.44.752,Attention_exp_legacy,2023.1.0,Win32,59.88023952,calibration_square,,,,,,,,,,,,,,,,,,,,,,,,,,,,,,,,,,,,,,,,,,,,,,,,,,,,,,,,
,,,,,,,-0.335416667,0.666666667,1,0,0,0,14,14,8,1,-0.33,0.67,06,001,2024-11-21_12h57.44.752,Attention_exp_legacy,2023.1.0,Win32,59.88023952,calibration_square,,,,,,,,,,,,,,,,,,,,,,,,,,,,,,,,,,,,,,,,,,,,,,,,,,,,,,,,
,,,,,,,-0.33125,-0.001851852,1,0,0,0,15,15,6,1,-0.33,0,06,001,2024-11-21_12h57.44.752,Attention_exp_legacy,2023.1.0,Win32,59.88023952,calibration_square,,,,,,,,,,,,,,,,,,,,,,,,,,,,,,,,,,,,,,,,,,,,,,,,,,,,,,,,
,,,,,,,0.005208333,-0.322222222,1,0,0,0,16,16,10,1,0,-0.33,06,001,2024-11-21_12h57.44.752,Attention_exp_legacy,2023.1.0,Win32,59.88023952,calibration_square,,,,,,,,,,,,,,,,,,,,,,,,,,,,,,,,,,,,,,,,,,,,,,,,,,,,,,,,
,,,,,,,-0.005208333,0.67037037,1,0,0,0,17,17,13,1,0,0.67,06,001,2024-11-21_12h57.44.752,Attention_exp_legacy,2023.1.0,Win32,59.88023952,calibration_square,,,,,,,,,,,,,,,,,,,,,,,,,,,,,,,,,,,,,,,,,,,,,,,,,,,,,,,,
,,,,,,,-0.675,-0.005555556,1,0,0,0,18,18,2,1,-0.67,0,06,001,2024-11-21_12h57.44.752,Attention_exp_legacy,2023.1.0,Win32,59.88023952,calibration_square,,,,,,,,,,,,,,,,,,,,,,,,,,,,,,,,,,,,,,,,,,,,,,,,,,,,,,,,
,,,,,,,0.332291667,0.333333333,1,0,0,0,19,19,17,1,0.33,0.33,06,001,2024-11-21_12h57.44.752,Attention_exp_legacy,2023.1.0,Win32,59.88023952,calibration_square,,,,,,,,,,,,,,,,,,,,,,,,,,,,,,,,,,,,,,,,,,,,,,,,,,,,,,,,
,,,,,,,-0.686458333,-0.674074074,1,0,0,0,20,20,0,1,-0.67,-0.67,06,001,2024-11-21_12h57.44.752,Attention_exp_legacy,2023.1.0,Win32,59.88023952,,,,,,,,,,,,,,,,,,,,,,,,,,,,,,,,,,,,,,,,,,,,,,,,,,,,,,,,,
,,,,,,,,,,,,,,,,,,,06,001,2024-11-21_12h57.44.752,Attention_exp_legacy,2023.1.0,Win32,59.88023952,,"[1920,1080]",[0.05],[-0.5092592592592593],[1],[0],[0],[0.844300000190735],"[""StartButton""]","[640,480]","[0.14895833333333333,0.14791666666666667]","[0.15,0.387037037037037]","[1,1]","[0,0]","[0,0]","[1.9501999998092643,3.0971999998092627]","[""Metro_label""]",Metro_label,1,4.1087,"[[0.078125,0.24259259259259258],[0.078125,0.24259259259259258],[0.078125,0.24259259259259258],[0.078125,0.24259259259259258],[0.078125,0.24259259259259258],[0.078125,0.24259259259259258],[0.078125,0.24259259259259258],[0.078125,0.24259259259259258],[0.078125,0.24259259259259258],[0.078125,0.24259259259259258],[0.078125,0.24259259259259258],[0.078125,0.24259259259259258],[0.078125,0.24259259259259258],[0.078125,0.24259259259259258],[0.078125,0.24259259259259258],[0.078125,0.24259259259259258],[0.078125,0.24259259259259258],[0.078125,0.24259259259259258],[0.078125,0.24259259259259258],[0.078125,0.24259259259259258],[0.078125,0.24259259259259258],[0.078125,0.24259259259259258],[0.078125,0.24259259259259258],[0.078125,0.24259259259259258],[0.08125,0.24074074074074073],[0.08125,0.24074074074074073],[0.08125,0.24074074074074073],[0.08229166666666667,0.24074074074074073],[0.08229166666666667,0.24074074074074073],[0.08229166666666667,0.24074074074074073],[0.08333333333333333,0.24074074074074073],[0.08333333333333333,0.24074074074074073],[0.08333333333333333,0.24074074074074073],[0.08333333333333333,0.24074074074074073],[0.08333333333333333,0.24074074074074073],[0.08333333333333333,0.24074074074074073],[0.08333333333333333,0.24074074074074073],[0.08333333333333333,0.24074074074074073],[0.08333333333333333,0.24074074074074073],[0.08333333333333333,0.24074074074074073],[0.08333333333333333,0.24074074074074073],[0.0875,0.23703703703703705],[0.09375,0.22962962962962963],[0.1,0.22037037037037038],[0.10833333333333334,0.2111111111111111],[0.11770833333333333,0.19444444444444445],[0.125,0.18518518518518517],[0.12916666666666668,0.17592592592592593],[0.13541666666666666,0.1648148148148148],[0.13958333333333334,0.15925925925925927],[0.14375,0.15555555555555556],[0.14479166666666668,0.1537037037037037],[0.146875,0.15185185185185185],[0.146875,0.15],[0.146875,0.15],[0.146875,0.15],[0.146875,0.15],[0.146875,0.15],[0.146875,0.15],[0.146875,0.15],[0.14895833333333333,0.15],[0.14895833333333333,0.15],[0.14895833333333333,0.15],[0.14895833333333333,0.15],[0.14895833333333333,0.15],[0.14895833333333333,0.15],[0.14895833333333333,0.15],[0.14895833333333333,0.15],[0.14895833333333333,0.15],[0.14895833333333333,0.15],[0.14895833333333333,0.15],[0.14895833333333333,0.15],[0.14895833333333333,0.15],[0.14895833333333333,0.15],[0.14895833333333333,0.15],[0.14895833333333333,0.15],[0.14895833333333333,0.15],[0.14895833333333333,0.15],[0.14895833333333333,0.15],[0.14895833333333333,0.15],[0.14895833333333333,0.15],[0.14895833333333333,0.15],[0.14895833333333333,0.15],[0.14895833333333333,0.15],[0.14895833333333333,0.15],[0.14895833333333333,0.15],[0.14895833333333333,0.15],[0.14895833333333333,0.15],[0.14895833333333333,0.15],[0.14895833333333333,0.15],[0.14895833333333333,0.15],[0.14895833333333333,0.15],[0.14895833333333333,0.15],[0.14895833333333333,0.15],[0.14895833333333333,0.15],[0.14895833333333333,0.15],[0.14895833333333333,0.15],[0.14895833333333333,0.15],[0.14895833333333333,0.15],[0.14895833333333333,0.15],[0.14895833333333333,0.15],[0.14895833333333333,0.15],[0.14895833333333333,0.15],[0.14895833333333333,0.15],[0.14895833333333333,0.15],[0.14895833333333333,0.15],[0.14895833333333333,0.15],[0.14895833333333333,0.15],[0.14895833333333333,0.15],[0.14895833333333333,0.15],[0.14895833333333333,0.15],[0.14895833333333333,0.15],[0.14895833333333333,0.15],[0.14895833333333333,0.15],[0.14895833333333333,0.15],[0.14895833333333333,0.15],[0.14895833333333333,0.15],[0.14895833333333333,0.15],[0.14895833333333333,0.15],[0.14895833333333333,0.15],[0.14895833333333333,0.15],[0.14895833333333333,0.15],[0.14895833333333333,0.15],[0.14895833333333333,0.15],[0.14895833333333333,0.15],[0.14895833333333333,0.15],[0.14895833333333333,0.15],[0.14895833333333333,0.15],[0.14895833333333333,0.15],[0.14895833333333333,0.15],[0.14895833333333333,0.15],[0.14895833333333333,0.15],[0.14895833333333333,0.15],[0.14895833333333333,0.15],[0.14895833333333333,0.15],[0.14895833333333333,0.15],[0.14895833333333333,0.15],[0.14895833333333333,0.15],[0.14895833333333333,0.15],[0.14895833333333333,0.15],[0.14895833333333333,0.15],[0.14895833333333333,0.15],[0.14895833333333333,0.15],[0.14895833333333333,0.15],[0.14895833333333333,0.15],[0.14895833333333333,0.15],[0.14895833333333333,0.15],[0.14895833333333333,0.15],[0.14895833333333333,0.15],[0.14895833333333333,0.15],[0.14895833333333333,0.15],[0.14895833333333333,0.15],[0.14895833333333333,0.15],[0.14895833333333333,0.15],[0.14895833333333333,0.15],[0.14895833333333333,0.15],[0.14895833333333333,0.15],[0.14895833333333333,0.15],[0.14895833333333333,0.15],[0.14895833333333333,0.15],[0.14895833333333333,0.15],[0.14895833333333333,0.15],[0.14895833333333333,0.15185185185185185],[0.14895833333333333,0.15925925925925927],[0.14895833333333333,0.17222222222222222],[0.14895833333333333,0.18518518518518517],[0.14270833333333333,0.19814814814814816],[0.134375,0.2074074074074074],[0.125,0.21666666666666667],[0.12291666666666666,0.22037037037037038],[0.121875,0.22592592592592592],[0.121875,0.2351851851851852],[0.12395833333333334,0.2537037037037037],[0.12708333333333333,0.26296296296296295],[0.13333333333333333,0.3037037037037037],[0.1375,0.3277777777777778],[0.140625,0.34444444444444444],[0.14166666666666666,0.3537037037037037],[0.14270833333333333,0.3648148148148148],[0.14375,0.37037037037037035],[0.146875,0.3814814814814815],[0.146875,0.3851851851851852],[0.146875,0.3851851851851852],[0.146875,0.3851851851851852],[0.146875,0.3851851851851852],[0.14791666666666667,0.387037037037037],[0.15,0.387037037037037],[0.15208333333333332,0.3888888888888889],[0.15416666666666667,0.3925925925925926],[0.15416666666666667,0.3925925925925926],[0.15416666666666667,0.3925925925925926],[0.15416666666666667,0.3925925925925926],[0.15416666666666667,0.3925925925925926],[0.15416666666666667,0.3925925925925926],[0.15416666666666667,0.3925925925925926],[0.15416666666666667,0.3925925925925926],[0.15416666666666667,0.3925925925925926],[0.15416666666666667,0.3925925925925926],[0.15416666666666667,0.3925925925925926],[0.15416666666666667,0.3925925925925926],[0.15416666666666667,0.3925925925925926],[0.15416666666666667,0.3925925925925926],[0.15416666666666667,0.3925925925925926],[0.15416666666666667,0.3925925925925926],[0.15416666666666667,0.3925925925925926],[0.15416666666666667,0.3925925925925926],[0.15416666666666667,0.3925925925925926],[0.15416666666666667,0.3925925925925926],[0.15416666666666667,0.3925925925925926],[0.15416666666666667,0.3925925925925926],[0.15416666666666667,0.3925925925925926],[0.15416666666666667,0.3925925925925926],[0.15416666666666667,0.3925925925925926],[0.15416666666666667,0.3925925925925926],[0.15416666666666667,0.3925925925925926],[0.15416666666666667,0.3925925925925926],[0.15416666666666667,0.3925925925925926],[0.15416666666666667,0.3925925925925926],[0.15416666666666667,0.3925925925925926],[0.15416666666666667,0.3925925925925926],[0.15416666666666667,0.3925925925925926],[0.15416666666666667,0.3925925925925926],[0.15416666666666667,0.3925925925925926],[0.15416666666666667,0.3925925925925926],[0.15625,0.3907407407407407],[0.15625,0.3925925925925926],[0.15625,0.3925925925925926],[0.15625,0.39444444444444443],[0.15729166666666666,0.3962962962962963],[0.15729166666666666,0.39814814814814814],[0.15729166666666666,0.4],[0.15729166666666666,0.4],[0.15729166666666666,0.4],[0.15729166666666666,0.4],[0.15729166666666666,0.4],[0.15729166666666666,0.4],[0.15729166666666666,0.4],[0.15729166666666666,0.4],[0.15729166666666666,0.4],[0.15729166666666666,0.4],[0.15729166666666666,0.4],[0.15729166666666666,0.4],[0.15729166666666666,0.4],[0.15729166666666666,0.4],[0.15729166666666666,0.4],[0.15729166666666666,0.4]]","[[0.1009375000000001,-0.28129629629629627],[0.1009375000000001,-0.28129629629629627],[0.1009375000000001,-0.28129629629629627],[0.1040625000000001,-0.2942592592592592],[0.11635416666666672,-0.2903703703703704],[0.11635416666666672,-0.2903703703703704],[0.11500000000000009,-0.27611111111111114],[0.11500000000000009,-0.27611111111111114],[0.11916666666666677,-0.2853703703703704],[0.1267708333333334,-0.30481481481481487],[0.1267708333333334,-0.30481481481481487],[0.11739583333333338,-0.2929629629629629],[0.11708333333333343,-0.2801851851851852],[0.11708333333333343,-0.2801851851851852],[0.12708333333333333,-0.2772222222222222],[0.13781249999999995,-0.2722222222222222],[0.13989583333333327,-0.25277777777777777],[0.14385416666666656,-0.24611111111111106],[0.13093750000000004,-0.23166666666666672],[0.13093750000000004,-0.23166666666666672],[0.12625000000000006,-0.23981481481481481],[0.13718750000000005,-0.24351851851851852],[0.15052083333333333,-0.23740740740740737],[0.16437499999999997,-0.23722222222222225],[0.1650000000000001,-0.2338888888888889],[0.1650000000000001,-0.2338888888888889],[0.15177083333333338,-0.2418518518518519],[0.1571875000000001,-0.24537037037037038],[0.1571875000000001,-0.24537037037037038],[0.14916666666666673,-0.257962962962963],[0.14916666666666673,-0.257962962962963],[0.15437500000000004,-0.26740740740740737],[0.17260416666666673,-0.28592592592592586],[0.17260416666666673,-0.28592592592592586],[0.1912499999999999,-0.3101851851851852],[0.1912499999999999,-0.3101851851851852],[0.17822916666666658,-0.30333333333333334],[0.17822916666666658,-0.30333333333333334],[0.14989583333333342,-0.30111111111111116],[0.14989583333333342,-0.30111111111111116],[0.14010416666666667,-0.2957407407407407],[0.14010416666666667,-0.2957407407407407],[0.11812500000000009,-0.2838888888888889],[0.11812500000000009,-0.2838888888888889],[0.11906249999999995,-0.2366666666666667],[0.11197916666666667,-0.24074074074074073],[0.11687500000000005,-0.22166666666666665],[0.10708333333333328,-0.2140740740740741],[0.09343750000000005,-0.17388888888888884],[0.08718750000000004,-0.15055555555555558],[0.10906250000000005,-0.16018518518518518],[0.12770833333333323,-0.16018518518518518],[0.12781250000000005,-0.1633333333333333],[0.12781250000000005,-0.1633333333333333],[0.14874999999999997,-0.16407407407407412],[0.15677083333333333,-0.21240740740740738],[0.15333333333333338,-0.20018518518518522],[0.14854166666666657,-0.2044444444444444],[0.1460416666666667,-0.19462962962962968],[0.1462500000000001,-0.22925925925925927],[0.13864583333333325,-0.24129629629629631],[0.13864583333333325,-0.24129629629629631],[0.13093750000000004,-0.2140740740740741],[0.12916666666666668,-0.19425925925925921],[0.12135416666666667,-0.16944444444444445],[0.10041666666666677,-0.1403703703703704],[0.10041666666666677,-0.1403703703703704],[0.084375,-0.11055555555555553],[0.043020833333333286,-0.07148148148148152],[0.008124999999999953,-0.051111111111111156],[-0.04468749999999998,-0.0005555555555554713],[-0.09249999999999996,0.06314814814814819],[-0.1330208333333334,0.08833333333333342],[-0.17541666666666664,0.09796296296296292],[-0.2123958333333333,0.11351851851851844],[-0.25510416666666663,0.13222222222222219],[-0.2789583333333333,0.1337037037037038],[-0.2964583333333334,0.10444444444444441],[-0.2904166666666666,0.09222222222222214],[-0.3081249999999999,0.09037037037037028],[-0.30791666666666667,0.058333333333333334],[-0.2924999999999999,0.02166666666666675],[-0.2864583333333333,0.006111111111111027],[-0.3017708333333334,0.005000000000000084],[-0.3138541666666666,-0.0003703703703704546],[-0.30885416666666665,0.012407407407407492],[-0.3038541666666667,0.025185185185185227],[-0.3085416666666667,0.04611111111111107],[-0.30895833333333333,0.044444444444444446],[-0.28583333333333333,0.041111111111111195],[-0.25843750000000004,0.030555555555555555],[-0.24624999999999997,0.024629629629629547],[-0.2007291666666667,0.003888888888888931],[-0.14718749999999994,-0.039074074074074115],[-0.14718749999999994,-0.039074074074074115],[-0.065625,-0.07092592592592595],[-0.01729166666666669,-0.10796296296296298],[0.03104166666666662,-0.14500000000000002],[0.0756249999999999,-0.1757407407407407],[0.10354166666666677,-0.20092592592592592],[0.13145833333333337,-0.22611111111111115],[0.18635416666666677,-0.26722222222222225],[0.24552083333333338,-0.31851851851851853],[0.253125,-0.3464814814814815],[0.253125,-0.3464814814814815],[0.27197916666666655,-0.3768518518518518],[0.2609375,-0.4172222222222222],[0.2568749999999999,-0.4788888888888889],[0.25281250000000005,-0.5405555555555556],[0.24885416666666677,-0.5622222222222223],[0.2585416666666667,-0.5911111111111111],[0.2682291666666667,-0.62],[0.25,-0.6214814814814815],[0.23072916666666668,-0.6140740740740741],[0.25031249999999994,-0.5887037037037036],[0.2586458333333333,-0.5751851851851852],[0.2617708333333333,-0.5592592592592592],[0.28583333333333344,-0.5431481481481482],[0.3138541666666666,-0.5233333333333334],[0.33718750000000003,-0.5174074074074073],[0.33624999999999994,-0.5011111111111112],[0.3341666666666666,-0.4696296296296297],[0.3384375000000001,-0.4390740740740741],[0.3394791666666668,-0.4072222222222222],[0.3219791666666666,-0.3844444444444445],[0.3219791666666666,-0.3844444444444445],[0.2939583333333334,-0.36629629629629634],[0.2939583333333334,-0.36629629629629634],[0.2734375,-0.3346296296296296],[0.25416666666666665,-0.2905555555555555],[0.23093750000000005,-0.25018518518518523],[0.23093750000000005,-0.25018518518518523],[0.22427083333333328,-0.21648148148148144],[0.21947916666666673,-0.17111111111111107],[0.21583333333333338,-0.14092592592592595],[0.20458333333333342,-0.1307407407407408],[0.20020833333333338,-0.1257407407407407],[0.19083333333333338,-0.13555555555555554],[0.20354166666666676,-0.11055555555555553],[0.22708333333333333,-0.10870370370370368],[0.22291666666666668,-0.11962962962962967],[0.2241666666666667,-0.12888888888888894],[0.20437500000000006,-0.13240740740740742],[0.20750000000000005,-0.15999999999999995],[0.19979166666666662,-0.19518518518518516],[0.20302083333333343,-0.20722222222222217],[0.18937499999999996,-0.1896296296296296],[0.18177083333333333,-0.17462962962962966],[0.16260416666666658,-0.17555555555555558],[0.13031249999999991,-0.17370370370370372],[0.14312500000000009,-0.17296296296296293],[0.16104166666666658,-0.16129629629629633],[0.17822916666666658,-0.15111111111111114],[0.15885416666666666,-0.1235185185185185],[0.15031249999999996,-0.0883333333333333],[0.13114583333333343,-0.06314814814814819],[0.11958333333333329,-0.07018518518518514],[0.11958333333333329,-0.07018518518518514],[0.1131249999999999,-0.0772222222222222],[0.08791666666666677,-0.07518518518518523],[0.05302083333333331,-0.05055555555555547],[-0.0005208333333333333,-0.02444444444444453],[-0.0005208333333333333,-0.02444444444444453],[-0.04104166666666664,-0.01962962962962967],[-0.06354166666666666,-0.04018518518518527],[-0.06354166666666666,-0.04018518518518527],[-0.05260416666666667,-0.056851851851851834],[-0.07354166666666669,-0.07259259259259257],[-0.09197916666666663,-0.09296296296296294],[-0.09197916666666663,-0.09296296296296294],[-0.0765625,-0.11074074074074076],[-0.07072916666666665,-0.10240740740740743],[-0.043020833333333286,-0.11370370370370367],[-0.043020833333333286,-0.11370370370370367],[-0.022916666666666665,-0.11814814814814817],[0.008645833333333287,-0.12222222222222222],[0.008645833333333287,-0.12222222222222222],[0.024062500000000025,-0.1522222222222222],[0.024062500000000025,-0.1522222222222222],[0.004479166666666619,-0.14592592592592596],[0.059791666666666646,-0.18055555555555555],[0.059791666666666646,-0.18055555555555555],[0.14697916666666658,-0.2161111111111111],[0.2085416666666667,-0.24222222222222226],[0.2085416666666667,-0.24222222222222226],[0.23635416666666675,-0.26666666666666666],[0.28322916666666675,-0.2887037037037037],[0.28322916666666675,-0.2887037037037037],[0.32697916666666677,-0.3001851851851852],[0.3632291666666667,-0.3207407407407407],[0.3876041666666666,-0.3611111111111111],[0.38937499999999997,-0.3675925925925926],[0.38937499999999997,-0.3675925925925926],[0.42604166666666665,-0.3925925925925926],[0.3793750000000001,-0.4053703703703703],[0.35177083333333337,-0.41351851851851856],[0.34489583333333323,-0.42296296296296293],[0.3420833333333334,-0.4403703703703704],[0.32364583333333335,-0.46888888888888886],[0.32364583333333335,-0.46888888888888886],[0.2886458333333332,-0.4690740740740741],[0.2886458333333332,-0.4690740740740741],[0.3030208333333334,-0.49018518518518517],[0.31885416666666655,-0.4938888888888889],[0.3498958333333334,-0.4968518518518519],[0.3498958333333334,-0.4968518518518519],[0.35822916666666677,-0.5029629629629631],[0.3844791666666666,-0.5144444444444445],[0.3797916666666666,-0.49740740740740746],[0.37510416666666657,-0.48037037037037034],[0.3787499999999999,-0.4735185185185185],[0.3787499999999999,-0.4735185185185185],[0.3823958333333332,-0.4666666666666667],[0.40302083333333344,-0.4809259259259259],[0.3844791666666666,-0.49611111111111106],[0.3844791666666666,-0.49611111111111106],[0.3767708333333334,-0.5168518518518519],[0.3629166666666668,-0.5287037037037037],[0.3507291666666667,-0.5046296296296297],[0.3321875000000001,-0.4677777777777778],[0.3255208333333333,-0.46407407407407414],[0.340625,-0.4572222222222222],[0.34562499999999996,-0.4287037037037037],[0.34562499999999996,-0.4287037037037037],[0.34406249999999994,-0.4383333333333333],[0.34406249999999994,-0.4383333333333333],[0.3341666666666666,-0.45333333333333337],[0.3341666666666666,-0.45333333333333337],[0.3273958333333333,-0.447037037037037],[0.3273958333333333,-0.447037037037037],[0.3102083333333333,-0.4316666666666667],[0.3102083333333333,-0.4316666666666667],[0.30656249999999996,-0.42462962962962963],[0.30656249999999996,-0.42462962962962963],[0.30979166666666674,-0.43407407407407406],[0.30979166666666674,-0.43407407407407406],[0.3086458333333333,-0.45185185185185184],[0.309375,-0.47018518518518515],[0.3086458333333333,-0.4848148148148148],[0.30499999999999994,-0.4994444444444444],[0.29666666666666663,-0.47555555555555556],[0.29625000000000007,-0.4535185185185185],[0.30927083333333344,-0.4433333333333333],[0.32083333333333336,-0.4346296296296296],[0.325,-0.4264814814814815],[0.3246875000000001,-0.43]]","[[0.1009375000000001,-0.28129629629629627,0.0003000001907338401],[0.1009375000000001,-0.28129629629629627,0.053099999904631545],[0.1009375000000001,-0.28129629629629627,0.05770000028609701],[0.1040625000000001,-0.2942592592592592,0.07440000009536618],[0.11635416666666672,-0.2903703703703704,0.09430000019072793],[0.11635416666666672,-0.2903703703703704,0.10770000028610127],[0.11500000000000009,-0.27611111111111114,0.12440000009536334],[0.11500000000000009,-0.27611111111111114,0.1410999999046325],[0.11916666666666677,-0.2853703703703704,0.15759999990462603],[0.1267708333333334,-0.30481481481481487,0.17420000028609905],[0.1267708333333334,-0.30481481481481487,0.1909999999999954],[0.11739583333333338,-0.2929629629629629,0.2075999999046303],[0.11708333333333343,-0.2801851851851852,0.22440000009536476],[0.11708333333333343,-0.2801851851851852,0.24109999990462683],[0.12708333333333333,-0.2772222222222222,0.25770000028609985],[0.13781249999999995,-0.2722222222222222,0.2774999999999963],[0.13989583333333327,-0.25277777777777777,0.2919000000953673],[0.14385416666666656,-0.24611111111111106,0.3087000002861018],[0.13093750000000004,-0.23166666666666672,0.32509999990463],[0.13093750000000004,-0.23166666666666672,0.340999999999994],[0.12625000000000006,-0.23981481481481481,0.35770000028610127],[0.13718750000000005,-0.24351851851851852,0.3749000000953657],[0.15052083333333333,-0.23740740740740737,0.3914999999999935],[0.16437499999999997,-0.23722222222222225,0.4118000001907305],[0.1650000000000001,-0.2338888888888889,0.4300999999046269],[0.1650000000000001,-0.2338888888888889,0.4409999999999954],[0.15177083333333338,-0.2418518518518519,0.4575999999046303],[0.1571875000000001,-0.24537037037037038,0.4810999999046288],[0.1571875000000001,-0.24537037037037038,0.4909000000953654],[0.14916666666666673,-0.257962962962963,0.5078000001907341],[0.14916666666666673,-0.257962962962963,0.5245999999046305],[0.15437500000000004,-0.26740740740740737,0.5409999999999968],[0.17260416666666673,-0.28592592592592586,0.562900000095361],[0.17260416666666673,-0.28592592592592586,0.5743000001907319],[0.1912499999999999,-0.3101851851851852,0.590999999999994],[0.1912499999999999,-0.3101851851851852,0.6075999999046289],[0.17822916666666658,-0.30333333333333334,0.6243000001907291],[0.17822916666666658,-0.30333333333333334,0.6410999999046325],[0.14989583333333342,-0.30111111111111116,0.657599999904626],[0.14989583333333342,-0.30111111111111116,0.6744000000953605],[0.14010416666666667,-0.2957407407407407,0.6909000000953611],[0.14010416666666667,-0.2957407407407407,0.7167000002860959],[0.11812500000000009,-0.2838888888888889,0.724499999999999],[0.11812500000000009,-0.2838888888888889,0.7412000002860992],[0.11906249999999995,-0.2366666666666667,0.7624999999999957],[0.11197916666666667,-0.24074074074074073,0.7779999999999987],[0.11687500000000005,-0.22166666666666665,0.7919000000953673],[0.10708333333333328,-0.2140740740740741,0.807700000286097],[0.09343750000000005,-0.17388888888888884,0.8274000000953663],[0.08718750000000004,-0.15055555555555558,0.8443000001907279],[0.10906250000000005,-0.16018518518518518,0.8585999999046265],[0.12770833333333323,-0.16018518518518518,0.8744999999999976],[0.12781250000000005,-0.1633333333333333,0.8945999999046279],[0.12781250000000005,-0.1633333333333333,0.9084000000953623],[0.14874999999999997,-0.16407407407407412,0.9243000001907333],[0.15677083333333333,-0.21240740740740738,0.9432000002860974],[0.15333333333333338,-0.20018518518518522,0.9603000001907347],[0.14854166666666657,-0.2044444444444444,0.9774999999999991],[0.1460416666666667,-0.19462962962962968,0.9930999999046293],[0.1462500000000001,-0.22925925925925927,1.0082000002861022],[0.13864583333333325,-0.24129629629629631,1.0282000002860983],[0.13864583333333325,-0.24129629629629631,1.0412000002860964],[0.13093750000000004,-0.2140740740740741,1.0578000001907313],[0.12916666666666668,-0.19425925925925921,1.0764000000953615],[0.12135416666666667,-0.16944444444444445,1.0944000000953622],[0.10041666666666677,-0.1403703703703704,1.111700000286099],[0.10041666666666677,-0.1403703703703704,1.1247000002860972],[0.084375,-0.11055555555555553,1.1409999999999982],[0.043020833333333286,-0.07148148148148152,1.1608000001907328],[0.008124999999999953,-0.051111111111111156,1.174200000286099],[-0.04468749999999998,-0.0005555555555554713,1.1909000000953611],[-0.09249999999999996,0.06314814814814819,1.207499999999996],[-0.1330208333333334,0.08833333333333342,1.2244000000953648],[-0.17541666666666664,0.09796296296296292,1.2417000002861016],[-0.2123958333333333,0.11351851851851844,1.2575999999046275],[-0.25510416666666663,0.13222222222222219,1.274400000095362],[-0.2789583333333333,0.1337037037037038,1.2909000000953625],[-0.2964583333333334,0.10444444444444441,1.307700000286097],[-0.2904166666666666,0.09222222222222214,1.3242000002860976],[-0.3081249999999999,0.09037037037037028,1.3414999999999964],[-0.30791666666666667,0.058333333333333334,1.3575999999046289],[-0.2924999999999999,0.02166666666666675,1.3748000001907315],[-0.2864583333333333,0.006111111111111027,1.390900000095364],[-0.3017708333333334,0.005000000000000084,1.407599999904626],[-0.3138541666666666,-0.0003703703703704546,1.424200000286099],[-0.30885416666666665,0.012407407407407492,1.441999999999993],[-0.3038541666666667,0.025185185185185227,1.4598000001907323],[-0.3085416666666667,0.04611111111111107,1.478200000286101],[-0.30895833333333333,0.044444444444444446,1.4944000000953608],[-0.28583333333333333,0.041111111111111195,1.5084000000953637],[-0.25843750000000004,0.030555555555555555,1.5242000002861005],[-0.24624999999999997,0.024629629629629547,1.5409999999999968],[-0.2007291666666667,0.003888888888888931,1.5575999999046317],[-0.14718749999999994,-0.039074074074074115,1.5744999999999933],[-0.14718749999999994,-0.039074074074074115,1.590999999999994],[-0.065625,-0.07092592592592595,1.6075999999046289],[-0.01729166666666669,-0.10796296296296298,1.624300000190729],[0.03104166666666662,-0.14500000000000002,1.6409999999999982],[0.0756249999999999,-0.1757407407407407,1.657599999904626],[0.10354166666666677,-0.20092592592592592,1.674200000286099],[0.13145833333333337,-0.22611111111111115,1.6909999999999954],[0.18635416666666677,-0.26722222222222225,1.707499999999996],[0.24552083333333338,-0.31851851851851853,1.7242000002860962],[0.253125,-0.3464814814814815,1.7573000001907317],[0.253125,-0.3464814814814815,1.7649999999999935],[0.27197916666666655,-0.3768518518518518,1.7743000001907347],[0.2609375,-0.4172222222222222,1.7909999999999968],[0.2568749999999999,-0.4788888888888889,1.8079000000953656],[0.25281250000000005,-0.5405555555555556,1.824300000190732],[0.24885416666666677,-0.5622222222222223,1.8422000002860983],[0.2585416666666667,-0.5911111111111111,1.8612000002860967],[0.2682291666666667,-0.62,1.877599999904632],[0.25,-0.6214814814814815,1.8918000001907345],[0.23072916666666668,-0.6140740740740741,1.9084999999999965],[0.25031249999999994,-0.5887037037037036,1.9272000002860992],[0.2586458333333333,-0.5751851851851852,1.9444000000953636],[0.2617708333333333,-0.5592592592592592,1.9607000002860957],[0.28583333333333344,-0.5431481481481482,1.9775999999046263],[0.3138541666666666,-0.5233333333333334,1.9939000000953655],[0.33718750000000003,-0.5174074074074073,2.0079999999999956],[0.33624999999999994,-0.5011111111111112,2.0253000001907324],[0.3341666666666666,-0.4696296296296297,2.043200000286099],[0.3384375000000001,-0.4390740740740741,2.059599999904627],[0.3394791666666668,-0.4072222222222222,2.074400000095366],[0.3219791666666666,-0.3844444444444445,2.0919999999999987],[0.3219791666666666,-0.3844444444444445,2.1077000002861013],[0.2939583333333334,-0.36629629629629634,2.1244000000953633],[0.2939583333333334,-0.36629629629629634,2.1410999999046325],[0.2734375,-0.3346296296296296,2.157599999904626],[0.25416666666666665,-0.2905555555555555,2.1744000000953605],[0.23093750000000005,-0.25018518518518523,2.191499999999998],[0.23093750000000005,-0.25018518518518523,2.213099999904628],[0.22427083333333328,-0.21648148148148144,2.2247000002860986],[0.21947916666666673,-0.17111111111111107,2.241499999999995],[0.21583333333333338,-0.14092592592592595,2.2575999999046275],[0.20458333333333342,-0.1307407407407408,2.2742000002861005],[0.20020833333333338,-0.1257407407407407,2.2909000000953625],[0.19083333333333338,-0.13555555555555554,2.3074999999999974],[0.20354166666666676,-0.11055555555555553,2.324300000190732],[0.22708333333333333,-0.10870370370370368,2.3429999999999964],[0.22291666666666668,-0.11962962962962967,2.358300000190731],[0.2241666666666667,-0.12888888888888894,2.374200000286102],[0.20437500000000006,-0.13240740740740742,2.3932000002861002],[0.20750000000000005,-0.15999999999999995,2.410499999999999],[0.19979166666666662,-0.19518518518518516,2.4247000002861014],[0.20302083333333343,-0.20722222222222217,2.441599999904632],[0.18937499999999996,-0.1896296296296296,2.45780000019073],[0.18177083333333333,-0.17462962962962966,2.4744000000953648],[0.16260416666666658,-0.17555555555555558,2.491800000190729],[0.13031249999999991,-0.17370370370370372,2.5098000001907295],[0.14312500000000009,-0.17296296296296293,2.5242000002861005],[0.16104166666666658,-0.16129629629629633,2.5454000000953627],[0.17822916666666658,-0.15111111111111114,2.5609000000953657],[0.15885416666666666,-0.1235185185185185,2.5775999999046277],[0.15031249999999996,-0.0883333333333333,2.5949000000953646],[0.13114583333333343,-0.06314814814814819,2.6104999999999947],[0.11958333333333329,-0.07018518518518514,2.627900000095366],[0.11958333333333329,-0.07018518518518514,2.6418000001907345],[0.1131249999999999,-0.0772222222222222,2.657599999904626],[0.08791666666666677,-0.07518518518518523,2.6769999999999996],[0.05302083333333331,-0.05055555555555547,2.6947000002860975],[-0.0005208333333333333,-0.02444444444444453,2.7124000000953643],[-0.0005208333333333333,-0.02444444444444453,2.7247000002860986],[-0.04104166666666664,-0.01962962962962967,2.7413000001907335],[-0.06354166666666666,-0.04018518518518527,2.76259999990463],[-0.06354166666666666,-0.04018518518518527,2.7743000001907347],[-0.05260416666666667,-0.056851851851851834,2.791099999904631],[-0.07354166666666669,-0.07259259259259257,2.8083000001907337],[-0.09197916666666663,-0.09296296296296294,2.8284999999999982],[-0.09197916666666663,-0.09296296296296294,2.8415999999046306],[-0.0765625,-0.11074074074074076,2.8603000001907333],[-0.07072916666666665,-0.10240740740740743,2.880599999904632],[-0.043020833333333286,-0.11370370370370367,2.8959999999999937],[-0.043020833333333286,-0.11370370370370367,2.9078000001907327],[-0.022916666666666665,-0.11814814814814817,2.9244999999999948],[0.008645833333333287,-0.12222222222222222,2.943499999999993],[0.008645833333333287,-0.12222222222222222,2.95780000019073],[0.024062500000000025,-0.1522222222222222,2.974599999904626],[0.024062500000000025,-0.1522222222222222,2.9909999999999997],[0.004479166666666619,-0.14592592592592596,3.011400000095364],[0.059791666666666646,-0.18055555555555555,3.0283000001907325],[0.059791666666666646,-0.18055555555555555,3.041099999904631],[0.14697916666666658,-0.2161111111111111,3.057700000286097],[0.2085416666666667,-0.24222222222222226,3.0772000002860977],[0.2085416666666667,-0.24222222222222226,3.0922000002860983],[0.23635416666666675,-0.26666666666666666,3.1077000002861013],[0.28322916666666675,-0.2887037037037037,3.1284999999999954],[0.28322916666666675,-0.2887037037037037,3.1410999999046325],[0.32697916666666677,-0.3001851851851852,3.1578000001907327],[0.3632291666666667,-0.3207407407407407,3.1743000001907333],[0.3876041666666666,-0.3611111111111111,3.1918000001907316],[0.38937499999999997,-0.3675925925925926,3.2134999999999962],[0.38937499999999997,-0.3675925925925926,3.2243000001907305],[0.42604166666666665,-0.3925925925925926,3.241099999904627],[0.3793750000000001,-0.4053703703703703,3.2612000002860952],[0.35177083333333337,-0.41351851851851856,3.2779999999999987],[0.34489583333333323,-0.42296296296296293,3.2953000001907284],[0.3420833333333334,-0.4403703703703704,3.3127000002860996],[0.32364583333333335,-0.46888888888888886,3.3279000000953616],[0.32364583333333335,-0.46888888888888886,3.340999999999994],[0.2886458333333332,-0.4690740740740741,3.357599999904629],[0.2886458333333332,-0.4690740740740741,3.374300000190729],[0.3030208333333334,-0.49018518518518517,3.3909999999999982],[0.31885416666666655,-0.4938888888888889,3.4078000001907327],[0.3498958333333334,-0.4968518518518519,3.424200000286099],[0.3498958333333334,-0.4968518518518519,3.4409999999999954],[0.35822916666666677,-0.5029629629629631,3.4575999999046303],[0.3844791666666666,-0.5144444444444445,3.474499999999999],[0.3797916666666666,-0.49740740740740746,3.4909000000953654],[0.37510416666666657,-0.48037037037037034,3.5117000002860976],[0.3787499999999999,-0.4735185185185185,3.527400000095362],[0.3787499999999999,-0.4735185185185185,3.541099999904631],[0.3823958333333332,-0.4666666666666667,3.557700000286097],[0.40302083333333344,-0.4809259259259259,3.574300000190732],[0.3844791666666666,-0.49611111111111106,3.5922000002860983],[0.3844791666666666,-0.49611111111111106,3.6074999999999946],[0.3767708333333334,-0.5168518518518519,3.624200000286102],[0.3629166666666668,-0.5287037037037037,3.6417000002861],[0.3507291666666667,-0.5046296296296297,3.658200000286101],[0.3321875000000001,-0.4677777777777778,3.674200000286099],[0.3255208333333333,-0.46407407407407414,3.691900000095366],[0.340625,-0.4572222222222222,3.7083000001907322],[0.34562499999999996,-0.4287037037037037,3.7243000001907305],[0.34562499999999996,-0.4287037037037037,3.7409999999999997],[0.34406249999999994,-0.4383333333333333,3.7627000002860953],[0.34406249999999994,-0.4383333333333333,3.774400000095362],[0.3341666666666666,-0.45333333333333337,3.790999999999997],[0.3341666666666666,-0.45333333333333337,3.813300000190729],[0.3273958333333333,-0.447037037037037,3.8249000000953615],[0.3273958333333333,-0.447037037037037,3.8410999999046282],[0.3102083333333333,-0.4316666666666667,3.8577000002861013],[0.3102083333333333,-0.4316666666666667,3.874200000286102],[0.30656249999999996,-0.42462962962962963,3.9124999999999943],[0.30656249999999996,-0.42462962962962963,3.9203000001907284],[0.30979166666666674,-0.43407407407407406,3.9307000002861017],[0.30979166666666674,-0.43407407407407406,3.9409999999999954],[0.3086458333333333,-0.45185185185185184,3.9580999999046256],[0.309375,-0.47018518518518515,3.9743000001907305],[0.3086458333333333,-0.4848148148148148,3.9909999999999997],[0.30499999999999994,-0.4994444444444444,4.007499999999993],[0.29666666666666663,-0.47555555555555556,4.024400000095362],[0.29625000000000007,-0.4535185185185185,4.041400000095365],[0.30927083333333344,-0.4433333333333333,4.057599999904632],[0.32083333333333336,-0.4346296296296296,4.074499999999993],[0.325,-0.4264814814814815,4.090999999999994],[0.3246875000000001,-0.43,4.108700000286099]]","[0.0003000001907338401,0.053099999904631545,0.05770000028609701,0.07440000009536618,0.09430000019072793,0.10770000028610127,0.12440000009536334,0.1410999999046325,0.15759999990462603,0.17420000028609905,0.1909999999999954,0.2075999999046303,0.22440000009536476,0.24109999990462683,0.25770000028609985,0.2774999999999963,0.2919000000953673,0.3087000002861018,0.32509999990463,0.340999999999994,0.35770000028610127,0.3749000000953657,0.3914999999999935,0.4118000001907305,0.4300999999046269,0.4409999999999954,0.4575999999046303,0.4810999999046288,0.4909000000953654,0.5078000001907341,0.5245999999046305,0.5409999999999968,0.562900000095361,0.5743000001907319,0.590999999999994,0.6075999999046289,0.6243000001907291,0.6410999999046325,0.657599999904626,0.6744000000953605,0.6909000000953611,0.7167000002860959,0.724499999999999,0.7412000002860992,0.7624999999999957,0.7779999999999987,0.7919000000953673,0.807700000286097,0.8274000000953663,0.8443000001907279,0.8585999999046265,0.8744999999999976,0.8945999999046279,0.9084000000953623,0.9243000001907333,0.9432000002860974,0.9603000001907347,0.9774999999999991,0.9930999999046293,1.0082000002861022,1.0282000002860983,1.0412000002860964,1.0578000001907313,1.0764000000953615,1.0944000000953622,1.111700000286099,1.1247000002860972,1.1409999999999982,1.1608000001907328,1.174200000286099,1.1909000000953611,1.207499999999996,1.2244000000953648,1.2417000002861016,1.2575999999046275,1.274400000095362,1.2909000000953625,1.307700000286097,1.3242000002860976,1.3414999999999964,1.3575999999046289,1.3748000001907315,1.390900000095364,1.407599999904626,1.424200000286099,1.441999999999993,1.4598000001907323,1.478200000286101,1.4944000000953608,1.5084000000953637,1.5242000002861005,1.5409999999999968,1.5575999999046317,1.5744999999999933,1.590999999999994,1.6075999999046289,1.624300000190729,1.6409999999999982,1.657599999904626,1.674200000286099,1.6909999999999954,1.707499999999996,1.7242000002860962,1.7573000001907317,1.7649999999999935,1.7743000001907347,1.7909999999999968,1.8079000000953656,1.824300000190732,1.8422000002860983,1.8612000002860967,1.877599999904632,1.8918000001907345,1.9084999999999965,1.9272000002860992,1.9444000000953636,1.9607000002860957,1.9775999999046263,1.9939000000953655,2.0079999999999956,2.0253000001907324,2.043200000286099,2.059599999904627,2.074400000095366,2.0919999999999987,2.1077000002861013,2.1244000000953633,2.1410999999046325,2.157599999904626,2.1744000000953605,2.191499999999998,2.213099999904628,2.2247000002860986,2.241499999999995,2.2575999999046275,2.2742000002861005,2.2909000000953625,2.3074999999999974,2.324300000190732,2.3429999999999964,2.358300000190731,2.374200000286102,2.3932000002861002,2.410499999999999,2.4247000002861014,2.441599999904632,2.45780000019073,2.4744000000953648,2.491800000190729,2.5098000001907295,2.5242000002861005,2.5454000000953627,2.5609000000953657,2.5775999999046277,2.5949000000953646,2.6104999999999947,2.627900000095366,2.6418000001907345,2.657599999904626,2.6769999999999996,2.6947000002860975,2.7124000000953643,2.7247000002860986,2.7413000001907335,2.76259999990463,2.7743000001907347,2.791099999904631,2.8083000001907337,2.8284999999999982,2.8415999999046306,2.8603000001907333,2.880599999904632,2.8959999999999937,2.9078000001907327,2.9244999999999948,2.943499999999993,2.95780000019073,2.974599999904626,2.9909999999999997,3.011400000095364,3.0283000001907325,3.041099999904631,3.057700000286097,3.0772000002860977,3.0922000002860983,3.1077000002861013,3.1284999999999954,3.1410999999046325,3.1578000001907327,3.1743000001907333,3.1918000001907316,3.2134999999999962,3.2243000001907305,3.241099999904627,3.2612000002860952,3.2779999999999987,3.2953000001907284,3.3127000002860996,3.3279000000953616,3.340999999999994,3.357599999904629,3.374300000190729,3.3909999999999982,3.4078000001907327,3.424200000286099,3.4409999999999954,3.4575999999046303,3.474499999999999,3.4909000000953654,3.5117000002860976,3.527400000095362,3.541099999904631,3.557700000286097,3.574300000190732,3.5922000002860983,3.6074999999999946,3.624200000286102,3.6417000002861,3.658200000286101,3.674200000286099,3.691900000095366,3.7083000001907322,3.7243000001907305,3.7409999999999997,3.7627000002860953,3.774400000095362,3.790999999999997,3.813300000190729,3.8249000000953615,3.8410999999046282,3.8577000002861013,3.874200000286102,3.9124999999999943,3.9203000001907284,3.9307000002861017,3.9409999999999954,3.9580999999046256,3.9743000001907305,3.9909999999999997,4.007499999999993,4.024400000095362,4.041400000095365,4.057599999904632,4.074499999999993,4.090999999999994,4.108700000286099]","[1732165109054,1732165109096,1732165109101,1732165109118,1732165109138,1732165109151,1732165109168,1732165109185,1732165109201,1732165109218,1732165109234,1732165109251,1732165109268,1732165109284,1732165109301,1732165109321,1732165109335,1732165109352,1732165109368,1732165109384,1732165109401,1732165109418,1732165109435,1732165109455,1732165109473,1732165109484,1732165109501,1732165109525,1732165109534,1732165109551,1732165109568,1732165109584,1732165109606,1732165109618,1732165109634,1732165109651,1732165109668,1732165109684,1732165109701,1732165109718,1732165109734,1732165109760,1732165109768,1732165109785,1732165109806,1732165109821,1732165109835,1732165109851,1732165109871,1732165109888,1732165109902,1732165109918,1732165109938,1732165109952,1732165109968,1732165109987,1732165110004,1732165110021,1732165110037,1732165110052,1732165110072,1732165110085,1732165110101,1732165110120,1732165110138,1732165110155,1732165110168,1732165110184,1732165110204,1732165110218,1732165110234,1732165110251,1732165110268,1732165110285,1732165110301,1732165110318,1732165110334,1732165110351,1732165110368,1732165110385,1732165110401,1732165110418,1732165110434,1732165110451,1732165110468,1732165110485,1732165110503,1732165110522,1732165110538,1732165110552,1732165110568,1732165110584,1732165110601,1732165110618,1732165110634,1732165110651,1732165110668,1732165110684,1732165110701,1732165110718,1732165110734,1732165110751,1732165110768,1732165110801,1732165110808,1732165110818,1732165110834,1732165110851,1732165110868,1732165110886,1732165110905,1732165110921,1732165110935,1732165110952,1732165110971,1732165110988,1732165111004,1732165111021,1732165111037,1732165111051,1732165111069,1732165111087,1732165111103,1732165111118,1732165111135,1732165111151,1732165111168,1732165111184,1732165111201,1732165111218,1732165111235,1732165111256,1732165111268,1732165111285,1732165111301,1732165111318,1732165111334,1732165111351,1732165111368,1732165111386,1732165111402,1732165111418,1732165111437,1732165111454,1732165111468,1732165111485,1732165111501,1732165111518,1732165111535,1732165111553,1732165111568,1732165111589,1732165111604,1732165111621,1732165111638,1732165111654,1732165111671,1732165111685,1732165111701,1732165111720,1732165111738,1732165111756,1732165111768,1732165111785,1732165111806,1732165111818,1732165111834,1732165111852,1732165111872,1732165111885,1732165111904,1732165111924,1732165111939,1732165111951,1732165111968,1732165111987,1732165112001,1732165112018,1732165112034,1732165112055,1732165112072,1732165112085,1732165112101,1732165112120,1732165112136,1732165112151,1732165112172,1732165112185,1732165112201,1732165112218,1732165112235,1732165112257,1732165112268,1732165112284,1732165112305,1732165112321,1732165112339,1732165112356,1732165112371,1732165112384,1732165112401,1732165112418,1732165112434,1732165112451,1732165112468,1732165112484,1732165112501,1732165112518,1732165112534,1732165112555,1732165112571,1732165112584,1732165112601,1732165112618,1732165112636,1732165112651,1732165112668,1732165112685,1732165112702,1732165112718,1732165112735,1732165112752,1732165112768,1732165112784,1732165112806,1732165112818,1732165112834,1732165112857,1732165112868,1732165112885,1732165112901,1732165112918,1732165112956,1732165112964,1732165112974,1732165112984,1732165113001,1732165113018,1732165113034,1732165113051,1732165113068,1732165113085,1732165113101,1732165113118,1732165113134,1732165113152]","[[1056.9,388.1],[1056.9,388.1],[1056.9,388.1],[1059.9,381.1],[1071.7,383.2],[1071.7,383.2],[1070.4,390.9],[1070.4,390.9],[1074.4,385.9],[1081.7,375.4],[1081.7,375.4],[1072.7,381.8],[1072.4,388.7],[1072.4,388.7],[1082,390.3],[1092.3,393],[1094.3,403.5],[1098.1,407.1],[1085.7,414.9],[1085.7,414.9],[1081.2,410.5],[1091.7,408.5],[1104.5,411.8],[1117.8,411.9],[1118.4,413.7],[1118.4,413.7],[1105.7,409.4],[1110.9,407.5],[1110.9,407.5],[1103.2,400.7],[1103.2,400.7],[1108.2,395.6],[1125.7,385.6],[1125.7,385.6],[1143.6,372.5],[1143.6,372.5],[1131.1,376.2],[1131.1,376.2],[1103.9,377.4],[1103.9,377.4],[1094.5,380.3],[1094.5,380.3],[1073.4,386.7],[1073.4,386.7],[1074.3,412.2],[1067.5,410],[1072.2,420.3],[1062.8,424.4],[1049.7,446.1],[1043.7,458.7],[1064.7,453.5],[1082.6,453.5],[1082.7,451.8],[1082.7,451.8],[1102.8,451.4],[1110.5,425.3],[1107.2,431.9],[1102.6,429.6],[1100.2,434.9],[1100.4,416.2],[1093.1,409.7],[1093.1,409.7],[1085.7,424.4],[1084,435.1],[1076.5,448.5],[1056.4,464.2],[1056.4,464.2],[1041,480.3],[1001.3,501.4],[967.8,512.4],[917.1,539.7],[871.2,574.1],[832.3,587.7],[791.6,592.9],[756.1,601.3],[715.1,611.4],[692.2,612.2],[675.4,596.4],[681.2,589.8],[664.2,588.8],[664.4,571.5],[679.2,551.7],[685,543.3],[670.3,542.7],[658.7,539.8],[663.5,546.7],[668.3,553.6],[663.8,564.9],[663.4,564],[685.6,562.2],[711.9,556.5],[723.6,553.3],[767.3,542.1],[818.7,518.9],[818.7,518.9],[897,501.7],[943.4,481.7],[989.8,461.7],[1032.6,445.1],[1059.4,431.5],[1086.2,417.9],[1138.9,395.7],[1195.7,368],[1203,352.9],[1203,352.9],[1221.1,336.5],[1210.5,314.7],[1206.6,281.4],[1202.7,248.1],[1198.9,236.4],[1208.2,220.8],[1217.5,205.2],[1200,204.4],[1181.5,208.4],[1200.3,222.1],[1208.3,229.4],[1211.3,238],[1234.4,246.7],[1261.3,257.4],[1283.7,260.6],[1282.8,269.4],[1280.8,286.4],[1284.9,302.9],[1285.9,320.1],[1269.1,332.4],[1269.1,332.4],[1242.2,342.2],[1242.2,342.2],[1222.5,359.3],[1204,383.1],[1181.7,404.9],[1181.7,404.9],[1175.3,423.1],[1170.7,447.6],[1167.2,463.9],[1156.4,469.4],[1152.2,472.1],[1143.2,466.8],[1155.4,480.3],[1178,481.3],[1174,475.4],[1175.2,470.4],[1156.2,468.5],[1159.2,453.6],[1151.8,434.6],[1154.9,428.1],[1141.8,437.6],[1134.5,445.7],[1116.1,445.2],[1085.1,446.2],[1097.4,446.6],[1114.6,452.9],[1131.1,458.4],[1112.5,473.3],[1104.3,492.3],[1085.9,505.9],[1074.8,502.1],[1074.8,502.1],[1068.6,498.3],[1044.4,499.4],[1010.9,512.7],[959.5,526.8],[959.5,526.8],[920.6,529.4],[899,518.3],[899,518.3],[909.5,509.3],[889.4,500.8],[871.7,489.8],[871.7,489.8],[886.5,480.2],[892.1,484.7],[918.7,478.6],[918.7,478.6],[938,476.2],[968.3,474],[968.3,474],[983.1,457.8],[983.1,457.8],[964.3,461.2],[1017.4,442.5],[1017.4,442.5],[1101.1,423.3],[1160.2,409.2],[1160.2,409.2],[1186.9,396],[1231.9,384.1],[1231.9,384.1],[1273.9,377.9],[1308.7,366.8],[1332.1,345],[1333.8,341.5],[1333.8,341.5],[1369,328],[1324.2,321.1],[1297.7,316.7],[1291.1,311.6],[1288.4,302.2],[1270.7,286.8],[1270.7,286.8],[1237.1,286.7],[1237.1,286.7],[1250.9,275.3],[1266.1,273.3],[1295.9,271.7],[1295.9,271.7],[1303.9,268.4],[1329.1,262.2],[1324.6,271.4],[1320.1,280.6],[1323.6,284.3],[1323.6,284.3],[1327.1,288],[1346.9,280.3],[1329.1,272.1],[1329.1,272.1],[1321.7,260.9],[1308.4,254.5],[1296.7,267.5],[1278.9,287.4],[1272.5,289.4],[1287,293.1],[1291.8,308.5],[1291.8,308.5],[1290.3,303.3],[1290.3,303.3],[1280.8,295.2],[1280.8,295.2],[1274.3,298.6],[1274.3,298.6],[1257.8,306.9],[1257.8,306.9],[1254.3,310.7],[1254.3,310.7],[1257.4,305.6],[1257.4,305.6],[1256.3,296],[1257,286.1],[1256.3,278.2],[1252.8,270.3],[1244.8,283.2],[1244.4,295.1],[1256.9,300.6],[1268,305.3],[1272,309.7],[1271.7,307.8]]","[-0.142,0.42599999999999993]","[0.142,0.42599999999999993]","[0.42599999999999993,0.42599999999999993]","[-0.42599999999999993,-0.42599999999999993]","[-0.42599999999999993,0.142]","[-0.42599999999999993,-0.142]","[-0.142,-0.42599999999999993]","[0.142,-0.42599999999999993]","[0.42599999999999993,-0.42599999999999993]","[-0.142,0.142]","[0.142,0.142]","[0.42599999999999993,0.142]","[-0.142,-0.142]","[0.142,-0.142]","[0.42599999999999993,-0.142]",0,0,0,0,1,1,Laptop,20,20,7,2,70,4,2,70,4
,,,,,,,,,,,,,,,,,,,06,001,2024-11-21_12h57.44.752,Attention_exp_legacy,2023.1.0,Win32,59.88023952,,,,,,,,,,,[0.13125],[0.3907407407407407],[1],[0],[0],[2.127199999809264],"[""Metro_label""]",Metro_label,2,3.132,"[[0.12083333333333333,0.4222222222222222],[0.12083333333333333,0.4222222222222222],[0.12083333333333333,0.4222222222222222],[0.12083333333333333,0.4222222222222222],[0.12083333333333333,0.4222222222222222],[0.12083333333333333,0.4222222222222222],[0.12083333333333333,0.4222222222222222],[0.12083333333333333,0.4222222222222222],[0.12083333333333333,0.4222222222222222],[0.12083333333333333,0.4222222222222222],[0.12083333333333333,0.4222222222222222],[0.12083333333333333,0.4222222222222222],[0.12083333333333333,0.4222222222222222],[0.12083333333333333,0.4222222222222222],[0.12083333333333333,0.4222222222222222],[0.12083333333333333,0.4222222222222222],[0.12083333333333333,0.4222222222222222],[0.12083333333333333,0.4222222222222222],[0.12083333333333333,0.4222222222222222],[0.12083333333333333,0.4222222222222222],[0.12083333333333333,0.4185185185185185],[0.12291666666666666,0.412962962962963],[0.125,0.4074074074074074],[0.12604166666666666,0.40185185185185185],[0.12708333333333333,0.3962962962962963],[0.128125,0.39444444444444443],[0.128125,0.39444444444444443],[0.128125,0.3925925925925926],[0.128125,0.3925925925925926],[0.128125,0.3925925925925926],[0.128125,0.3925925925925926],[0.128125,0.3925925925925926],[0.128125,0.3925925925925926],[0.128125,0.3925925925925926],[0.128125,0.3925925925925926],[0.128125,0.3925925925925926],[0.128125,0.3925925925925926],[0.128125,0.3925925925925926],[0.128125,0.3925925925925926],[0.128125,0.3925925925925926],[0.128125,0.3925925925925926],[0.128125,0.3925925925925926],[0.128125,0.3925925925925926],[0.128125,0.3925925925925926],[0.128125,0.3925925925925926],[0.128125,0.3925925925925926],[0.128125,0.3925925925925926],[0.128125,0.3925925925925926],[0.128125,0.3925925925925926],[0.128125,0.3925925925925926],[0.128125,0.3925925925925926],[0.128125,0.3925925925925926],[0.128125,0.3925925925925926],[0.128125,0.3925925925925926],[0.128125,0.3925925925925926],[0.128125,0.3925925925925926],[0.128125,0.3925925925925926],[0.128125,0.3925925925925926],[0.128125,0.3925925925925926],[0.128125,0.3925925925925926],[0.128125,0.3925925925925926],[0.128125,0.3925925925925926],[0.128125,0.3925925925925926],[0.128125,0.3925925925925926],[0.128125,0.3925925925925926],[0.128125,0.3925925925925926],[0.128125,0.3925925925925926],[0.128125,0.3925925925925926],[0.128125,0.3925925925925926],[0.128125,0.3925925925925926],[0.128125,0.3925925925925926],[0.128125,0.3925925925925926],[0.128125,0.3925925925925926],[0.128125,0.3925925925925926],[0.128125,0.3925925925925926],[0.128125,0.3925925925925926],[0.128125,0.3925925925925926],[0.128125,0.3925925925925926],[0.128125,0.3925925925925926],[0.128125,0.3925925925925926],[0.128125,0.3925925925925926],[0.128125,0.3925925925925926],[0.128125,0.3925925925925926],[0.128125,0.3925925925925926],[0.128125,0.3925925925925926],[0.128125,0.3925925925925926],[0.128125,0.3925925925925926],[0.128125,0.3925925925925926],[0.128125,0.3925925925925926],[0.128125,0.3925925925925926],[0.128125,0.3925925925925926],[0.128125,0.3925925925925926],[0.128125,0.3925925925925926],[0.128125,0.3925925925925926],[0.128125,0.3925925925925926],[0.128125,0.3925925925925926],[0.128125,0.3925925925925926],[0.128125,0.3925925925925926],[0.128125,0.3925925925925926],[0.128125,0.3925925925925926],[0.128125,0.3925925925925926],[0.128125,0.3925925925925926],[0.128125,0.3925925925925926],[0.128125,0.3925925925925926],[0.128125,0.3925925925925926],[0.128125,0.3925925925925926],[0.128125,0.3925925925925926],[0.128125,0.3925925925925926],[0.128125,0.3925925925925926],[0.128125,0.3925925925925926],[0.128125,0.3925925925925926],[0.128125,0.3925925925925926],[0.128125,0.3925925925925926],[0.128125,0.3925925925925926],[0.128125,0.3925925925925926],[0.128125,0.3925925925925926],[0.128125,0.3925925925925926],[0.128125,0.3925925925925926],[0.128125,0.3925925925925926],[0.128125,0.3925925925925926],[0.128125,0.3925925925925926],[0.128125,0.3925925925925926],[0.128125,0.3925925925925926],[0.128125,0.3925925925925926],[0.128125,0.3925925925925926],[0.128125,0.3925925925925926],[0.128125,0.3925925925925926],[0.128125,0.3907407407407407],[0.13125,0.3907407407407407],[0.13125,0.3907407407407407],[0.13333333333333333,0.3907407407407407],[0.13333333333333333,0.3907407407407407],[0.13333333333333333,0.3907407407407407],[0.13333333333333333,0.3907407407407407],[0.13333333333333333,0.3907407407407407],[0.13333333333333333,0.3907407407407407],[0.13333333333333333,0.3907407407407407],[0.13333333333333333,0.3907407407407407],[0.13333333333333333,0.3907407407407407],[0.13333333333333333,0.3907407407407407],[0.13333333333333333,0.3907407407407407],[0.13333333333333333,0.3907407407407407],[0.13333333333333333,0.3907407407407407],[0.13333333333333333,0.3907407407407407],[0.13333333333333333,0.3907407407407407],[0.13333333333333333,0.3907407407407407],[0.13333333333333333,0.3907407407407407],[0.13333333333333333,0.3907407407407407],[0.13333333333333333,0.3907407407407407],[0.13333333333333333,0.3907407407407407],[0.13333333333333333,0.3907407407407407],[0.13333333333333333,0.3907407407407407],[0.13333333333333333,0.3907407407407407],[0.13333333333333333,0.3907407407407407],[0.13333333333333333,0.3907407407407407],[0.13333333333333333,0.3907407407407407],[0.13333333333333333,0.3907407407407407],[0.13333333333333333,0.3907407407407407],[0.13333333333333333,0.3907407407407407],[0.13333333333333333,0.3907407407407407],[0.13333333333333333,0.3907407407407407],[0.13333333333333333,0.3907407407407407],[0.13333333333333333,0.3907407407407407],[0.13333333333333333,0.3907407407407407],[0.13333333333333333,0.3907407407407407],[0.13333333333333333,0.3907407407407407],[0.13333333333333333,0.3907407407407407],[0.13333333333333333,0.3907407407407407],[0.13333333333333333,0.3907407407407407],[0.13333333333333333,0.3907407407407407],[0.13333333333333333,0.3907407407407407],[0.13333333333333333,0.3907407407407407],[0.13333333333333333,0.3907407407407407],[0.13333333333333333,0.3907407407407407],[0.13333333333333333,0.3907407407407407],[0.13333333333333333,0.3907407407407407],[0.13333333333333333,0.3907407407407407],[0.13333333333333333,0.3907407407407407],[0.13333333333333333,0.3907407407407407],[0.13333333333333333,0.3907407407407407],[0.13333333333333333,0.3907407407407407],[0.13333333333333333,0.3907407407407407],[0.13333333333333333,0.3907407407407407],[0.13333333333333333,0.3907407407407407],[0.13333333333333333,0.3907407407407407],[0.13333333333333333,0.3907407407407407],[0.13333333333333333,0.3907407407407407],[0.13333333333333333,0.3907407407407407],[0.13333333333333333,0.3907407407407407]]","[[0.0390625,-0.34740740740740744],[0.0390625,-0.34740740740740744],[0.02645833333333331,-0.3725925925925926],[0.014791666666666713,-0.42462962962962963],[0.014791666666666713,-0.42462962962962963],[0.014791666666666713,-0.422037037037037],[0.027187500000000024,-0.41092592592592586],[0.03958333333333333,-0.3998148148148148],[0.0703125,-0.38740740740740737],[0.08770833333333337,-0.387037037037037],[0.10520833333333333,-0.39037037037037037],[0.08447916666666658,-0.38370370370370366],[0.06375000000000004,-0.37703703703703706],[0.10604166666666662,-0.38629629629629636],[0.10604166666666662,-0.38629629629629636],[0.15812499999999996,-0.37],[0.20562500000000009,-0.37222222222222223],[0.21979166666666666,-0.38555555555555554],[0.23395833333333324,-0.39888888888888885],[0.22999999999999995,-0.4022222222222222],[0.22999999999999995,-0.4022222222222222],[0.23385416666666667,-0.4022222222222222],[0.2118750000000001,-0.4044444444444444],[0.2,-0.4083333333333333],[0.2,-0.4083333333333333],[0.19302083333333328,-0.3851851851851852],[0.17739583333333328,-0.36314814814814816],[0.16177083333333328,-0.3411111111111111],[0.14427083333333332,-0.3490740740740741],[0.13031249999999991,-0.3266666666666666],[0.12239583333333333,-0.3051851851851852],[0.11749999999999995,-0.277962962962963],[0.10364583333333334,-0.2609259259259259],[0.10604166666666662,-0.24222222222222226],[0.10843749999999991,-0.2235185185185185],[0.10062499999999991,-0.23592592592592587],[0.0921875,-0.25333333333333335],[0.0921875,-0.25333333333333335],[0.09416666666666676,-0.2687037037037037],[0.08510416666666672,-0.26648148148148143],[0.07604166666666666,-0.26425925925925925],[0.0640625,-0.27759259259259256],[0.05364583333333333,-0.29611111111111105],[0.05364583333333333,-0.29611111111111105],[0.05270833333333336,-0.2831481481481481],[0.05322916666666669,-0.2698148148148148],[0.022395833333333334,-0.25629629629629624],[-0.003125,-0.23870370370370367],[-0.04010416666666667,-0.1911111111111111],[-0.08843749999999997,-0.14351851851851852],[-0.08843749999999997,-0.14351851851851852],[-0.10874999999999997,-0.11425925925925924],[-0.121875,-0.0787037037037037],[-0.121875,-0.0787037037037037],[-0.13812500000000003,-0.026666666666666623],[-0.1686458333333333,0.020555555555555598],[-0.19239583333333338,0.032037037037036954],[-0.19239583333333338,0.032037037037036954],[-0.21760416666666665,0.04314814814814806],[-0.21760416666666665,0.04314814814814806],[-0.22552083333333334,0.0772222222222223],[-0.22552083333333334,0.0772222222222223],[-0.24906250000000002,0.08962962962962959],[-0.2203125,0.0698148148148149],[-0.18416666666666662,0.030740740740740784],[-0.18416666666666662,0.030740740740740784],[-0.1452083333333333,0.012777777777777735],[-0.10614583333333331,-0.020185185185185143],[-0.07062499999999995,-0.04148148148148144],[-0.020833333333333332,-0.05796296296296299],[0.026145833333333358,-0.1],[0.07312500000000005,-0.14203703703703702],[0.1318749999999999,-0.18407407407407403],[0.1318749999999999,-0.18407407407407403],[0.22104166666666672,-0.19037037037037038],[0.2603125000000001,-0.19740740740740745],[0.2756249999999999,-0.20037037037037034],[0.2696875000000001,-0.21481481481481482],[0.2696875000000001,-0.21481481481481482],[0.2598958333333333,-0.21629629629629632],[0.26583333333333337,-0.24685185185185188],[0.2720833333333334,-0.2770370370370371],[0.2720833333333334,-0.2770370370370371],[0.27395833333333336,-0.2687037037037037],[0.2639583333333334,-0.2485185185185185],[0.2639583333333334,-0.2485185185185185],[0.2609375,-0.247037037037037],[0.23770833333333338,-0.2668518518518519],[0.22208333333333338,-0.2722222222222222],[0.21760416666666677,-0.26129629629629636],[0.21760416666666677,-0.26129629629629636],[0.2131249999999999,-0.25037037037037035],[0.22947916666666662,-0.26962962962962966],[0.23364583333333327,-0.27148148148148155],[0.22447916666666667,-0.26481481481481484],[0.21531250000000005,-0.2581481481481481],[0.23395833333333324,-0.2712962962962963],[0.24333333333333323,-0.30166666666666664],[0.2693749999999999,-0.3153703703703704],[0.2693749999999999,-0.3153703703703704],[0.296875,-0.3405555555555555],[0.296875,-0.3405555555555555],[0.32177083333333345,-0.36740740740740735],[0.32177083333333345,-0.36740740740740735],[0.3451041666666666,-0.40425925925925926],[0.3451041666666666,-0.40425925925925926],[0.3419791666666666,-0.3905555555555555],[0.3419791666666666,-0.3905555555555555],[0.35270833333333323,-0.3894444444444445],[0.35270833333333323,-0.3894444444444445],[0.36656250000000007,-0.3925925925925926],[0.3733333333333334,-0.4096296296296296],[0.3733333333333334,-0.4096296296296296],[0.3641666666666666,-0.41870370370370374],[0.34916666666666674,-0.40499999999999997],[0.3229166666666667,-0.4007407407407407],[0.29666666666666663,-0.39648148148148155],[0.2869791666666667,-0.40481481481481485],[0.27458333333333323,-0.39666666666666667],[0.27458333333333323,-0.39666666666666667],[0.26437499999999997,-0.4131481481481482],[0.23041666666666671,-0.40611111111111114],[0.1946875000000001,-0.37907407407407406],[0.16604166666666675,-0.3381481481481482],[0.14635416666666667,-0.29555555555555557],[0.14197916666666663,-0.2564814814814815],[0.14197916666666663,-0.2564814814814815],[0.11906249999999995,-0.2322222222222222],[0.10458333333333343,-0.22166666666666665],[0.08250000000000005,-0.2],[0.06468750000000002,-0.18481481481481485],[0.05135416666666662,-0.17074074074074072],[0.04791666666666667,-0.1675925925925926],[0.04791666666666667,-0.1675925925925926],[0.04583333333333333,-0.17481481481481478],[0.04479166666666667,-0.20259259259259255],[0.034791666666666644,-0.23203703703703707],[0.013541666666666667,-0.25685185185185183],[0.01083333333333331,-0.2668518518518519],[-0.006562499999999953,-0.26425925925925925],[-0.023958333333333335,-0.2616666666666667],[-0.04708333333333338,-0.2535185185185185],[-0.05927083333333331,-0.2727777777777778],[-0.06749999999999995,-0.29962962962962963],[-0.07354166666666669,-0.32166666666666666],[-0.08062499999999997,-0.32314814814814813],[-0.11010416666666671,-0.3424074074074074],[-0.13322916666666665,-0.3727777777777778],[-0.16989583333333336,-0.352962962962963],[-0.20208333333333334,-0.34870370370370374],[-0.20572916666666666,-0.37092592592592594],[-0.20364583333333333,-0.3987037037037037],[-0.2211458333333333,-0.40407407407407403],[-0.24260416666666665,-0.40185185185185185],[-0.25593750000000004,-0.41870370370370374],[-0.2694791666666667,-0.4359259259259259],[-0.26062500000000005,-0.4353703703703704],[-0.2634375,-0.41574074074074074],[-0.25270833333333337,-0.4462962962962963],[-0.22208333333333338,-0.46351851851851855],[-0.22312500000000005,-0.44592592592592595],[-0.15885416666666666,-0.46166666666666667],[-0.09041666666666662,-0.47129629629629627],[-0.029791666666666692,-0.45611111111111113],[0.03083333333333336,-0.44092592592592594],[0.10072916666666672,-0.43333333333333335],[0.1484375,-0.41740740740740734],[0.2078125,-0.42055555555555557],[0.2705208333333334,-0.4137037037037037],[0.30520833333333336,-0.4046296296296296],[0.34343750000000006,-0.41944444444444445],[0.3163541666666667,-0.4009259259259259],[0.31666666666666665,-0.38851851851851854],[0.32479166666666665,-0.4009259259259259],[0.3138541666666666,-0.40111111111111114],[0.2938541666666666,-0.3933333333333333],[0.2939583333333334,-0.39351851851851855],[0.29406249999999995,-0.3937037037037037],[0.2908333333333334,-0.4038888888888889],[0.29354166666666665,-0.425],[0.29583333333333334,-0.4305555555555556],[0.29583333333333334,-0.4305555555555556],[0.3151041666666667,-0.43277777777777776],[0.3151041666666667,-0.43277777777777776],[0.3051041666666668,-0.4262962962962963],[0.2947916666666667,-0.4359259259259259],[0.28364583333333326,-0.46148148148148144],[0.28718750000000004,-0.47555555555555556],[0.29020833333333323,-0.48703703703703705]]","[[0.0390625,-0.34740740740740744,0.00019999980926854732],[0.0390625,-0.34740740740740744,0.019599999904635013],[0.02645833333333331,-0.3725925925925926,0.0322999997138993],[0.014791666666666713,-0.42462962962962963,0.05419999980926349],[0.014791666666666713,-0.42462962962962963,0.061799999713898046],[0.014791666666666713,-0.422037037037037,0.07839999961853295],[0.027187500000000024,-0.41092592592592586,0.09519999980926741],[0.03958333333333333,-0.3998148148148148,0.11309999990463382],[0.0703125,-0.38740740740740737,0.13179999971389833],[0.08770833333333337,-0.387037037037037,0.1472999997139013],[0.10520833333333333,-0.39037037037037037,0.1616999998092652],[0.08447916666666658,-0.38370370370370366,0.17859999990463393],[0.06375000000000004,-0.37703703703703706,0.19500000000000028],[0.10604166666666662,-0.38629629629629636,0.2118999996185309],[0.10604166666666662,-0.38629629629629636,0.22829999971389725],[0.15812499999999996,-0.37,0.245199999809266],[0.20562500000000009,-0.37222222222222223,0.2616999998092666],[0.21979166666666666,-0.38555555555555554,0.2785000000000011],[0.23395833333333324,-0.39888888888888885,0.2955000000000041],[0.22999999999999995,-0.4022222222222222,0.31319999980926383],[0.22999999999999995,-0.4022222222222222,0.33239999961853073],[0.23385416666666667,-0.4022222222222222,0.34550000000000125],[0.2118750000000001,-0.4044444444444444,0.3648999996185296],[0.2,-0.4083333333333333,0.38450000000000273],[0.2,-0.4083333333333333,0.39529999971389884],[0.19302083333333328,-0.3851851851851852,0.41199999999999903],[0.17739583333333328,-0.36314814814814816,0.42849999999999966],[0.16177083333333328,-0.3411111111111111,0.44809999990463467],[0.14427083333333332,-0.3490740740740741,0.4660000000000011],[0.13031249999999991,-0.3266666666666666,0.48319999980926553],[0.12239583333333333,-0.3051851851851852,0.49809999990463183],[0.11749999999999995,-0.277962962962963,0.5171999998092645],[0.10364583333333334,-0.2609259259259259,0.5320000000000036],[0.10604166666666662,-0.24222222222222226,0.5473999996185341],[0.10843749999999991,-0.2235185185185185,0.5616999998092638],[0.10062499999999991,-0.23592592592592587,0.5805000000000007],[0.0921875,-0.25333333333333335,0.5958999996185312],[0.0921875,-0.25333333333333335,0.6120999999046361],[0.09416666666666676,-0.2687037037037037,0.6283999996185301],[0.08510416666666672,-0.26648148148148143,0.6458999996185284],[0.07604166666666666,-0.26425925925925925,0.6625999999046357],[0.0640625,-0.27759259259259256,0.6808999996185321],[0.05364583333333333,-0.29611111111111105,0.695999999999998],[0.05364583333333333,-0.29611111111111105,0.7118999996185309],[0.05270833333333336,-0.2831481481481481,0.7282999997138973],[0.05322916666666669,-0.2698148148148148,0.7485999999046342],[0.022395833333333334,-0.25629629629629624,0.7660999999046325],[-0.003125,-0.23870370370370367,0.7826999998092674],[-0.04010416666666667,-0.1911111111111111,0.7995999999046361],[-0.08843749999999997,-0.14351851851851852,0.8182999997139007],[-0.08843749999999997,-0.14351851851851852,0.8284999999999982],[-0.10874999999999997,-0.11425925925925924,0.8449999999999989],[-0.121875,-0.0787037037037037,0.8645999999046339],[-0.121875,-0.0787037037037037,0.8782999997138958],[-0.13812500000000003,-0.026666666666666623,0.8950999999046374],[-0.1686458333333333,0.020555555555555598,0.9150999999046334],[-0.19239583333333338,0.032037037037036954,0.9483999996185304],[-0.19239583333333338,0.032037037037036954,0.9556999998092692],[-0.21760416666666665,0.04314814814814806,0.9662999997138968],[-0.21760416666666665,0.04314814814814806,0.9785999999046311],[-0.22552083333333334,0.0772222222222223,0.9950999999046317],[-0.22552083333333334,0.0772222222222223,1.0120000000000005],[-0.24906250000000002,0.08962962962962959,1.028500000000001],[-0.2203125,0.0698148148148149,1.0477999997139023],[-0.18416666666666662,0.030740740740740784,1.0645000000000024],[-0.18416666666666662,0.030740740740740784,1.0784999999999982],[-0.1452083333333333,0.012777777777777735,1.0949999999999989],[-0.10614583333333331,-0.020185185185185143,1.1155999999046315],[-0.07062499999999995,-0.04148148148148144,1.132399999618535],[-0.020833333333333332,-0.05796296296296299,1.1484999999999985],[0.026145833333333358,-0.1,1.165299999713902],[0.07312500000000005,-0.14203703703703702,1.1829999999999998],[0.1318749999999999,-0.18407407407407403,1.1993999996185352],[0.1318749999999999,-0.18407407407407403,1.2117999997138966],[0.22104166666666672,-0.19037037037037038,1.228500000000004],[0.2603125000000001,-0.19740740740740745,1.2500999999046343],[0.2756249999999999,-0.20037037037037034,1.265899999618533],[0.2696875000000001,-0.21481481481481482,1.2838999996185336],[0.2696875000000001,-0.21481481481481482,1.2951999998092631],[0.2598958333333333,-0.21629629629629632,1.311799999713898],[0.26583333333333337,-0.24685185185185188,1.3305000000000007],[0.2720833333333334,-0.2770370370370371,1.3473999996185313],[0.2720833333333334,-0.2770370370370371,1.3629999999999995],[0.27395833333333336,-0.2687037037037037,1.3785999999046368],[0.2639583333333334,-0.2485185185185185,1.3978999996185308],[0.2639583333333334,-0.2485185185185185,1.411999999999999],[0.2609375,-0.247037037037037,1.4282999997139],[0.23770833333333338,-0.2668518518518519,1.4455000000000027],[0.22208333333333338,-0.2722222222222222,1.4617999997138966],[0.21760416666666677,-0.26129629629629636,1.4789999999999992],[0.21760416666666677,-0.26129629629629636,1.4950000000000045],[0.2131249999999999,-0.25037037037037035,1.5120000000000005],[0.22947916666666662,-0.26962962962962966,1.5330000000000013],[0.23364583333333327,-0.27148148148148155,1.5495999999046361],[0.22447916666666667,-0.26481481481481484,1.5656999998092687],[0.21531250000000005,-0.2581481481481481,1.5823999996185307],[0.23395833333333324,-0.2712962962962963,1.599499999999999],[0.24333333333333323,-0.30166666666666664,1.6171999998092659],[0.2693749999999999,-0.3153703703703704,1.6346999998092642],[0.2693749999999999,-0.3153703703703704,1.6450000000000031],[0.296875,-0.3405555555555555,1.6617999997138995],[0.296875,-0.3405555555555555,1.6783999996185344],[0.32177083333333345,-0.36740740740740735,1.6951999998092688],[0.32177083333333345,-0.36740740740740735,1.7117999997138966],[0.3451041666666666,-0.40425925925925926,1.728500000000004],[0.3451041666666666,-0.40425925925925926,1.745199999809266],[0.3419791666666666,-0.3905555555555555,1.7657999997138987],[0.3419791666666666,-0.3905555555555555,1.778500000000001],[0.35270833333333323,-0.3894444444444445,1.7950000000000017],[0.35270833333333323,-0.3894444444444445,1.8118999996185323],[0.36656250000000007,-0.3925925925925926,1.828399999618533],[0.3733333333333334,-0.4096296296296296,1.8485999999046356],[0.3733333333333334,-0.4096296296296296,1.8659999999999997],[0.3641666666666666,-0.41870370370370374,1.8832999997138984],[0.34916666666666674,-0.40499999999999997,1.8977999997138966],[0.3229166666666667,-0.4007407407407407,1.911999999999999],[0.29666666666666663,-0.39648148148148155,1.9282999997139],[0.2869791666666667,-0.40481481481481485,1.9450999999046346],[0.27458333333333323,-0.39666666666666667,1.9651999998092649],[0.27458333333333323,-0.39666666666666667,1.9786999998092654],[0.26437499999999997,-0.4131481481481482,1.9950999999046317],[0.23041666666666671,-0.40611111111111114,2.016599999904635],[0.1946875000000001,-0.37907407407407406,2.030299999713897],[0.16604166666666675,-0.3381481481481482,2.0450000000000017],[0.14635416666666667,-0.29555555555555557,2.061799999713898],[0.14197916666666663,-0.2564814814814815,2.0784999999999982],[0.14197916666666663,-0.2564814814814815,2.095099999904633],[0.11906249999999995,-0.2322222222222222,2.1152999997138977],[0.10458333333333343,-0.22166666666666665,2.131299999713896],[0.08250000000000005,-0.2,2.1450999999046374],[0.06468750000000002,-0.18481481481481485,2.1617999997138995],[0.05135416666666662,-0.17074074074074072,2.18339999961853],[0.04791666666666667,-0.1675925925925926,2.197899999618535],[0.04791666666666667,-0.1675925925925926,2.2120000000000033],[0.04583333333333333,-0.17481481481481478,2.2283999996185315],[0.04479166666666667,-0.20259259259259255,2.2452999997139003],[0.034791666666666644,-0.23203703703703707,2.264499999999998],[0.013541666666666667,-0.25685185185185183,2.2783999996185287],[0.01083333333333331,-0.2668518518518519,2.2950000000000017],[-0.006562499999999953,-0.26425925925925925,2.3118999996185323],[-0.023958333333333335,-0.2616666666666667,2.328399999618533],[-0.04708333333333338,-0.2535185185185185,2.3481999998092675],[-0.05927083333333331,-0.2727777777777778,2.362000000000002],[-0.06749999999999995,-0.29962962962962963,2.3785000000000025],[-0.07354166666666669,-0.32166666666666666,2.3950999999046374],[-0.08062499999999997,-0.32314814814814813,2.4117999997138995],[-0.11010416666666671,-0.3424074074074074,2.4283999996185344],[-0.13322916666666665,-0.3727777777777778,2.4450999999046346],[-0.16989583333333336,-0.352962962962963,2.4617999997138966],[-0.20208333333333334,-0.34870370370370374,2.4783999996185315],[-0.20572916666666666,-0.37092592592592594,2.4950999999046317],[-0.20364583333333333,-0.3987037037037037,2.511799999713901],[-0.2211458333333333,-0.40407407407407403,2.528899999618531],[-0.24260416666666665,-0.40185185185185185,2.545099999904636],[-0.25593750000000004,-0.41870370370370374,2.5616999998092638],[-0.2694791666666667,-0.4359259259259259,2.5784999999999982],[-0.26062500000000005,-0.4353703703703704,2.594999999999999],[-0.2634375,-0.41574074074074074,2.612000000000002],[-0.25270833333333337,-0.4462962962962963,2.628299999713896],[-0.22208333333333338,-0.46351851851851855,2.6450999999046374],[-0.22312500000000005,-0.44592592592592595,2.661699999809265],[-0.15885416666666666,-0.46166666666666667,2.6784999999999997],[-0.09041666666666662,-0.47129629629629627,2.6950000000000003],[-0.029791666666666692,-0.45611111111111113,2.7120000000000033],[0.03083333333333336,-0.44092592592592594,2.7283999996185315],[0.10072916666666672,-0.43333333333333335,2.7450999999046317],[0.1484375,-0.41740740740740734,2.7615999999046323],[0.2078125,-0.42055555555555557,2.7783999996185287],[0.2705208333333334,-0.4137037037037037,2.7950000000000017],[0.30520833333333336,-0.4046296296296296,2.811799999713898],[0.34343750000000006,-0.41944444444444445,2.828399999618533],[0.3163541666666667,-0.4009259259259259,2.845099999904633],[0.31666666666666665,-0.38851851851851854,2.8617999997139023],[0.32479166666666665,-0.4009259259259259,2.87839999961853],[0.3138541666666666,-0.40111111111111114,2.8950999999046374],[0.2938541666666666,-0.3933333333333333,2.9117999997138995],[0.2939583333333334,-0.39351851851851855,2.928599999904634],[0.29406249999999995,-0.3937037037037037,2.945299999713896],[0.2908333333333334,-0.4038888888888889,2.9616999998092695],[0.29354166666666665,-0.425,2.9819999999999993],[0.29583333333333334,-0.4305555555555556,2.9971999998092684],[0.29583333333333334,-0.4305555555555556,3.011899999618535],[0.3151041666666667,-0.43277777777777776,3.0290999999046306],[0.3151041666666667,-0.43277777777777776,3.045099999904636],[0.3051041666666668,-0.4262962962962963,3.061799999713898],[0.2947916666666667,-0.4359259259259259,3.078399999618533],[0.28364583333333326,-0.46148148148148144,3.0951999998092674],[0.28718750000000004,-0.47555555555555556,3.1117999997139023],[0.29020833333333323,-0.48703703703703705,3.131999999999998]]","[0.00019999980926854732,0.019599999904635013,0.0322999997138993,0.05419999980926349,0.061799999713898046,0.07839999961853295,0.09519999980926741,0.11309999990463382,0.13179999971389833,0.1472999997139013,0.1616999998092652,0.17859999990463393,0.19500000000000028,0.2118999996185309,0.22829999971389725,0.245199999809266,0.2616999998092666,0.2785000000000011,0.2955000000000041,0.31319999980926383,0.33239999961853073,0.34550000000000125,0.3648999996185296,0.38450000000000273,0.39529999971389884,0.41199999999999903,0.42849999999999966,0.44809999990463467,0.4660000000000011,0.48319999980926553,0.49809999990463183,0.5171999998092645,0.5320000000000036,0.5473999996185341,0.5616999998092638,0.5805000000000007,0.5958999996185312,0.6120999999046361,0.6283999996185301,0.6458999996185284,0.6625999999046357,0.6808999996185321,0.695999999999998,0.7118999996185309,0.7282999997138973,0.7485999999046342,0.7660999999046325,0.7826999998092674,0.7995999999046361,0.8182999997139007,0.8284999999999982,0.8449999999999989,0.8645999999046339,0.8782999997138958,0.8950999999046374,0.9150999999046334,0.9483999996185304,0.9556999998092692,0.9662999997138968,0.9785999999046311,0.9950999999046317,1.0120000000000005,1.028500000000001,1.0477999997139023,1.0645000000000024,1.0784999999999982,1.0949999999999989,1.1155999999046315,1.132399999618535,1.1484999999999985,1.165299999713902,1.1829999999999998,1.1993999996185352,1.2117999997138966,1.228500000000004,1.2500999999046343,1.265899999618533,1.2838999996185336,1.2951999998092631,1.311799999713898,1.3305000000000007,1.3473999996185313,1.3629999999999995,1.3785999999046368,1.3978999996185308,1.411999999999999,1.4282999997139,1.4455000000000027,1.4617999997138966,1.4789999999999992,1.4950000000000045,1.5120000000000005,1.5330000000000013,1.5495999999046361,1.5656999998092687,1.5823999996185307,1.599499999999999,1.6171999998092659,1.6346999998092642,1.6450000000000031,1.6617999997138995,1.6783999996185344,1.6951999998092688,1.7117999997138966,1.728500000000004,1.745199999809266,1.7657999997138987,1.778500000000001,1.7950000000000017,1.8118999996185323,1.828399999618533,1.8485999999046356,1.8659999999999997,1.8832999997138984,1.8977999997138966,1.911999999999999,1.9282999997139,1.9450999999046346,1.9651999998092649,1.9786999998092654,1.9950999999046317,2.016599999904635,2.030299999713897,2.0450000000000017,2.061799999713898,2.0784999999999982,2.095099999904633,2.1152999997138977,2.131299999713896,2.1450999999046374,2.1617999997138995,2.18339999961853,2.197899999618535,2.2120000000000033,2.2283999996185315,2.2452999997139003,2.264499999999998,2.2783999996185287,2.2950000000000017,2.3118999996185323,2.328399999618533,2.3481999998092675,2.362000000000002,2.3785000000000025,2.3950999999046374,2.4117999997138995,2.4283999996185344,2.4450999999046346,2.4617999997138966,2.4783999996185315,2.4950999999046317,2.511799999713901,2.528899999618531,2.545099999904636,2.5616999998092638,2.5784999999999982,2.594999999999999,2.612000000000002,2.628299999713896,2.6450999999046374,2.661699999809265,2.6784999999999997,2.6950000000000003,2.7120000000000033,2.7283999996185315,2.7450999999046317,2.7615999999046323,2.7783999996185287,2.7950000000000017,2.811799999713898,2.828399999618533,2.845099999904633,2.8617999997139023,2.87839999961853,2.8950999999046374,2.9117999997138995,2.928599999904634,2.945299999713896,2.9616999998092695,2.9819999999999993,2.9971999998092684,3.011899999618535,3.0290999999046306,3.045099999904636,3.061799999713898,3.078399999618533,3.0951999998092674,3.1117999997139023,3.131999999999998]","[1732165114177,1732165114192,1732165114205,1732165114227,1732165114234,1732165114251,1732165114268,1732165114286,1732165114304,1732165114320,1732165114334,1732165114351,1732165114368,1732165114385,1732165114401,1732165114418,1732165114434,1732165114451,1732165114468,1732165114486,1732165114505,1732165114518,1732165114537,1732165114557,1732165114568,1732165114585,1732165114601,1732165114621,1732165114639,1732165114656,1732165114671,1732165114690,1732165114705,1732165114720,1732165114734,1732165114753,1732165114768,1732165114785,1732165114801,1732165114819,1732165114835,1732165114853,1732165114869,1732165114885,1732165114901,1732165114921,1732165114939,1732165114955,1732165114972,1732165114991,1732165115001,1732165115018,1732165115037,1732165115051,1732165115068,1732165115088,1732165115121,1732165115128,1732165115139,1732165115151,1732165115168,1732165115185,1732165115201,1732165115220,1732165115237,1732165115251,1732165115268,1732165115288,1732165115305,1732165115321,1732165115338,1732165115356,1732165115372,1732165115384,1732165115401,1732165115423,1732165115439,1732165115456,1732165115468,1732165115484,1732165115503,1732165115520,1732165115536,1732165115551,1732165115570,1732165115585,1732165115601,1732165115618,1732165115634,1732165115652,1732165115668,1732165115685,1732165115706,1732165115722,1732165115738,1732165115755,1732165115772,1732165115790,1732165115807,1732165115818,1732165115834,1732165115851,1732165115868,1732165115884,1732165115901,1732165115918,1732165115938,1732165115951,1732165115968,1732165115985,1732165116001,1732165116021,1732165116039,1732165116056,1732165116070,1732165116085,1732165116101,1732165116118,1732165116138,1732165116151,1732165116168,1732165116189,1732165116203,1732165116218,1732165116234,1732165116251,1732165116268,1732165116288,1732165116304,1732165116318,1732165116334,1732165116356,1732165116370,1732165116385,1732165116401,1732165116418,1732165116437,1732165116451,1732165116468,1732165116484,1732165116501,1732165116521,1732165116535,1732165116551,1732165116568,1732165116584,1732165116601,1732165116618,1732165116634,1732165116651,1732165116668,1732165116684,1732165116701,1732165116718,1732165116734,1732165116751,1732165116768,1732165116785,1732165116801,1732165116818,1732165116834,1732165116851,1732165116868,1732165116885,1732165116901,1732165116918,1732165116934,1732165116951,1732165116968,1732165116984,1732165117001,1732165117018,1732165117034,1732165117051,1732165117068,1732165117084,1732165117101,1732165117118,1732165117134,1732165117155,1732165117170,1732165117185,1732165117202,1732165117218,1732165117234,1732165117251,1732165117268,1732165117284,1732165117305]","[[997.5,352.4],[997.5,352.4],[985.4,338.8],[974.2,310.7],[974.2,310.7],[974.2,312.1],[986.1,318.1],[998,324.1],[1027.5,330.8],[1044.2,331],[1061,329.2],[1041.1,332.8],[1021.2,336.4],[1061.8,331.4],[1061.8,331.4],[1111.8,340.2],[1157.4,339],[1171,331.8],[1184.6,324.6],[1180.8,322.8],[1180.8,322.8],[1184.5,322.8],[1163.4,321.6],[1152,319.5],[1152,319.5],[1145.3,332],[1130.3,343.9],[1115.3,355.8],[1098.5,351.5],[1085.1,363.6],[1077.5,375.2],[1072.8,389.9],[1059.5,399.1],[1061.8,409.2],[1064.1,419.3],[1056.6,412.6],[1048.5,403.2],[1048.5,403.2],[1050.4,394.9],[1041.7,396.1],[1033,397.3],[1021.5,390.1],[1011.5,380.1],[1011.5,380.1],[1010.6,387.1],[1011.1,394.3],[981.5,401.6],[957,411.1],[921.5,436.8],[875.1,462.5],[875.1,462.5],[855.6,478.3],[843,497.5],[843,497.5],[827.4,525.6],[798.1,551.1],[775.3,557.3],[775.3,557.3],[751.1,563.3],[751.1,563.3],[743.5,581.7],[743.5,581.7],[720.9,588.4],[748.5,577.7],[783.2,556.6],[783.2,556.6],[820.6,546.9],[858.1,529.1],[892.2,517.6],[940,508.7],[985.1,486],[1030.2,463.3],[1086.6,440.6],[1086.6,440.6],[1172.2,437.2],[1209.9,433.4],[1224.6,431.8],[1218.9,424],[1218.9,424],[1209.5,423.2],[1215.2,406.7],[1221.2,390.4],[1221.2,390.4],[1223,394.9],[1213.4,405.8],[1213.4,405.8],[1210.5,406.6],[1188.2,395.9],[1173.2,393],[1168.9,398.9],[1168.9,398.9],[1164.6,404.8],[1180.3,394.4],[1184.3,393.4],[1175.5,397],[1166.7,400.6],[1184.6,393.5],[1193.6,377.1],[1218.6,369.7],[1218.6,369.7],[1245,356.1],[1245,356.1],[1268.9,341.6],[1268.9,341.6],[1291.3,321.7],[1291.3,321.7],[1288.3,329.1],[1288.3,329.1],[1298.6,329.7],[1298.6,329.7],[1311.9,328],[1318.4,318.8],[1318.4,318.8],[1309.6,313.9],[1295.2,321.3],[1270,323.6],[1244.8,325.9],[1235.5,321.4],[1223.6,325.8],[1223.6,325.8],[1213.8,316.9],[1181.2,320.7],[1146.9,335.3],[1119.4,357.4],[1100.5,380.4],[1096.3,401.5],[1096.3,401.5],[1074.3,414.6],[1060.4,420.3],[1039.2,432],[1022.1,440.2],[1009.3,447.8],[1006,449.5],[1006,449.5],[1004,445.6],[1003,430.6],[993.4,414.7],[973,401.3],[970.4,395.9],[953.7,397.3],[937,398.7],[914.8,403.1],[903.1,392.7],[895.2,378.2],[889.4,366.3],[882.6,365.5],[854.3,355.1],[832.1,338.7],[796.9,349.4],[766,351.7],[762.5,339.7],[764.5,324.7],[747.7,321.8],[727.1,323],[714.3,313.9],[701.3,304.6],[709.8,304.9],[707.1,315.5],[717.4,299],[746.8,289.7],[745.8,299.2],[807.5,290.7],[873.2,285.5],[931.4,293.7],[989.6,301.9],[1056.7,306],[1102.5,314.6],[1159.5,312.9],[1219.7,316.6],[1253,321.5],[1289.7,313.5],[1263.7,323.5],[1264,330.2],[1271.8,323.5],[1261.3,323.4],[1242.1,327.6],[1242.2,327.5],[1242.3,327.4],[1239.2,321.9],[1241.8,310.5],[1244,307.5],[1244,307.5],[1262.5,306.3],[1262.5,306.3],[1252.9,309.8],[1243,304.6],[1232.3,290.8],[1235.7,283.2],[1238.6,277]]","[-0.142,0.42599999999999993]","[0.142,0.42599999999999993]","[0.42599999999999993,0.42599999999999993]","[-0.42599999999999993,-0.42599999999999993]","[-0.42599999999999993,-0.142]","[-0.42599999999999993,0.142]","[-0.142,-0.42599999999999993]","[0.142,-0.42599999999999993]","[0.42599999999999993,-0.42599999999999993]","[-0.142,-0.142]","[0.142,-0.142]","[0.42599999999999993,-0.142]","[-0.142,0.142]","[0.142,0.142]","[0.42599999999999993,0.142]",0,1,1,1,1,1,Laptop,20,40,7,3,50,5,3,60,4
