inst1_resp.keys,inst1_resp.rt,calibrationMouse.x,calibrationMouse.y,calibrationMouse.leftButton,calibrationMouse.midButton,calibrationMouse.rightButton,calibrationClick.x,calibrationClick.y,calibrationClick.leftButton,calibrationClick.midButton,calibrationClick.rightButton,trialsc.thisRepN,trialsc.thisTrialN,trialsc.thisN,trialsc.thisIndex,trialsc.ran,calibration_x,calibration_y,participant,session,date,expName,psychopyVersion,OS,frameRate,calibrationClick.clicked_name,ScreenRes_pixels,Camera_pixels,mouse_2.x,mouse_2.y,mouse_2.leftButton,mouse_2.midButton,mouse_2.rightButton,mouse_2.time,mouse_2.clicked_name,mouse.x,mouse.y,mouse.leftButton,mouse.midButton,mouse.rightButton,mouse.time,mouse.clicked_name,Choice,Trial,TrialDuration,MOUSE_GAZE,ET_GAZE,ET_GAZE_x_T,time,unixTime,ET_GAZE_NF,Loc_Bus_label,Loc_Metro_label,Loc_RH_label,Loc_Cost_label,Loc_Travel_label,Loc_Comfort_label,Loc_Bus_cost,Loc_Metro_cost,Loc_RH_cost,Loc_Bus_travel,Loc_Metro_travel,Loc_RH_travel,Loc_Bus_comfort,Loc_Metro_comfort,Loc_RH_comfort,trials.thisRepN,trials.thisTrialN,trials.thisN,trials.thisIndex,trials.ran,Block,Device,RH_cost,RH_travel_time,RH_Comfort,metro_cost,metro_travel_time,metro_Comfort,Bus_cost,Bus_travel_time,Bus_Comfort
space,1.3029,0.102083333,0.414814815,1,0,0,0.119791667,0.161111111,0,0,0,0,0,0,4,1,-0.33,-0.67,16,001,2024-11-21_14h14.44.164,Attention_exp_legacy,2023.1.0,Win32,59.88023952,,,,,,,,,,,,,,,,,,,,,,,,,,,,,,,,,,,,,,,,,,,,,,,,,,,,,,,,,
,,,,,,,-0.671875,-0.67037037,1,0,0,0,1,1,0,1,-0.67,-0.67,16,001,2024-11-21_14h14.44.164,Attention_exp_legacy,2023.1.0,Win32,59.88023952,calibration_square,,,,,,,,,,,,,,,,,,,,,,,,,,,,,,,,,,,,,,,,,,,,,,,,,,,,,,,,
,,,,,,,-0.323958333,0.009259259,1,0,0,0,2,2,6,1,-0.33,0,16,001,2024-11-21_14h14.44.164,Attention_exp_legacy,2023.1.0,Win32,59.88023952,calibration_square,,,,,,,,,,,,,,,,,,,,,,,,,,,,,,,,,,,,,,,,,,,,,,,,,,,,,,,,
,,,,,,,0.004166667,-0.661111111,1,0,0,0,3,3,9,1,0,-0.67,16,001,2024-11-21_14h14.44.164,Attention_exp_legacy,2023.1.0,Win32,59.88023952,calibration_square,,,,,,,,,,,,,,,,,,,,,,,,,,,,,,,,,,,,,,,,,,,,,,,,,,,,,,,,
,,,,,,,0.001041667,-0.331481481,1,0,0,0,4,4,10,1,0,-0.33,16,001,2024-11-21_14h14.44.164,Attention_exp_legacy,2023.1.0,Win32,59.88023952,calibration_square,,,,,,,,,,,,,,,,,,,,,,,,,,,,,,,,,,,,,,,,,,,,,,,,,,,,,,,,
,,,,,,,-0.330208333,0.675925926,1,0,0,0,5,5,8,1,-0.33,0.67,16,001,2024-11-21_14h14.44.164,Attention_exp_legacy,2023.1.0,Win32,59.88023952,calibration_square,,,,,,,,,,,,,,,,,,,,,,,,,,,,,,,,,,,,,,,,,,,,,,,,,,,,,,,,
,,,,,,,-0.33125,-0.32962963,1,0,0,0,6,6,5,1,-0.33,-0.33,16,001,2024-11-21_14h14.44.164,Attention_exp_legacy,2023.1.0,Win32,59.88023952,calibration_square,,,,,,,,,,,,,,,,,,,,,,,,,,,,,,,,,,,,,,,,,,,,,,,,,,,,,,,,
,,,,,,,0.335416667,-0.664814815,1,0,0,0,7,7,14,1,0.33,-0.67,16,001,2024-11-21_14h14.44.164,Attention_exp_legacy,2023.1.0,Win32,59.88023952,calibration_square,,,,,,,,,,,,,,,,,,,,,,,,,,,,,,,,,,,,,,,,,,,,,,,,,,,,,,,,
,,,,,,,-0.666666667,-0.005555556,1,0,0,0,8,8,2,1,-0.67,0,16,001,2024-11-21_14h14.44.164,Attention_exp_legacy,2023.1.0,Win32,59.88023952,calibration_square,,,,,,,,,,,,,,,,,,,,,,,,,,,,,,,,,,,,,,,,,,,,,,,,,,,,,,,,
,,,,,,,0.339583333,-0.314814815,1,0,0,0,9,9,15,1,0.33,-0.33,16,001,2024-11-21_14h14.44.164,Attention_exp_legacy,2023.1.0,Win32,59.88023952,,,,,,,,,,,,,,,,,,,,,,,,,,,,,,,,,,,,,,,,,,,,,,,,,,,,,,,,,
,,,,,,,0.31875,0.005555556,1,0,0,0,10,10,16,1,0.33,0,16,001,2024-11-21_14h14.44.164,Attention_exp_legacy,2023.1.0,Win32,59.88023952,,,,,,,,,,,,,,,,,,,,,,,,,,,,,,,,,,,,,,,,,,,,,,,,,,,,,,,,,
,,,,,,,-0.663541667,0.331481481,1,0,0,0,11,11,3,1,-0.67,0.33,16,001,2024-11-21_14h14.44.164,Attention_exp_legacy,2023.1.0,Win32,59.88023952,calibration_square,,,,,,,,,,,,,,,,,,,,,,,,,,,,,,,,,,,,,,,,,,,,,,,,,,,,,,,,
,,,,,,,-0.005208333,0.011111111,1,0,0,0,12,12,11,1,0,0,16,001,2024-11-21_14h14.44.164,Attention_exp_legacy,2023.1.0,Win32,59.88023952,,,,,,,,,,,,,,,,,,,,,,,,,,,,,,,,,,,,,,,,,,,,,,,,,,,,,,,,,
,,,,,,,0.328125,0.333333333,1,0,0,0,13,13,17,1,0.33,0.33,16,001,2024-11-21_14h14.44.164,Attention_exp_legacy,2023.1.0,Win32,59.88023952,calibration_square,,,,,,,,,,,,,,,,,,,,,,,,,,,,,,,,,,,,,,,,,,,,,,,,,,,,,,,,
,,,,,,,-0.320833333,0.331481481,1,0,0,0,14,14,7,1,-0.33,0.33,16,001,2024-11-21_14h14.44.164,Attention_exp_legacy,2023.1.0,Win32,59.88023952,calibration_square,,,,,,,,,,,,,,,,,,,,,,,,,,,,,,,,,,,,,,,,,,,,,,,,,,,,,,,,
,,,,,,,0.672916667,0.67037037,1,0,0,0,15,15,19,1,0.67,0.67,16,001,2024-11-21_14h14.44.164,Attention_exp_legacy,2023.1.0,Win32,59.88023952,calibration_square,,,,,,,,,,,,,,,,,,,,,,,,,,,,,,,,,,,,,,,,,,,,,,,,,,,,,,,,
,,,,,,,-0.673958333,-0.324074074,1,0,0,0,16,16,1,1,-0.67,-0.33,16,001,2024-11-21_14h14.44.164,Attention_exp_legacy,2023.1.0,Win32,59.88023952,calibration_square,,,,,,,,,,,,,,,,,,,,,,,,,,,,,,,,,,,,,,,,,,,,,,,,,,,,,,,,
,,,,,,,0.334375,0.662962963,1,0,0,0,17,17,18,1,0.33,0.67,16,001,2024-11-21_14h14.44.164,Attention_exp_legacy,2023.1.0,Win32,59.88023952,calibration_square,,,,,,,,,,,,,,,,,,,,,,,,,,,,,,,,,,,,,,,,,,,,,,,,,,,,,,,,
,,,,,,,-0.004166667,0.318518519,1,0,0,0,18,18,12,1,0,0.33,16,001,2024-11-21_14h14.44.164,Attention_exp_legacy,2023.1.0,Win32,59.88023952,,,,,,,,,,,,,,,,,,,,,,,,,,,,,,,,,,,,,,,,,,,,,,,,,,,,,,,,,
,,,,,,,0.672916667,-0.67037037,1,0,0,0,19,19,20,1,0.67,-0.67,16,001,2024-11-21_14h14.44.164,Attention_exp_legacy,2023.1.0,Win32,59.88023952,calibration_square,,,,,,,,,,,,,,,,,,,,,,,,,,,,,,,,,,,,,,,,,,,,,,,,,,,,,,,,
,,,,,,,0.005208333,0.664814815,1,0,0,0,20,20,13,1,0,0.67,16,001,2024-11-21_14h14.44.164,Attention_exp_legacy,2023.1.0,Win32,59.88023952,calibration_square,,,,,,,,,,,,,,,,,,,,,,,,,,,,,,,,,,,,,,,,,,,,,,,,,,,,,,,,
,,,,,,,,,,,,,,,,,,,16,001,2024-11-21_14h14.44.164,Attention_exp_legacy,2023.1.0,Win32,59.88023952,,"[1920,1080]","[640,480]",[0.04583333333333333],[-0.49074074074074076],[1],[0],[0],[1.2046000003814683],"[""StartButton""]",[0.16458333333333333],[0.4425925925925926],[1],[0],[0],[4.567800000190729],"[""Metro_label""]",Metro_label,1,5.5939,"[[0.04895833333333333,-0.46296296296296297],[0.04895833333333333,-0.46296296296296297],[0.04895833333333333,-0.46296296296296297],[0.04895833333333333,-0.46296296296296297],[0.04895833333333333,-0.46296296296296297],[0.04895833333333333,-0.46296296296296297],[0.04895833333333333,-0.46296296296296297],[0.04895833333333333,-0.46296296296296297],[0.04895833333333333,-0.46296296296296297],[0.04895833333333333,-0.46296296296296297],[0.04895833333333333,-0.46296296296296297],[0.04895833333333333,-0.46296296296296297],[0.04895833333333333,-0.46296296296296297],[0.04895833333333333,-0.46296296296296297],[0.04895833333333333,-0.46296296296296297],[0.04895833333333333,-0.46296296296296297],[0.04895833333333333,-0.46296296296296297],[0.04895833333333333,-0.46296296296296297],[0.04895833333333333,-0.46296296296296297],[0.04895833333333333,-0.46296296296296297],[0.04895833333333333,-0.46296296296296297],[0.04895833333333333,-0.46296296296296297],[0.04895833333333333,-0.46296296296296297],[0.04895833333333333,-0.46296296296296297],[0.04895833333333333,-0.46296296296296297],[0.04895833333333333,-0.46296296296296297],[0.04895833333333333,-0.46296296296296297],[0.04895833333333333,-0.46296296296296297],[0.04895833333333333,-0.46296296296296297],[0.04895833333333333,-0.46296296296296297],[0.04895833333333333,-0.46296296296296297],[0.04895833333333333,-0.46296296296296297],[0.04895833333333333,-0.46296296296296297],[0.04895833333333333,-0.46296296296296297],[0.04895833333333333,-0.46296296296296297],[0.04895833333333333,-0.46296296296296297],[0.04895833333333333,-0.46296296296296297],[0.04895833333333333,-0.46296296296296297],[0.04895833333333333,-0.46296296296296297],[0.04895833333333333,-0.46296296296296297],[0.04895833333333333,-0.46296296296296297],[0.04895833333333333,-0.46296296296296297],[0.04895833333333333,-0.46296296296296297],[0.04895833333333333,-0.46296296296296297],[0.04895833333333333,-0.46296296296296297],[0.04895833333333333,-0.46296296296296297],[0.04895833333333333,-0.46296296296296297],[0.04895833333333333,-0.46296296296296297],[0.04895833333333333,-0.46296296296296297],[0.04895833333333333,-0.46296296296296297],[0.04895833333333333,-0.46296296296296297],[0.04895833333333333,-0.46296296296296297],[0.04895833333333333,-0.46296296296296297],[0.04895833333333333,-0.46296296296296297],[0.04895833333333333,-0.46296296296296297],[0.04895833333333333,-0.46296296296296297],[0.04895833333333333,-0.46296296296296297],[0.04895833333333333,-0.46296296296296297],[0.04895833333333333,-0.46296296296296297],[0.04895833333333333,-0.46296296296296297],[0.04895833333333333,-0.46296296296296297],[0.04895833333333333,-0.46296296296296297],[0.04895833333333333,-0.46296296296296297],[0.04895833333333333,-0.46296296296296297],[0.04895833333333333,-0.46296296296296297],[0.04895833333333333,-0.46296296296296297],[0.04895833333333333,-0.46296296296296297],[0.04895833333333333,-0.46296296296296297],[0.04895833333333333,-0.46296296296296297],[0.04895833333333333,-0.46296296296296297],[0.04895833333333333,-0.46296296296296297],[0.04895833333333333,-0.46296296296296297],[0.04895833333333333,-0.46296296296296297],[0.04895833333333333,-0.46296296296296297],[0.04895833333333333,-0.46296296296296297],[0.04895833333333333,-0.46296296296296297],[0.04895833333333333,-0.46296296296296297],[0.04895833333333333,-0.46296296296296297],[0.04895833333333333,-0.46296296296296297],[0.04895833333333333,-0.46296296296296297],[0.04895833333333333,-0.46296296296296297],[0.04895833333333333,-0.46296296296296297],[0.04895833333333333,-0.46296296296296297],[0.04895833333333333,-0.46296296296296297],[0.04895833333333333,-0.46296296296296297],[0.04895833333333333,-0.46296296296296297],[0.04895833333333333,-0.46296296296296297],[0.04895833333333333,-0.46296296296296297],[0.04895833333333333,-0.46296296296296297],[0.04895833333333333,-0.46296296296296297],[0.04895833333333333,-0.46296296296296297],[0.052083333333333336,-0.46296296296296297],[0.05520833333333333,-0.4648148148148148],[0.05625,-0.4666666666666667],[0.05625,-0.4666666666666667],[0.05625,-0.4666666666666667],[0.05625,-0.4666666666666667],[0.05625,-0.4666666666666667],[0.05625,-0.4666666666666667],[0.05625,-0.4666666666666667],[0.05625,-0.4666666666666667],[0.05625,-0.4666666666666667],[0.05625,-0.4666666666666667],[0.05625,-0.4666666666666667],[0.05625,-0.4666666666666667],[0.05625,-0.4666666666666667],[0.05625,-0.4666666666666667],[0.05625,-0.4666666666666667],[0.05625,-0.4666666666666667],[0.05625,-0.4666666666666667],[0.05625,-0.4666666666666667],[0.05625,-0.4666666666666667],[0.05625,-0.4666666666666667],[0.05625,-0.4666666666666667],[0.05625,-0.4666666666666667],[0.05625,-0.4666666666666667],[0.05625,-0.4666666666666667],[0.05625,-0.4666666666666667],[0.05625,-0.4666666666666667],[0.05625,-0.4666666666666667],[0.05625,-0.4666666666666667],[0.05625,-0.4666666666666667],[0.05625,-0.4666666666666667],[0.05625,-0.4666666666666667],[0.05625,-0.4666666666666667],[0.05625,-0.4666666666666667],[0.05625,-0.4666666666666667],[0.05625,-0.4666666666666667],[0.05625,-0.4666666666666667],[0.05625,-0.4666666666666667],[0.05625,-0.4666666666666667],[0.05520833333333333,-0.4648148148148148],[0.052083333333333336,-0.46296296296296297],[0.04895833333333333,-0.45740740740740743],[0.04583333333333333,-0.4537037037037037],[0.03333333333333333,-0.4351851851851852],[0.025,-0.42777777777777776],[0.017708333333333333,-0.4185185185185185],[0.010416666666666666,-0.4111111111111111],[0.005208333333333333,-0.40185185185185185],[0.0010416666666666667,-0.3925925925925926],[-0.004166666666666667,-0.387037037037037],[-0.007291666666666667,-0.37962962962962965],[-0.011458333333333333,-0.37407407407407406],[-0.015625,-0.3648148148148148],[-0.023958333333333335,-0.35185185185185186],[-0.03333333333333333,-0.337037037037037],[-0.042708333333333334,-0.32037037037037036],[-0.05625,-0.2962962962962963],[-0.06458333333333334,-0.2777777777777778],[-0.06875,-0.27037037037037037],[-0.07604166666666666,-0.2537037037037037],[-0.07916666666666666,-0.25],[-0.08125,-0.2462962962962963],[-0.08333333333333333,-0.24259259259259258],[-0.0875,-0.23703703703703705],[-0.09270833333333334,-0.23148148148148148],[-0.09583333333333334,-0.22777777777777777],[-0.1,-0.2222222222222222],[-0.10520833333333333,-0.21666666666666667],[-0.10729166666666666,-0.21296296296296297],[-0.10833333333333334,-0.21296296296296297],[-0.10833333333333334,-0.21296296296296297],[-0.10833333333333334,-0.21296296296296297],[-0.10833333333333334,-0.21296296296296297],[-0.10833333333333334,-0.21296296296296297],[-0.10833333333333334,-0.21296296296296297],[-0.10833333333333334,-0.21296296296296297],[-0.10833333333333334,-0.21296296296296297],[-0.10833333333333334,-0.21296296296296297],[-0.10833333333333334,-0.21296296296296297],[-0.10833333333333334,-0.21296296296296297],[-0.10833333333333334,-0.21296296296296297],[-0.10833333333333334,-0.21296296296296297],[-0.10833333333333334,-0.21296296296296297],[-0.10833333333333334,-0.2111111111111111],[-0.10520833333333333,-0.20925925925925926],[-0.1,-0.20925925925925926],[-0.090625,-0.20555555555555555],[-0.08125,-0.20555555555555555],[-0.06979166666666667,-0.20555555555555555],[-0.057291666666666664,-0.20555555555555555],[-0.042708333333333334,-0.20555555555555555],[-0.021875,-0.20555555555555555],[-0.004166666666666667,-0.20555555555555555],[0.01875,-0.2037037037037037],[0.04375,-0.2],[0.065625,-0.1925925925925926],[0.08125,-0.19074074074074074],[0.09375,-0.19074074074074074],[0.11041666666666666,-0.18888888888888888],[0.11458333333333333,-0.18888888888888888],[0.121875,-0.18703703703703703],[0.12604166666666666,-0.18703703703703703],[0.12604166666666666,-0.18703703703703703],[0.12604166666666666,-0.18703703703703703],[0.12604166666666666,-0.18703703703703703],[0.12604166666666666,-0.18703703703703703],[0.12604166666666666,-0.18703703703703703],[0.12604166666666666,-0.18703703703703703],[0.12604166666666666,-0.18703703703703703],[0.12604166666666666,-0.18703703703703703],[0.12604166666666666,-0.18703703703703703],[0.12604166666666666,-0.18703703703703703],[0.12604166666666666,-0.18703703703703703],[0.12604166666666666,-0.18703703703703703],[0.12604166666666666,-0.18703703703703703],[0.12604166666666666,-0.18703703703703703],[0.13020833333333334,-0.17777777777777778],[0.13541666666666666,-0.16111111111111112],[0.140625,-0.13333333333333333],[0.14479166666666668,-0.10185185185185185],[0.14583333333333334,-0.07777777777777778],[0.146875,-0.05925925925925926],[0.146875,-0.04814814814814815],[0.146875,-0.03148148148148148],[0.146875,-0.014814814814814815],[0.14479166666666668,0.012962962962962963],[0.14270833333333333,0.027777777777777776],[0.14270833333333333,0.06296296296296296],[0.14270833333333333,0.09259259259259259],[0.14270833333333333,0.12222222222222222],[0.14270833333333333,0.1574074074074074],[0.146875,0.1962962962962963],[0.15729166666666666,0.24814814814814815],[0.159375,0.26296296296296295],[0.16354166666666667,0.28703703703703703],[0.16666666666666666,0.3111111111111111],[0.16770833333333332,0.32407407407407407],[0.16770833333333332,0.3333333333333333],[0.16770833333333332,0.337037037037037],[0.16770833333333332,0.34444444444444444],[0.16770833333333332,0.3537037037037037],[0.16770833333333332,0.37592592592592594],[0.16666666666666666,0.4111111111111111],[0.165625,0.42962962962962964],[0.165625,0.4351851851851852],[0.16458333333333333,0.4425925925925926],[0.16458333333333333,0.4425925925925926],[0.16458333333333333,0.4425925925925926],[0.16458333333333333,0.4425925925925926],[0.16458333333333333,0.4425925925925926],[0.16458333333333333,0.4425925925925926],[0.16458333333333333,0.4425925925925926],[0.16458333333333333,0.4425925925925926],[0.16458333333333333,0.4425925925925926],[0.16458333333333333,0.4425925925925926],[0.16458333333333333,0.4425925925925926],[0.16458333333333333,0.4425925925925926],[0.16458333333333333,0.4425925925925926],[0.16458333333333333,0.4425925925925926],[0.16458333333333333,0.4425925925925926],[0.16458333333333333,0.4425925925925926],[0.16458333333333333,0.4425925925925926],[0.16458333333333333,0.4425925925925926],[0.16458333333333333,0.4425925925925926],[0.16458333333333333,0.4425925925925926],[0.16458333333333333,0.4425925925925926],[0.16458333333333333,0.4425925925925926],[0.16458333333333333,0.4425925925925926],[0.16458333333333333,0.4425925925925926],[0.16458333333333333,0.4425925925925926],[0.16458333333333333,0.4425925925925926],[0.16458333333333333,0.4425925925925926],[0.16458333333333333,0.4425925925925926],[0.16458333333333333,0.4425925925925926],[0.16458333333333333,0.4425925925925926],[0.16458333333333333,0.4425925925925926],[0.16458333333333333,0.4425925925925926],[0.16458333333333333,0.4425925925925926],[0.16458333333333333,0.4425925925925926],[0.16458333333333333,0.4425925925925926],[0.16458333333333333,0.4425925925925926],[0.16458333333333333,0.4425925925925926],[0.16458333333333333,0.4425925925925926],[0.16458333333333333,0.4425925925925926],[0.16458333333333333,0.4425925925925926],[0.16458333333333333,0.4425925925925926],[0.16458333333333333,0.4425925925925926],[0.16458333333333333,0.4425925925925926],[0.16458333333333333,0.4425925925925926],[0.16458333333333333,0.4425925925925926],[0.16458333333333333,0.4425925925925926],[0.16458333333333333,0.4425925925925926],[0.16458333333333333,0.4425925925925926],[0.16458333333333333,0.4425925925925926],[0.16458333333333333,0.4425925925925926],[0.16458333333333333,0.4425925925925926],[0.16458333333333333,0.4425925925925926],[0.16458333333333333,0.4425925925925926],[0.16458333333333333,0.4425925925925926],[0.16458333333333333,0.4425925925925926],[0.16458333333333333,0.4425925925925926],[0.16458333333333333,0.4425925925925926],[0.16458333333333333,0.4425925925925926],[0.16458333333333333,0.4444444444444444],[0.16458333333333333,0.4444444444444444],[0.16458333333333333,0.4444444444444444],[0.16458333333333333,0.4444444444444444],[0.16458333333333333,0.4444444444444444],[0.16458333333333333,0.4444444444444444],[0.16458333333333333,0.4444444444444444],[0.16458333333333333,0.4444444444444444],[0.16458333333333333,0.4444444444444444],[0.16458333333333333,0.4444444444444444],[0.16458333333333333,0.4444444444444444],[0.16458333333333333,0.4444444444444444],[0.16458333333333333,0.4444444444444444],[0.16458333333333333,0.4444444444444444],[0.16458333333333333,0.4444444444444444],[0.16458333333333333,0.4444444444444444],[0.16458333333333333,0.4444444444444444],[0.16458333333333333,0.4444444444444444],[0.16458333333333333,0.4444444444444444],[0.16458333333333333,0.4444444444444444],[0.16458333333333333,0.4444444444444444],[0.16458333333333333,0.4444444444444444],[0.16458333333333333,0.4444444444444444],[0.16458333333333333,0.4444444444444444],[0.16458333333333333,0.4444444444444444],[0.16458333333333333,0.4444444444444444],[0.16458333333333333,0.4444444444444444],[0.16458333333333333,0.4444444444444444],[0.16458333333333333,0.4444444444444444],[0.16458333333333333,0.4444444444444444],[0.16458333333333333,0.4444444444444444],[0.16458333333333333,0.4444444444444444],[0.16458333333333333,0.4444444444444444],[0.16458333333333333,0.4444444444444444],[0.16458333333333333,0.4444444444444444],[0.16458333333333333,0.4444444444444444],[0.16458333333333333,0.4444444444444444],[0.16458333333333333,0.4444444444444444],[0.16458333333333333,0.4444444444444444],[0.16458333333333333,0.4444444444444444]]","[[0.37864583333333335,0.17981481481481484],[0.37864583333333335,0.17981481481481484],[0.3758333333333333,0.20851851851851855],[0.3758333333333333,0.20851851851851855],[0.40625,0.22444444444444453],[0.40625,0.22444444444444453],[0.4101041666666667,0.25037037037037047],[0.4101041666666667,0.25037037037037047],[0.4144791666666668,0.27259259259259266],[0.4144791666666668,0.27259259259259266],[0.3724999999999999,0.2772222222222223],[0.3724999999999999,0.2772222222222223],[0.37083333333333335,0.27240740740740743],[0.3634375000000001,0.2581481481481481],[0.3634375000000001,0.2581481481481481],[0.3454166666666666,0.25388888888888894],[0.3454166666666666,0.25388888888888894],[0.32802083333333343,0.2851851851851852],[0.32802083333333343,0.2851851851851852],[0.2690624999999999,0.29018518518518527],[0.26572916666666657,0.27981481481481485],[0.21645833333333328,0.2737037037037036],[0.18270833333333342,0.2601851851851852],[0.18270833333333342,0.2601851851851852],[0.13770833333333338,0.225],[0.08677083333333328,0.2007407407407407],[0.02364583333333338,0.1868518518518518],[-0.028854166666666715,0.18499999999999997],[-0.028854166666666715,0.18499999999999997],[-0.07072916666666665,0.17314814814814813],[-0.11656249999999997,0.15685185185185194],[-0.1608333333333333,0.1270370370370371],[-0.1608333333333333,0.1270370370370371],[-0.1977083333333333,0.09611111111111106],[-0.21218750000000006,0.07333333333333338],[-0.21781250000000002,0.07685185185185185],[-0.21781250000000002,0.07685185185185185],[-0.21354166666666666,0.0985185185185186],[-0.19333333333333336,0.0933333333333333],[-0.19333333333333336,0.0933333333333333],[-0.17468750000000005,0.08944444444444435],[-0.165625,0.08796296296296297],[-0.15656249999999997,0.08648148148148156],[-0.14322916666666666,0.08351851851851856],[-0.13145833333333337,0.09407407407407399],[-0.10531250000000002,0.10259259259259255],[-0.08343750000000003,0.1088888888888888],[-0.06062500000000005,0.09185185185185189],[-0.03760416666666669,0.09203703703703713],[0.009791666666666643,0.10555555555555556],[0.009791666666666643,0.10555555555555556],[0.03291666666666669,0.0977777777777777],[0.07062499999999995,0.08722222222222227],[0.0984375,0.09074074074074075],[0.11708333333333343,0.10537037037037032],[0.13416666666666663,0.12518518518518523],[0.13145833333333337,0.13870370370370366],[0.13166666666666677,0.16203703703703703],[0.12208333333333338,0.1824074074074074],[0.12208333333333338,0.1824074074074074],[0.11166666666666672,0.17555555555555546],[0.06749999999999995,0.15555555555555556],[0.043229166666666666,0.14000000000000004],[0.0375,0.12037037037037036],[0.04906250000000002,0.15018518518518523],[0.07239583333333334,0.16129629629629633],[0.09729166666666676,0.16722222222222213],[0.09302083333333329,0.15314814814814823],[0.09562499999999995,0.1257407407407407],[0.1015625,0.10833333333333334],[0.13020833333333334,0.09462962962962967],[0.1476041666666667,0.11648148148148144],[0.1709374999999999,0.15388888888888894],[0.1412499999999999,0.21962962962962967],[0.1203125,0.20851851851851855],[0.09947916666666666,0.21425925925925934],[0.07906250000000009,0.20259259259259255],[0.1078125,0.23129629629629625],[0.12489583333333343,0.2609259259259259],[0.11843750000000004,0.2772222222222223],[0.09239583333333339,0.30944444444444447],[0.10552083333333329,0.3205555555555556],[0.11864583333333342,0.3316666666666667],[0.13479166666666675,0.3118518518518518],[0.13479166666666675,0.30537037037037035],[0.14895833333333333,0.3272222222222223],[0.16270833333333337,0.36648148148148146],[0.1578125,0.36203703703703705],[0.13614583333333338,0.3592592592592593],[0.1521874999999999,0.3483333333333334],[0.17531249999999995,0.33055555555555555],[0.20802083333333338,0.32444444444444454],[0.184375,0.3290740740740742],[0.184375,0.3290740740740742],[0.1772916666666667,0.3516666666666666],[0.1790625000000001,0.3455555555555556],[0.14947916666666666,0.3148148148148148],[0.14947916666666666,0.3148148148148148],[0.1068749999999999,0.28129629629629627],[0.1068749999999999,0.28129629629629627],[0.07156250000000004,0.32111111111111107],[0.05947916666666669,0.3274074074074073],[0.029895833333333382,0.34518518518518515],[-0.004791666666666691,0.37666666666666665],[-0.06812499999999998,0.39740740740740743],[-0.08666666666666671,0.40259259259259256],[-0.10020833333333339,0.3942592592592592],[-0.1265625,0.415925925925926],[-0.15499999999999994,0.4646296296296296],[-0.15499999999999994,0.4646296296296296],[-0.16968749999999996,0.48037037037037034],[-0.16239583333333332,0.4522222222222223],[-0.16499999999999998,0.4579629629629629],[-0.19093749999999995,0.4583333333333333],[-0.20625,0.4777777777777778],[-0.21927083333333333,0.49296296296296305],[-0.22937500000000005,0.48777777777777775],[-0.21437499999999995,0.4764814814814814],[-0.19541666666666668,0.4638888888888889],[-0.17437499999999997,0.40259259259259256],[-0.15989583333333332,0.37481481481481477],[-0.16895833333333338,0.3646296296296296],[-0.16895833333333338,0.3646296296296296],[-0.17354166666666668,0.34592592592592586],[-0.1502083333333334,0.32018518518518513],[-0.1502083333333334,0.32018518518518513],[-0.15583333333333335,0.2831481481481481],[-0.16354166666666667,0.2448148148148149],[-0.18802083333333333,0.21666666666666667],[-0.22822916666666668,0.19370370370370374],[-0.22822916666666668,0.19370370370370374],[-0.2890625,0.19240740740740736],[-0.28791666666666665,0.22555555555555548],[-0.27927083333333336,0.25629629629629624],[-0.27927083333333336,0.25629629629629624],[-0.2579166666666667,0.26444444444444437],[-0.23572916666666663,0.28166666666666673],[-0.21802083333333327,0.32685185185185184],[-0.18947916666666664,0.33537037037037043],[-0.18947916666666664,0.33537037037037043],[-0.15510416666666665,0.3866666666666666],[-0.15510416666666665,0.3866666666666666],[-0.09656250000000005,0.3955555555555556],[-0.09656250000000005,0.3955555555555556],[-0.04614583333333329,0.4192592592592592],[-0.04614583333333329,0.4192592592592592],[0.009895833333333333,0.45925925925925926],[0.009895833333333333,0.45925925925925926],[0.029895833333333382,0.44351851851851853],[0.029895833333333382,0.44351851851851853],[0.05260416666666667,0.41222222222222227],[0.05260416666666667,0.41222222222222227],[0.019270833333333334,0.412962962962963],[0.019270833333333334,0.412962962962963],[0.00458333333333331,0.4185185185185185],[-0.008124999999999953,0.3998148148148148],[-0.0012500000000000473,0.3816666666666667],[-0.0012500000000000473,0.3816666666666667],[-0.010625000000000048,0.32981481481481484],[-0.010625000000000048,0.32981481481481484],[-0.027395833333333286,0.3337037037037038],[-0.005937500000000048,0.31444444444444436],[0.030520833333333285,0.2572222222222222],[0.06604166666666664,0.24222222222222214],[0.09718749999999995,0.24740740740740744],[0.1375,0.23740740740740748],[0.14291666666666672,0.22555555555555548],[0.17114583333333327,0.22277777777777769],[0.19187500000000005,0.2448148148148149],[0.19187500000000005,0.2448148148148149],[0.22000000000000006,0.2301851851851851],[0.2555208333333333,0.2442592592592592],[0.2515625,0.2675925925925926],[0.2700000000000001,0.302962962962963],[0.2634375000000001,0.33907407407407414],[0.2400000000000001,0.3635185185185184],[0.2400000000000001,0.3635185185185184],[0.21281249999999996,0.3544444444444444],[0.21281249999999996,0.3544444444444444],[0.1929166666666667,0.37777777777777777],[0.1929166666666667,0.37777777777777777],[0.18958333333333333,0.36648148148148146],[0.18302083333333338,0.3537037037037037],[0.16749999999999995,0.365925925925926],[0.16989583333333325,0.347037037037037],[0.17229166666666676,0.32814814814814824],[0.13135416666666658,0.29870370370370364],[0.07531249999999995,0.2777777777777778],[0.049687500000000044,0.25018518518518523],[0.04822916666666662,0.23851851851851844],[0.05572916666666667,0.19148148148148145],[0.05572916666666667,0.19148148148148145],[0.015312500000000047,0.22185185185185177],[0.0328125,0.19537037037037036],[0.06208333333333336,0.17703703703703708],[0.051979166666666646,0.1609259259259259],[0.041875000000000044,0.1448148148148149],[0.01895833333333338,0.1742592592592593],[0.01114583333333338,0.19518518518518516],[-0.013333333333333286,0.22296296296296292],[-0.02520833333333338,0.25166666666666665],[-0.059375,0.297037037037037],[-0.08708333333333336,0.2992592592592593],[-0.1828125,0.33851851851851844],[-0.2778125000000001,0.3696296296296297],[-0.33718750000000003,0.4005555555555555],[-0.39656250000000004,0.43148148148148147],[-0.41916666666666663,0.41722222222222216],[-0.46208333333333335,0.4142592592592593],[-0.46208333333333335,0.4142592592592593],[-0.425,0.39388888888888896],[-0.40197916666666667,0.3566666666666667],[-0.40197916666666667,0.3566666666666667],[-0.34104166666666663,0.30944444444444447],[-0.2655208333333333,0.2740740740740741],[-0.24927083333333327,0.2935185185185185],[-0.19031250000000005,0.2735185185185186],[-0.14406249999999995,0.27925925925925915],[-0.14406249999999995,0.27925925925925915],[-0.13614583333333338,0.30462962962962964],[-0.07124999999999998,0.27685185185185185],[0.02947916666666662,0.2301851851851851],[0.04864583333333338,0.21370370370370367],[0.09541666666666657,0.19962962962962955],[0.11145833333333334,0.1881481481481482],[0.11145833333333334,0.1881481481481482],[0.08333333333333333,0.13666666666666658],[0.13635416666666675,0.05759259259259263],[0.14593749999999991,0.026111111111111154],[0.14291666666666672,-0.034074074074074034],[0.14291666666666672,-0.034074074074074034],[0.1990624999999999,-0.11259259259259262],[0.19520833333333343,-0.1398148148148148],[0.17385416666666675,-0.18592592592592588],[0.17385416666666675,-0.18592592592592588],[0.1571875000000001,-0.23333333333333334],[0.1571875000000001,-0.23333333333333334],[0.1267708333333334,-0.23629629629629634],[0.12322916666666663,-0.2644444444444445],[0.1352083333333333,-0.275],[0.13916666666666658,-0.30166666666666664],[0.1460416666666667,-0.32148148148148153],[0.17739583333333328,-0.33648148148148144],[0.17739583333333328,-0.33648148148148144],[0.171875,-0.3387037037037037],[0.1622916666666666,-0.3866666666666667],[0.1622916666666666,-0.3866666666666667],[0.13770833333333338,-0.40981481481481485],[0.13895833333333343,-0.42055555555555557],[0.14458333333333329,-0.43277777777777776],[0.13895833333333343,-0.4527777777777778],[0.12218749999999995,-0.45870370370370367],[0.11531250000000005,-0.4633333333333333],[0.11031250000000009,-0.48148148148148145],[0.09322916666666667,-0.4994444444444444],[0.10604166666666662,-0.5157407407407407],[0.12291666666666666,-0.48629629629629634],[0.1525000000000001,-0.45759259259259266],[0.15625,-0.4412962962962963],[0.1586458333333333,-0.44537037037037036],[0.1586458333333333,-0.44537037037037036],[0.16072916666666662,-0.43074074074074076],[0.18479166666666677,-0.41740740740740734],[0.2071875000000001,-0.4116666666666667],[0.2247916666666666,-0.3992592592592593],[0.23604166666666657,-0.3811111111111111],[0.23770833333333338,-0.40666666666666673],[0.24697916666666658,-0.40981481481481485],[0.24697916666666658,-0.40981481481481485],[0.26052083333333326,-0.4105555555555555],[0.25541666666666674,-0.39740740740740743],[0.25541666666666674,-0.39740740740740743],[0.25677083333333334,-0.3925925925925926],[0.24541666666666656,-0.39444444444444443],[0.23729166666666662,-0.3985185185185185],[0.22468750000000004,-0.38185185185185183],[0.21208333333333323,-0.36518518518518517],[0.21208333333333323,-0.36518518518518517],[0.2185416666666666,-0.357962962962963],[0.2185416666666666,-0.357962962962963],[0.2131249999999999,-0.33611111111111114],[0.19666666666666663,-0.32092592592592595],[0.18020833333333333,-0.30574074074074076],[0.18020833333333333,-0.30574074074074076],[0.17802083333333343,-0.31296296296296294],[0.17802083333333343,-0.31296296296296294],[0.175,-0.3175925925925926],[0.175,-0.3175925925925926],[0.1818749999999999,-0.2927777777777778],[0.1818749999999999,-0.2927777777777778],[0.20083333333333328,-0.27518518518518525],[0.20083333333333328,-0.27518518518518525],[0.22489583333333343,-0.2770370370370371],[0.22489583333333343,-0.2770370370370371],[0.23041666666666671,-0.2690740740740741],[0.2224999999999999,-0.27037037037037037],[0.2224999999999999,-0.27037037037037037],[0.21802083333333327,-0.2729629629629629],[0.22374999999999995,-0.29796296296296293],[0.24635416666666668,-0.33555555555555555],[0.2708333333333333,-0.3442592592592592],[0.27625000000000005,-0.34370370370370373],[0.27625000000000005,-0.34370370370370373],[0.2842708333333334,-0.3609259259259259],[0.27843749999999995,-0.37111111111111106],[0.2540625000000001,-0.3957407407407407],[0.2639583333333334,-0.42833333333333334],[0.27354166666666657,-0.41759259259259257],[0.2872916666666666,-0.39222222222222225],[0.2898958333333333,-0.39166666666666666],[0.2756249999999999,-0.3785185185185185],[0.2652083333333332,-0.37462962962962965],[0.2616666666666667,-0.37648148148148153],[0.25281250000000005,-0.38351851851851854],[0.23270833333333343,-0.39296296296296296],[0.23010416666666675,-0.3792592592592593],[0.1944791666666667,-0.3768518518518518],[0.1330208333333334,-0.367037037037037],[0.06593749999999995,-0.40555555555555556],[-0.008333333333333333,-0.3992592592592593],[-0.08260416666666662,-0.39296296296296296],[-0.16291666666666665,-0.35648148148148145],[-0.24739583333333334,-0.3811111111111111],[-0.30489583333333337,-0.362962962962963],[-0.34093749999999995,-0.3531481481481481],[-0.3958333333333333,-0.3675925925925926],[-0.4367708333333333,-0.3685185185185185],[-0.4670833333333333,-0.377962962962963],[-0.48833333333333334,-0.3453703703703704],[-0.5071875,-0.35],[-0.5260416666666666,-0.35462962962962963],[-0.4834375,-0.3822222222222222],[-0.4834375,-0.3822222222222222],[-0.44197916666666665,-0.3861111111111111],[-0.3754166666666666,-0.4118518518518518]]","[[0.37864583333333335,0.17981481481481484,0.0003000001907338401],[0.37864583333333335,0.17981481481481484,0.05220000028609917],[0.3758333333333333,0.20851851851851855,0.0669000000953659],[0.3758333333333333,0.20851851851851855,0.08710000038146859],[0.40625,0.22444444444444453,0.10549999999999926],[0.40625,0.22444444444444453,0.11290000009536527],[0.4101041666666667,0.25037037037037047,0.12730000019073628],[0.4101041666666667,0.25037037037037047,0.14399999999999835],[0.4144791666666668,0.27259259259259266,0.16070000028609854],[0.4144791666666668,0.27259259259259266,0.17740000009536772],[0.3724999999999999,0.2772222222222223,0.19440000009536362],[0.3724999999999999,0.2772222222222223,0.2107000002861028],[0.37083333333333335,0.27240740740740743,0.2273000001907306],[0.3634375000000001,0.2581481481481481,0.24980000019073145],[0.3634375000000001,0.2581481481481481,0.26070000028609996],[0.3454166666666666,0.25388888888888894,0.27730000019073486],[0.3454166666666666,0.25388888888888894,0.29399999999999693],[0.32802083333333343,0.2851851851851852,0.31060000038146995],[0.32802083333333343,0.2851851851851852,0.327300000190732],[0.2690624999999999,0.29018518518518527,0.3440000000000012],[0.26572916666666657,0.27981481481481485,0.36210000038146717],[0.21645833333333328,0.2737037037037036,0.3794000000953659],[0.18270833333333342,0.2601851851851852,0.39399999999999835],[0.18270833333333342,0.2601851851851852,0.41210000038147143],[0.13770833333333338,0.225,0.42720000028609917],[0.08677083333333328,0.2007407407407407,0.4450000000000003],[0.02364583333333338,0.1868518518518518,0.46060000038146853],[-0.028854166666666715,0.18499999999999997,0.47760000038147155],[-0.028854166666666715,0.18499999999999997,0.4939000000953655],[-0.07072916666666665,0.17314814814814813,0.5107000002861],[-0.11656249999999997,0.15685185185185194,0.5307000002861031],[-0.1608333333333333,0.1270370370370371,0.5462000002860989],[-0.1608333333333333,0.1270370370370371,0.5607000002861042],[-0.1977083333333333,0.09611111111111106,0.577300000190732],[-0.21218750000000006,0.07333333333333338,0.5973000001907351],[-0.21781250000000002,0.07685185185185185,0.6106000003814671],[-0.21781250000000002,0.07685185185185185,0.6274000000953635],[-0.21354166666666666,0.0985185185185186,0.6439999999999984],[-0.19333333333333336,0.0933333333333333,0.6656000003814668],[-0.19333333333333336,0.0933333333333333,0.677500000000002],[-0.17468750000000005,0.08944444444444435,0.6939999999999955],[-0.165625,0.08796296296296297,0.7106000003814685],[-0.15656249999999997,0.08648148148148156,0.7272000002861034],[-0.14322916666666666,0.08351851851851856,0.7439000000953655],[-0.13145833333333337,0.09407407407407399,0.7617000002860976],[-0.10531250000000002,0.10259259259259255,0.7774000000953691],[-0.08343750000000003,0.1088888888888888,0.794400000095365],[-0.06062500000000005,0.09185185185185189,0.8137000002861043],[-0.03760416666666669,0.09203703703703713,0.827300000190732],[0.009791666666666643,0.10555555555555556,0.8440000000000012],[0.009791666666666643,0.10555555555555556,0.8608000001907357],[0.03291666666666669,0.0977777777777777,0.8773000001907363],[0.07062499999999995,0.08722222222222227,0.8939999999999984],[0.0984375,0.09074074074074075,0.9107000002860985],[0.11708333333333343,0.10537037037037032,0.9272000002860992],[0.13416666666666663,0.12518518518518523,0.9439999999999955],[0.13145833333333337,0.13870370370370366,0.96080000019073],[0.13166666666666677,0.16203703703703703,0.9782000002861011],[0.12208333333333338,0.1824074074074074,0.9939000000953655],[0.12208333333333338,0.1824074074074074,1.0106000003814657],[0.11166666666666672,0.17555555555555546,1.0273000001907349],[0.06749999999999995,0.15555555555555556,1.043999999999997],[0.043229166666666666,0.14000000000000004,1.0639000000953658],[0.0375,0.12037037037037036,1.0811000003814684],[0.04906250000000002,0.15018518518518523,1.0978000001907304],[0.07239583333333334,0.16129629629629633,1.1108000001907357],[0.09729166666666676,0.16722222222222213,1.1273000001907363],[0.09302083333333329,0.15314814814814823,1.1441000003814707],[0.09562499999999995,0.1257407407407407,1.1641000003814668],[0.1015625,0.10833333333333334,1.179400000095363],[0.13020833333333334,0.09462962962962967,1.1944000000953636],[0.1476041666666667,0.11648148148148144,1.2106000003814685],[0.1709374999999999,0.15388888888888894,1.2313000001907355],[0.1412499999999999,0.21962962962962967,1.2442000002860993],[0.1203125,0.20851851851851855,1.2608000001907342],[0.09947916666666666,0.21425925925925934,1.2773000001907349],[0.07906250000000009,0.20259259259259255,1.293999999999997],[0.1078125,0.23129629629629625,1.3108000001907314],[0.12489583333333343,0.2609259259259259,1.3272000002860977],[0.11843750000000004,0.2772222222222223,1.3446000003814689],[0.09239583333333339,0.30944444444444447,1.3629999999999995],[0.10552083333333329,0.3205555555555556,1.378300000190734],[0.11864583333333342,0.3316666666666667,1.393900000095364],[0.13479166666666675,0.3118518518518518,1.4106000003814714],[0.13479166666666675,0.30537037037037035,1.4272000002860992],[0.14895833333333333,0.3272222222222223,1.4439999999999955],[0.16270833333333337,0.36648148148148146,1.4607000002861028],[0.1578125,0.36203703703703705,1.4773000001907306],[0.13614583333333338,0.3592592592592593,1.4984000000953657],[0.1521874999999999,0.3483333333333334,1.5137000002861],[0.17531249999999995,0.33055555555555555,1.528100000381471],[0.20802083333333338,0.32444444444444454,1.5467000002861013],[0.184375,0.3290740740740742,1.5644999999999953],[0.184375,0.3290740740740742,1.577300000190732],[0.1772916666666667,0.3516666666666666,1.593900000095367],[0.1790625000000001,0.3455555555555556,1.6105000000000018],[0.14947916666666666,0.3148148148148148,1.6273000001907363],[0.14947916666666666,0.3148148148148148,1.6439999999999984],[0.1068749999999999,0.28129629629629627,1.6607000002860985],[0.1068749999999999,0.28129629629629627,1.6773000001907334],[0.07156250000000004,0.32111111111111107,1.694100000381468],[0.05947916666666669,0.3274074074074073,1.7106000003814685],[0.029895833333333382,0.34518518518518515,1.727800000190733],[-0.004791666666666691,0.37666666666666665,1.7439000000953655],[-0.06812499999999998,0.39740740740740743,1.761499999999998],[-0.08666666666666671,0.40259259259259256,1.7772000002861006],[-0.10020833333333339,0.3942592592592592,1.7942000002861036],[-0.1265625,0.415925925925926,1.81060000038147],[-0.15499999999999994,0.4646296296296296,1.827300000190732],[-0.15499999999999994,0.4646296296296296,1.8440000000000012],[-0.16968749999999996,0.48037037037037034,1.8606000003814671],[-0.16239583333333332,0.4522222222222223,1.8773000001907363],[-0.16499999999999998,0.4579629629629629,1.893800000190737],[-0.19093749999999995,0.4583333333333333,1.910499999999999],[-0.20625,0.4777777777777778,1.9273000001907334],[-0.21927083333333333,0.49296296296296305,1.9439000000953683],[-0.22937500000000005,0.48777777777777775,1.9646000003814663],[-0.21437499999999995,0.4764814814814814,1.9807000002860988],[-0.19541666666666668,0.4638888888888889,1.9942000002860993],[-0.17437499999999997,0.40259259259259256,2.0107000002861],[-0.15989583333333332,0.37481481481481477,2.0272000002861006],[-0.16895833333333338,0.3646296296296296,2.0439000000953627],[-0.16895833333333338,0.3646296296296296,2.06060000038147],[-0.17354166666666668,0.34592592592592586,2.077300000190732],[-0.1502083333333334,0.32018518518518513,2.110500000000002],[-0.1502083333333334,0.32018518518518513,2.1177000002860993],[-0.15583333333333335,0.2831481481481481,2.1273000001907363],[-0.16354166666666667,0.2448148148148149,2.143900000095364],[-0.18802083333333333,0.21666666666666667,2.1629999999999967],[-0.22822916666666668,0.19370370370370374,2.1802000002860993],[-0.22822916666666668,0.19370370370370374,2.1939999999999955],[-0.2890625,0.19240740740740736,2.2147000002861006],[-0.28791666666666665,0.22555555555555548,2.232300000190733],[-0.27927083333333336,0.25629629629629624,2.2485],[-0.27927083333333336,0.25629629629629624,2.265499999999996],[-0.2579166666666667,0.26444444444444437,2.277400000095369],[-0.23572916666666663,0.28166666666666673,2.298900000095365],[-0.21802083333333327,0.32685185185185184,2.316200000286102],[-0.18947916666666664,0.33537037037037043,2.3327000002861027],[-0.18947916666666664,0.33537037037037043,2.344000000000001],[-0.15510416666666665,0.3866666666666666,2.3608000001907357],[-0.15510416666666665,0.3866666666666666,2.383100000381468],[-0.09656250000000005,0.3955555555555556,2.3941000003814707],[-0.09656250000000005,0.3955555555555556,2.410900000095367],[-0.04614583333333329,0.4192592592592592,2.434200000286104],[-0.04614583333333329,0.4192592592592592,2.444100000381468],[0.009895833333333333,0.45925925925925926,2.4609000000953642],[0.009895833333333333,0.45925925925925926,2.4836000003814718],[0.029895833333333382,0.44351851851851853,2.4942000002860993],[0.029895833333333382,0.44351851851851853,2.5109000000953685],[0.05260416666666667,0.41222222222222227,2.546999999999997],[0.05260416666666667,0.41222222222222227,2.556200000286104],[0.019270833333333334,0.412962962962963,2.5667000002860973],[0.019270833333333334,0.412962962962963,2.5774000000953663],[0.00458333333333331,0.4185185185185185,2.598400000095367],[-0.008124999999999953,0.3998148148148148,2.614200000286104],[-0.0012500000000000473,0.3816666666666667,2.633499999999998],[-0.0012500000000000473,0.3816666666666667,2.6499999999999986],[-0.010625000000000048,0.32981481481481484,2.6611000003814667],[-0.010625000000000048,0.32981481481481484,2.6777000002861016],[-0.027395833333333286,0.3337037037037038,2.6992000002860976],[-0.005937500000000048,0.31444444444444436,2.7146000003814663],[0.030520833333333285,0.2572222222222222,2.7313000001907355],[0.06604166666666664,0.24222222222222214,2.747700000286102],[0.09718749999999995,0.24740740740740744,2.7649000000953663],[0.1375,0.23740740740740748,2.7809000000953645],[0.14291666666666672,0.22555555555555548,2.7972000002861037],[0.17114583333333327,0.22277777777777769,2.8131000003814677],[0.19187500000000005,0.2448148148148149,2.834400000095364],[0.19187500000000005,0.2448148148148149,2.844000000000001],[0.22000000000000006,0.2301851851851851,2.8607000002861014],[0.2555208333333333,0.2442592592592592,2.877200000286102],[0.2515625,0.2675925925925926,2.894200000286098],[0.2700000000000001,0.302962962962963,2.9106000003814714],[0.2634375000000001,0.33907407407407414,2.931900000095368],[0.2400000000000001,0.3635185185185184,2.9491000003814705],[0.2400000000000001,0.3635185185185184,2.96080000019073],[0.21281249999999996,0.3544444444444444,2.977499999999999],[0.21281249999999996,0.3544444444444444,2.9943000001907336],[0.1929166666666667,0.37777777777777777,3.014800000190732],[0.1929166666666667,0.37777777777777777,3.0274999999999963],[0.18958333333333333,0.36648148148148146,3.0442000002861036],[0.18302083333333338,0.3537037037037037,3.0646000003814677],[0.16749999999999995,0.365925925925926,3.079499999999996],[0.16989583333333325,0.347037037037037,3.097200000286101],[0.17229166666666676,0.32814814814814824,3.113500000000002],[0.13135416666666658,0.29870370370370364,3.1296000003814655],[0.07531249999999995,0.2777777777777778,3.1441000003814707],[0.049687500000000044,0.25018518518518523,3.164999999999999],[0.04822916666666662,0.23851851851851844,3.179800000190731],[0.05572916666666667,0.19148148148148145,3.200800000190732],[0.05572916666666667,0.19148148148148145,3.211200000286098],[0.015312500000000047,0.22185185185185177,3.231900000095365],[0.0328125,0.19537037037037036,3.247100000381465],[0.06208333333333336,0.17703703703703708,3.2631000003814705],[0.051979166666666646,0.1609259259259259,3.277400000095369],[0.041875000000000044,0.1448148148148149,3.2943000001907308],[0.01895833333333338,0.1742592592592593,3.3104999999999976],[0.01114583333333338,0.19518518518518516,3.3272000002860977],[-0.013333333333333286,0.22296296296296292,3.343900000095367],[-0.02520833333333338,0.25166666666666665,3.3649000000953677],[-0.059375,0.297037037037037,3.3811000003814655],[-0.08708333333333336,0.2992592592592593,3.3988000001907324],[-0.1828125,0.33851851851851844,3.414600000381469],[-0.2778125000000001,0.3696296296296297,3.430100000381465],[-0.33718750000000003,0.4005555555555555,3.4444000000953636],[-0.39656250000000004,0.43148148148148147,3.4651000003814687],[-0.41916666666666663,0.41722222222222216,3.4813000001907355],[-0.46208333333333335,0.4142592592592593,3.5004999999999953],[-0.46208333333333335,0.4142592592592593,3.5109000000953685],[-0.425,0.39388888888888896,3.5274999999999963],[-0.40197916666666667,0.3566666666666667,3.543999999999997],[-0.40197916666666667,0.3566666666666667,3.5693000001907365],[-0.34104166666666663,0.30944444444444447,3.5774000000953663],[-0.2655208333333333,0.2740740740740741,3.594300000190735],[-0.24927083333333327,0.2935185185185185,3.6108000001907357],[-0.19031250000000005,0.2735185185185186,3.6325000000000003],[-0.14406249999999995,0.27925925925925915,3.6488000001907324],[-0.14406249999999995,0.27925925925925915,3.660800000190733],[-0.13614583333333338,0.30462962962962964,3.6776000003814673],[-0.07124999999999998,0.27685185185185185,3.6996000003814657],[0.02947916666666662,0.2301851851851851,3.7149999999999963],[0.04864583333333338,0.21370370370370367,3.7301000003814693],[0.09541666666666657,0.19962962962962955,3.74510000038147],[0.11145833333333334,0.1881481481481482,3.7674999999999983],[0.11145833333333334,0.1881481481481482,3.777400000095369],[0.08333333333333333,0.13666666666666658,3.7941000003814693],[0.13635416666666675,0.05759259259259263,3.8114999999999952],[0.14593749999999991,0.026111111111111154,3.8305000000000007],[0.14291666666666672,-0.034074074074074034,3.848400000095367],[0.14291666666666672,-0.034074074074074034,3.8608000001907357],[0.1990624999999999,-0.11259259259259262,3.8774000000953635],[0.19520833333333343,-0.1398148148148148,3.8974000000953666],[0.17385416666666675,-0.18592592592592588,3.916800000190733],[0.17385416666666675,-0.18592592592592588,3.9357000002861042],[0.1571875000000001,-0.23333333333333334,3.957900000095364],[0.1571875000000001,-0.23333333333333334,3.964800000190735],[0.1267708333333334,-0.23629629629629634,3.977400000095365],[0.12322916666666663,-0.2644444444444445,3.9939000000953655],[0.1352083333333333,-0.275,4.010600000381466],[0.13916666666666658,-0.30166666666666664,4.027300000190735],[0.1460416666666667,-0.32148148148148153,4.043900000095363],[0.17739583333333328,-0.33648148148148144,4.06060000038147],[0.17739583333333328,-0.33648148148148144,4.077300000190732],[0.171875,-0.3387037037037037,4.093900000095367],[0.1622916666666666,-0.3866666666666667,4.110600000381467],[0.1622916666666666,-0.3866666666666667,4.127200000286102],[0.13770833333333338,-0.40981481481481485,4.143999999999998],[0.13895833333333343,-0.42055555555555557,4.160600000381471],[0.14458333333333329,-0.43277777777777776,4.177300000190733],[0.13895833333333343,-0.4527777777777778,4.19460000038147],[0.12218749999999995,-0.45870370370370367,4.210700000286103],[0.11531250000000005,-0.4633333333333333,4.227200000286103],[0.11031250000000009,-0.48148148148148145,4.2439000000953655],[0.09322916666666667,-0.4994444444444444,4.260600000381466],[0.10604166666666662,-0.5157407407407407,4.277200000286101],[0.12291666666666666,-0.48629629629629634,4.293999999999997],[0.1525000000000001,-0.45759259259259266,4.311100000381465],[0.15625,-0.4412962962962963,4.327200000286098],[0.1586458333333333,-0.44537037037037036,4.343900000095367],[0.1586458333333333,-0.44537037037037036,4.361400000095365],[0.16072916666666662,-0.43074074074074076,4.377200000286102],[0.18479166666666677,-0.41740740740740734,4.393900000095364],[0.2071875000000001,-0.4116666666666667,4.411100000381467],[0.2247916666666666,-0.3992592592592593,4.427200000286099],[0.23604166666666657,-0.3811111111111111,4.443900000095368],[0.23770833333333338,-0.40666666666666673,4.465499999999999],[0.24697916666666658,-0.40981481481481485,4.479999999999997],[0.24697916666666658,-0.40981481481481485,4.493800000190731],[0.26052083333333326,-0.4105555555555555,4.510600000381466],[0.25541666666666674,-0.39740740740740743,4.530000000000001],[0.25541666666666674,-0.39740740740740743,4.543900000095363],[0.25677083333333334,-0.3925925925925926,4.56060000038147],[0.24541666666666656,-0.39444444444444443,4.577300000190732],[0.23729166666666662,-0.3985185185185185,4.5941000003814665],[0.22468750000000004,-0.38185185185185183,4.610500000000002],[0.21208333333333323,-0.36518518518518517,4.627499999999998],[0.21208333333333323,-0.36518518518518517,4.644100000381471],[0.2185416666666666,-0.357962962962963,4.6607000002860985],[0.2185416666666666,-0.357962962962963,4.677300000190733],[0.2131249999999999,-0.33611111111111114,4.6939999999999955],[0.19666666666666663,-0.32092592592592595,4.713100000381466],[0.18020833333333333,-0.30574074074074076,4.727200000286103],[0.18020833333333333,-0.30574074074074076,4.744700000286102],[0.17802083333333343,-0.31296296296296294,4.7607000002861],[0.17802083333333343,-0.31296296296296294,4.777300000190735],[0.175,-0.3175925925925926,4.794600000381472],[0.175,-0.3175925925925926,4.81060000038147],[0.1818749999999999,-0.2927777777777778,4.827300000190732],[0.1818749999999999,-0.2927777777777778,4.843900000095367],[0.20083333333333328,-0.27518518518518525,4.860700000286101],[0.20083333333333328,-0.27518518518518525,4.877300000190736],[0.22489583333333343,-0.2770370370370371,4.893900000095364],[0.22489583333333343,-0.2770370370370371,4.910600000381471],[0.23041666666666671,-0.2690740740740741,4.927700000286102],[0.2224999999999999,-0.27037037037037037,4.946400000095366],[0.2224999999999999,-0.27037037037037037,4.9606000003814685],[0.21802083333333327,-0.2729629629629629,4.977300000190731],[0.22374999999999995,-0.29796296296296293,4.994],[0.24635416666666668,-0.33555555555555555,5.0109000000953685],[0.2708333333333333,-0.3442592592592592,5.0294000000953645],[0.27625000000000005,-0.34370370370370373,5.043900000095363],[0.27625000000000005,-0.34370370370370373,5.060800000190731],[0.2842708333333334,-0.3609259259259259,5.077400000095366],[0.27843749999999995,-0.37111111111111106,5.093900000095367],[0.2540625000000001,-0.3957407407407407,5.110600000381467],[0.2639583333333334,-0.42833333333333334,5.127200000286102],[0.27354166666666657,-0.41759259259259257,5.143900000095364],[0.2872916666666666,-0.39222222222222225,5.1607000002860985],[0.2898958333333333,-0.39166666666666666,5.177400000095368],[0.2756249999999999,-0.3785185185185185,5.19760000038147],[0.2652083333333332,-0.37462962962962965,5.214200000286098],[0.2616666666666667,-0.37648148148148153,5.229900000095363],[0.25281250000000005,-0.38351851851851854,5.2439000000953655],[0.23270833333333343,-0.39296296296296296,5.260600000381466],[0.23010416666666675,-0.3792592592592593,5.277300000190735],[0.1944791666666667,-0.3768518518518518,5.293900000095363],[0.1330208333333334,-0.367037037037037,5.3104999999999976],[0.06593749999999995,-0.40555555555555556,5.327200000286098],[-0.008333333333333333,-0.3992592592592593,5.343900000095367],[-0.08260416666666662,-0.39296296296296296,5.364300000190731],[-0.16291666666666665,-0.35648148148148145,5.379300000190732],[-0.24739583333333334,-0.3811111111111111,5.394200000286098],[-0.30489583333333337,-0.362962962962963,5.410499999999999],[-0.34093749999999995,-0.3531481481481481,5.427200000286099],[-0.3958333333333333,-0.3675925925925926,5.443800000190734],[-0.4367708333333333,-0.3685185185185185,5.4643000001907325],[-0.4670833333333333,-0.377962962962963,5.477499999999999],[-0.48833333333333334,-0.3453703703703704,5.494300000190734],[-0.5071875,-0.35,5.510600000381466],[-0.5260416666666666,-0.35462962962962963,5.527200000286101],[-0.4834375,-0.3822222222222222,5.543999999999997],[-0.4834375,-0.3822222222222222,5.560800000190731],[-0.44197916666666665,-0.3861111111111111,5.577200000286098],[-0.3754166666666666,-0.4118518518518518,5.593900000095367]]","[0.0003000001907338401,0.05220000028609917,0.0669000000953659,0.08710000038146859,0.10549999999999926,0.11290000009536527,0.12730000019073628,0.14399999999999835,0.16070000028609854,0.17740000009536772,0.19440000009536362,0.2107000002861028,0.2273000001907306,0.24980000019073145,0.26070000028609996,0.27730000019073486,0.29399999999999693,0.31060000038146995,0.327300000190732,0.3440000000000012,0.36210000038146717,0.3794000000953659,0.39399999999999835,0.41210000038147143,0.42720000028609917,0.4450000000000003,0.46060000038146853,0.47760000038147155,0.4939000000953655,0.5107000002861,0.5307000002861031,0.5462000002860989,0.5607000002861042,0.577300000190732,0.5973000001907351,0.6106000003814671,0.6274000000953635,0.6439999999999984,0.6656000003814668,0.677500000000002,0.6939999999999955,0.7106000003814685,0.7272000002861034,0.7439000000953655,0.7617000002860976,0.7774000000953691,0.794400000095365,0.8137000002861043,0.827300000190732,0.8440000000000012,0.8608000001907357,0.8773000001907363,0.8939999999999984,0.9107000002860985,0.9272000002860992,0.9439999999999955,0.96080000019073,0.9782000002861011,0.9939000000953655,1.0106000003814657,1.0273000001907349,1.043999999999997,1.0639000000953658,1.0811000003814684,1.0978000001907304,1.1108000001907357,1.1273000001907363,1.1441000003814707,1.1641000003814668,1.179400000095363,1.1944000000953636,1.2106000003814685,1.2313000001907355,1.2442000002860993,1.2608000001907342,1.2773000001907349,1.293999999999997,1.3108000001907314,1.3272000002860977,1.3446000003814689,1.3629999999999995,1.378300000190734,1.393900000095364,1.4106000003814714,1.4272000002860992,1.4439999999999955,1.4607000002861028,1.4773000001907306,1.4984000000953657,1.5137000002861,1.528100000381471,1.5467000002861013,1.5644999999999953,1.577300000190732,1.593900000095367,1.6105000000000018,1.6273000001907363,1.6439999999999984,1.6607000002860985,1.6773000001907334,1.694100000381468,1.7106000003814685,1.727800000190733,1.7439000000953655,1.761499999999998,1.7772000002861006,1.7942000002861036,1.81060000038147,1.827300000190732,1.8440000000000012,1.8606000003814671,1.8773000001907363,1.893800000190737,1.910499999999999,1.9273000001907334,1.9439000000953683,1.9646000003814663,1.9807000002860988,1.9942000002860993,2.0107000002861,2.0272000002861006,2.0439000000953627,2.06060000038147,2.077300000190732,2.110500000000002,2.1177000002860993,2.1273000001907363,2.143900000095364,2.1629999999999967,2.1802000002860993,2.1939999999999955,2.2147000002861006,2.232300000190733,2.2485,2.265499999999996,2.277400000095369,2.298900000095365,2.316200000286102,2.3327000002861027,2.344000000000001,2.3608000001907357,2.383100000381468,2.3941000003814707,2.410900000095367,2.434200000286104,2.444100000381468,2.4609000000953642,2.4836000003814718,2.4942000002860993,2.5109000000953685,2.546999999999997,2.556200000286104,2.5667000002860973,2.5774000000953663,2.598400000095367,2.614200000286104,2.633499999999998,2.6499999999999986,2.6611000003814667,2.6777000002861016,2.6992000002860976,2.7146000003814663,2.7313000001907355,2.747700000286102,2.7649000000953663,2.7809000000953645,2.7972000002861037,2.8131000003814677,2.834400000095364,2.844000000000001,2.8607000002861014,2.877200000286102,2.894200000286098,2.9106000003814714,2.931900000095368,2.9491000003814705,2.96080000019073,2.977499999999999,2.9943000001907336,3.014800000190732,3.0274999999999963,3.0442000002861036,3.0646000003814677,3.079499999999996,3.097200000286101,3.113500000000002,3.1296000003814655,3.1441000003814707,3.164999999999999,3.179800000190731,3.200800000190732,3.211200000286098,3.231900000095365,3.247100000381465,3.2631000003814705,3.277400000095369,3.2943000001907308,3.3104999999999976,3.3272000002860977,3.343900000095367,3.3649000000953677,3.3811000003814655,3.3988000001907324,3.414600000381469,3.430100000381465,3.4444000000953636,3.4651000003814687,3.4813000001907355,3.5004999999999953,3.5109000000953685,3.5274999999999963,3.543999999999997,3.5693000001907365,3.5774000000953663,3.594300000190735,3.6108000001907357,3.6325000000000003,3.6488000001907324,3.660800000190733,3.6776000003814673,3.6996000003814657,3.7149999999999963,3.7301000003814693,3.74510000038147,3.7674999999999983,3.777400000095369,3.7941000003814693,3.8114999999999952,3.8305000000000007,3.848400000095367,3.8608000001907357,3.8774000000953635,3.8974000000953666,3.916800000190733,3.9357000002861042,3.957900000095364,3.964800000190735,3.977400000095365,3.9939000000953655,4.010600000381466,4.027300000190735,4.043900000095363,4.06060000038147,4.077300000190732,4.093900000095367,4.110600000381467,4.127200000286102,4.143999999999998,4.160600000381471,4.177300000190733,4.19460000038147,4.210700000286103,4.227200000286103,4.2439000000953655,4.260600000381466,4.277200000286101,4.293999999999997,4.311100000381465,4.327200000286098,4.343900000095367,4.361400000095365,4.377200000286102,4.393900000095364,4.411100000381467,4.427200000286099,4.443900000095368,4.465499999999999,4.479999999999997,4.493800000190731,4.510600000381466,4.530000000000001,4.543900000095363,4.56060000038147,4.577300000190732,4.5941000003814665,4.610500000000002,4.627499999999998,4.644100000381471,4.6607000002860985,4.677300000190733,4.6939999999999955,4.713100000381466,4.727200000286103,4.744700000286102,4.7607000002861,4.777300000190735,4.794600000381472,4.81060000038147,4.827300000190732,4.843900000095367,4.860700000286101,4.877300000190736,4.893900000095364,4.910600000381471,4.927700000286102,4.946400000095366,4.9606000003814685,4.977300000190731,4.994,5.0109000000953685,5.0294000000953645,5.043900000095363,5.060800000190731,5.077400000095366,5.093900000095367,5.110600000381467,5.127200000286102,5.143900000095364,5.1607000002860985,5.177400000095368,5.19760000038147,5.214200000286098,5.229900000095363,5.2439000000953655,5.260600000381466,5.277300000190735,5.293900000095363,5.3104999999999976,5.327200000286098,5.343900000095367,5.364300000190731,5.379300000190732,5.394200000286098,5.410499999999999,5.427200000286099,5.443800000190734,5.4643000001907325,5.477499999999999,5.494300000190734,5.510600000381466,5.527200000286101,5.543999999999997,5.560800000190731,5.577200000286098,5.593900000095367]","[1732169727428,1732169727470,1732169727485,1732169727505,1732169727524,1732169727531,1732169727546,1732169727562,1732169727579,1732169727596,1732169727614,1732169727630,1732169727647,1732169727669,1732169727680,1732169727697,1732169727713,1732169727730,1732169727747,1732169727763,1732169727781,1732169727799,1732169727813,1732169727831,1732169727847,1732169727864,1732169727880,1732169727897,1732169727913,1732169727930,1732169727950,1732169727965,1732169727980,1732169727997,1732169728017,1732169728030,1732169728047,1732169728063,1732169728085,1732169728097,1732169728113,1732169728130,1732169728147,1732169728163,1732169728181,1732169728197,1732169728214,1732169728233,1732169728247,1732169728263,1732169728280,1732169728297,1732169728313,1732169728330,1732169728347,1732169728363,1732169728380,1732169728397,1732169728413,1732169728430,1732169728447,1732169728463,1732169728483,1732169728500,1732169728517,1732169728530,1732169728547,1732169728563,1732169728583,1732169728599,1732169728614,1732169728630,1732169728651,1732169728663,1732169728680,1732169728697,1732169728713,1732169728730,1732169728747,1732169728764,1732169728782,1732169728798,1732169728813,1732169728830,1732169728847,1732169728863,1732169728880,1732169728897,1732169728918,1732169728933,1732169728947,1732169728966,1732169728984,1732169728997,1732169729013,1732169729030,1732169729047,1732169729063,1732169729080,1732169729097,1732169729113,1732169729130,1732169729147,1732169729163,1732169729181,1732169729197,1732169729213,1732169729230,1732169729247,1732169729263,1732169729280,1732169729297,1732169729313,1732169729330,1732169729347,1732169729363,1732169729384,1732169729400,1732169729414,1732169729430,1732169729446,1732169729463,1732169729480,1732169729497,1732169729530,1732169729537,1732169729547,1732169729563,1732169729582,1732169729599,1732169729613,1732169729634,1732169729652,1732169729668,1732169729685,1732169729697,1732169729718,1732169729736,1732169729752,1732169729763,1732169729780,1732169729802,1732169729813,1732169729830,1732169729853,1732169729863,1732169729880,1732169729903,1732169729913,1732169729930,1732169729966,1732169729976,1732169729986,1732169729997,1732169730018,1732169730034,1732169730053,1732169730069,1732169730080,1732169730097,1732169730118,1732169730134,1732169730151,1732169730167,1732169730184,1732169730200,1732169730216,1732169730232,1732169730254,1732169730263,1732169730280,1732169730296,1732169730314,1732169730330,1732169730351,1732169730368,1732169730380,1732169730397,1732169730414,1732169730434,1732169730447,1732169730463,1732169730484,1732169730499,1732169730516,1732169730533,1732169730549,1732169730563,1732169730584,1732169730599,1732169730620,1732169730630,1732169730651,1732169730666,1732169730682,1732169730697,1732169730714,1732169730730,1732169730747,1732169730763,1732169730784,1732169730800,1732169730818,1732169730834,1732169730849,1732169730864,1732169730884,1732169730901,1732169730920,1732169730930,1732169730947,1732169730963,1732169730989,1732169730997,1732169731014,1732169731030,1732169731052,1732169731068,1732169731080,1732169731097,1732169731119,1732169731134,1732169731149,1732169731164,1732169731187,1732169731197,1732169731213,1732169731231,1732169731250,1732169731268,1732169731280,1732169731297,1732169731317,1732169731336,1732169731355,1732169731377,1732169731384,1732169731397,1732169731413,1732169731430,1732169731446,1732169731463,1732169731480,1732169731497,1732169731513,1732169731530,1732169731547,1732169731563,1732169731580,1732169731597,1732169731614,1732169731630,1732169731646,1732169731663,1732169731680,1732169731697,1732169731713,1732169731730,1732169731746,1732169731763,1732169731781,1732169731796,1732169731813,1732169731830,1732169731846,1732169731863,1732169731885,1732169731899,1732169731913,1732169731930,1732169731949,1732169731963,1732169731980,1732169731997,1732169732013,1732169732030,1732169732047,1732169732063,1732169732080,1732169732097,1732169732113,1732169732132,1732169732146,1732169732164,1732169732180,1732169732197,1732169732214,1732169732230,1732169732247,1732169732263,1732169732280,1732169732297,1732169732313,1732169732330,1732169732347,1732169732366,1732169732380,1732169732397,1732169732413,1732169732430,1732169732449,1732169732463,1732169732480,1732169732497,1732169732513,1732169732530,1732169732546,1732169732563,1732169732580,1732169732597,1732169732617,1732169732633,1732169732649,1732169732663,1732169732680,1732169732697,1732169732713,1732169732730,1732169732746,1732169732763,1732169732784,1732169732799,1732169732813,1732169732830,1732169732846,1732169732863,1732169732884,1732169732897,1732169732914,1732169732930,1732169732946,1732169732963,1732169732980,1732169732997,1732169733013]","[[1323.5,637.1],[1323.5,637.1],[1320.8,652.6],[1320.8,652.6],[1350,661.2],[1350,661.2],[1353.7,675.2],[1353.7,675.2],[1357.9,687.2],[1357.9,687.2],[1317.6,689.7],[1317.6,689.7],[1316,687.1],[1308.9,679.4],[1308.9,679.4],[1291.6,677.1],[1291.6,677.1],[1274.9,694],[1274.9,694],[1218.3,696.7],[1215.1,691.1],[1167.8,687.8],[1135.4,680.5],[1135.4,680.5],[1092.2,661.5],[1043.3,648.4],[982.7,640.9],[932.3,639.9],[932.3,639.9],[892.1,633.5],[848.1,624.7],[805.6,608.6],[805.6,608.6],[770.2,591.9],[756.3,579.6],[750.9,581.5],[750.9,581.5],[755,593.2],[774.4,590.4],[774.4,590.4],[792.3,588.3],[801,587.5],[809.7,586.7],[822.5,585.1],[833.8,590.8],[858.9,595.4],[879.9,598.8],[901.8,589.6],[923.9,589.7],[969.4,597],[969.4,597],[991.6,592.8],[1027.8,587.1],[1054.5,589],[1072.4,596.9],[1088.8,607.6],[1086.2,614.9],[1086.4,627.5],[1077.2,638.5],[1077.2,638.5],[1067.2,634.8],[1024.8,624],[1001.5,615.6],[996,605],[1007.1,621.1],[1029.5,627.1],[1053.4,630.3],[1049.3,622.7],[1051.8,607.9],[1057.5,598.5],[1085,591.1],[1101.7,602.9],[1124.1,623.1],[1095.6,658.6],[1075.5,652.6],[1055.5,655.7],[1035.9,649.4],[1063.5,664.9],[1079.9,680.9],[1073.7,689.7],[1048.7,707.1],[1061.3,713.1],[1073.9,719.1],[1089.4,708.4],[1089.4,704.9],[1103,716.7],[1116.2,737.9],[1111.5,735.5],[1090.7,734],[1106.1,728.1],[1128.3,718.5],[1159.7,715.2],[1137,717.7],[1137,717.7],[1130.2,729.9],[1131.9,726.6],[1103.5,710],[1103.5,710],[1062.6,691.9],[1062.6,691.9],[1028.7,713.4],[1017.1,716.8],[988.7,726.4],[955.4,743.4],[894.6,754.6],[876.8,757.4],[863.8,752.9],[838.5,764.6],[811.2,790.9],[811.2,790.9],[797.1,799.4],[804.1,784.2],[801.6,787.3],[776.7,787.5],[762,798],[749.5,806.2],[739.8,803.4],[754.2,797.3],[772.4,790.5],[792.6,757.4],[806.5,742.4],[797.8,736.9],[797.8,736.9],[793.4,726.8],[815.8,712.9],[815.8,712.9],[810.4,692.9],[803,672.2],[779.5,657],[740.9,644.6],[740.9,644.6],[682.5,643.9],[683.6,661.8],[691.9,678.4],[691.9,678.4],[712.4,682.8],[733.7,692.1],[750.7,716.5],[778.1,721.1],[778.1,721.1],[811.1,748.8],[811.1,748.8],[867.3,753.6],[867.3,753.6],[915.7,766.4],[915.7,766.4],[969.5,788],[969.5,788],[988.7,779.5],[988.7,779.5],[1010.5,762.6],[1010.5,762.6],[978.5,763],[978.5,763],[964.4,766],[952.2,755.9],[958.8,746.1],[958.8,746.1],[949.8,718.1],[949.8,718.1],[933.7,720.2],[954.3,709.8],[989.3,678.9],[1023.4,670.8],[1053.3,673.6],[1092,668.2],[1097.2,661.8],[1124.3,660.3],[1144.2,672.2],[1144.2,672.2],[1171.2,664.3],[1205.3,671.9],[1201.5,684.5],[1219.2,703.6],[1212.9,723.1],[1190.4,736.3],[1190.4,736.3],[1164.3,731.4],[1164.3,731.4],[1145.2,744],[1145.2,744],[1142,737.9],[1135.7,731],[1120.8,737.6],[1123.1,727.4],[1125.4,717.2],[1086.1,701.3],[1032.3,690],[1007.7,675.1],[1006.3,668.8],[1013.5,643.4],[1013.5,643.4],[974.7,659.8],[991.5,645.5],[1019.6,635.6],[1009.9,626.9],[1000.2,618.2],[978.2,634.1],[970.7,645.4],[947.2,660.4],[935.8,675.9],[903,700.4],[876.4,701.6],[784.5,722.8],[693.3,739.6],[636.3,756.3],[579.3,773],[557.6,765.3],[516.4,763.7],[516.4,763.7],[552,752.7],[574.1,732.6],[574.1,732.6],[632.6,707.1],[705.1,688],[720.7,698.5],[777.3,687.7],[821.7,690.8],[821.7,690.8],[829.3,704.5],[891.6,689.5],[988.3,664.3],[1006.7,655.4],[1051.6,647.8],[1067,641.6],[1067,641.6],[1040,613.8],[1090.9,571.1],[1100.1,554.1],[1097.2,521.6],[1097.2,521.6],[1151.1,479.2],[1147.4,464.5],[1126.9,439.6],[1126.9,439.6],[1110.9,414],[1110.9,414],[1081.7,412.4],[1078.3,397.2],[1089.8,391.5],[1093.6,377.1],[1100.2,366.4],[1130.3,358.3],[1130.3,358.3],[1125,357.1],[1115.8,331.2],[1115.8,331.2],[1092.2,318.7],[1093.4,312.9],[1098.8,306.3],[1093.4,295.5],[1077.3,292.3],[1070.7,289.8],[1065.9,280],[1049.5,270.3],[1061.8,261.5],[1078,277.4],[1106.4,292.9],[1110,301.7],[1112.3,299.5],[1112.3,299.5],[1114.3,307.4],[1137.4,314.6],[1158.9,317.7],[1175.8,324.4],[1186.6,334.2],[1188.2,320.4],[1197.1,318.7],[1197.1,318.7],[1210.1,318.3],[1205.2,325.4],[1205.2,325.4],[1206.5,328],[1195.6,327],[1187.8,324.8],[1175.7,333.8],[1163.6,342.8],[1163.6,342.8],[1169.8,346.7],[1169.8,346.7],[1164.6,358.5],[1148.8,366.7],[1133,374.9],[1133,374.9],[1130.9,371],[1130.9,371],[1128,368.5],[1128,368.5],[1134.6,381.9],[1134.6,381.9],[1152.8,391.4],[1152.8,391.4],[1175.9,390.4],[1175.9,390.4],[1181.2,394.7],[1173.6,394],[1173.6,394],[1169.3,392.6],[1174.8,379.1],[1196.5,358.8],[1220,354.1],[1225.2,354.4],[1225.2,354.4],[1232.9,345.1],[1227.3,339.6],[1203.9,326.3],[1213.4,308.7],[1222.6,314.5],[1235.8,328.2],[1238.3,328.5],[1224.6,335.6],[1214.6,337.7],[1211.2,336.7],[1202.7,332.9],[1183.4,327.8],[1180.9,335.2],[1146.7,336.5],[1087.7,341.8],[1023.3,321],[952,324.4],[880.7,327.8],[803.6,347.5],[722.5,334.2],[667.3,344],[632.7,349.3],[580,341.5],[540.7,341],[511.6,335.9],[491.2,353.5],[473.1,351],[455,348.5],[495.9,333.6],[495.9,333.6],[535.7,331.5],[599.6,317.6]]","[-0.142,0.42599999999999993]","[0.142,0.42599999999999993]","[0.42599999999999993,0.42599999999999993]","[-0.42599999999999993,-0.142]","[-0.42599999999999993,0.142]","[-0.42599999999999993,-0.42599999999999993]","[-0.142,-0.142]","[0.142,-0.142]","[0.42599999999999993,-0.142]","[-0.142,0.142]","[0.142,0.142]","[0.42599999999999993,0.142]","[-0.142,-0.42599999999999993]","[0.142,-0.42599999999999993]","[0.42599999999999993,-0.42599999999999993]",0,0,0,0,1,3,Laptop,25,40,9,1,50,4,1,60,5
