inst1_resp.keys,inst1_resp.rt,calibrationMouse.x,calibrationMouse.y,calibrationMouse.leftButton,calibrationMouse.midButton,calibrationMouse.rightButton,calibrationClick.x,calibrationClick.y,calibrationClick.leftButton,calibrationClick.midButton,calibrationClick.rightButton,calibrationClick.clicked_name,trialsc.thisRepN,trialsc.thisTrialN,trialsc.thisN,trialsc.thisIndex,trialsc.ran,calibration_x,calibration_y,participant,session,date,expName,psychopyVersion,OS,frameRate,ScreenRes_pixels,Camera_pixels,mouse_2.x,mouse_2.y,mouse_2.leftButton,mouse_2.midButton,mouse_2.rightButton,mouse_2.time,mouse_2.clicked_name,mouse.x,mouse.y,mouse.leftButton,mouse.midButton,mouse.rightButton,mouse.time,mouse.clicked_name,Choice,Trial,TrialDuration,MOUSE_GAZE,ET_GAZE,ET_GAZE_x_T,time,unixTime,ET_GAZE_NF,Loc_Bus_label,Loc_Metro_label,Loc_RH_label,Loc_Cost_label,Loc_Travel_label,Loc_Comfort_label,Loc_Bus_cost,Loc_Metro_cost,Loc_RH_cost,Loc_Bus_travel,Loc_Metro_travel,Loc_RH_travel,Loc_Bus_comfort,Loc_Metro_comfort,Loc_RH_comfort,trials.thisRepN,trials.thisTrialN,trials.thisN,trials.thisIndex,trials.ran,Block,Device,RH_cost,RH_travel_time,RH_Comfort,metro_cost,metro_travel_time,metro_Comfort,Bus_cost,Bus_travel_time,Bus_Comfort
space,2.4634,0.163541667,-0.27962963,1,0,0,0.6625,-0.67037037,1,0,0,calibration_square,0,0,0,20,1,0.67,-0.67,02,001,2024-11-26_16h09.27.459,Attention_exp_legacy,2023.1.0,Win32,60.24096386,,,,,,,,,,,,,,,,,,,,,,,,,,,,,,,,,,,,,,,,,,,,,,,,,,,,,,,,
,,,,,,,-0.321875,0.661111111,1,0,0,calibration_square,0,1,1,8,1,-0.33,0.67,02,001,2024-11-26_16h09.27.459,Attention_exp_legacy,2023.1.0,Win32,60.24096386,,,,,,,,,,,,,,,,,,,,,,,,,,,,,,,,,,,,,,,,,,,,,,,,,,,,,,,,
,,,,,,,-0.001041667,-0.331481481,1,0,0,calibration_square,0,2,2,10,1,0,-0.33,02,001,2024-11-26_16h09.27.459,Attention_exp_legacy,2023.1.0,Win32,60.24096386,,,,,,,,,,,,,,,,,,,,,,,,,,,,,,,,,,,,,,,,,,,,,,,,,,,,,,,,
,,,,,,,0.341666667,-0.018518519,1,0,0,,0,3,3,16,1,0.33,0,02,001,2024-11-26_16h09.27.459,Attention_exp_legacy,2023.1.0,Win32,60.24096386,,,,,,,,,,,,,,,,,,,,,,,,,,,,,,,,,,,,,,,,,,,,,,,,,,,,,,,,
,,,,,,,0.330208333,-0.327777778,1,0,0,calibration_square,0,4,4,15,1,0.33,-0.33,02,001,2024-11-26_16h09.27.459,Attention_exp_legacy,2023.1.0,Win32,60.24096386,,,,,,,,,,,,,,,,,,,,,,,,,,,,,,,,,,,,,,,,,,,,,,,,,,,,,,,,
,,,,,,,0.009375,0.333333333,1,0,0,calibration_square,0,5,5,12,1,0,0.33,02,001,2024-11-26_16h09.27.459,Attention_exp_legacy,2023.1.0,Win32,60.24096386,,,,,,,,,,,,,,,,,,,,,,,,,,,,,,,,,,,,,,,,,,,,,,,,,,,,,,,,
,,,,,,,0.352083333,0.335185185,1,0,0,,0,6,6,17,1,0.33,0.33,02,001,2024-11-26_16h09.27.459,Attention_exp_legacy,2023.1.0,Win32,60.24096386,,,,,,,,,,,,,,,,,,,,,,,,,,,,,,,,,,,,,,,,,,,,,,,,,,,,,,,,
,,,,,,,-0.667708333,0.322222222,1,0,0,calibration_square,0,7,7,3,1,-0.67,0.33,02,001,2024-11-26_16h09.27.459,Attention_exp_legacy,2023.1.0,Win32,60.24096386,,,,,,,,,,,,,,,,,,,,,,,,,,,,,,,,,,,,,,,,,,,,,,,,,,,,,,,,
,,,,,,,-0.0125,-0.672222222,1,0,0,,0,8,8,9,1,0,-0.67,02,001,2024-11-26_16h09.27.459,Attention_exp_legacy,2023.1.0,Win32,60.24096386,,,,,,,,,,,,,,,,,,,,,,,,,,,,,,,,,,,,,,,,,,,,,,,,,,,,,,,,
,,,,,,,-0.327083333,-0.014814815,1,0,0,,0,9,9,6,1,-0.33,0,02,001,2024-11-26_16h09.27.459,Attention_exp_legacy,2023.1.0,Win32,60.24096386,,,,,,,,,,,,,,,,,,,,,,,,,,,,,,,,,,,,,,,,,,,,,,,,,,,,,,,,
,,,,,,,-0.660416667,-0.67962963,1,0,0,calibration_square,0,10,10,0,1,-0.67,-0.67,02,001,2024-11-26_16h09.27.459,Attention_exp_legacy,2023.1.0,Win32,60.24096386,,,,,,,,,,,,,,,,,,,,,,,,,,,,,,,,,,,,,,,,,,,,,,,,,,,,,,,,
,,,,,,,-0.321875,-0.35,1,0,0,,0,11,11,5,1,-0.33,-0.33,02,001,2024-11-26_16h09.27.459,Attention_exp_legacy,2023.1.0,Win32,60.24096386,,,,,,,,,,,,,,,,,,,,,,,,,,,,,,,,,,,,,,,,,,,,,,,,,,,,,,,,
,,,,,,,0.329166667,-0.681481481,1,0,0,,0,12,12,14,1,0.33,-0.67,02,001,2024-11-26_16h09.27.459,Attention_exp_legacy,2023.1.0,Win32,60.24096386,,,,,,,,,,,,,,,,,,,,,,,,,,,,,,,,,,,,,,,,,,,,,,,,,,,,,,,,
,,,,,,,-0.004166667,0.007407407,1,0,0,calibration_square,0,13,13,11,1,0,0,02,001,2024-11-26_16h09.27.459,Attention_exp_legacy,2023.1.0,Win32,60.24096386,,,,,,,,,,,,,,,,,,,,,,,,,,,,,,,,,,,,,,,,,,,,,,,,,,,,,,,,
,,,,,,,-0.669791667,0.007407407,1,0,0,calibration_square,0,14,14,2,1,-0.67,0,02,001,2024-11-26_16h09.27.459,Attention_exp_legacy,2023.1.0,Win32,60.24096386,,,,,,,,,,,,,,,,,,,,,,,,,,,,,,,,,,,,,,,,,,,,,,,,,,,,,,,,
,,,,,,,0.671875,0.690740741,1,0,0,,0,15,15,19,1,0.67,0.67,02,001,2024-11-26_16h09.27.459,Attention_exp_legacy,2023.1.0,Win32,60.24096386,,,,,,,,,,,,,,,,,,,,,,,,,,,,,,,,,,,,,,,,,,,,,,,,,,,,,,,,
,,,,,,,0.33125,0.666666667,1,0,0,calibration_square,0,16,16,18,1,0.33,0.67,02,001,2024-11-26_16h09.27.459,Attention_exp_legacy,2023.1.0,Win32,60.24096386,,,,,,,,,,,,,,,,,,,,,,,,,,,,,,,,,,,,,,,,,,,,,,,,,,,,,,,,
,,,,,,,-0.008333333,0.657407407,1,0,0,,0,17,17,13,1,0,0.67,02,001,2024-11-26_16h09.27.459,Attention_exp_legacy,2023.1.0,Win32,60.24096386,,,,,,,,,,,,,,,,,,,,,,,,,,,,,,,,,,,,,,,,,,,,,,,,,,,,,,,,
,,,,,,,-0.6625,-0.335185185,1,0,0,calibration_square,0,18,18,1,1,-0.67,-0.33,02,001,2024-11-26_16h09.27.459,Attention_exp_legacy,2023.1.0,Win32,60.24096386,,,,,,,,,,,,,,,,,,,,,,,,,,,,,,,,,,,,,,,,,,,,,,,,,,,,,,,,
,,,,,,,-0.332291667,0.335185185,1,0,0,calibration_square,0,19,19,7,1,-0.33,0.33,02,001,2024-11-26_16h09.27.459,Attention_exp_legacy,2023.1.0,Win32,60.24096386,,,,,,,,,,,,,,,,,,,,,,,,,,,,,,,,,,,,,,,,,,,,,,,,,,,,,,,,
,,,,,,,-0.329166667,-0.67037037,1,0,0,calibration_square,0,20,20,4,1,-0.33,-0.67,02,001,2024-11-26_16h09.27.459,Attention_exp_legacy,2023.1.0,Win32,60.24096386,,,,,,,,,,,,,,,,,,,,,,,,,,,,,,,,,,,,,,,,,,,,,,,,,,,,,,,,
,,,,,,,,,,,,,,,,,,,,02,001,2024-11-26_16h09.27.459,Attention_exp_legacy,2023.1.0,Win32,60.24096386,"[1920,1080]","[640,480]",[0],[-0.5092592592592593],[1],[0],[0],[3.6446000000089427],"[""StartButton""]",[0.16979166666666667],[0.40370370370370373],[1],[0],[0],[7.492400000005958],"[""Metro_label""]",Metro_label,1,8.5155,"[[0,-0.5092592592592593],[0,-0.5092592592592593],[0,-0.5092592592592593],[0,-0.5092592592592593],[0,-0.5092592592592593],[0,-0.5092592592592593],[0,-0.5092592592592593],[0,-0.5092592592592593],[0,-0.5092592592592593],[0,-0.5092592592592593],[0,-0.5092592592592593],[0,-0.5092592592592593],[0,-0.5092592592592593],[0,-0.5092592592592593],[0,-0.5092592592592593],[0,-0.5092592592592593],[0,-0.5092592592592593],[0,-0.5092592592592593],[0,-0.5092592592592593],[0,-0.5092592592592593],[0,-0.5092592592592593],[0,-0.5092592592592593],[0,-0.5092592592592593],[0,-0.5092592592592593],[0,-0.5092592592592593],[0,-0.5092592592592593],[0,-0.5092592592592593],[0,-0.5092592592592593],[0,-0.5092592592592593],[0,-0.5092592592592593],[0,-0.5092592592592593],[0,-0.5092592592592593],[0,-0.5092592592592593],[0,-0.5092592592592593],[0,-0.5092592592592593],[0,-0.5092592592592593],[0,-0.5092592592592593],[0,-0.5092592592592593],[0,-0.5092592592592593],[0,-0.5092592592592593],[0,-0.5092592592592593],[0,-0.5092592592592593],[0,-0.5092592592592593],[0,-0.5092592592592593],[0,-0.5092592592592593],[0,-0.5092592592592593],[0,-0.5092592592592593],[0,-0.5092592592592593],[0,-0.5092592592592593],[0,-0.5092592592592593],[0,-0.5092592592592593],[0,-0.5092592592592593],[0,-0.5092592592592593],[0,-0.5092592592592593],[0,-0.5092592592592593],[0,-0.5092592592592593],[0,-0.5092592592592593],[0,-0.5092592592592593],[0,-0.5092592592592593],[0,-0.5092592592592593],[0,-0.5092592592592593],[0,-0.5092592592592593],[0.00625,-0.4981481481481482],[0.028125,-0.48148148148148145],[0.07291666666666667,-0.4425925925925926],[0.14166666666666666,-0.3925925925925926],[0.26458333333333334,-0.2962962962962963],[0.346875,-0.22777777777777777],[0.4197916666666667,-0.16666666666666666],[0.47291666666666665,-0.10925925925925926],[0.521875,-0.06296296296296296],[0.565625,-0.020370370370370372],[0.6041666666666666,0.018518518518518517],[0.6625,0.07962962962962963],[0.6760416666666667,0.09259259259259259],[0.7145833333333333,0.12962962962962962],[0.765625,0.17962962962962964],[0.7770833333333333,0.1925925925925926],[0.8,0.21481481481481482],[0.8020833333333334,0.21851851851851853],[0.8020833333333334,0.21851851851851853],[0.8020833333333334,0.21851851851851853],[0.8020833333333334,0.21851851851851853],[0.8020833333333334,0.21851851851851853],[0.8010416666666667,0.21851851851851853],[0.7958333333333333,0.21666666666666667],[0.79375,0.21296296296296297],[0.7885416666666667,0.2074074074074074],[0.7833333333333333,0.2],[0.778125,0.1925925925925926],[0.771875,0.1814814814814815],[0.7677083333333333,0.17407407407407408],[0.7645833333333333,0.1648148148148148],[0.7635416666666667,0.16111111111111112],[0.759375,0.15185185185185185],[0.7572916666666667,0.14814814814814814],[0.7552083333333334,0.1425925925925926],[0.753125,0.1388888888888889],[0.753125,0.13518518518518519],[0.7510416666666667,0.13148148148148148],[0.7479166666666667,0.12407407407407407],[0.7427083333333333,0.1111111111111111],[0.740625,0.10185185185185185],[0.7364583333333333,0.09074074074074075],[0.7333333333333333,0.07962962962962963],[0.7291666666666666,0.07037037037037037],[0.7260416666666667,0.05925925925925926],[0.725,0.05555555555555555],[0.7229166666666667,0.04814814814814815],[0.721875,0.046296296296296294],[0.7208333333333333,0.044444444444444446],[0.7208333333333333,0.044444444444444446],[0.7208333333333333,0.044444444444444446],[0.7208333333333333,0.044444444444444446],[0.7208333333333333,0.044444444444444446],[0.7208333333333333,0.044444444444444446],[0.7208333333333333,0.044444444444444446],[0.7208333333333333,0.044444444444444446],[0.7208333333333333,0.044444444444444446],[0.7208333333333333,0.044444444444444446],[0.7208333333333333,0.044444444444444446],[0.7208333333333333,0.044444444444444446],[0.7208333333333333,0.044444444444444446],[0.7208333333333333,0.044444444444444446],[0.7208333333333333,0.044444444444444446],[0.7208333333333333,0.044444444444444446],[0.7208333333333333,0.044444444444444446],[0.7208333333333333,0.044444444444444446],[0.7208333333333333,0.044444444444444446],[0.7208333333333333,0.044444444444444446],[0.7208333333333333,0.044444444444444446],[0.7208333333333333,0.044444444444444446],[0.7208333333333333,0.044444444444444446],[0.7208333333333333,0.044444444444444446],[0.7208333333333333,0.044444444444444446],[0.7208333333333333,0.044444444444444446],[0.7208333333333333,0.044444444444444446],[0.7208333333333333,0.044444444444444446],[0.7208333333333333,0.044444444444444446],[0.7208333333333333,0.044444444444444446],[0.7208333333333333,0.044444444444444446],[0.7208333333333333,0.044444444444444446],[0.7208333333333333,0.044444444444444446],[0.7208333333333333,0.044444444444444446],[0.7208333333333333,0.044444444444444446],[0.7208333333333333,0.044444444444444446],[0.7208333333333333,0.044444444444444446],[0.7208333333333333,0.044444444444444446],[0.7208333333333333,0.044444444444444446],[0.7208333333333333,0.044444444444444446],[0.7208333333333333,0.044444444444444446],[0.7208333333333333,0.044444444444444446],[0.7208333333333333,0.044444444444444446],[0.7208333333333333,0.044444444444444446],[0.7208333333333333,0.044444444444444446],[0.7208333333333333,0.044444444444444446],[0.7208333333333333,0.044444444444444446],[0.7208333333333333,0.044444444444444446],[0.7208333333333333,0.044444444444444446],[0.7208333333333333,0.044444444444444446],[0.7208333333333333,0.044444444444444446],[0.7208333333333333,0.044444444444444446],[0.7208333333333333,0.044444444444444446],[0.7208333333333333,0.044444444444444446],[0.7208333333333333,0.044444444444444446],[0.7208333333333333,0.044444444444444446],[0.7208333333333333,0.044444444444444446],[0.7208333333333333,0.044444444444444446],[0.7208333333333333,0.044444444444444446],[0.7208333333333333,0.044444444444444446],[0.7208333333333333,0.044444444444444446],[0.7208333333333333,0.044444444444444446],[0.7208333333333333,0.044444444444444446],[0.7208333333333333,0.044444444444444446],[0.7208333333333333,0.044444444444444446],[0.7208333333333333,0.044444444444444446],[0.7208333333333333,0.044444444444444446],[0.7208333333333333,0.044444444444444446],[0.7208333333333333,0.044444444444444446],[0.7208333333333333,0.044444444444444446],[0.7208333333333333,0.044444444444444446],[0.7208333333333333,0.044444444444444446],[0.7208333333333333,0.044444444444444446],[0.7208333333333333,0.044444444444444446],[0.7208333333333333,0.044444444444444446],[0.7208333333333333,0.044444444444444446],[0.7208333333333333,0.044444444444444446],[0.7208333333333333,0.044444444444444446],[0.7208333333333333,0.044444444444444446],[0.7208333333333333,0.044444444444444446],[0.7208333333333333,0.044444444444444446],[0.7208333333333333,0.044444444444444446],[0.7208333333333333,0.044444444444444446],[0.7208333333333333,0.044444444444444446],[0.7208333333333333,0.044444444444444446],[0.7208333333333333,0.044444444444444446],[0.7208333333333333,0.044444444444444446],[0.7208333333333333,0.044444444444444446],[0.7208333333333333,0.044444444444444446],[0.7208333333333333,0.044444444444444446],[0.7208333333333333,0.044444444444444446],[0.7208333333333333,0.044444444444444446],[0.7208333333333333,0.044444444444444446],[0.7208333333333333,0.044444444444444446],[0.7208333333333333,0.044444444444444446],[0.7208333333333333,0.044444444444444446],[0.7208333333333333,0.044444444444444446],[0.7208333333333333,0.044444444444444446],[0.7208333333333333,0.044444444444444446],[0.7208333333333333,0.044444444444444446],[0.7208333333333333,0.044444444444444446],[0.7208333333333333,0.044444444444444446],[0.7208333333333333,0.044444444444444446],[0.7208333333333333,0.044444444444444446],[0.7208333333333333,0.044444444444444446],[0.7208333333333333,0.044444444444444446],[0.7208333333333333,0.044444444444444446],[0.7208333333333333,0.044444444444444446],[0.7208333333333333,0.044444444444444446],[0.7208333333333333,0.044444444444444446],[0.7208333333333333,0.044444444444444446],[0.7208333333333333,0.044444444444444446],[0.7208333333333333,0.044444444444444446],[0.7208333333333333,0.044444444444444446],[0.7208333333333333,0.044444444444444446],[0.7208333333333333,0.044444444444444446],[0.7208333333333333,0.044444444444444446],[0.7208333333333333,0.044444444444444446],[0.7208333333333333,0.044444444444444446],[0.7208333333333333,0.044444444444444446],[0.7208333333333333,0.044444444444444446],[0.7208333333333333,0.044444444444444446],[0.7208333333333333,0.044444444444444446],[0.7208333333333333,0.044444444444444446],[0.7208333333333333,0.044444444444444446],[0.7208333333333333,0.044444444444444446],[0.7208333333333333,0.044444444444444446],[0.7208333333333333,0.044444444444444446],[0.7208333333333333,0.044444444444444446],[0.7208333333333333,0.044444444444444446],[0.7208333333333333,0.044444444444444446],[0.7208333333333333,0.044444444444444446],[0.7208333333333333,0.044444444444444446],[0.7208333333333333,0.044444444444444446],[0.7208333333333333,0.044444444444444446],[0.7208333333333333,0.044444444444444446],[0.7208333333333333,0.044444444444444446],[0.7208333333333333,0.044444444444444446],[0.7208333333333333,0.044444444444444446],[0.7208333333333333,0.044444444444444446],[0.7208333333333333,0.044444444444444446],[0.7208333333333333,0.044444444444444446],[0.7208333333333333,0.044444444444444446],[0.7208333333333333,0.044444444444444446],[0.7208333333333333,0.044444444444444446],[0.7208333333333333,0.044444444444444446],[0.7208333333333333,0.044444444444444446],[0.7208333333333333,0.044444444444444446],[0.7208333333333333,0.044444444444444446],[0.7208333333333333,0.044444444444444446],[0.7208333333333333,0.044444444444444446],[0.7208333333333333,0.044444444444444446],[0.7208333333333333,0.044444444444444446],[0.7208333333333333,0.044444444444444446],[0.7208333333333333,0.044444444444444446],[0.7208333333333333,0.044444444444444446],[0.7208333333333333,0.044444444444444446],[0.7208333333333333,0.044444444444444446],[0.7208333333333333,0.044444444444444446],[0.7208333333333333,0.044444444444444446],[0.7208333333333333,0.044444444444444446],[0.7208333333333333,0.044444444444444446],[0.7208333333333333,0.044444444444444446],[0.7208333333333333,0.044444444444444446],[0.7208333333333333,0.044444444444444446],[0.7208333333333333,0.044444444444444446],[0.7208333333333333,0.044444444444444446],[0.7208333333333333,0.044444444444444446],[0.7208333333333333,0.044444444444444446],[0.7208333333333333,0.044444444444444446],[0.7208333333333333,0.044444444444444446],[0.7208333333333333,0.044444444444444446],[0.7208333333333333,0.044444444444444446],[0.7208333333333333,0.044444444444444446],[0.7208333333333333,0.044444444444444446],[0.7208333333333333,0.044444444444444446],[0.7208333333333333,0.044444444444444446],[0.7208333333333333,0.044444444444444446],[0.7208333333333333,0.044444444444444446],[0.7208333333333333,0.044444444444444446],[0.7208333333333333,0.044444444444444446],[0.7208333333333333,0.044444444444444446],[0.7208333333333333,0.044444444444444446],[0.7208333333333333,0.044444444444444446],[0.7208333333333333,0.044444444444444446],[0.7208333333333333,0.044444444444444446],[0.7208333333333333,0.044444444444444446],[0.7208333333333333,0.044444444444444446],[0.7208333333333333,0.044444444444444446],[0.7208333333333333,0.044444444444444446],[0.7208333333333333,0.044444444444444446],[0.7208333333333333,0.044444444444444446],[0.7208333333333333,0.044444444444444446],[0.7208333333333333,0.044444444444444446],[0.7208333333333333,0.044444444444444446],[0.7208333333333333,0.044444444444444446],[0.7208333333333333,0.044444444444444446],[0.7208333333333333,0.044444444444444446],[0.7208333333333333,0.044444444444444446],[0.7208333333333333,0.044444444444444446],[0.7208333333333333,0.044444444444444446],[0.7208333333333333,0.044444444444444446],[0.7208333333333333,0.044444444444444446],[0.7208333333333333,0.044444444444444446],[0.7208333333333333,0.044444444444444446],[0.7208333333333333,0.044444444444444446],[0.7208333333333333,0.044444444444444446],[0.7208333333333333,0.044444444444444446],[0.7208333333333333,0.044444444444444446],[0.7208333333333333,0.044444444444444446],[0.7208333333333333,0.044444444444444446],[0.7208333333333333,0.044444444444444446],[0.7208333333333333,0.044444444444444446],[0.7208333333333333,0.044444444444444446],[0.7208333333333333,0.044444444444444446],[0.7208333333333333,0.044444444444444446],[0.7208333333333333,0.044444444444444446],[0.7208333333333333,0.044444444444444446],[0.7208333333333333,0.044444444444444446],[0.7208333333333333,0.044444444444444446],[0.7208333333333333,0.044444444444444446],[0.7208333333333333,0.044444444444444446],[0.7208333333333333,0.044444444444444446],[0.7208333333333333,0.044444444444444446],[0.7208333333333333,0.044444444444444446],[0.7208333333333333,0.044444444444444446],[0.7208333333333333,0.044444444444444446],[0.7208333333333333,0.044444444444444446],[0.7208333333333333,0.044444444444444446],[0.7208333333333333,0.044444444444444446],[0.7208333333333333,0.044444444444444446],[0.7208333333333333,0.044444444444444446],[0.7208333333333333,0.044444444444444446],[0.7208333333333333,0.044444444444444446],[0.7208333333333333,0.044444444444444446],[0.7208333333333333,0.044444444444444446],[0.7208333333333333,0.044444444444444446],[0.7208333333333333,0.044444444444444446],[0.7208333333333333,0.044444444444444446],[0.7208333333333333,0.044444444444444446],[0.7208333333333333,0.044444444444444446],[0.7208333333333333,0.044444444444444446],[0.7208333333333333,0.044444444444444446],[0.7208333333333333,0.044444444444444446],[0.7208333333333333,0.044444444444444446],[0.7208333333333333,0.044444444444444446],[0.7208333333333333,0.044444444444444446],[0.7208333333333333,0.044444444444444446],[0.7208333333333333,0.044444444444444446],[0.7208333333333333,0.044444444444444446],[0.7208333333333333,0.044444444444444446],[0.7208333333333333,0.044444444444444446],[0.7208333333333333,0.044444444444444446],[0.7208333333333333,0.044444444444444446],[0.7208333333333333,0.044444444444444446],[0.7208333333333333,0.044444444444444446],[0.7208333333333333,0.044444444444444446],[0.7208333333333333,0.044444444444444446],[0.7208333333333333,0.044444444444444446],[0.7208333333333333,0.044444444444444446],[0.7208333333333333,0.04259259259259259],[0.7197916666666667,0.04259259259259259],[0.71875,0.04259259259259259],[0.715625,0.04259259259259259],[0.7135416666666666,0.040740740740740744],[0.7083333333333334,0.03888888888888889],[0.7,0.03518518518518519],[0.6916666666666667,0.03148148148148148],[0.671875,0.027777777777777776],[0.6552083333333333,0.027777777777777776],[0.6270833333333333,0.027777777777777776],[0.5854166666666667,0.027777777777777776],[0.5166666666666667,0.046296296296296294],[0.44166666666666665,0.07962962962962963],[0.3645833333333333,0.1037037037037037],[0.2947916666666667,0.13148148148148148],[0.23541666666666666,0.16666666666666666],[0.21666666666666667,0.18703703703703703],[0.20833333333333334,0.2037037037037037],[0.20729166666666668,0.21851851851851853],[0.20520833333333333,0.2388888888888889],[0.20416666666666666,0.2574074074074074],[0.20208333333333334,0.2759259259259259],[0.19791666666666666,0.29074074074074074],[0.19479166666666667,0.3037037037037037],[0.19375,0.3111111111111111],[0.19375,0.32222222222222224],[0.19375,0.3314814814814815],[0.19270833333333334,0.34629629629629627],[0.1875,0.362962962962963],[0.18541666666666667,0.37222222222222223],[0.17916666666666667,0.3851851851851852],[0.17291666666666666,0.3962962962962963],[0.171875,0.4],[0.16979166666666667,0.40185185185185185],[0.16979166666666667,0.40370370370370373],[0.16979166666666667,0.40370370370370373],[0.16979166666666667,0.40370370370370373],[0.16979166666666667,0.40370370370370373],[0.16979166666666667,0.40370370370370373],[0.16979166666666667,0.40370370370370373],[0.16979166666666667,0.40370370370370373],[0.16979166666666667,0.40370370370370373],[0.16979166666666667,0.40370370370370373],[0.16979166666666667,0.40370370370370373],[0.16979166666666667,0.40370370370370373],[0.16979166666666667,0.40370370370370373],[0.16979166666666667,0.40370370370370373],[0.16979166666666667,0.40370370370370373],[0.16979166666666667,0.40370370370370373],[0.16979166666666667,0.40370370370370373],[0.16979166666666667,0.40370370370370373],[0.16979166666666667,0.40370370370370373],[0.16979166666666667,0.40370370370370373],[0.16979166666666667,0.40370370370370373],[0.16979166666666667,0.40370370370370373],[0.16979166666666667,0.40370370370370373],[0.16979166666666667,0.40370370370370373],[0.16979166666666667,0.40370370370370373],[0.16979166666666667,0.40370370370370373],[0.16979166666666667,0.40370370370370373],[0.16979166666666667,0.40370370370370373],[0.16979166666666667,0.40370370370370373],[0.16979166666666667,0.40370370370370373],[0.16979166666666667,0.40370370370370373],[0.16979166666666667,0.40370370370370373],[0.16979166666666667,0.40370370370370373],[0.16979166666666667,0.40370370370370373],[0.16979166666666667,0.40370370370370373],[0.16979166666666667,0.40370370370370373],[0.16979166666666667,0.40370370370370373],[0.16979166666666667,0.40370370370370373],[0.16979166666666667,0.40370370370370373],[0.16979166666666667,0.40370370370370373],[0.16979166666666667,0.40370370370370373],[0.16979166666666667,0.40370370370370373],[0.16979166666666667,0.40370370370370373],[0.16979166666666667,0.40370370370370373],[0.16979166666666667,0.40370370370370373],[0.16979166666666667,0.40370370370370373],[0.16979166666666667,0.40370370370370373],[0.16979166666666667,0.40370370370370373],[0.16979166666666667,0.40370370370370373],[0.16979166666666667,0.40370370370370373],[0.16979166666666667,0.40370370370370373],[0.16979166666666667,0.40370370370370373],[0.16979166666666667,0.40370370370370373],[0.16979166666666667,0.40370370370370373],[0.16979166666666667,0.40370370370370373],[0.16979166666666667,0.40370370370370373],[0.16979166666666667,0.40370370370370373],[0.16979166666666667,0.40370370370370373],[0.16979166666666667,0.40370370370370373],[0.16979166666666667,0.40370370370370373],[0.16979166666666667,0.40370370370370373],[0.16979166666666667,0.40370370370370373],[0.16979166666666667,0.40370370370370373],[0.16979166666666667,0.40370370370370373],[0.16979166666666667,0.40370370370370373],[0.16979166666666667,0.40370370370370373],[0.16979166666666667,0.40370370370370373],[0.16979166666666667,0.40370370370370373],[0.16979166666666667,0.40370370370370373],[0.16979166666666667,0.40370370370370373],[0.16979166666666667,0.40370370370370373],[0.16979166666666667,0.40370370370370373],[0.16979166666666667,0.40370370370370373],[0.16979166666666667,0.40370370370370373],[0.16979166666666667,0.40370370370370373],[0.16979166666666667,0.40370370370370373],[0.16979166666666667,0.40370370370370373],[0.16979166666666667,0.40370370370370373],[0.16979166666666667,0.40370370370370373],[0.16979166666666667,0.40370370370370373],[0.16979166666666667,0.40370370370370373],[0.16979166666666667,0.40370370370370373],[0.16979166666666667,0.40370370370370373],[0.16979166666666667,0.40370370370370373],[0.16979166666666667,0.40370370370370373],[0.16979166666666667,0.40370370370370373],[0.16979166666666667,0.40370370370370373],[0.16979166666666667,0.40370370370370373],[0.16979166666666667,0.40370370370370373],[0.16979166666666667,0.40370370370370373],[0.16979166666666667,0.40370370370370373],[0.16979166666666667,0.40370370370370373],[0.16979166666666667,0.40370370370370373],[0.16979166666666667,0.40370370370370373],[0.16979166666666667,0.40370370370370373],[0.16979166666666667,0.40370370370370373],[0.16979166666666667,0.40370370370370373],[0.16979166666666667,0.40370370370370373],[0.16979166666666667,0.40370370370370373],[0.16979166666666667,0.40370370370370373],[0.16979166666666667,0.40370370370370373],[0.16979166666666667,0.40370370370370373],[0.16979166666666667,0.40370370370370373],[0.16979166666666667,0.40370370370370373],[0.16979166666666667,0.40370370370370373],[0.16979166666666667,0.40370370370370373]]","[[0.09968750000000005,0.05],[0.09479166666666666,0.011111111111111112],[0.09479166666666666,0.011111111111111112],[0.08052083333333329,-0.0011111111111111532],[0.08052083333333329,-0.0011111111111111532],[0.09291666666666672,-0.0003703703703704546],[0.09291666666666672,-0.0003703703703704546],[0.07989583333333337,-0.029814814814814856],[0.07989583333333337,-0.029814814814814856],[0.06322916666666671,-0.06925925925925921],[0.06322916666666671,-0.06925925925925921],[0.02177083333333331,-0.05555555555555555],[0.02177083333333331,-0.05555555555555555],[-0.02052083333333338,-0.01703703703703712],[-0.02052083333333338,-0.01703703703703712],[-0.019479166666666714,-0.023333333333333376],[-0.03343750000000002,-0.01055555555555564],[-0.05010416666666669,0.004629629629629629],[-0.05010416666666669,0.004629629629629629],[-0.06218750000000005,0.0235185185185186],[-0.065625,0.016111111111111194],[-0.08500000000000002,-0.0035185185185184764],[-0.08500000000000002,-0.0035185185185184764],[-0.09104166666666665,-0.025185185185185227],[-0.10510416666666664,-0.020740740740740823],[-0.10520833333333333,-0.04333333333333329],[-0.10333333333333337,-0.07574074074074069],[-0.12791666666666662,-0.09444444444444444],[-0.12791666666666662,-0.09444444444444444],[-0.13624999999999995,-0.11888888888888886],[-0.14635416666666667,-0.13703703703703704],[-0.1564583333333334,-0.1551851851851852],[-0.19979166666666662,-0.14351851851851852],[-0.24312499999999998,-0.13185185185185183],[-0.25510416666666663,-0.1272222222222222],[-0.25510416666666663,-0.1272222222222222],[-0.256875,-0.127962962962963],[-0.2795833333333333,-0.14296296296296293],[-0.3042708333333334,-0.14814814814814814],[-0.3393749999999999,-0.1259259259259259],[-0.3758333333333333,-0.10555555555555556],[-0.3758333333333333,-0.10555555555555556],[-0.3932291666666667,-0.10240740740740743],[-0.3932291666666667,-0.10240740740740743],[-0.41677083333333337,-0.09703703703703699],[-0.39874999999999994,-0.0955555555555556],[-0.37479166666666663,-0.11222222222222226],[-0.36052083333333335,-0.11518518518518517],[-0.32489583333333333,-0.1022222222222222],[-0.26833333333333337,-0.075],[-0.22562500000000002,-0.06407407407407412],[-0.17250000000000001,-0.08055555555555556],[-0.12385416666666664,-0.09500000000000001],[-0.09249999999999996,-0.09851851851851849],[-0.03822916666666672,-0.10944444444444448],[0.004270833333333357,-0.13796296296296295],[0.03166666666666664,-0.12018518518518514],[0.03166666666666664,-0.12018518518518514],[0.04229166666666669,-0.0955555555555556],[0.05625,-0.10722222222222218],[0.06385416666666661,-0.13351851851851856],[0.08197916666666671,-0.1346296296296296],[0.10625,-0.1425925925925926],[0.10625,-0.1425925925925926],[0.11708333333333343,-0.09851851851851849],[0.13312499999999997,-0.06666666666666667],[0.12625000000000006,0.011666666666666582],[0.12625000000000006,0.011666666666666582],[0.14104166666666676,0.062037037037037036],[0.15145833333333342,0.09351851851851851],[0.13812499999999991,0.12666666666666662],[0.1631249999999999,0.14592592592592585],[0.15114583333333323,0.21444444444444435],[0.14249999999999996,0.2740740740740741],[0.14249999999999996,0.2740740740740741],[0.1631249999999999,0.2911111111111112],[0.1390625,0.24203703703703713],[0.10072916666666672,0.1962962962962963],[0.10656249999999995,0.15851851851851856],[0.09072916666666657,0.14870370370370362],[0.0626041666666667,0.14333333333333328],[0.058229166666666644,0.13629629629629633],[0.029999999999999954,0.14518518518518514],[0.06437499999999995,0.09685185185185177],[0.09874999999999995,0.0485185185185186],[0.09364583333333343,0.07555555555555547],[0.09364583333333343,0.07555555555555547],[0.15666666666666676,0.08944444444444435],[0.23177083333333334,0.10851851851851856],[0.26322916666666674,0.1],[0.2663541666666667,0.09222222222222214],[0.3038541666666667,0.07462962962962955],[0.3038541666666667,0.07462962962962955],[0.3875,0.035740740740740656],[0.3970833333333334,0.03148148148148148],[0.38739583333333344,0.04981481481481477],[0.38739583333333344,0.04981481481481477],[0.4339583333333332,0.04129629629629621],[0.4547916666666666,-0.0031481481481482323],[0.4944791666666667,0.002407407407407323],[0.47593750000000007,0.04222222222222214],[0.4630208333333333,0.060370370370370414],[0.4630208333333333,0.060370370370370414],[0.5055208333333333,0.05851851851851856],[0.5555208333333332,0.040370370370370286],[0.5547916666666666,0.039074074074074115],[0.5966666666666666,0.022592592592592678],[0.6385416666666667,0.006111111111111027],[0.6241666666666668,0.01648148148148144],[0.6448958333333332,0.053703703703703705],[0.6412499999999999,0.06611111111111119],[0.7066666666666668,0.02388888888888885],[0.7720833333333333,-0.018333333333333292],[0.7720833333333333,-0.018333333333333292],[0.7642708333333333,0.009999999999999959],[0.7576041666666666,0.02814814814814823],[0.7389583333333334,0.027037037037037078],[0.7389583333333334,0.027037037037037078],[0.7126041666666666,0.024814814814814772],[0.7027083333333333,0.06111111111111111],[0.6916666666666667,0.08351851851851856],[0.6753125,0.08907407407407411],[0.6538541666666667,0.0794444444444444],[0.6185416666666667,0.09388888888888898],[0.5612499999999999,0.12185185185185177],[0.5501041666666666,0.0985185185185186],[0.5465625000000001,0.10277777777777777],[0.5465625000000001,0.10277777777777777],[0.5502083333333334,0.13740740740740748],[0.5743750000000001,0.19092592592592597],[0.5957291666666668,0.13740740740740748],[0.6058333333333332,0.10981481481481473],[0.6058333333333332,0.10981481481481473],[0.6159374999999999,0.08222222222222218],[0.6245833333333333,0.069074074074074],[0.6329166666666666,0.06648148148148143],[0.6690625,0.056296296296296254],[0.7052083333333333,0.04611111111111107],[0.7052083333333333,0.04611111111111107],[0.7139583333333335,0.026851851851851852],[0.7243750000000001,0.020555555555555598],[0.7381249999999999,-0.04425925925925922],[0.7457291666666668,-0.03796296296296296],[0.7457291666666668,-0.03796296296296296],[0.7610416666666666,-0.02388888888888885],[0.7536458333333333,-0.023333333333333376],[0.7321875000000001,-0.020370370370370372],[0.7110416666666666,-0.027962962962963005],[0.6839583333333332,-0.02833333333333325],[0.6569791666666667,-0.03129629629629625],[0.6431250000000001,-0.02907407407407416],[0.6734375,-0.059814814814814835],[0.6567708333333333,-0.08111111111111113],[0.6326041666666666,-0.10499999999999998],[0.5867708333333332,-0.11037037037037041],[0.5636458333333333,-0.1022222222222222],[0.5610416666666665,-0.09537037037037037],[0.5553124999999999,-0.09944444444444442],[0.5496875,-0.11666666666666667],[0.5357291666666666,-0.12111111111111107],[0.51125,-0.12666666666666662],[0.45645833333333335,-0.14000000000000004],[0.4289583333333333,-0.1242592592592593],[0.4044791666666666,-0.10037037037037035],[0.41135416666666674,-0.12537037037037035],[0.41822916666666665,-0.15037037037037035],[0.40989583333333335,-0.1566666666666667],[0.4046875,-0.15203703703703708],[0.4007291666666667,-0.15111111111111114],[0.36958333333333326,-0.15870370370370368],[0.33697916666666666,-0.17092592592592595],[0.2982291666666666,-0.16203703703703703],[0.25322916666666656,-0.1412962962962963],[0.20520833333333333,-0.1287037037037037],[0.1622916666666666,-0.08851851851851854],[0.11937499999999991,-0.048333333333333374],[0.084375,-0.01703703703703712],[0.049374999999999974,0.014259259259259343],[0.012395833333333309,0.036481481481481566],[0.01083333333333331,0.057037037037036956],[0.020937500000000022,0.0948148148148149],[0.028958333333333287,0.122037037037037],[0.01739583333333338,0.15111111111111114],[0.018437500000000048,0.12888888888888894],[0.01864583333333331,0.09870370370370361],[0.0032291666666666905,0.09462962962962967],[-0.03239583333333336,0.05],[-0.05437500000000005,-0.01055555555555564],[-0.12072916666666664,-0.02759259259259255],[-0.1782291666666667,-0.049074074074074076],[-0.23802083333333332,-0.07259259259259257],[-0.29572916666666665,-0.08555555555555554],[-0.3352083333333333,-0.11277777777777774],[-0.3352083333333333,-0.11277777777777774],[-0.38729166666666665,-0.08870370370370366],[-0.45552083333333326,-0.08277777777777776],[-0.5130208333333334,-0.10629629629629625],[-0.5320833333333334,-0.09518518518518514],[-0.5572916666666666,-0.056296296296296254],[-0.5373958333333333,-0.04814814814814815],[-0.5305208333333333,-0.026111111111111154],[-0.5315625,-0.014629629629629588],[-0.5346875,-0.015370370370370286],[-0.534375,-0.01444444444444436],[-0.5340625,-0.013518518518518435],[-0.5253125,-0.0025925925925925505],[-0.5158333333333334,-0.008703703703703788],[-0.5094791666666667,0.00722222222222218],[-0.5094791666666667,0.00722222222222218],[-0.510625,0.011296296296296339],[-0.52,-0.005000000000000084],[-0.5172916666666667,-0.03796296296296296],[-0.51875,-0.04759259259259268],[-0.51875,-0.04759259259259268],[-0.518125,-0.044999999999999915],[-0.5180208333333334,-0.020555555555555598],[-0.4623958333333333,-0.018333333333333292],[-0.4083333333333333,-0.01703703703703712],[-0.4083333333333333,-0.01703703703703712],[-0.349375,0.029814814814814856],[-0.28718750000000004,0.014074074074074116],[-0.225,-0.0016666666666666245],[-0.16031249999999997,-0.000925925925925926],[-0.0985416666666667,0.012222222222222264],[-0.049374999999999974,0.016851851851851896],[-0.0002083333333333807,0.021481481481481525],[0.06458333333333334,-0.028703703703703703],[0.07385416666666676,-0.056666666666666705],[0.07385416666666676,-0.056666666666666705],[0.08312499999999995,-0.08462962962962961],[0.09427083333333333,-0.12314814814814815],[0.11958333333333329,-0.11944444444444445],[0.14489583333333325,-0.11574074074074074],[0.15822916666666675,-0.09870370370370372],[0.16656250000000009,-0.0868518518518518],[0.2189583333333334,-0.09944444444444442],[0.23875000000000005,-0.14722222222222223],[0.24885416666666677,-0.1624074074074074],[0.2789583333333333,-0.1648148148148148],[0.3090625000000001,-0.16722222222222224],[0.3090625000000001,-0.16722222222222224],[0.31885416666666655,-0.15611111111111114],[0.31885416666666655,-0.15611111111111114],[0.3076041666666666,-0.17222222222222222],[0.31447916666666675,-0.21740740740740735],[0.3390625,-0.272037037037037],[0.3430208333333333,-0.3133333333333333],[0.32958333333333345,-0.3224074074074075],[0.3651041666666667,-0.3001851851851852],[0.38791666666666674,-0.31425925925925924],[0.39739583333333334,-0.30407407407407405],[0.40687499999999993,-0.29388888888888887],[0.4340625000000001,-0.3118518518518518],[0.4340625000000001,-0.3118518518518518],[0.46906249999999994,-0.33777777777777773],[0.45854166666666674,-0.32944444444444443],[0.44802083333333326,-0.32111111111111107],[0.4265625,-0.28425925925925927],[0.39520833333333344,-0.27],[0.3168750000000001,-0.22462962962962965],[0.24583333333333332,-0.1425925925925926],[0.17666666666666658,-0.10666666666666672],[0.11624999999999991,-0.08944444444444447],[0.05583333333333336,-0.07222222222222222],[-0.0328125,0.008333333333333333],[-0.09406249999999995,0.0837037037037038],[-0.1532291666666667,0.15481481481481485],[-0.18083333333333335,0.18407407407407403],[-0.17843749999999994,0.2161111111111112],[-0.1454166666666667,0.22092592592592583],[-0.1304166666666667,0.1816666666666667],[-0.12395833333333334,0.15148148148148138],[-0.18250000000000005,0.1368518518518518],[-0.23385416666666667,0.13259259259259262],[-0.2625,0.09351851851851851],[-0.3116666666666667,0.06592592592592597],[-0.36291666666666667,0.04259259259259259],[-0.3935416666666666,-0.0020370370370370794],[-0.45416666666666666,-0.04944444444444453],[-0.5381250000000001,-0.10129629629629627],[-0.6040625,-0.10907407407407403],[-0.6508333333333333,-0.10648148148148148],[-0.6334375,-0.10333333333333336],[-0.6232291666666666,-0.11055555555555553],[-0.619375,-0.11703703703703702],[-0.5889583333333334,-0.10703703703703706],[-0.5480208333333334,-0.12259259259259257],[-0.5480208333333334,-0.12259259259259257],[-0.5277083333333333,-0.11685185185185189],[-0.5047916666666666,-0.09888888888888885],[-0.47125,-0.0764814814814815],[-0.43770833333333337,-0.05407407407407405],[-0.42729166666666674,-0.04092592592592597],[-0.4247916666666666,-0.025185185185185227],[-0.40822916666666664,-0.013518518518518435],[-0.39166666666666666,-0.001851851851851852],[-0.3828125,-0.027962962962963005],[-0.38958333333333334,-0.0301851851851851],[-0.36270833333333335,-0.016666666666666666],[-0.3384375,-0.015370370370370286],[-0.30145833333333333,-0.014074074074074116],[-0.2525,0.005555555555555556],[-0.19958333333333336,0.024074074074074074],[-0.15520833333333334,0.04796296296296292],[-0.1248958333333333,0.07592592592592592],[-0.08666666666666671,0.09074074074074075],[-0.04572916666666664,0.1270370370370371],[0.0003124999999999526,0.16500000000000004],[0.01270833333333338,0.18722222222222226],[0.02052083333333338,0.21092592592592588],[0.02802083333333331,0.23796296296296296],[0.02354166666666669,0.24666666666666676],[0.024583333333333356,0.2388888888888889],[0.024583333333333356,0.2388888888888889],[0.034166666666666616,0.2257407407407407],[0.03947916666666664,0.22666666666666663],[0.04697916666666669,0.24537037037037038],[0.05343749999999995,0.2524074074074073],[0.05572916666666667,0.23425925925925925],[0.05802083333333338,0.2161111111111112],[0.06802083333333328,0.20277777777777778],[0.06822916666666666,0.17611111111111116],[0.08468749999999996,0.17888888888888893],[0.09562499999999995,0.19814814814814816],[0.10656249999999995,0.21740740740740735],[0.10854166666666672,0.20166666666666663],[0.10041666666666677,0.18129629629629626],[0.10291666666666661,0.16166666666666657],[0.10291666666666661,0.16166666666666657],[0.10958333333333338,0.16722222222222213],[0.12625000000000006,0.18944444444444436],[0.13583333333333342,0.18055555555555555],[0.1493750000000001,0.18222222222222217],[0.1466666666666666,0.1544444444444444],[0.14406249999999995,0.12388888888888884],[0.1414583333333333,0.0933333333333333],[0.14552083333333338,0.08185185185185194],[0.14958333333333323,0.07037037037037037],[0.1414583333333333,0.042407407407407366],[0.13333333333333333,0.01444444444444436],[0.11916666666666677,0.0001851851851852273],[0.10895833333333324,0.010740740740740657],[0.07468750000000005,-0.0005555555555554713],[0.07468750000000005,-0.0005555555555554713],[0.04041666666666662,-0.01185185185185181],[-0.01114583333333338,-0.02907407407407416],[-0.07000000000000005,-0.049629629629629544],[-0.12229166666666665,-0.06833333333333329],[-0.17458333333333337,-0.08703703703703704],[-0.19906250000000003,-0.10314814814814813],[-0.2235416666666667,-0.11925925925925922],[-0.2507291666666667,-0.17296296296296293],[-0.27791666666666665,-0.22666666666666663],[-0.2998958333333333,-0.24814814814814815],[-0.321875,-0.26962962962962966],[-0.30531250000000004,-0.2814814814814815],[-0.29708333333333337,-0.27870370370370373],[-0.28885416666666663,-0.2759259259259259],[-0.26510416666666664,-0.2785185185185185],[-0.26760416666666664,-0.26796296296296296],[-0.28458333333333335,-0.24870370370370373],[-0.30281250000000004,-0.2222222222222222],[-0.2877083333333334,-0.16074074074074077],[-0.2476041666666667,-0.11018518518518519],[-0.2078125,-0.08499999999999996],[-0.18937499999999996,-0.06074074074074076],[-0.15750000000000006,-0.04981481481481477],[-0.11979166666666667,-0.02833333333333325],[-0.1063541666666667,-0.01518518518518527],[-0.08062499999999997,0.003333333333333249],[-0.022812499999999975,0.014814814814814815],[-0.022812499999999975,0.014814814814814815],[0.06635416666666671,0.028518518518518478],[0.06635416666666671,0.028518518518518478],[0.1056250000000001,-0.0012962962962963806],[0.1056250000000001,-0.0012962962962963806],[0.14552083333333338,-0.032407407407407406],[0.1474999999999999,-0.058333333333333334],[0.18385416666666668,-0.09574074074074072],[0.23093750000000005,-0.1007407407407407],[0.2771874999999999,-0.11518518518518517],[0.3321875000000001,-0.11592592592592597],[0.3940624999999999,-0.13518518518518519],[0.4383333333333333,-0.15611111111111114],[0.4553124999999999,-0.172037037037037],[0.48885416666666665,-0.1794444444444444],[0.4790625000000001,-0.2125925925925926],[0.5075000000000001,-0.22555555555555556],[0.5065624999999999,-0.21666666666666667],[0.484375,-0.22722222222222221],[0.4557291666666667,-0.21222222222222226],[0.4270833333333333,-0.19722222222222222],[0.4270833333333333,-0.19722222222222222],[0.38947916666666677,-0.2037037037037037],[0.33791666666666675,-0.20722222222222217],[0.28229166666666666,-0.21796296296296294],[0.2303124999999999,-0.23425925925925925],[0.22854166666666675,-0.24388888888888888],[0.22510416666666658,-0.24685185185185188],[0.21354166666666666,-0.20425925925925928],[0.21354166666666666,-0.20425925925925928],[0.2319791666666667,-0.18370370370370367],[0.22854166666666675,-0.18203703703703705],[0.2493750000000001,-0.19962962962962966],[0.25239583333333326,-0.15388888888888894],[0.25656249999999997,-0.14074074074074075],[0.2791666666666667,-0.13425925925925927],[0.29812500000000003,-0.12222222222222222],[0.29791666666666666,-0.10870370370370368],[0.2993750000000001,-0.10185185185185185],[0.3089583333333332,-0.14388888888888887],[0.3012500000000001,-0.17481481481481478],[0.2897916666666667,-0.21222222222222226],[0.2540625000000001,-0.23037037037037034],[0.26114583333333335,-0.28592592592592586],[0.28104166666666663,-0.3118518518518518],[0.3037499999999999,-0.3133333333333333],[0.3264583333333334,-0.3148148148148148],[0.3304166666666667,-0.2862962962962963],[0.334375,-0.2577777777777778],[0.3333333333333333,-0.23629629629629634],[0.34833333333333344,-0.22592592592592592],[0.39041666666666663,-0.2168518518518519],[0.39041666666666663,-0.2168518518518519],[0.42989583333333337,-0.21240740740740738],[0.4267708333333334,-0.17759259259259255],[0.43239583333333326,-0.13851851851851854],[0.39479166666666665,-0.09611111111111106],[0.3571875000000001,-0.053703703703703705],[0.3551041666666668,-0.04814814814814815],[0.3555208333333333,-0.0712962962962963],[0.3559375000000001,-0.09444444444444444],[0.3315624999999999,-0.04814814814814815],[0.3315624999999999,-0.04814814814814815],[0.31531250000000005,-0.021296296296296296],[0.2929166666666667,0.04592592592592584],[0.2664583333333333,0.08259259259259263],[0.23125,0.11500000000000005],[0.22270833333333329,0.1264814814814814],[0.19781250000000009,0.12407407407407407],[0.15677083333333333,0.15407407407407417],[0.11322916666666671,0.21277777777777773],[0.11322916666666671,0.21277777777777773],[0.07447916666666667,0.2807407407407408],[0.044479166666666715,0.2903703703703703],[0.0005208333333333333,0.3135185185185184],[-0.035208333333333286,0.2983333333333334],[-0.06760416666666665,0.2868518518518518],[-0.1,0.27537037037037043],[-0.1,0.27537037037037043],[-0.13552083333333337,0.25333333333333324],[-0.1570833333333333,0.21999999999999992],[-0.15552083333333327,0.16129629629629633],[-0.15395833333333328,0.10259259259259255],[-0.16041666666666668,0.043703703703703745],[-0.16958333333333328,-0.007592592592592635],[-0.16958333333333328,-0.007592592592592635],[-0.14854166666666668,-0.051111111111111156],[-0.14281250000000004,-0.09277777777777782],[-0.1234375,-0.11666666666666667],[-0.10229166666666671,-0.17018518518518513],[-0.08270833333333331,-0.21333333333333332],[-0.03447916666666669,-0.22907407407407404],[0.008124999999999953,-0.22888888888888892],[0.03322916666666664,-0.2548148148148149],[0.03322916666666664,-0.2548148148148149],[0.06156250000000003,-0.2898148148148148],[0.09958333333333323,-0.334074074074074],[0.11322916666666671,-0.3801851851851852],[0.12114583333333329,-0.40925925925925927],[0.12354166666666658,-0.45092592592592595],[0.15208333333333332,-0.46814814814814815],[0.15208333333333332,-0.46814814814814815],[0.18697916666666667,-0.4733333333333334],[0.18697916666666667,-0.4733333333333334],[0.20385416666666673,-0.5051851851851852],[0.20791666666666658,-0.5157407407407407],[0.21770833333333334,-0.5048148148148148],[0.21770833333333334,-0.5048148148148148],[0.22385416666666677,-0.47537037037037033],[0.22322916666666662,-0.4685185185185185],[0.22520833333333337,-0.4612962962962963],[0.2548958333333334,-0.43333333333333335],[0.28458333333333335,-0.4053703703703703],[0.27020833333333344,-0.38870370370370366],[0.24947916666666667,-0.384074074074074],[0.2462500000000001,-0.3712962962962963],[0.2462500000000001,-0.3712962962962963],[0.2493750000000001,-0.37703703703703706],[0.26197916666666665,-0.3531481481481481],[0.27489583333333345,-0.3477777777777778],[0.2837500000000001,-0.3264814814814815],[0.29625000000000007,-0.30407407407407405],[0.29625000000000007,-0.30407407407407405],[0.28135416666666657,-0.29370370370370374],[0.2759375000000001,-0.2809259259259259],[0.26677083333333323,-0.25037037037037035],[0.27447916666666666,-0.2227777777777778],[0.26229166666666665,-0.18111111111111114],[0.24083333333333337,-0.1603703703703704],[0.22166666666666662,-0.1646296296296296],[0.20927083333333343,-0.14888888888888885],[0.1828125,-0.12259259259259257],[0.15854166666666672,-0.12740740740740744],[0.1544791666666666,-0.11666666666666667],[0.14395833333333338,-0.13185185185185183],[0.15052083333333333,-0.14222222222222225],[0.15437500000000004,-0.15870370370370368],[0.15989583333333332,-0.14537037037037037],[0.1421875,-0.11314814814814819]]","[[0.09968750000000005,0.05,0.0003000000119186552],[0.09479166666666666,0.011111111111111112,0.05240000000596012],[0.09479166666666666,0.011111111111111112,0.05990000000596041],[0.08052083333333329,-0.0011111111111111532,0.08550000000000324],[0.08052083333333329,-0.0011111111111111532,0.09290000000596166],[0.09291666666666672,-0.0003703703703704546,0.11999999999999744],[0.09291666666666672,-0.0003703703703704546,0.12830000001191877],[0.07989583333333337,-0.029814814814814856,0.15149999999999864],[0.07989583333333337,-0.029814814814814856,0.15980000001191996],[0.06322916666666671,-0.06925925925925921,0.18520000000297898],[0.06322916666666671,-0.06925925925925921,0.19560000000894462],[0.02177083333333331,-0.05555555555555555,0.21790000000596166],[0.02177083333333331,-0.05555555555555555,0.23870000000297864],[-0.02052083333333338,-0.01703703703703712,0.2602000000029818],[-0.02052083333333338,-0.01703703703703712,0.2698000000119194],[-0.019479166666666714,-0.023333333333333376,0.2822000000029803],[-0.03343750000000002,-0.01055555555555564,0.3008000000119182],[-0.05010416666666669,0.004629629629629629,0.3155000000000001],[-0.05010416666666669,0.004629629629629629,0.3323000000119194],[-0.06218750000000005,0.0235185185185186,0.3489000000059619],[-0.065625,0.016111111111111194,0.3706000000089418],[-0.08500000000000002,-0.0035185185185184764,0.3860000000000028],[-0.08500000000000002,-0.0035185185185184764,0.3990000000000009],[-0.09104166666666665,-0.025185185185185227,0.41550000000000153],[-0.10510416666666664,-0.020740740740740823,0.43220000000297887],[-0.10520833333333333,-0.04333333333333329,0.4489000000059633],[-0.10333333333333337,-0.07574074074074069,0.4666000000089383],[-0.12791666666666662,-0.09444444444444444,0.4823000000119251],[-0.12791666666666662,-0.09444444444444444,0.49900000000000233],[-0.13624999999999995,-0.11888888888888886,0.515500000000003],[-0.14635416666666667,-0.13703703703703704,0.5322000000029803],[-0.1564583333333334,-0.1551851851851852,0.5500000000000043],[-0.19979166666666662,-0.14351851851851852,0.5657000000029839],[-0.24312499999999998,-0.13185185185185183,0.5855000000000032],[-0.25510416666666663,-0.1272222222222222,0.6007000000029805],[-0.25510416666666663,-0.1272222222222222,0.6154999999999973],[-0.256875,-0.127962962962963,0.6322000000029817],[-0.2795833333333333,-0.14296296296296293,0.648900000005959],[-0.3042708333333334,-0.14814814814814814,0.6682000000029831],[-0.3393749999999999,-0.1259259259259259,0.6833000000119185],[-0.3758333333333333,-0.10555555555555556,0.7034999999999982],[-0.3758333333333333,-0.10555555555555556,0.7156000000089406],[-0.3932291666666667,-0.10240740740740743,0.7323000000119251],[-0.3932291666666667,-0.10240740740740743,0.7489000000059605],[-0.41677083333333337,-0.09703703703703699,0.7656000000089449],[-0.39874999999999994,-0.0955555555555556,0.7824000000059641],[-0.37479166666666663,-0.11222222222222226,0.8000000000000043],[-0.36052083333333335,-0.11518518518518517,0.8156000000089421],[-0.32489583333333333,-0.1022222222222222,0.8353000000119195],[-0.26833333333333337,-0.075,0.8489000000059619],[-0.22562500000000002,-0.06407407407407412,0.8656000000089392],[-0.17250000000000001,-0.08055555555555556,0.8834000000059632],[-0.12385416666666664,-0.09500000000000001,0.8988000000119243],[-0.09249999999999996,-0.09851851851851849,0.9155000000000015],[-0.03822916666666672,-0.10944444444444448,0.9322000000029789],[0.004270833333333357,-0.13796296296296295,0.9489000000059633],[0.03166666666666664,-0.12018518518518514,0.9668000000119221],[0.03166666666666664,-0.12018518518518514,0.9823000000119251],[0.04229166666666669,-0.0955555555555556,0.9989000000059605],[0.05625,-0.10722222222222218,1.015600000008945],[0.06385416666666661,-0.13351851851851856,1.0322000000029803],[0.08197916666666671,-0.1346296296296296,1.0499000000059624],[0.10625,-0.1425925925925926,1.0678000000119212],[0.10625,-0.1425925925925926,1.0824000000059613],[0.11708333333333343,-0.09851851851851849,1.0993000000119224],[0.13312499999999997,-0.06666666666666667,1.115800000011923],[0.12625000000000006,0.011666666666666582,1.1372000000029843],[0.12625000000000006,0.011666666666666582,1.149000000000001],[0.14104166666666676,0.062037037037037036,1.1658000000119202],[0.15145833333333342,0.09351851851851851,1.1824999999999974],[0.13812499999999991,0.12666666666666662,1.2033000000119216],[0.1631249999999999,0.14592592592592585,1.2172000000029826],[0.15114583333333323,0.21444444444444435,1.2325000000000017],[0.14249999999999996,0.2740740740740741,1.2550000000000026],[0.14249999999999996,0.2740740740740741,1.2659000000059635],[0.1631249999999999,0.2911111111111112,1.282400000005964],[0.1390625,0.24203703703703713,1.3008000000119182],[0.10072916666666672,0.1962962962962963,1.3191000000089446],[0.10656249999999995,0.15851851851851856,1.3344000000059637],[0.09072916666666657,0.14870370370370362,1.3492000000029805],[0.0626041666666667,0.14333333333333328,1.365700000002981],[0.058229166666666644,0.13629629629629633,1.3854000000059585],[0.029999999999999954,0.14518518518518514,1.3992000000029776],[0.06437499999999995,0.09685185185185177,1.4155000000000015],[0.09874999999999995,0.0485185185185186,1.4350000000000023],[0.09364583333333343,0.07555555555555547,1.4540000000000006],[0.09364583333333343,0.07555555555555547,1.4658000000119245],[0.15666666666666676,0.08944444444444435,1.4824000000059598],[0.23177083333333334,0.10851851851851856,1.5011000000089396],[0.26322916666666674,0.1,1.5159000000059635],[0.2663541666666667,0.09222222222222214,1.5367000000029805],[0.3038541666666667,0.07462962962962955,1.553200000002981],[0.3038541666666667,0.07462962962962955,1.5659000000059606],[0.3875,0.035740740740740656,1.5827000000029798],[0.3970833333333334,0.03148148148148148,1.5991000000089386],[0.38739583333333344,0.04981481481481477,1.621200000002979],[0.38739583333333344,0.04981481481481477,1.6324000000059584],[0.4339583333333332,0.04129629629629621,1.6491000000089429],[0.4547916666666666,-0.0031481481481482323,1.6684000000059598],[0.4944791666666667,0.002407407407407323,1.6832000000029836],[0.47593750000000007,0.04222222222222214,1.6995000000000005],[0.4630208333333333,0.060370370370370414,1.7201000000089408],[0.4630208333333333,0.060370370370370414,1.7324000000059598],[0.5055208333333333,0.05851851851851856,1.7490000000000023],[0.5555208333333332,0.040370370370370286,1.7658000000119216],[0.5547916666666666,0.039074074074074115,1.7869000000059643],[0.5966666666666666,0.022592592592592678,1.8019999999999996],[0.6385416666666667,0.006111111111111027,1.8158000000119188],[0.6241666666666668,0.01648148148148144,1.8348000000119242],[0.6448958333333332,0.053703703703703705,1.8490000000000038],[0.6412499999999999,0.06611111111111119,1.865700000002981],[0.7066666666666668,0.02388888888888885,1.8842000000029842],[0.7720833333333333,-0.018333333333333292,1.8996000000089381],[0.7720833333333333,-0.018333333333333292,1.9155000000000015],[0.7642708333333333,0.009999999999999959,1.9323000000119208],[0.7576041666666666,0.02814814814814823,1.9488000000119214],[0.7389583333333334,0.027037037037037078,1.9688000000119246],[0.7389583333333334,0.027037037037037078,1.982300000011925],[0.7126041666666666,0.024814814814814772,1.9989000000059605],[0.7027083333333333,0.06111111111111111,2.0157000000029797],[0.6916666666666667,0.08351851851851856,2.0322000000029803],[0.6753125,0.08907407407407411,2.050300000011923],[0.6538541666666667,0.0794444444444444,2.0655],[0.6185416666666667,0.09388888888888898,2.0861000000089405],[0.5612499999999999,0.12185185185185177,2.102499999999999],[0.5501041666666666,0.0985185185185186,2.120300000011923],[0.5465625000000001,0.10277777777777777,2.135900000005961],[0.5465625000000001,0.10277777777777777,2.148900000005959],[0.5502083333333334,0.13740740740740748,2.1656000000089435],[0.5743750000000001,0.19092592592592597,2.1857000000029814],[0.5957291666666668,0.13740740740740748,2.20360000000894],[0.6058333333333332,0.10981481481481473,2.218300000011922],[0.6058333333333332,0.10981481481481473,2.232200000002983],[0.6159374999999999,0.08222222222222218,2.2489000000059605],[0.6245833333333333,0.069074074074074,2.2659000000059635],[0.6329166666666666,0.06648148148148143,2.2874000000059596],[0.6690625,0.056296296296296254,2.302500000000002],[0.7052083333333333,0.04611111111111107,2.316200000002979],[0.7052083333333333,0.04611111111111107,2.3322000000029846],[0.7139583333333335,0.026851851851851852,2.348900000005962],[0.7243750000000001,0.020555555555555598,2.365600000008939],[0.7381249999999999,-0.04425925925925922,2.38510000000894],[0.7457291666666668,-0.03796296296296296,2.399900000005964],[0.7457291666666668,-0.03796296296296296,2.4156000000089435],[0.7610416666666666,-0.02388888888888885,2.432200000002979],[0.7536458333333333,-0.023333333333333376,2.4489000000059633],[0.7321875000000001,-0.020370370370370372,2.4673000000119245],[0.7110416666666666,-0.027962962962963005,2.4826000000089437],[0.6839583333333332,-0.02833333333333325,2.4989000000059605],[0.6569791666666667,-0.03129629629629625,2.515500000000003],[0.6431250000000001,-0.02907407407407416,2.5322000000029803],[0.6734375,-0.059814814814814835,2.55090000000596],[0.6567708333333333,-0.08111111111111113,2.5660000000000025],[0.6326041666666666,-0.10499999999999998,2.585600000008938],[0.5867708333333332,-0.11037037037037041,2.60180000001192],[0.5636458333333333,-0.1022222222222222,2.6202000000029813],[0.5610416666666665,-0.09537037037037037,2.63510000000894],[0.5553124999999999,-0.09944444444444442,2.6509000000059615],[0.5496875,-0.11666666666666667,2.6662000000029806],[0.5357291666666666,-0.12111111111111107,2.682200000002979],[0.51125,-0.12666666666666662,2.6989000000059633],[0.45645833333333335,-0.14000000000000004,2.7173000000119245],[0.4289583333333333,-0.1242592592592593,2.732200000002983],[0.4044791666666666,-0.10037037037037035,2.753],[0.41135416666666674,-0.12537037037037035,2.7688000000119217],[0.41822916666666665,-0.15037037037037035,2.787200000002983],[0.40989583333333335,-0.1566666666666667,2.8023000000119183],[0.4046875,-0.15203703703703708,2.8161000000089444],[0.4007291666666667,-0.15111111111111114,2.83570000000298],[0.36958333333333326,-0.15870370370370368,2.8499000000059596],[0.33697916666666666,-0.17092592592592595,2.865900000005958],[0.2982291666666666,-0.16203703703703703,2.8838000000119237],[0.25322916666666656,-0.1412962962962963,2.898900000005959],[0.20520833333333333,-0.1287037037037037,2.9155000000000015],[0.1622916666666666,-0.08851851851851854,2.932200000002979],[0.11937499999999991,-0.048333333333333374,2.9488000000119214],[0.084375,-0.01703703703703712,2.9672000000029826],[0.049374999999999974,0.014259259259259343,2.986100000008939],[0.012395833333333309,0.036481481481481566,3.0013000000119234],[0.01083333333333331,0.057037037037036956,3.015500000000003],[0.020937500000000022,0.0948148148148149,3.0322000000029803],[0.028958333333333287,0.122037037037037,3.0512000000029786],[0.01739583333333338,0.15111111111111114,3.065600000008942],[0.018437500000000048,0.12888888888888894,3.0824000000059613],[0.01864583333333331,0.09870370370370361,3.098900000005962],[0.0032291666666666905,0.09462962962962967,3.1154999999999973],[-0.03239583333333336,0.05,3.1354000000059585],[-0.05437500000000005,-0.01055555555555564,3.150600000008943],[-0.12072916666666664,-0.02759259259259255,3.166600000008941],[-0.1782291666666667,-0.049074074074074076,3.182200000002979],[-0.23802083333333332,-0.07259259259259257,3.1988000000119214],[-0.29572916666666665,-0.08555555555555554,3.2172000000029826],[-0.3352083333333333,-0.11277777777777774,3.2333000000119227],[-0.3352083333333333,-0.11277777777777774,3.2490000000000023],[-0.38729166666666665,-0.08870370370370366,3.265600000008945],[-0.45552083333333326,-0.08277777777777776,3.2822000000029803],[-0.5130208333333334,-0.10629629629629625,3.301100000008944],[-0.5320833333333334,-0.09518518518518514,3.3155],[-0.5572916666666666,-0.056296296296296254,3.335800000011922],[-0.5373958333333333,-0.04814814814814815,3.3500000000000014],[-0.5305208333333333,-0.026111111111111154,3.3654999999999973],[-0.5315625,-0.014629629629629588,3.3846000000089447],[-0.5346875,-0.015370370370370286,3.399000000000001],[-0.534375,-0.01444444444444436,3.4188000000119203],[-0.5340625,-0.013518518518518435,3.4345],[-0.5253125,-0.0025925925925925505,3.45360000000894],[-0.5158333333333334,-0.008703703703703788,3.469100000008943],[-0.5094791666666667,0.00722222222222218,3.484800000011923],[-0.5094791666666667,0.00722222222222218,3.4988000000119186],[-0.510625,0.011296296296296339,3.515600000008945],[-0.52,-0.005000000000000084,3.5322000000029803],[-0.5172916666666667,-0.03796296296296296,3.5506000000089415],[-0.51875,-0.04759259259259268,3.566300000011921],[-0.51875,-0.04759259259259268,3.5823000000119194],[-0.518125,-0.044999999999999915,3.5991000000089386],[-0.5180208333333334,-0.020555555555555598,3.6154999999999973],[-0.4623958333333333,-0.018333333333333292,3.6346000000089447],[-0.4083333333333333,-0.01703703703703712,3.649600000008938],[-0.4083333333333333,-0.01703703703703712,3.6655000000000015],[-0.349375,0.029814814814814856,3.6824000000059627],[-0.28718750000000004,0.014074074074074116,3.6989000000059633],[-0.225,-0.0016666666666666245,3.717500000000001],[-0.16031249999999997,-0.000925925925925926,3.7327000000029784],[-0.0985416666666667,0.012222222222222264,3.752200000002979],[-0.049374999999999974,0.016851851851851896,3.767800000011924],[-0.0002083333333333807,0.021481481481481525,3.7827000000029827],[0.06458333333333334,-0.028703703703703703,3.80090000000596],[0.07385416666666676,-0.056666666666666705,3.8161000000089444],[0.07385416666666676,-0.056666666666666705,3.8322000000029846],[0.08312499999999995,-0.08462962962962961,3.848900000005962],[0.09427083333333333,-0.12314814814814815,3.8654999999999973],[0.11958333333333329,-0.11944444444444445,3.88510000000894],[0.14489583333333325,-0.11574074074074074,3.899000000000001],[0.15822916666666675,-0.09870370370370372,3.9155000000000015],[0.16656250000000009,-0.0868518518518518,3.932200000002979],[0.2189583333333334,-0.09944444444444442,3.9488000000119214],[0.23875000000000005,-0.14722222222222223,3.968400000005964],[0.24885416666666677,-0.1624074074074074,3.98390000000596],[0.2789583333333333,-0.1648148148148148,3.9994999999999976],[0.3090625000000001,-0.16722222222222224,4.021500000000003],[0.3090625000000001,-0.16722222222222224,4.045600000008939],[0.31885416666666655,-0.15611111111111114,4.0637000000029815],[0.31885416666666655,-0.15611111111111114,4.075400000005963],[0.3076041666666666,-0.17222222222222222,4.082600000008938],[0.31447916666666675,-0.21740740740740735,4.098900000005962],[0.3390625,-0.272037037037037,4.115499999999997],[0.3430208333333333,-0.3133333333333333,4.133800000011924],[0.32958333333333345,-0.3224074074074075,4.148900000005959],[0.3651041666666667,-0.3001851851851852,4.167999999999999],[0.38791666666666674,-0.31425925925925924,4.182200000002979],[0.39739583333333334,-0.30407407407407405,4.198900000005963],[0.40687499999999993,-0.29388888888888887,4.216600000008938],[0.4340625000000001,-0.3118518518518518,4.232200000002983],[0.4340625000000001,-0.3118518518518518,4.2489000000059605],[0.46906249999999994,-0.33777777777777773,4.265600000008945],[0.45854166666666674,-0.32944444444444443,4.282100000008938],[0.44802083333333326,-0.32111111111111107,4.300300000011923],[0.4265625,-0.28425925925925927,4.3155],[0.39520833333333344,-0.27,4.334800000011924],[0.3168750000000001,-0.22462962962962965,4.348900000005962],[0.24583333333333332,-0.1425925925925926,4.365499999999997],[0.17666666666666658,-0.10666666666666672,4.384800000011921],[0.11624999999999991,-0.08944444444444447,4.399000000000001],[0.05583333333333336,-0.07222222222222222,4.4155000000000015],[-0.0328125,0.008333333333333333,4.432200000002979],[-0.09406249999999995,0.0837037037037038,4.448900000005963],[-0.1532291666666667,0.15481481481481485,4.468499999999999],[-0.18083333333333335,0.18407407407407403,4.482200000002983],[-0.17843749999999994,0.2161111111111112,4.498800000011919],[-0.1454166666666667,0.22092592592592583,4.515500000000003],[-0.1304166666666667,0.1816666666666667,4.53220000000298],[-0.12395833333333334,0.15148148148148138,4.5506000000089415],[-0.18250000000000005,0.1368518518518518,4.5655],[-0.23385416666666667,0.13259259259259262,4.5822000000029846],[-0.2625,0.09351851851851851,4.599000000000004],[-0.3116666666666667,0.06592592592592597,4.615499999999997],[-0.36291666666666667,0.04259259259259259,4.633700000002982],[-0.3935416666666666,-0.0020370370370370794,4.648800000011924],[-0.45416666666666666,-0.04944444444444453,4.6655000000000015],[-0.5381250000000001,-0.10129629629629627,4.685000000000002],[-0.6040625,-0.10907407407407403,4.703499999999998],[-0.6508333333333333,-0.10648148148148148,4.71820000000298],[-0.6334375,-0.10333333333333336,4.732300000011925],[-0.6232291666666666,-0.11055555555555553,4.748800000011919],[-0.619375,-0.11703703703703702,4.765600000008945],[-0.5889583333333334,-0.10703703703703706,4.786999999999999],[-0.5480208333333334,-0.12259259259259257,4.801900000005958],[-0.5480208333333334,-0.12259259259259257,4.8155],[-0.5277083333333333,-0.11685185185185189,4.8322000000029846],[-0.5047916666666666,-0.09888888888888885,4.84880000001192],[-0.47125,-0.0764814814814815,4.865499999999997],[-0.43770833333333337,-0.05407407407407405,4.8839000000059585],[-0.42729166666666674,-0.04092592592592597,4.89930000001192],[-0.4247916666666666,-0.025185185185185227,4.917700000002981],[-0.40822916666666664,-0.013518518518518435,4.932800000011923],[-0.39166666666666666,-0.001851851851851852,4.948800000011921],[-0.3828125,-0.027962962962963005,4.967100000008941],[-0.38958333333333334,-0.0301851851851851,4.983000000000004],[-0.36270833333333335,-0.016666666666666666,4.99960000000894],[-0.3384375,-0.015370370370370286,5.015500000000003],[-0.30145833333333333,-0.014074074074074116,5.032100000008938],[-0.2525,0.005555555555555556,5.0504999999999995],[-0.19958333333333336,0.024074074074074074,5.0655],[-0.15520833333333334,0.04796296296296292,5.082300000011919],[-0.1248958333333333,0.07592592592592592,5.099000000000004],[-0.08666666666666671,0.09074074074074075,5.115499999999997],[-0.04572916666666664,0.1270370370370371,5.134600000008945],[0.0003124999999999526,0.16500000000000004,5.148900000005959],[0.01270833333333338,0.18722222222222226,5.1655000000000015],[0.02052083333333338,0.21092592592592588,5.182200000002979],[0.02802083333333331,0.23796296296296296,5.198800000011921],[0.02354166666666669,0.24666666666666676,5.216900000005964],[0.024583333333333356,0.2388888888888889,5.232200000002983],[0.024583333333333356,0.2388888888888889,5.248800000011919],[0.034166666666666616,0.2257407407407407,5.265600000008945],[0.03947916666666664,0.22666666666666663,5.28220000000298],[0.04697916666666669,0.24537037037037038,5.2998000000119205],[0.05343749999999995,0.2524074074074073,5.3155],[0.05572916666666667,0.23425925925925925,5.3322000000029846],[0.05802083333333338,0.2161111111111112,5.349000000000004],[0.06802083333333328,0.20277777777777778,5.365499999999997],[0.06822916666666666,0.17611111111111116,5.38360000000894],[0.08468749999999996,0.17888888888888893,5.398800000011924],[0.09562499999999995,0.19814814814814816,5.4155000000000015],[0.10656249999999995,0.21740740740740735,5.432300000011921],[0.10854166666666672,0.20166666666666663,5.448900000005963],[0.10041666666666677,0.18129629629629626,5.46670000000298],[0.10291666666666661,0.16166666666666657,5.482200000002983],[0.10291666666666661,0.16166666666666657,5.4989000000059605],[0.10958333333333338,0.16722222222222213,5.515600000008945],[0.12625000000000006,0.18944444444444436,5.53220000000298],[0.13583333333333342,0.18055555555555555,5.5506000000089415],[0.1493750000000001,0.18222222222222217,5.565700000002984],[0.1466666666666666,0.1544444444444444,5.582300000011919],[0.14406249999999995,0.12388888888888884,5.598900000005962],[0.1414583333333333,0.0933333333333333,5.615600000008939],[0.14552083333333338,0.08185185185185194,5.6339000000059585],[0.14958333333333323,0.07037037037037037,5.648900000005959],[0.1414583333333333,0.042407407407407366,5.6655000000000015],[0.13333333333333333,0.01444444444444436,5.685700000002981],[0.11916666666666677,0.0001851851851852273,5.703700000002982],[0.10895833333333324,0.010740740740740657,5.718300000011922],[0.07468750000000005,-0.0005555555555554713,5.734000000000002],[0.07468750000000005,-0.0005555555555554713,5.748800000011919],[0.04041666666666662,-0.01185185185185181,5.765500000000003],[-0.01114583333333338,-0.02907407407407416,5.782400000005964],[-0.07000000000000005,-0.049629629629629544,5.801200000002979],[-0.12229166666666665,-0.06833333333333329,5.815900000005961],[-0.17458333333333337,-0.08703703703703704,5.835400000005961],[-0.19906250000000003,-0.10314814814814813,5.8508000000119225],[-0.2235416666666667,-0.11925925925925922,5.865499999999997],[-0.2507291666666667,-0.17296296296296293,5.884400000005961],[-0.27791666666666665,-0.22666666666666663,5.898900000005959],[-0.2998958333333333,-0.24814814814814815,5.9155000000000015],[-0.321875,-0.26962962962962966,5.932200000002979],[-0.30531250000000004,-0.2814814814814815,5.948800000011921],[-0.29708333333333337,-0.27870370370370373,5.968300000011922],[-0.28885416666666663,-0.2759259259259259,5.984000000000002],[-0.26510416666666664,-0.2785185185185185,5.998800000011919],[-0.26760416666666664,-0.26796296296296296,6.015500000000003],[-0.28458333333333335,-0.24870370370370373,6.03220000000298],[-0.30281250000000004,-0.2222222222222222,6.0506000000089415],[-0.2877083333333334,-0.16074074074074077,6.066200000002979],[-0.2476041666666667,-0.11018518518518519,6.086200000002982],[-0.2078125,-0.08499999999999996,6.101600000008943],[-0.18937499999999996,-0.06074074074074076,6.120600000008942],[-0.15750000000000006,-0.04981481481481477,6.135200000002982],[-0.11979166666666667,-0.02833333333333325,6.14970000000298],[-0.1063541666666667,-0.01518518518518527,6.166200000002981],[-0.08062499999999997,0.003333333333333249,6.1854999999999976],[-0.022812499999999975,0.014814814814814815,6.205800000011919],[-0.022812499999999975,0.014814814814814815,6.2157000000029825],[0.06635416666666671,0.028518518518518478,6.232500000000002],[0.06635416666666671,0.028518518518518478,6.249100000008944],[0.1056250000000001,-0.0012962962962963806,6.271500000000003],[0.1056250000000001,-0.0012962962962963806,6.282400000005964],[0.14552083333333338,-0.032407407407407406,6.299100000008941],[0.1474999999999999,-0.058333333333333334,6.315600000008942],[0.18385416666666668,-0.09574074074074072,6.335200000002978],[0.23093750000000005,-0.1007407407407407,6.3507000000029805],[0.2771874999999999,-0.11518518518518517,6.369999999999997],[0.3321875000000001,-0.11592592592592597,6.387500000000003],[0.3940624999999999,-0.13518518518518519,6.402900000005964],[0.4383333333333333,-0.15611111111111114,6.418500000000002],[0.4553124999999999,-0.172037037037037,6.434300000011923],[0.48885416666666665,-0.1794444444444444,6.453499999999998],[0.4790625000000001,-0.2125925925925926,6.468700000002983],[0.5075000000000001,-0.22555555555555556,6.4857000000029785],[0.5065624999999999,-0.21666666666666667,6.5028000000119235],[0.484375,-0.22722222222222221,6.517499999999998],[0.4557291666666667,-0.21222222222222226,6.536000000000001],[0.4270833333333333,-0.19722222222222222,6.553200000002981],[0.4270833333333333,-0.19722222222222222,6.565800000011919],[0.38947916666666677,-0.2037037037037037,6.582500000000003],[0.33791666666666675,-0.20722222222222217,6.5992000000029805],[0.28229166666666666,-0.21796296296296294,6.62090000000596],[0.2303124999999999,-0.23425925925925925,6.63510000000894],[0.22854166666666675,-0.24388888888888888,6.649999999999999],[0.22510416666666658,-0.24685185185185188,6.669200000002981],[0.21354166666666666,-0.20425925925925928,6.6856000000089395],[0.21354166666666666,-0.20425925925925928,6.69910000000894],[0.2319791666666667,-0.18370370370370367,6.7157000000029825],[0.22854166666666675,-0.18203703703703705,6.734700000002981],[0.2493750000000001,-0.19962962962962966,6.749700000002981],[0.25239583333333326,-0.15388888888888894,6.76570000000298],[0.25656249999999997,-0.14074074074074075,6.787100000008941],[0.2791666666666667,-0.13425925925925927,6.80240000000596],[0.29812500000000003,-0.12222222222222222,6.816700000002982],[0.29791666666666666,-0.10870370370370368,6.834700000002982],[0.2993750000000001,-0.10185185185185185,6.849499999999999],[0.3089583333333332,-0.14388888888888887,6.865499999999997],[0.3012500000000001,-0.17481481481481478,6.884],[0.2897916666666667,-0.21222222222222226,6.900400000005959],[0.2540625000000001,-0.23037037037037034,6.916300000011923],[0.26114583333333335,-0.28592592592592586,6.932100000008944],[0.28104166666666663,-0.3118518518518518,6.948800000011921],[0.3037499999999999,-0.3133333333333333,6.9680000000000035],[0.3264583333333334,-0.3148148148148148,6.983800000011925],[0.3304166666666667,-0.2862962962962963,6.999700000002981],[0.334375,-0.2577777777777778,7.015400000005961],[0.3333333333333333,-0.23629629629629634,7.03220000000298],[0.34833333333333344,-0.22592592592592592,7.051100000008944],[0.39041666666666663,-0.2168518518518519,7.066200000002979],[0.39041666666666663,-0.2168518518518519,7.082500000000003],[0.42989583333333337,-0.21240740740740738,7.098900000005962],[0.4267708333333334,-0.17759259259259255,7.115499999999997],[0.43239583333333326,-0.13851851851851854,7.134800000011921],[0.39479166666666665,-0.09611111111111106,7.149200000002978],[0.3571875000000001,-0.053703703703703705,7.166200000002981],[0.3551041666666668,-0.04814814814814815,7.183800000011921],[0.3555208333333333,-0.0712962962962963,7.198900000005963],[0.3559375000000001,-0.09444444444444444,7.2180000000000035],[0.3315624999999999,-0.04814814814814815,7.232600000008944],[0.3315624999999999,-0.04814814814814815,7.248800000011919],[0.31531250000000005,-0.021296296296296296,7.265600000008945],[0.2929166666666667,0.04592592592592584,7.282499999999999],[0.2664583333333333,0.08259259259259263,7.301100000008944],[0.23125,0.11500000000000005,7.3155],[0.22270833333333329,0.1264814814814814,7.332800000011922],[0.19781250000000009,0.12407407407407407,7.348900000005962],[0.15677083333333333,0.15407407407407417,7.365600000008939],[0.11322916666666671,0.21277777777777773,7.385600000008942],[0.11322916666666671,0.21277777777777773,7.398900000005959],[0.07447916666666667,0.2807407407407408,7.4155000000000015],[0.044479166666666715,0.2903703703703703,7.432200000002979],[0.0005208333333333333,0.3135185185185184,7.448800000011921],[-0.035208333333333286,0.2983333333333334,7.467500000000001],[-0.06760416666666665,0.2868518518518518,7.48280000001192],[-0.1,0.27537037037037043,7.503800000011921],[-0.1,0.27537037037037043,7.515400000005961],[-0.13552083333333337,0.25333333333333324,7.53220000000298],[-0.1570833333333333,0.21999999999999992,7.551600000008939],[-0.15552083333333327,0.16129629629629633,7.567500000000003],[-0.15395833333333328,0.10259259259259255,7.585100000008943],[-0.16041666666666668,0.043703703703703745,7.599600000008941],[-0.16958333333333328,-0.007592592592592635,7.615600000008939],[-0.16958333333333328,-0.007592592592592635,7.6325],[-0.14854166666666668,-0.051111111111111156,7.648800000011924],[-0.14281250000000004,-0.09277777777777782,7.66880000001192],[-0.1234375,-0.11666666666666667,7.683700000002979],[-0.10229166666666671,-0.17018518518518513,7.698999999999998],[-0.08270833333333331,-0.21333333333333332,7.717700000002978],[-0.03447916666666669,-0.22907407407407404,7.732300000011925],[0.008124999999999953,-0.22888888888888892,7.748800000011919],[0.03322916666666664,-0.2548148148148149,7.765500000000003],[0.03322916666666664,-0.2548148148148149,7.78220000000298],[0.06156250000000003,-0.2898148148148148,7.798900000005965],[0.09958333333333323,-0.334074074074074,7.815400000005958],[0.11322916666666671,-0.3801851851851852,7.833400000005959],[0.12114583333333329,-0.40925925925925927,7.849100000008939],[0.12354166666666658,-0.45092592592592595,7.8654000000059625],[0.15208333333333332,-0.46814814814814815,7.8870000000000005],[0.15208333333333332,-0.46814814814814815,7.906500000000001],[0.18697916666666667,-0.4733333333333334,7.9256000000089415],[0.18697916666666667,-0.4733333333333334,7.932100000008944],[0.20385416666666673,-0.5051851851851852,7.948800000011921],[0.20791666666666658,-0.5157407407407407,7.9665000000000035],[0.21770833333333334,-0.5048148148148148,7.982100000008941],[0.21770833333333334,-0.5048148148148148,7.998800000011919],[0.22385416666666677,-0.47537037037037033,8.015500000000003],[0.22322916666666662,-0.4685185185185185,8.03220000000298],[0.22520833333333337,-0.4612962962962963,8.050800000011918],[0.2548958333333334,-0.43333333333333335,8.065400000005958],[0.28458333333333335,-0.4053703703703703,8.082400000005961],[0.27020833333333344,-0.38870370370370366,8.09880000001192],[0.24947916666666667,-0.384074074074074,8.115499999999997],[0.2462500000000001,-0.3712962962962963,8.135900000005961],[0.2462500000000001,-0.3712962962962963,8.148900000005959],[0.2493750000000001,-0.37703703703703706,8.165600000008943],[0.26197916666666665,-0.3531481481481481,8.183200000002984],[0.27489583333333345,-0.3477777777777778,8.198800000011921],[0.2837500000000001,-0.3264814814814815,8.216999999999999],[0.29625000000000007,-0.30407407407407405,8.232100000008941],[0.29625000000000007,-0.30407407407407405,8.24890000000596],[0.28135416666666657,-0.29370370370370374,8.265500000000003],[0.2759375000000001,-0.2809259259259259,8.28220000000298],[0.26677083333333323,-0.25037037037037035,8.299900000005962],[0.27447916666666666,-0.2227777777777778,8.3155],[0.26229166666666665,-0.18111111111111114,8.332100000008943],[0.24083333333333337,-0.1603703703703704,8.34880000001192],[0.22166666666666662,-0.1646296296296296,8.36560000000894],[0.20927083333333343,-0.14888888888888885,8.384800000011921],[0.1828125,-0.12259259259259257,8.398900000005959],[0.15854166666666672,-0.12740740740740744,8.418100000008941],[0.1544791666666666,-0.11666666666666667,8.432800000011923],[0.14395833333333338,-0.13185185185185183,8.448800000011921],[0.15052083333333333,-0.14222222222222225,8.46740000000596],[0.15437500000000004,-0.15870370370370368,8.482100000008941],[0.15989583333333332,-0.14537037037037037,8.498800000011919],[0.1421875,-0.11314814814814819,8.515500000000003]]","[0.0003000000119186552,0.05240000000596012,0.05990000000596041,0.08550000000000324,0.09290000000596166,0.11999999999999744,0.12830000001191877,0.15149999999999864,0.15980000001191996,0.18520000000297898,0.19560000000894462,0.21790000000596166,0.23870000000297864,0.2602000000029818,0.2698000000119194,0.2822000000029803,0.3008000000119182,0.3155000000000001,0.3323000000119194,0.3489000000059619,0.3706000000089418,0.3860000000000028,0.3990000000000009,0.41550000000000153,0.43220000000297887,0.4489000000059633,0.4666000000089383,0.4823000000119251,0.49900000000000233,0.515500000000003,0.5322000000029803,0.5500000000000043,0.5657000000029839,0.5855000000000032,0.6007000000029805,0.6154999999999973,0.6322000000029817,0.648900000005959,0.6682000000029831,0.6833000000119185,0.7034999999999982,0.7156000000089406,0.7323000000119251,0.7489000000059605,0.7656000000089449,0.7824000000059641,0.8000000000000043,0.8156000000089421,0.8353000000119195,0.8489000000059619,0.8656000000089392,0.8834000000059632,0.8988000000119243,0.9155000000000015,0.9322000000029789,0.9489000000059633,0.9668000000119221,0.9823000000119251,0.9989000000059605,1.015600000008945,1.0322000000029803,1.0499000000059624,1.0678000000119212,1.0824000000059613,1.0993000000119224,1.115800000011923,1.1372000000029843,1.149000000000001,1.1658000000119202,1.1824999999999974,1.2033000000119216,1.2172000000029826,1.2325000000000017,1.2550000000000026,1.2659000000059635,1.282400000005964,1.3008000000119182,1.3191000000089446,1.3344000000059637,1.3492000000029805,1.365700000002981,1.3854000000059585,1.3992000000029776,1.4155000000000015,1.4350000000000023,1.4540000000000006,1.4658000000119245,1.4824000000059598,1.5011000000089396,1.5159000000059635,1.5367000000029805,1.553200000002981,1.5659000000059606,1.5827000000029798,1.5991000000089386,1.621200000002979,1.6324000000059584,1.6491000000089429,1.6684000000059598,1.6832000000029836,1.6995000000000005,1.7201000000089408,1.7324000000059598,1.7490000000000023,1.7658000000119216,1.7869000000059643,1.8019999999999996,1.8158000000119188,1.8348000000119242,1.8490000000000038,1.865700000002981,1.8842000000029842,1.8996000000089381,1.9155000000000015,1.9323000000119208,1.9488000000119214,1.9688000000119246,1.982300000011925,1.9989000000059605,2.0157000000029797,2.0322000000029803,2.050300000011923,2.0655,2.0861000000089405,2.102499999999999,2.120300000011923,2.135900000005961,2.148900000005959,2.1656000000089435,2.1857000000029814,2.20360000000894,2.218300000011922,2.232200000002983,2.2489000000059605,2.2659000000059635,2.2874000000059596,2.302500000000002,2.316200000002979,2.3322000000029846,2.348900000005962,2.365600000008939,2.38510000000894,2.399900000005964,2.4156000000089435,2.432200000002979,2.4489000000059633,2.4673000000119245,2.4826000000089437,2.4989000000059605,2.515500000000003,2.5322000000029803,2.55090000000596,2.5660000000000025,2.585600000008938,2.60180000001192,2.6202000000029813,2.63510000000894,2.6509000000059615,2.6662000000029806,2.682200000002979,2.6989000000059633,2.7173000000119245,2.732200000002983,2.753,2.7688000000119217,2.787200000002983,2.8023000000119183,2.8161000000089444,2.83570000000298,2.8499000000059596,2.865900000005958,2.8838000000119237,2.898900000005959,2.9155000000000015,2.932200000002979,2.9488000000119214,2.9672000000029826,2.986100000008939,3.0013000000119234,3.015500000000003,3.0322000000029803,3.0512000000029786,3.065600000008942,3.0824000000059613,3.098900000005962,3.1154999999999973,3.1354000000059585,3.150600000008943,3.166600000008941,3.182200000002979,3.1988000000119214,3.2172000000029826,3.2333000000119227,3.2490000000000023,3.265600000008945,3.2822000000029803,3.301100000008944,3.3155,3.335800000011922,3.3500000000000014,3.3654999999999973,3.3846000000089447,3.399000000000001,3.4188000000119203,3.4345,3.45360000000894,3.469100000008943,3.484800000011923,3.4988000000119186,3.515600000008945,3.5322000000029803,3.5506000000089415,3.566300000011921,3.5823000000119194,3.5991000000089386,3.6154999999999973,3.6346000000089447,3.649600000008938,3.6655000000000015,3.6824000000059627,3.6989000000059633,3.717500000000001,3.7327000000029784,3.752200000002979,3.767800000011924,3.7827000000029827,3.80090000000596,3.8161000000089444,3.8322000000029846,3.848900000005962,3.8654999999999973,3.88510000000894,3.899000000000001,3.9155000000000015,3.932200000002979,3.9488000000119214,3.968400000005964,3.98390000000596,3.9994999999999976,4.021500000000003,4.045600000008939,4.0637000000029815,4.075400000005963,4.082600000008938,4.098900000005962,4.115499999999997,4.133800000011924,4.148900000005959,4.167999999999999,4.182200000002979,4.198900000005963,4.216600000008938,4.232200000002983,4.2489000000059605,4.265600000008945,4.282100000008938,4.300300000011923,4.3155,4.334800000011924,4.348900000005962,4.365499999999997,4.384800000011921,4.399000000000001,4.4155000000000015,4.432200000002979,4.448900000005963,4.468499999999999,4.482200000002983,4.498800000011919,4.515500000000003,4.53220000000298,4.5506000000089415,4.5655,4.5822000000029846,4.599000000000004,4.615499999999997,4.633700000002982,4.648800000011924,4.6655000000000015,4.685000000000002,4.703499999999998,4.71820000000298,4.732300000011925,4.748800000011919,4.765600000008945,4.786999999999999,4.801900000005958,4.8155,4.8322000000029846,4.84880000001192,4.865499999999997,4.8839000000059585,4.89930000001192,4.917700000002981,4.932800000011923,4.948800000011921,4.967100000008941,4.983000000000004,4.99960000000894,5.015500000000003,5.032100000008938,5.0504999999999995,5.0655,5.082300000011919,5.099000000000004,5.115499999999997,5.134600000008945,5.148900000005959,5.1655000000000015,5.182200000002979,5.198800000011921,5.216900000005964,5.232200000002983,5.248800000011919,5.265600000008945,5.28220000000298,5.2998000000119205,5.3155,5.3322000000029846,5.349000000000004,5.365499999999997,5.38360000000894,5.398800000011924,5.4155000000000015,5.432300000011921,5.448900000005963,5.46670000000298,5.482200000002983,5.4989000000059605,5.515600000008945,5.53220000000298,5.5506000000089415,5.565700000002984,5.582300000011919,5.598900000005962,5.615600000008939,5.6339000000059585,5.648900000005959,5.6655000000000015,5.685700000002981,5.703700000002982,5.718300000011922,5.734000000000002,5.748800000011919,5.765500000000003,5.782400000005964,5.801200000002979,5.815900000005961,5.835400000005961,5.8508000000119225,5.865499999999997,5.884400000005961,5.898900000005959,5.9155000000000015,5.932200000002979,5.948800000011921,5.968300000011922,5.984000000000002,5.998800000011919,6.015500000000003,6.03220000000298,6.0506000000089415,6.066200000002979,6.086200000002982,6.101600000008943,6.120600000008942,6.135200000002982,6.14970000000298,6.166200000002981,6.1854999999999976,6.205800000011919,6.2157000000029825,6.232500000000002,6.249100000008944,6.271500000000003,6.282400000005964,6.299100000008941,6.315600000008942,6.335200000002978,6.3507000000029805,6.369999999999997,6.387500000000003,6.402900000005964,6.418500000000002,6.434300000011923,6.453499999999998,6.468700000002983,6.4857000000029785,6.5028000000119235,6.517499999999998,6.536000000000001,6.553200000002981,6.565800000011919,6.582500000000003,6.5992000000029805,6.62090000000596,6.63510000000894,6.649999999999999,6.669200000002981,6.6856000000089395,6.69910000000894,6.7157000000029825,6.734700000002981,6.749700000002981,6.76570000000298,6.787100000008941,6.80240000000596,6.816700000002982,6.834700000002982,6.849499999999999,6.865499999999997,6.884,6.900400000005959,6.916300000011923,6.932100000008944,6.948800000011921,6.9680000000000035,6.983800000011925,6.999700000002981,7.015400000005961,7.03220000000298,7.051100000008944,7.066200000002979,7.082500000000003,7.098900000005962,7.115499999999997,7.134800000011921,7.149200000002978,7.166200000002981,7.183800000011921,7.198900000005963,7.2180000000000035,7.232600000008944,7.248800000011919,7.265600000008945,7.282499999999999,7.301100000008944,7.3155,7.332800000011922,7.348900000005962,7.365600000008939,7.385600000008942,7.398900000005959,7.4155000000000015,7.432200000002979,7.448800000011921,7.467500000000001,7.48280000001192,7.503800000011921,7.515400000005961,7.53220000000298,7.551600000008939,7.567500000000003,7.585100000008943,7.599600000008941,7.615600000008939,7.6325,7.648800000011924,7.66880000001192,7.683700000002979,7.698999999999998,7.717700000002978,7.732300000011925,7.748800000011919,7.765500000000003,7.78220000000298,7.798900000005965,7.815400000005958,7.833400000005959,7.849100000008939,7.8654000000059625,7.8870000000000005,7.906500000000001,7.9256000000089415,7.932100000008944,7.948800000011921,7.9665000000000035,7.982100000008941,7.998800000011919,8.015500000000003,8.03220000000298,8.050800000011918,8.065400000005958,8.082400000005961,8.09880000001192,8.115499999999997,8.135900000005961,8.148900000005959,8.165600000008943,8.183200000002984,8.198800000011921,8.216999999999999,8.232100000008941,8.24890000000596,8.265500000000003,8.28220000000298,8.299900000005962,8.3155,8.332100000008943,8.34880000001192,8.36560000000894,8.384800000011921,8.398900000005959,8.418100000008941,8.432800000011923,8.448800000011921,8.46740000000596,8.482100000008941,8.498800000011919,8.515500000000003]","[1732608612355,1732608612395,1732608612403,1732608612429,1732608612436,1732608612463,1732608612471,1732608612495,1732608612503,1732608612528,1732608612539,1732608612561,1732608612582,1732608612603,1732608612613,1732608612625,1732608612644,1732608612659,1732608612675,1732608612692,1732608612714,1732608612729,1732608612742,1732608612759,1732608612775,1732608612792,1732608612810,1732608612825,1732608612842,1732608612859,1732608612875,1732608612893,1732608612909,1732608612929,1732608612944,1732608612959,1732608612975,1732608612992,1732608613011,1732608613026,1732608613047,1732608613059,1732608613075,1732608613092,1732608613109,1732608613126,1732608613143,1732608613159,1732608613178,1732608613192,1732608613209,1732608613226,1732608613242,1732608613259,1732608613275,1732608613292,1732608613310,1732608613325,1732608613342,1732608613359,1732608613375,1732608613393,1732608613411,1732608613426,1732608613442,1732608613459,1732608613480,1732608613492,1732608613509,1732608613526,1732608613546,1732608613560,1732608613575,1732608613598,1732608613609,1732608613625,1732608613644,1732608613662,1732608613677,1732608613692,1732608613709,1732608613728,1732608613742,1732608613759,1732608613778,1732608613797,1732608613809,1732608613825,1732608613844,1732608613859,1732608613880,1732608613896,1732608613909,1732608613926,1732608613942,1732608613964,1732608613975,1732608613992,1732608614011,1732608614026,1732608614043,1732608614063,1732608614075,1732608614092,1732608614109,1732608614130,1732608614145,1732608614159,1732608614178,1732608614192,1732608614209,1732608614227,1732608614243,1732608614259,1732608614275,1732608614292,1732608614312,1732608614325,1732608614342,1732608614359,1732608614375,1732608614393,1732608614409,1732608614429,1732608614446,1732608614463,1732608614479,1732608614492,1732608614509,1732608614529,1732608614547,1732608614561,1732608614575,1732608614592,1732608614609,1732608614630,1732608614645,1732608614659,1732608614675,1732608614692,1732608614709,1732608614728,1732608614743,1732608614759,1732608614775,1732608614792,1732608614810,1732608614826,1732608614842,1732608614859,1732608614875,1732608614894,1732608614909,1732608614929,1732608614945,1732608614963,1732608614978,1732608614994,1732608615009,1732608615025,1732608615042,1732608615060,1732608615075,1732608615096,1732608615112,1732608615130,1732608615145,1732608615159,1732608615179,1732608615193,1732608615209,1732608615227,1732608615242,1732608615259,1732608615275,1732608615292,1732608615310,1732608615329,1732608615344,1732608615359,1732608615375,1732608615394,1732608615409,1732608615425,1732608615442,1732608615459,1732608615478,1732608615494,1732608615510,1732608615525,1732608615542,1732608615560,1732608615576,1732608615592,1732608615609,1732608615625,1732608615644,1732608615659,1732608615679,1732608615693,1732608615709,1732608615728,1732608615742,1732608615762,1732608615778,1732608615797,1732608615812,1732608615828,1732608615842,1732608615859,1732608615875,1732608615894,1732608615909,1732608615925,1732608615942,1732608615959,1732608615978,1732608615993,1732608616009,1732608616025,1732608616042,1732608616060,1732608616076,1732608616095,1732608616111,1732608616126,1732608616144,1732608616159,1732608616175,1732608616192,1732608616209,1732608616228,1732608616242,1732608616259,1732608616275,1732608616292,1732608616311,1732608616327,1732608616343,1732608616365,1732608616389,1732608616407,1732608616419,1732608616426,1732608616442,1732608616459,1732608616477,1732608616492,1732608616511,1732608616525,1732608616542,1732608616560,1732608616575,1732608616592,1732608616609,1732608616625,1732608616643,1732608616659,1732608616678,1732608616692,1732608616709,1732608616728,1732608616742,1732608616759,1732608616775,1732608616792,1732608616811,1732608616825,1732608616842,1732608616859,1732608616875,1732608616894,1732608616909,1732608616925,1732608616942,1732608616959,1732608616977,1732608616992,1732608617009,1732608617028,1732608617047,1732608617061,1732608617075,1732608617092,1732608617109,1732608617130,1732608617145,1732608617159,1732608617175,1732608617192,1732608617209,1732608617227,1732608617242,1732608617261,1732608617276,1732608617292,1732608617310,1732608617326,1732608617343,1732608617359,1732608617375,1732608617394,1732608617409,1732608617425,1732608617442,1732608617459,1732608617478,1732608617492,1732608617509,1732608617525,1732608617542,1732608617560,1732608617575,1732608617592,1732608617609,1732608617625,1732608617643,1732608617659,1732608617675,1732608617692,1732608617709,1732608617727,1732608617742,1732608617759,1732608617775,1732608617792,1732608617810,1732608617825,1732608617842,1732608617859,1732608617875,1732608617894,1732608617909,1732608617925,1732608617942,1732608617959,1732608617977,1732608617992,1732608618009,1732608618029,1732608618047,1732608618061,1732608618077,1732608618092,1732608618109,1732608618125,1732608618144,1732608618159,1732608618178,1732608618194,1732608618209,1732608618227,1732608618242,1732608618259,1732608618275,1732608618292,1732608618311,1732608618327,1732608618342,1732608618359,1732608618375,1732608618394,1732608618409,1732608618429,1732608618445,1732608618464,1732608618478,1732608618493,1732608618509,1732608618529,1732608618549,1732608618559,1732608618576,1732608618592,1732608618615,1732608618625,1732608618642,1732608618659,1732608618678,1732608618694,1732608618713,1732608618730,1732608618746,1732608618762,1732608618777,1732608618797,1732608618812,1732608618829,1732608618846,1732608618861,1732608618879,1732608618896,1732608618909,1732608618926,1732608618942,1732608618964,1732608618978,1732608618993,1732608619012,1732608619029,1732608619042,1732608619059,1732608619078,1732608619093,1732608619109,1732608619130,1732608619145,1732608619160,1732608619178,1732608619192,1732608619209,1732608619227,1732608619243,1732608619259,1732608619275,1732608619292,1732608619311,1732608619327,1732608619343,1732608619359,1732608619375,1732608619394,1732608619409,1732608619426,1732608619442,1732608619459,1732608619478,1732608619492,1732608619509,1732608619527,1732608619542,1732608619561,1732608619576,1732608619592,1732608619609,1732608619626,1732608619644,1732608619659,1732608619676,1732608619692,1732608619709,1732608619729,1732608619742,1732608619758,1732608619775,1732608619792,1732608619811,1732608619826,1732608619847,1732608619859,1732608619875,1732608619895,1732608619911,1732608619928,1732608619943,1732608619959,1732608619976,1732608619992,1732608620012,1732608620027,1732608620042,1732608620061,1732608620075,1732608620092,1732608620109,1732608620125,1732608620142,1732608620159,1732608620176,1732608620192,1732608620208,1732608620230,1732608620250,1732608620269,1732608620275,1732608620292,1732608620309,1732608620325,1732608620342,1732608620359,1732608620375,1732608620394,1732608620408,1732608620425,1732608620442,1732608620459,1732608620479,1732608620492,1732608620509,1732608620526,1732608620542,1732608620560,1732608620575,1732608620592,1732608620609,1732608620625,1732608620643,1732608620658,1732608620675,1732608620692,1732608620709,1732608620728,1732608620742,1732608620761,1732608620776,1732608620792,1732608620810,1732608620825,1732608620842,1732608620859]","[[1055.7,567],[1051,546],[1051,546],[1037.3,539.4],[1037.3,539.4],[1049.2,539.8],[1049.2,539.8],[1036.7,523.9],[1036.7,523.9],[1020.7,502.6],[1020.7,502.6],[980.9,510],[980.9,510],[940.3,530.8],[940.3,530.8],[941.3,527.4],[927.9,534.3],[911.9,542.5],[911.9,542.5],[900.3,552.7],[897,548.7],[878.4,538.1],[878.4,538.1],[872.6,526.4],[859.1,528.8],[859,516.6],[860.8,499.1],[837.2,489],[837.2,489],[829.2,475.8],[819.5,466],[809.8,456.2],[768.2,462.5],[726.6,468.8],[715.1,471.3],[715.1,471.3],[713.4,470.9],[691.6,462.8],[667.9,460],[634.2,472],[599.2,483],[599.2,483],[582.5,484.7],[582.5,484.7],[559.9,487.6],[577.2,488.4],[600.2,479.4],[613.9,477.8],[648.1,484.8],[702.4,499.5],[743.4,505.4],[794.4,496.5],[841.1,488.7],[871.2,486.8],[923.3,480.9],[964.1,465.5],[990.4,475.1],[990.4,475.1],[1000.6,488.4],[1014,482.1],[1021.3,467.9],[1038.7,467.3],[1062,463],[1062,463],[1072.4,486.8],[1087.8,504],[1081.2,546.3],[1081.2,546.3],[1095.4,573.5],[1105.4,590.5],[1092.6,608.4],[1116.6,618.8],[1105.1,655.8],[1096.8,688],[1096.8,688],[1116.6,697.2],[1093.5,670.7],[1056.7,646],[1062.3,625.6],[1047.1,620.3],[1020.1,617.4],[1015.9,613.6],[988.8,618.4],[1021.8,592.3],[1054.8,566.2],[1049.9,580.8],[1049.9,580.8],[1110.4,588.3],[1182.5,598.6],[1212.7,594],[1215.7,589.8],[1251.7,580.3],[1251.7,580.3],[1332,559.3],[1341.2,557],[1331.9,566.9],[1331.9,566.9],[1376.6,562.3],[1396.6,538.3],[1434.7,541.3],[1416.9,562.8],[1404.5,572.6],[1404.5,572.6],[1445.3,571.6],[1493.3,561.8],[1492.6,561.1],[1532.8,552.2],[1573,543.3],[1559.2,548.9],[1579.1,569],[1575.6,575.7],[1638.4,552.9],[1701.2,530.1],[1701.2,530.1],[1693.7,545.4],[1687.3,555.2],[1669.4,554.6],[1669.4,554.6],[1644.1,553.4],[1634.6,573],[1624,585.1],[1608.3,588.1],[1587.7,582.9],[1553.8,590.7],[1498.8,605.8],[1488.1,593.2],[1484.7,595.5],[1484.7,595.5],[1488.2,614.2],[1511.4,643.1],[1531.9,614.2],[1541.6,599.3],[1541.6,599.3],[1551.3,584.4],[1559.6,577.3],[1567.6,575.9],[1602.3,570.4],[1637,564.9],[1637,564.9],[1645.4,554.5],[1655.4,551.1],[1668.6,516.1],[1675.9,519.5],[1675.9,519.5],[1690.6,527.1],[1683.5,527.4],[1662.9,529],[1642.6,524.9],[1616.6,524.7],[1590.7,523.1],[1577.4,524.3],[1606.5,507.7],[1590.5,496.2],[1567.3,483.3],[1523.3,480.4],[1501.1,484.8],[1498.6,488.5],[1493.1,486.3],[1487.7,477],[1474.3,474.6],[1450.8,471.6],[1398.2,464.4],[1371.8,472.9],[1348.3,485.8],[1354.9,472.3],[1361.5,458.8],[1353.5,455.4],[1348.5,457.9],[1344.7,458.4],[1314.8,454.3],[1283.5,447.7],[1246.3,452.5],[1203.1,463.7],[1157,470.5],[1115.8,492.2],[1074.6,513.9],[1041,530.8],[1007.4,547.7],[971.9,559.7],[970.4,570.8],[980.1,591.2],[987.8,605.9],[976.7,621.6],[977.7,609.6],[977.9,593.3],[963.1,591.1],[928.9,567],[907.8,534.3],[844.1,525.1],[788.9,513.5],[731.5,500.8],[676.1,493.8],[638.2,479.1],[638.2,479.1],[588.2,492.1],[522.7,495.3],[467.5,482.6],[449.2,488.6],[425,509.6],[444.1,514],[450.7,525.9],[449.7,532.1],[446.7,531.7],[447,532.2],[447.3,532.7],[455.7,538.6],[464.8,535.3],[470.9,543.9],[470.9,543.9],[469.8,546.1],[460.8,537.3],[463.4,519.5],[462,514.3],[462,514.3],[462.6,515.7],[462.7,528.9],[516.1,530.1],[568,530.8],[568,530.8],[624.6,556.1],[684.3,547.6],[744,539.1],[806.1,539.5],[865.4,546.6],[912.6,549.1],[959.8,551.6],[1022,524.5],[1030.9,509.4],[1030.9,509.4],[1039.8,494.3],[1050.5,473.5],[1074.8,475.5],[1099.1,477.5],[1111.9,486.7],[1119.9,493.1],[1170.2,486.3],[1189.2,460.5],[1198.9,452.3],[1227.8,451],[1256.7,449.7],[1256.7,449.7],[1266.1,455.7],[1266.1,455.7],[1255.3,447],[1261.9,422.6],[1285.5,393.1],[1289.3,370.8],[1276.4,365.9],[1310.5,377.9],[1332.4,370.3],[1341.5,375.8],[1350.6,381.3],[1376.7,371.6],[1376.7,371.6],[1410.3,357.6],[1400.2,362.1],[1390.1,366.6],[1369.5,386.5],[1339.4,394.2],[1264.2,418.7],[1196,463],[1129.6,482.4],[1071.6,491.7],[1013.6,501],[928.5,544.5],[869.7,585.2],[812.9,623.6],[786.4,639.4],[788.7,656.7],[820.4,659.3],[834.8,638.1],[841,621.8],[784.8,613.9],[735.5,611.6],[708,590.5],[660.8,575.6],[611.6,563],[582.2,538.9],[524,513.3],[443.4,485.3],[380.1,481.1],[335.2,482.5],[351.9,484.2],[361.7,480.3],[365.4,476.8],[394.6,482.2],[433.9,473.8],[433.9,473.8],[453.4,476.9],[475.4,486.6],[507.6,498.7],[539.8,510.8],[549.8,517.9],[552.2,526.4],[568.1,532.7],[584,539],[592.5,524.9],[586,523.7],[611.8,531],[635.1,531.7],[670.6,532.4],[717.6,543],[768.4,553],[811,565.9],[840.1,581],[876.8,589],[916.1,608.6],[960.3,629.1],[972.2,641.1],[979.7,653.9],[986.9,668.5],[982.6,673.2],[983.6,669],[983.6,669],[992.8,661.9],[997.9,662.4],[1005.1,672.5],[1011.3,676.3],[1013.5,666.5],[1015.7,656.7],[1025.3,649.5],[1025.5,635.1],[1041.3,636.6],[1051.8,647],[1062.3,657.4],[1064.2,648.9],[1056.4,637.9],[1058.8,627.3],[1058.8,627.3],[1065.2,630.3],[1081.2,642.3],[1090.4,637.5],[1103.4,638.4],[1100.8,623.4],[1098.3,606.9],[1095.8,590.4],[1099.7,584.2],[1103.6,578],[1095.8,562.9],[1088,547.8],[1074.4,540.1],[1064.6,545.8],[1031.7,539.7],[1031.7,539.7],[998.8,533.6],[949.3,524.3],[892.8,513.2],[842.6,503.1],[792.4,493],[768.9,484.3],[745.4,475.6],[719.3,446.6],[693.2,417.6],[672.1,406],[651,394.4],[666.9,388],[674.8,389.5],[682.7,391],[705.5,389.6],[703.1,395.3],[686.8,405.7],[669.3,420],[683.8,453.2],[722.3,480.5],[760.5,494.1],[778.2,507.2],[808.8,513.1],[845,524.7],[857.9,531.8],[882.6,541.8],[938.1,548],[938.1,548],[1023.7,555.4],[1023.7,555.4],[1061.4,539.3],[1061.4,539.3],[1099.7,522.5],[1101.6,508.5],[1136.5,488.3],[1181.7,485.6],[1226.1,477.8],[1278.9,477.4],[1338.3,467],[1380.8,455.7],[1397.1,447.1],[1429.3,443.1],[1419.9,425.2],[1447.2,418.2],[1446.3,423],[1425,417.3],[1397.5,425.4],[1370,433.5],[1370,433.5],[1333.9,430],[1284.4,428.1],[1231,422.3],[1181.1,413.5],[1179.4,408.3],[1176.1,406.7],[1165,429.7],[1165,429.7],[1182.7,440.8],[1179.4,441.7],[1199.4,432.2],[1202.3,456.9],[1206.3,464],[1228,467.5],[1246.2,474],[1246,481.3],[1247.4,485],[1256.6,462.3],[1249.2,445.6],[1238.2,425.4],[1203.9,415.6],[1210.7,385.6],[1229.8,371.6],[1251.6,370.8],[1273.4,370],[1277.2,385.4],[1281,400.8],[1280,412.4],[1294.4,418],[1334.8,422.9],[1334.8,422.9],[1372.7,425.3],[1369.7,444.1],[1375.1,465.2],[1339,488.1],[1302.9,511],[1300.9,514],[1301.3,501.5],[1301.7,489],[1278.3,514],[1278.3,514],[1262.7,528.5],[1241.2,564.8],[1215.8,584.6],[1182,602.1],[1173.8,608.3],[1149.9,607],[1110.5,623.2],[1068.