inst1_resp.keys,inst1_resp.rt,calibrationMouse.x,calibrationMouse.y,calibrationMouse.leftButton,calibrationMouse.midButton,calibrationMouse.rightButton,calibrationClick.x,calibrationClick.y,calibrationClick.leftButton,calibrationClick.midButton,calibrationClick.rightButton,calibrationClick.clicked_name,trialsc.thisRepN,trialsc.thisTrialN,trialsc.thisN,trialsc.thisIndex,trialsc.ran,calibration_x,calibration_y,participant,session,date,expName,psychopyVersion,OS,frameRate,ScreenRes_pixels,Camera_pixels,mouse_2.x,mouse_2.y,mouse_2.leftButton,mouse_2.midButton,mouse_2.rightButton,mouse_2.time,mouse_2.clicked_name,mouse.x,mouse.y,mouse.leftButton,mouse.midButton,mouse.rightButton,mouse.time,mouse.clicked_name,Choice,Trial,TrialDuration,MOUSE_GAZE,ET_GAZE,ET_GAZE_x_T,time,unixTime,ET_GAZE_NF,Loc_Bus_label,Loc_Metro_label,Loc_RH_label,Loc_Cost_label,Loc_Travel_label,Loc_Comfort_label,Loc_Bus_cost,Loc_Metro_cost,Loc_RH_cost,Loc_Bus_travel,Loc_Metro_travel,Loc_RH_travel,Loc_Bus_comfort,Loc_Metro_comfort,Loc_RH_comfort,trials.thisRepN,trials.thisTrialN,trials.thisN,trials.thisIndex,trials.ran,Block,Device,RH_cost,RH_travel_time,RH_Comfort,metro_cost,metro_travel_time,metro_Comfort,Bus_cost,Bus_travel_time,Bus_Comfort
space,2.0477,-0.071875,-0.235185185,1,0,0,0,0.333333333,1,0,0,calibration_square,0,0,0,12,1,0,0.33,38,001,2024-11-26_11h56.26.619,Attention_exp_legacy,2023.1.0,Win32,60.24096386,,,,,,,,,,,,,,,,,,,,,,,,,,,,,,,,,,,,,,,,,,,,,,,,,,,,,,,,
,,,,,,,-0.685416667,-0.677777778,1,0,0,,0,1,1,0,1,-0.67,-0.67,38,001,2024-11-26_11h56.26.619,Attention_exp_legacy,2023.1.0,Win32,60.24096386,,,,,,,,,,,,,,,,,,,,,,,,,,,,,,,,,,,,,,,,,,,,,,,,,,,,,,,,
,,,,,,,0.672916667,-0.681481481,1,0,0,,0,2,2,20,1,0.67,-0.67,38,001,2024-11-26_11h56.26.619,Attention_exp_legacy,2023.1.0,Win32,60.24096386,,,,,,,,,,,,,,,,,,,,,,,,,,,,,,,,,,,,,,,,,,,,,,,,,,,,,,,,
,,,,,,,0.346875,-0.322222222,1,0,0,,0,3,3,15,1,0.33,-0.33,38,001,2024-11-26_11h56.26.619,Attention_exp_legacy,2023.1.0,Win32,60.24096386,,,,,,,,,,,,,,,,,,,,,,,,,,,,,,,,,,,,,,,,,,,,,,,,,,,,,,,,
,,,,,,,0.3375,0.661111111,1,0,0,calibration_square,0,4,4,18,1,0.33,0.67,38,001,2024-11-26_11h56.26.619,Attention_exp_legacy,2023.1.0,Win32,60.24096386,,,,,,,,,,,,,,,,,,,,,,,,,,,,,,,,,,,,,,,,,,,,,,,,,,,,,,,,
,,,,,,,-0.005208333,-0.333333333,1,0,0,calibration_square,0,5,5,10,1,0,-0.33,38,001,2024-11-26_11h56.26.619,Attention_exp_legacy,2023.1.0,Win32,60.24096386,,,,,,,,,,,,,,,,,,,,,,,,,,,,,,,,,,,,,,,,,,,,,,,,,,,,,,,,
,,,,,,,-0.002083333,0,1,0,0,calibration_square,0,6,6,11,1,0,0,38,001,2024-11-26_11h56.26.619,Attention_exp_legacy,2023.1.0,Win32,60.24096386,,,,,,,,,,,,,,,,,,,,,,,,,,,,,,,,,,,,,,,,,,,,,,,,,,,,,,,,
,,,,,,,-0.335416667,0.327777778,1,0,0,calibration_square,0,7,7,7,1,-0.33,0.33,38,001,2024-11-26_11h56.26.619,Attention_exp_legacy,2023.1.0,Win32,60.24096386,,,,,,,,,,,,,,,,,,,,,,,,,,,,,,,,,,,,,,,,,,,,,,,,,,,,,,,,
,,,,,,,0.005208333,-0.67962963,1,0,0,calibration_square,0,8,8,9,1,0,-0.67,38,001,2024-11-26_11h56.26.619,Attention_exp_legacy,2023.1.0,Win32,60.24096386,,,,,,,,,,,,,,,,,,,,,,,,,,,,,,,,,,,,,,,,,,,,,,,,,,,,,,,,
,,,,,,,-0.002083333,0.661111111,1,0,0,calibration_square,0,9,9,13,1,0,0.67,38,001,2024-11-26_11h56.26.619,Attention_exp_legacy,2023.1.0,Win32,60.24096386,,,,,,,,,,,,,,,,,,,,,,,,,,,,,,,,,,,,,,,,,,,,,,,,,,,,,,,,
,,,,,,,0.34375,-0.662962963,1,0,0,,0,10,10,14,1,0.33,-0.67,38,001,2024-11-26_11h56.26.619,Attention_exp_legacy,2023.1.0,Win32,60.24096386,,,,,,,,,,,,,,,,,,,,,,,,,,,,,,,,,,,,,,,,,,,,,,,,,,,,,,,,
,,,,,,,-0.670833333,0.314814815,1,0,0,,0,11,11,3,1,-0.67,0.33,38,001,2024-11-26_11h56.26.619,Attention_exp_legacy,2023.1.0,Win32,60.24096386,,,,,,,,,,,,,,,,,,,,,,,,,,,,,,,,,,,,,,,,,,,,,,,,,,,,,,,,
,,,,,,,0.675,0.662962963,1,0,0,calibration_square,0,12,12,19,1,0.67,0.67,38,001,2024-11-26_11h56.26.619,Attention_exp_legacy,2023.1.0,Win32,60.24096386,,,,,,,,,,,,,,,,,,,,,,,,,,,,,,,,,,,,,,,,,,,,,,,,,,,,,,,,
,,,,,,,-0.672916667,0.005555556,1,0,0,calibration_square,0,13,13,2,1,-0.67,0,38,001,2024-11-26_11h56.26.619,Attention_exp_legacy,2023.1.0,Win32,60.24096386,,,,,,,,,,,,,,,,,,,,,,,,,,,,,,,,,,,,,,,,,,,,,,,,,,,,,,,,
,,,,,,,-0.323958333,0.67962963,1,0,0,calibration_square,0,14,14,8,1,-0.33,0.67,38,001,2024-11-26_11h56.26.619,Attention_exp_legacy,2023.1.0,Win32,60.24096386,,,,,,,,,,,,,,,,,,,,,,,,,,,,,,,,,,,,,,,,,,,,,,,,,,,,,,,,
,,,,,,,-0.672916667,-0.324074074,1,0,0,calibration_square,0,15,15,1,1,-0.67,-0.33,38,001,2024-11-26_11h56.26.619,Attention_exp_legacy,2023.1.0,Win32,60.24096386,,,,,,,,,,,,,,,,,,,,,,,,,,,,,,,,,,,,,,,,,,,,,,,,,,,,,,,,
,,,,,,,-0.341666667,0.001851852,1,0,0,,0,16,16,6,1,-0.33,0,38,001,2024-11-26_11h56.26.619,Attention_exp_legacy,2023.1.0,Win32,60.24096386,,,,,,,,,,,,,,,,,,,,,,,,,,,,,,,,,,,,,,,,,,,,,,,,,,,,,,,,
,,,,,,,0.340625,0.007407407,1,0,0,,0,17,17,16,1,0.33,0,38,001,2024-11-26_11h56.26.619,Attention_exp_legacy,2023.1.0,Win32,60.24096386,,,,,,,,,,,,,,,,,,,,,,,,,,,,,,,,,,,,,,,,,,,,,,,,,,,,,,,,
,,,,,,,0.323958333,0.340740741,1,0,0,,0,18,18,17,1,0.33,0.33,38,001,2024-11-26_11h56.26.619,Attention_exp_legacy,2023.1.0,Win32,60.24096386,,,,,,,,,,,,,,,,,,,,,,,,,,,,,,,,,,,,,,,,,,,,,,,,,,,,,,,,
,,,,,,,-0.344791667,-0.681481481,1,0,0,,0,19,19,4,1,-0.33,-0.67,38,001,2024-11-26_11h56.26.619,Attention_exp_legacy,2023.1.0,Win32,60.24096386,,,,,,,,,,,,,,,,,,,,,,,,,,,,,,,,,,,,,,,,,,,,,,,,,,,,,,,,
,,,,,,,-0.345833333,-0.340740741,1,0,0,,0,20,20,5,1,-0.33,-0.33,38,001,2024-11-26_11h56.26.619,Attention_exp_legacy,2023.1.0,Win32,60.24096386,,,,,,,,,,,,,,,,,,,,,,,,,,,,,,,,,,,,,,,,,,,,,,,,,,,,,,,,
,,,,,,,,,,,,,,,,,,,,38,001,2024-11-26_11h56.26.619,Attention_exp_legacy,2023.1.0,Win32,60.24096386,"[1920,1080]","[640,480]",[0.04895833333333333],[-0.5296296296296297],[1],[0],[0],[3.712399999998503],"[""StartButton""]",[0.06979166666666667],[0.15],[1],[0],[0],[3.3133999999985093],"[""Metro_label""]",Metro_label,1,4.3402,"[[-0.06041666666666667,-0.022222222222222223],[-0.06041666666666667,-0.022222222222222223],[-0.06041666666666667,-0.022222222222222223],[-0.06041666666666667,-0.022222222222222223],[-0.06041666666666667,-0.022222222222222223],[-0.06041666666666667,-0.022222222222222223],[-0.06041666666666667,-0.022222222222222223],[-0.06041666666666667,-0.022222222222222223],[-0.06041666666666667,-0.022222222222222223],[-0.06041666666666667,-0.022222222222222223],[-0.06041666666666667,-0.022222222222222223],[-0.06041666666666667,-0.022222222222222223],[-0.06041666666666667,-0.022222222222222223],[-0.06041666666666667,-0.022222222222222223],[-0.06041666666666667,-0.022222222222222223],[-0.06041666666666667,-0.022222222222222223],[-0.06041666666666667,-0.022222222222222223],[-0.06041666666666667,-0.022222222222222223],[-0.06041666666666667,-0.022222222222222223],[-0.06041666666666667,-0.022222222222222223],[-0.06041666666666667,-0.022222222222222223],[-0.06041666666666667,-0.022222222222222223],[-0.06041666666666667,-0.022222222222222223],[-0.06041666666666667,-0.022222222222222223],[-0.06041666666666667,-0.022222222222222223],[-0.06041666666666667,-0.022222222222222223],[-0.06041666666666667,-0.022222222222222223],[-0.06041666666666667,-0.022222222222222223],[-0.06041666666666667,-0.022222222222222223],[-0.06041666666666667,-0.022222222222222223],[-0.06041666666666667,-0.022222222222222223],[-0.06041666666666667,-0.022222222222222223],[-0.06041666666666667,-0.022222222222222223],[-0.06041666666666667,-0.022222222222222223],[-0.06041666666666667,-0.022222222222222223],[-0.06041666666666667,-0.022222222222222223],[-0.06041666666666667,-0.022222222222222223],[-0.06041666666666667,-0.022222222222222223],[-0.06041666666666667,-0.022222222222222223],[-0.06041666666666667,-0.022222222222222223],[-0.06041666666666667,-0.022222222222222223],[-0.06041666666666667,-0.022222222222222223],[-0.06041666666666667,-0.022222222222222223],[-0.06041666666666667,-0.022222222222222223],[-0.06041666666666667,-0.022222222222222223],[-0.06041666666666667,-0.022222222222222223],[-0.06041666666666667,-0.022222222222222223],[-0.06041666666666667,-0.022222222222222223],[-0.06041666666666667,-0.022222222222222223],[-0.06041666666666667,-0.022222222222222223],[-0.06041666666666667,-0.022222222222222223],[-0.06041666666666667,-0.022222222222222223],[-0.06041666666666667,-0.022222222222222223],[-0.06041666666666667,-0.022222222222222223],[-0.06041666666666667,-0.022222222222222223],[-0.06041666666666667,-0.022222222222222223],[-0.06041666666666667,-0.022222222222222223],[-0.06041666666666667,-0.022222222222222223],[-0.06041666666666667,-0.022222222222222223],[-0.06041666666666667,-0.022222222222222223],[-0.06041666666666667,-0.022222222222222223],[-0.06041666666666667,-0.022222222222222223],[-0.06041666666666667,-0.022222222222222223],[-0.06041666666666667,-0.022222222222222223],[-0.06041666666666667,-0.022222222222222223],[-0.06041666666666667,-0.022222222222222223],[-0.06041666666666667,-0.022222222222222223],[-0.06145833333333333,-0.022222222222222223],[-0.06145833333333333,-0.022222222222222223],[-0.06145833333333333,-0.022222222222222223],[-0.06145833333333333,-0.022222222222222223],[-0.06145833333333333,-0.022222222222222223],[-0.06145833333333333,-0.022222222222222223],[-0.06145833333333333,-0.022222222222222223],[-0.06145833333333333,-0.022222222222222223],[-0.06145833333333333,-0.022222222222222223],[-0.06145833333333333,-0.022222222222222223],[-0.06145833333333333,-0.022222222222222223],[-0.05520833333333333,-0.018518518518518517],[-0.04375,-0.012962962962962963],[-0.036458333333333336,-0.009259259259259259],[-0.028125,-0.005555555555555556],[-0.019791666666666666,-0.003703703703703704],[-0.010416666666666666,0],[0.0010416666666666667,0.001851851851851852],[0.008333333333333333,0.005555555555555556],[0.019791666666666666,0.007407407407407408],[0.03125,0.009259259259259259],[0.040625,0.012962962962962963],[0.04791666666666667,0.012962962962962963],[0.05,0.014814814814814815],[0.051041666666666666,0.014814814814814815],[0.05416666666666667,0.016666666666666666],[0.057291666666666664,0.018518518518518517],[0.06145833333333333,0.018518518518518517],[0.06666666666666667,0.022222222222222223],[0.06875,0.024074074074074074],[0.07083333333333333,0.024074074074074074],[0.071875,0.025925925925925925],[0.071875,0.025925925925925925],[0.071875,0.025925925925925925],[0.071875,0.025925925925925925],[0.071875,0.025925925925925925],[0.071875,0.025925925925925925],[0.071875,0.025925925925925925],[0.071875,0.025925925925925925],[0.071875,0.025925925925925925],[0.071875,0.025925925925925925],[0.071875,0.025925925925925925],[0.071875,0.025925925925925925],[0.071875,0.025925925925925925],[0.071875,0.025925925925925925],[0.071875,0.025925925925925925],[0.071875,0.025925925925925925],[0.071875,0.025925925925925925],[0.071875,0.025925925925925925],[0.071875,0.025925925925925925],[0.071875,0.025925925925925925],[0.071875,0.025925925925925925],[0.071875,0.025925925925925925],[0.071875,0.025925925925925925],[0.071875,0.025925925925925925],[0.071875,0.025925925925925925],[0.071875,0.025925925925925925],[0.071875,0.025925925925925925],[0.071875,0.025925925925925925],[0.071875,0.025925925925925925],[0.071875,0.025925925925925925],[0.071875,0.025925925925925925],[0.071875,0.025925925925925925],[0.071875,0.025925925925925925],[0.071875,0.025925925925925925],[0.071875,0.025925925925925925],[0.071875,0.025925925925925925],[0.071875,0.025925925925925925],[0.071875,0.025925925925925925],[0.071875,0.025925925925925925],[0.071875,0.025925925925925925],[0.071875,0.025925925925925925],[0.071875,0.025925925925925925],[0.071875,0.025925925925925925],[0.071875,0.025925925925925925],[0.071875,0.025925925925925925],[0.071875,0.025925925925925925],[0.071875,0.025925925925925925],[0.071875,0.025925925925925925],[0.071875,0.025925925925925925],[0.071875,0.025925925925925925],[0.071875,0.025925925925925925],[0.071875,0.025925925925925925],[0.071875,0.025925925925925925],[0.071875,0.025925925925925925],[0.071875,0.025925925925925925],[0.071875,0.025925925925925925],[0.071875,0.025925925925925925],[0.071875,0.025925925925925925],[0.071875,0.025925925925925925],[0.071875,0.025925925925925925],[0.071875,0.025925925925925925],[0.071875,0.025925925925925925],[0.071875,0.025925925925925925],[0.071875,0.025925925925925925],[0.071875,0.025925925925925925],[0.071875,0.025925925925925925],[0.071875,0.027777777777777776],[0.071875,0.02962962962962963],[0.071875,0.03518518518518519],[0.071875,0.04259259259259259],[0.07083333333333333,0.053703703703703705],[0.06979166666666667,0.06666666666666667],[0.06979166666666667,0.07777777777777778],[0.06979166666666667,0.09444444444444444],[0.06979166666666667,0.09814814814814815],[0.06979166666666667,0.10740740740740741],[0.06979166666666667,0.11666666666666667],[0.06979166666666667,0.12407407407407407],[0.06979166666666667,0.12777777777777777],[0.06979166666666667,0.12962962962962962],[0.06979166666666667,0.13333333333333333],[0.06979166666666667,0.13333333333333333],[0.06979166666666667,0.13518518518518519],[0.06979166666666667,0.13703703703703704],[0.06979166666666667,0.1388888888888889],[0.06979166666666667,0.1388888888888889],[0.06979166666666667,0.1388888888888889],[0.06979166666666667,0.1388888888888889],[0.06979166666666667,0.14074074074074075],[0.06979166666666667,0.1425925925925926],[0.06979166666666667,0.14444444444444443],[0.06979166666666667,0.14629629629629629],[0.06979166666666667,0.14814814814814814],[0.06979166666666667,0.15],[0.06979166666666667,0.15],[0.06979166666666667,0.15],[0.06979166666666667,0.15],[0.06979166666666667,0.15],[0.06979166666666667,0.15],[0.06979166666666667,0.15],[0.06979166666666667,0.15],[0.06979166666666667,0.15],[0.06979166666666667,0.15],[0.06979166666666667,0.15],[0.06979166666666667,0.15],[0.06979166666666667,0.15],[0.06979166666666667,0.15],[0.06979166666666667,0.15],[0.06979166666666667,0.15],[0.06979166666666667,0.15],[0.06979166666666667,0.15],[0.06979166666666667,0.15],[0.06979166666666667,0.15],[0.06979166666666667,0.14629629629629629],[0.06979166666666667,0.1388888888888889],[0.06979166666666667,0.12962962962962962],[0.06979166666666667,0.11666666666666667],[0.06979166666666667,0.10925925925925926],[0.06979166666666667,0.10185185185185185],[0.06979166666666667,0.0962962962962963],[0.07083333333333333,0.08518518518518518],[0.07083333333333333,0.07407407407407407],[0.071875,0.053703703703703705],[0.071875,0.040740740740740744],[0.07291666666666667,0.03333333333333333],[0.07291666666666667,0.024074074074074074],[0.075,0.014814814814814815],[0.075,0.012962962962962963],[0.075,0.005555555555555556],[0.075,0.001851851851851852],[0.075,0],[0.075,-0.003703703703703704],[0.075,-0.003703703703703704],[0.075,-0.003703703703703704],[0.075,-0.003703703703703704],[0.075,-0.003703703703703704],[0.075,-0.003703703703703704],[0.075,-0.003703703703703704],[0.075,-0.003703703703703704],[0.075,-0.003703703703703704],[0.075,-0.003703703703703704],[0.075,-0.003703703703703704],[0.075,-0.003703703703703704],[0.075,-0.003703703703703704],[0.075,-0.003703703703703704],[0.075,-0.003703703703703704],[0.075,-0.003703703703703704],[0.075,-0.003703703703703704],[0.075,-0.003703703703703704],[0.075,-0.003703703703703704],[0.075,-0.003703703703703704],[0.075,-0.003703703703703704],[0.075,-0.003703703703703704],[0.075,-0.003703703703703704],[0.075,-0.003703703703703704],[0.075,-0.003703703703703704],[0.075,-0.003703703703703704],[0.075,-0.003703703703703704],[0.075,-0.003703703703703704],[0.075,-0.003703703703703704],[0.075,-0.003703703703703704],[0.075,-0.003703703703703704]]","[[0.20062499999999991,0.45851851851851855],[0.20062499999999991,0.45851851851851855],[0.1701041666666666,0.47240740740740744],[0.17458333333333323,0.48351851851851857],[0.15520833333333334,0.5087037037037038],[0.11218750000000005,0.4994444444444445],[0.11218750000000005,0.4994444444444445],[0.06916666666666677,0.4901851851851853],[0.07229166666666677,0.46351851851851844],[0.06947916666666672,0.4722222222222222],[0.07041666666666657,0.4487037037037036],[0.07041666666666657,0.4487037037037036],[0.12156250000000005,0.4698148148148149],[0.10052083333333334,0.4477777777777777],[0.12531249999999997,0.4587037037037038],[0.12302083333333323,0.459074074074074],[0.11385416666666662,0.45018518518518524],[0.14177083333333323,0.48055555555555557],[0.14177083333333323,0.48055555555555557],[0.17895833333333327,0.5087037037037038],[0.1820833333333333,0.5055555555555555],[0.2015625,0.5038888888888889],[0.21885416666666657,0.49833333333333335],[0.1877083333333334,0.49907407407407406],[0.17916666666666667,0.4896296296296296],[0.18937499999999996,0.5064814814814815],[0.19958333333333325,0.5233333333333334],[0.19958333333333325,0.5233333333333334],[0.20177083333333337,0.5333333333333333],[0.19187500000000005,0.5183333333333333],[0.19874999999999995,0.4883333333333334],[0.18760416666666657,0.4535185185185185],[0.1720833333333334,0.44351851851851853],[0.1646874999999999,0.4648148148148148],[0.16687500000000005,0.46722222222222215],[0.17416666666666672,0.44648148148148153],[0.16479166666666673,0.4005555555555555],[0.16281249999999994,0.3794444444444444],[0.16885416666666658,0.3651851851851853],[0.18312499999999995,0.35722222222222216],[0.1734375,0.3550000000000001],[0.17708333333333334,0.3801851851851851],[0.1834374999999999,0.3990740740740741],[0.17260416666666673,0.3979629629629629],[0.16270833333333337,0.39407407407407397],[0.15093750000000009,0.40555555555555556],[0.14177083333333323,0.4170370370370371],[0.14177083333333323,0.4170370370370371],[0.13770833333333338,0.4222222222222222],[0.14635416666666667,0.4214814814814815],[0.15895833333333323,0.4262962962962964],[0.1616666666666667,0.430925925925926],[0.1720833333333334,0.41740740740740734],[0.1720833333333334,0.41740740740740734],[0.159375,0.42685185185185187],[0.1788541666666667,0.427962962962963],[0.19562499999999997,0.4353703703703704],[0.20708333333333329,0.4433333333333333],[0.22145833333333323,0.4516666666666666],[0.22583333333333327,0.4242592592592593],[0.21749999999999994,0.4027777777777778],[0.1859375,0.40111111111111114],[0.1701041666666666,0.41574074074074074],[0.1701041666666666,0.41574074074074074],[0.15427083333333325,0.43037037037037035],[0.17552083333333332,0.40925925925925927],[0.17583333333333329,0.3890740740740741],[0.1837500000000001,0.37111111111111106],[0.1837500000000001,0.37111111111111106],[0.17864583333333334,0.33240740740740743],[0.15947916666666656,0.29018518518518527],[0.14208333333333342,0.2814814814814815],[0.12468750000000005,0.2727777777777777],[0.10270833333333323,0.252962962962963],[0.10145833333333343,0.23870370370370367],[0.10031249999999996,0.2205555555555556],[0.08250000000000005,0.22148148148148153],[0.03937499999999995,0.21722222222222215],[0.03937499999999995,0.21722222222222215],[0.005104166666666643,0.19425925925925921],[-0.025833333333333285,0.23777777777777773],[-0.018333333333333358,0.262037037037037],[-0.018333333333333358,0.262037037037037],[-0.019687499999999976,0.2601851851851852],[-0.02385416666666664,0.2272222222222223],[0.003125,0.21999999999999992],[0.003125,0.21999999999999992],[-0.003958333333333286,0.1883333333333334],[-0.01114583333333338,0.16055555555555565],[-0.016250000000000025,0.13259259259259262],[0.006562499999999953,0.1051851851851851],[0.006562499999999953,0.1051851851851851],[0.0171875,0.10388888888888893],[0.0171875,0.10388888888888893],[0.034375,0.06555555555555552],[0.022291666666666644,0.039074074074074115],[0.014791666666666713,0.02240740740740745],[0.03291666666666669,0.06500000000000004],[0.03291666666666669,0.06500000000000004],[0.03760416666666669,0.09648148148148153],[0.0234375,0.12629629629629638],[0.02041666666666669,0.1425925925925926],[0.015312500000000047,0.15907407407407403],[-0.00791666666666669,0.20407407407407416],[-0.035416666666666666,0.23944444444444435],[-0.03895833333333331,0.25833333333333336],[-0.043124999999999976,0.28777777777777774],[-0.0672916666666667,0.3472222222222222],[-0.11427083333333338,0.3785185185185185],[-0.1648958333333333,0.4022222222222223],[-0.19125000000000003,0.4418518518518519],[-0.2289583333333333,0.4492592592592593],[-0.26666666666666666,0.4566666666666667],[-0.27229166666666665,0.4777777777777778],[-0.27791666666666665,0.4988888888888888],[-0.30520833333333336,0.4777777777777778],[-0.3325000000000001,0.4566666666666667],[-0.33489583333333334,0.4072222222222222],[-0.33489583333333334,0.4072222222222222],[-0.3265625,0.3446296296296297],[-0.29145833333333326,0.2807407407407408],[-0.2757291666666667,0.2264814814814814],[-0.25979166666666664,0.21796296296296305],[-0.25979166666666664,0.21796296296296305],[-0.24354166666666663,0.1962962962962963],[-0.24968750000000003,0.1300000000000001],[-0.25583333333333336,0.06370370370370367],[-0.25541666666666674,0.0977777777777777],[-0.2573958333333334,0.13185185185185194],[-0.24270833333333333,0.130925925925926],[-0.23875000000000005,0.14314814814814805],[-0.23843749999999997,0.16222222222222227],[-0.215625,0.16574074074074074],[-0.19281250000000003,0.16925925925925922],[-0.17739583333333328,0.17166666666666675],[-0.15614583333333332,0.18111111111111103],[-0.13489583333333333,0.1905555555555555],[-0.11052083333333336,0.13185185185185194],[-0.08374999999999998,0.07314814814814814],[-0.06281249999999995,0.07333333333333338],[-0.041875000000000044,0.07351851851851861],[-0.04229166666666669,0.05907407407407403],[-0.041875000000000044,0.05333333333333325],[-0.022604166666666713,0.04277777777777782],[0.0037500000000000237,0.046481481481481526],[0.01427083333333338,0.06129629629629634],[0.01427083333333338,0.06129629629629634],[0.025833333333333285,0.07777777777777778],[0.043958333333333384,0.11814814814814806],[0.04864583333333338,0.12851851851851848],[0.035000000000000024,0.11370370370370367],[0.03166666666666664,0.1124074074074075],[0.0609375,0.11425925925925934],[0.0609375,0.11425925925925934],[0.05687500000000002,0.1485185185185186],[0.058124999999999954,0.17518518518518522],[0.052083333333333336,0.17518518518518522],[0.06052083333333336,0.20666666666666672],[0.06791666666666671,0.23648148148148157],[0.075,0.26722222222222214],[0.09552083333333337,0.327962962962963],[0.09552083333333337,0.327962962962963],[0.12864583333333332,0.39518518518518514],[0.15791666666666657,0.443888888888889],[0.16656250000000009,0.48277777777777786],[0.18427083333333344,0.43703703703703706],[0.17781250000000004,0.40370370370370373],[0.17291666666666666,0.4064814814814815],[0.17437500000000009,0.3435185185185185],[0.17197916666666657,0.293888888888889],[0.16354166666666667,0.24592592592592585],[0.15968749999999995,0.17796296296296302],[0.15968749999999995,0.17796296296296302],[0.14072916666666657,0.1088888888888888],[0.12166666666666662,0.07296296296296292],[0.08781249999999995,0.010925925925925884],[0.08260416666666662,-0.006481481481481481],[0.08260416666666662,-0.006481481481481481],[0.04583333333333333,-0.03925925925925934],[0.04812500000000005,-0.04666666666666675],[0.04541666666666669,-0.03092592592592601],[0.03677083333333329,-0.047037037037036995],[0.03677083333333329,-0.047037037037036995],[0.025416666666666643,-0.04388888888888897],[0.008541666666666715,-0.02296296296296292],[0.035416666666666666,-0.04055555555555551],[0.04656250000000005,-0.0735185185185185],[0.06052083333333336,-0.036481481481481566],[0.06614583333333333,0.005370370370370328],[0.09322916666666667,0.07685185185185185],[0.08583333333333343,0.07222222222222222],[0.07041666666666657,0.10666666666666672],[0.060104166666666715,0.10981481481481473],[0.07593750000000009,0.11166666666666658],[0.09270833333333334,0.11574074074074074],[0.06375000000000004,0.17555555555555546],[0.044166666666666646,0.22259259259259268],[0.044166666666666646,0.22259259259259268],[0.036562500000000026,0.20537037037037034],[0.036458333333333336,0.19129629629629621],[0.04645833333333336,0.16296296296296298],[0.07166666666666661,0.15388888888888894],[0.10489583333333338,0.10574074074074079],[0.11812500000000009,0.1544444444444444],[0.11583333333333339,0.18629629629629635],[0.11354166666666667,0.21814814814814806],[0.11354166666666667,0.21814814814814806],[0.12145833333333324,0.15703703703703695],[0.14812500000000003,0.08037037037037033],[0.15583333333333324,0.09074074074074075],[0.1560416666666666,0.09796296296296292],[0.15135416666666662,0.0933333333333333],[0.15135416666666662,0.0933333333333333],[0.14729166666666677,0.07611111111111116],[0.10718750000000009,0.07092592592592584],[0.10364583333333334,0.034999999999999955],[0.10083333333333329,-0.017407407407407365],[0.10302083333333342,-0.0690740740740741],[0.10302083333333342,-0.0690740740740741],[0.10052083333333334,-0.04944444444444453],[0.07999999999999995,0.013333333333333417],[0.07697916666666677,-0.014259259259259343],[0.07395833333333333,-0.0418518518518519],[0.07322916666666662,-0.03222222222222218],[0.0578125,0.012037037037037037],[0.06645833333333329,0.06925925925925921],[0.08770833333333337,0.052407407407407326],[0.07156250000000004,0.030000000000000086],[0.050416666666666644,0.006851851851851936],[-0.0037500000000000237,-0.052222222222222205],[-0.042604166666666644,-0.10333333333333336],[-0.07999999999999995,-0.1307407407407408],[-0.11739583333333338,-0.1581481481481481],[-0.11739583333333338,-0.1581481481481481],[-0.11354166666666667,-0.18555555555555553],[-0.10604166666666662,-0.13777777777777775],[-0.08656250000000003,-0.11500000000000005],[-0.10656249999999995,-0.07888888888888893],[-0.10656249999999995,-0.07888888888888893],[-0.09781249999999998,-0.021851851851851768],[-0.07416666666666671,0.007777777777777862],[-0.024479166666666666,0.102962962962963],[-0.024479166666666666,0.102962962962963],[0.02010416666666662,0.14055555555555552],[0.02010416666666662,0.14055555555555552],[0.057083333333333285,0.1594444444444445],[0.09406249999999995,0.17833333333333326],[0.10583333333333324,0.1609259259259259],[0.11395833333333343,0.06833333333333329],[0.06614583333333333,-0.01703703703703712],[0.06031249999999998,-0.06166666666666669],[0.06458333333333334,-0.10999999999999996],[0.07374999999999995,-0.10574074074074079],[0.07374999999999995,-0.10574074074074079],[0.09145833333333328,-0.13240740740740742],[0.07520833333333338,-0.13240740740740742],[0.06656249999999998,-0.11370370370370367],[0.10374999999999991,-0.12259259259259257],[0.09885416666666676,-0.0809259259259259],[0.11635416666666672,-0.025925925925925925]]","[[0.20062499999999991,0.45851851851851855,0.0002999999970256795],[0.20062499999999991,0.45851851851851855,0.0510999999940438],[0.1701041666666666,0.47240740740740744,0.05679999999702545],[0.17458333333333323,0.48351851851851857,0.07359999999404465],[0.15520833333333334,0.5087037037037038,0.09029999999702198],[0.11218750000000005,0.4994444444444445,0.10809999999403885],[0.11218750000000005,0.4994444444444445,0.12349999999999994],[0.06916666666666677,0.4901851851851853,0.14029999999701914],[0.07229166666666677,0.46351851851851844,0.15700000000000358],[0.06947916666666672,0.4722222222222222,0.1755999999940414],[0.07041666666666657,0.4487037037037036,0.19539999999851432],[0.07041666666666657,0.4487037037037036,0.2150000000000034],[0.12156250000000005,0.4698148148148149,0.22959999999404346],[0.10052083333333334,0.4477777777777777,0.2435000000000045],[0.12531249999999997,0.4587037037037038,0.25689999999850954],[0.12302083333333323,0.459074074074074,0.2735999999940404],[0.11385416666666662,0.45018518518518524,0.29299999999999926],[0.14177083333333323,0.48055555555555557,0.3098999999985139],[0.14177083333333323,0.48055555555555557,0.32359999999404465],[0.17895833333333327,0.5087037037037038,0.34039999999851034],[0.1820833333333333,0.5055555555555555,0.35689999999851096],[0.2015625,0.5038888888888889,0.37609999999403954],[0.21885416666666657,0.49833333333333335,0.39029999999701914],[0.1877083333333334,0.49907407407407406,0.41009999999403846],[0.17916666666666667,0.4896296296296296,0.4235000000000042],[0.18937499999999996,0.5064814814814815,0.44069999999553033],[0.19958333333333325,0.5233333333333334,0.4598999999985125],[0.19958333333333325,0.5233333333333334,0.47359999999404323],[0.20177083333333337,0.5333333333333333,0.4901999999955322],[0.19187500000000005,0.5183333333333333,0.5068999999985095],[0.19874999999999995,0.4883333333333334,0.5235000000000056],[0.18760416666666657,0.4535185185185185,0.5426999999955342],[0.1720833333333334,0.44351851851851853,0.5568999999985138],[0.1646874999999999,0.4648148148148148,0.573699999995533],[0.16687500000000005,0.46722222222222215,0.5901999999955336],[0.17416666666666672,0.44648148148148153,0.6069999999999993],[0.16479166666666673,0.4005555555555555,0.626199999995535],[0.16281249999999994,0.3794444444444444,0.6401999999955308],[0.16885416666666658,0.3651851851851853,0.6568999999985152],[0.18312499999999995,0.35722222222222216,0.6736999999955344],[0.1734375,0.3550000000000001,0.690199999995535],[0.17708333333333334,0.3801851851851851,0.7098999999985125],[0.1834374999999999,0.3990740740740741,0.7235999999940432],[0.17260416666666673,0.3979629629629629,0.7401999999955322],[0.16270833333333337,0.39407407407407397,0.757000000000005],[0.15093750000000009,0.40555555555555556,0.7735999999940404],[0.14177083333333323,0.4170370370370371,0.7927999999970226],[0.14177083333333323,0.4170370370370371,0.8068999999985138],[0.13770833333333338,0.4222222222222222,0.8235000000000028],[0.14635416666666667,0.4214814814814815,0.8401999999955336],[0.15895833333333323,0.4262962962962964,0.856899999998511],[0.1616666666666667,0.430925925925926,0.8763999999985117],[0.1720833333333334,0.41740740740740734,0.8912999999970239],[0.1720833333333334,0.41740740740740734,0.9070000000000036],[0.159375,0.42685185185185187,0.9236999999955344],[0.1788541666666667,0.427962962962963,0.940199999995535],[0.19562499999999997,0.4353703703703704,0.9595999999940403],[0.20708333333333329,0.4433333333333333,0.9745999999940409],[0.22145833333333323,0.4516666666666666,0.9901999999955322],[0.22583333333333327,0.4242592592592593,1.008899999998512],[0.21749999999999994,0.4027777777777778,1.0290999999940453],[0.1859375,0.40111111111111114,1.0430999999940411],[0.1701041666666666,0.41574074074074074,1.0578999999985115],[0.1701041666666666,0.41574074074074074,1.0735999999940447],[0.15427083333333325,0.43037037037037035,1.0905000000000058],[0.17552083333333332,0.40925925925925927,1.1071999999955295],[0.17583333333333329,0.3890740740740741,1.1262999999970233],[0.1837500000000001,0.37111111111111106,1.143199999995531],[0.1837500000000001,0.37111111111111106,1.1568999999985152],[0.17864583333333334,0.33240740740740743,1.173599999994039],[0.15947916666666656,0.29018518518518527,1.1902999999970234],[0.14208333333333342,0.2814814814814815,1.2093999999985101],[0.12468750000000005,0.2727777777777777,1.2235999999940432],[0.10270833333333323,0.252962962962963,1.2432999999970207],[0.10145833333333343,0.23870370370370367,1.2568999999985095],[0.10031249999999996,0.2205555555555556,1.2735000000000056],[0.08250000000000005,0.22148148148148153,1.292899999998511],[0.03937499999999995,0.21722222222222215,1.3093999999985115],[0.03937499999999995,0.21722222222222215,1.3260999999940424],[0.005104166666666643,0.19425925925925921,1.3405000000000058],[-0.025833333333333285,0.23777777777777773,1.3571999999955295],[-0.018333333333333358,0.262037037037037,1.3781999999955303],[-0.018333333333333358,0.262037037037037,1.3903999999985146],[-0.019687499999999976,0.2601851851851852,1.4073999999985105],[-0.02385416666666664,0.2272222222222223,1.4237999999970228],[0.003125,0.21999999999999992,1.4470999999940446],[0.003125,0.21999999999999992,1.4592999999970218],[-0.003958333333333286,0.1883333333333334,1.4736999999955316],[-0.01114583333333338,0.16055555555555565,1.490399999998509],[-0.016250000000000025,0.13259259259259262,1.5110999999940447],[0.006562499999999953,0.1051851851851851,1.5286999999955313],[0.006562499999999953,0.1051851851851851,1.5405000000000015],[0.0171875,0.10388888888888893,1.5571999999955324],[0.0171875,0.10388888888888893,1.5766999999955331],[0.034375,0.06555555555555552,1.5905000000000058],[0.022291666666666644,0.039074074074074115,1.6115999999940414],[0.014791666666666713,0.02240740740740745,1.6275999999940396],[0.03291666666666669,0.06500000000000004,1.6428999999985123],[0.03291666666666669,0.06500000000000004,1.6570999999940454],[0.03760416666666669,0.09648148148148153,1.673599999994039],[0.0234375,0.12629629629629638,1.6902999999970234],[0.02041666666666669,0.1425925925925926,1.7106999999955335],[0.015312500000000047,0.15907407407407403,1.7246999999955293],[-0.00791666666666669,0.20407407407407416,1.7401999999955322],[-0.035416666666666666,0.23944444444444435,1.7585999999940398],[-0.03895833333333331,0.25833333333333336,1.7750999999940404],[-0.043124999999999976,0.28777777777777774,1.7927999999970226],[-0.0672916666666667,0.3472222222222222,1.8092999999970232],[-0.11427083333333338,0.3785185185185185,1.8235999999940447],[-0.1648958333333333,0.4022222222222223,1.8405999999940406],[-0.19125000000000003,0.4418518518518519,1.856899999998511],[-0.2289583333333333,0.4492592592592593,1.8760999999940395],[-0.26666666666666666,0.4566666666666667,1.8902999999970191],[-0.27229166666666665,0.4777777777777778,1.910499999999999],[-0.27791666666666665,0.4988888888888888,1.9251999999955345],[-0.30520833333333336,0.4777777777777778,1.940599999994042],[-0.3325000000000001,0.4566666666666667,1.9598999999985125],[-0.33489583333333334,0.4072222222222222,1.976099999994041],[-0.33489583333333334,0.4072222222222222,1.9901999999955322],[-0.3265625,0.3446296296296297,2.0070999999940398],[-0.29145833333333326,0.2807407407407408,2.0235999999940404],[-0.2757291666666667,0.2264814814814814,2.0433999999985133],[-0.25979166666666664,0.21796296296296305,2.057399999998509],[-0.25979166666666664,0.21796296296296305,2.0735999999940447],[-0.24354166666666663,0.1962962962962963,2.0901999999955336],[-0.24968750000000003,0.1300000000000001,2.1069999999999993],[-0.25583333333333336,0.06370370370370367,2.1262999999970233],[-0.25541666666666674,0.0977777777777777,2.14259999999404],[-0.2573958333333334,0.13185185185185194,2.160599999994041],[-0.24270833333333333,0.130925925925926,2.176799999997023],[-0.23875000000000005,0.14314814814814805,2.1943999999985095],[-0.23843749999999997,0.16222222222222227,2.2110000000000056],[-0.215625,0.16574074074074074,2.224899999998513],[-0.19281250000000003,0.16925925925925922,2.24419999999553],[-0.17739583333333328,0.17166666666666675,2.2590000000000003],[-0.15614583333333332,0.18111111111111103,2.2735000000000056],[-0.13489583333333333,0.1905555555555555,2.2933999999985133],[-0.11052083333333336,0.13185185185185194,2.3100000000000023],[-0.08374999999999998,0.07314814814814814,2.3260000000000005],[-0.06281249999999995,0.07333333333333338,2.3412999999970197],[-0.041875000000000044,0.07351851851851861,2.3567999999970226],[-0.04229166666666669,0.05907407407407403,2.3760999999940395],[-0.041875000000000044,0.05333333333333325,2.3903999999985146],[-0.022604166666666713,0.04277777777777782,2.408699999995534],[0.0037500000000000237,0.046481481481481526,2.423500000000004],[0.01427083333333338,0.06129629629629634,2.445299999997019],[0.01427083333333338,0.06129629629629634,2.4568999999985124],[0.025833333333333285,0.07777777777777778,2.4735999999940432],[0.043958333333333384,0.11814814814814806,2.490399999998509],[0.04864583333333338,0.12851851851851848,2.507399999998512],[0.035000000000000024,0.11370370370370367,2.5235000000000056],[0.03166666666666664,0.1124074074074075,2.5431999999955295],[0.0609375,0.11425925925925934,2.5575000000000045],[0.0609375,0.11425925925925934,2.573500000000003],[0.05687500000000002,0.1485185185185186,2.5901999999955336],[0.058124999999999954,0.17518518518518522,2.6069999999999993],[0.052083333333333336,0.17518518518518522,2.6260999999940395],[0.06052083333333336,0.20666666666666672,2.6415999999940425],[0.06791666666666671,0.23648148148148157,2.6568999999985152],[0.075,0.26722222222222214,2.673599999994039],[0.09552083333333337,0.327962962962963,2.690199999995535],[0.09552083333333337,0.327962962962963,2.7068999999985124],[0.12864583333333332,0.39518518518518514,2.7235999999940432],[0.15791666666666657,0.443888888888889,2.740199999995532],[0.16656250000000009,0.48277777777777786,2.7601999999955353],[0.18427083333333344,0.43703703703703706,2.7790000000000035],[0.17781250000000004,0.40370370370370373,2.793299999997025],[0.17291666666666666,0.4064814814814815,2.8130999999940443],[0.17437500000000009,0.3435185185185185,2.826500000000003],[0.17197916666666657,0.293888888888889,2.8426999999955314],[0.16354166666666667,0.24592592592592585,2.8573999999985134],[0.15968749999999995,0.17796296296296302,2.8785999999940444],[0.15968749999999995,0.17796296296296302,2.8903999999985146],[0.14072916666666657,0.1088888888888888,2.908099999994043],[0.12166666666666662,0.07296296296296292,2.9247999999970204],[0.08781249999999995,0.010925925925925884,2.9453999999985143],[0.08260416666666662,-0.006481481481481481,2.9600999999940427],[0.08260416666666662,-0.006481481481481481,2.97379999999702],[0.04583333333333333,-0.03925925925925934,2.993000000000002],[0.04812500000000005,-0.04666666666666675,3.0095000000000027],[0.04541666666666669,-0.03092592592592601,3.024000000000001],[0.03677083333333329,-0.047037037037036995,3.046299999997025],[0.03677083333333329,-0.047037037037036995,3.057099999994044],[0.025416666666666643,-0.04388888888888897,3.0735999999940447],[0.008541666666666715,-0.02296296296296292,3.0901999999955336],[0.035416666666666666,-0.04055555555555551,3.110899999998516],[0.04656250000000005,-0.0735185185185185,3.129000000000005],[0.06052083333333336,-0.036481481481481566,3.1445999999940426],[0.06614583333333333,0.005370370370370328,3.1598999999985153],[0.09322916666666667,0.07685185185185185,3.1758999999985136],[0.08583333333333343,0.07222222222222222,3.1938999999985143],[0.07041666666666657,0.10666666666666672,3.210599999994045],[0.060104166666666715,0.10981481481481473,3.225999999999999],[0.07593750000000009,0.11166666666666658,3.2424999999999997],[0.09270833333333334,0.11574074074074074,3.2570999999940398],[0.06375000000000004,0.17555555555555546,3.2735999999940404],[0.044166666666666646,0.22259259259259268,3.2927999999970226],[0.044166666666666646,0.22259259259259268,3.306899999998514],[0.036562500000000026,0.20537037037037034,3.3235999999940447],[0.036458333333333336,0.19129629629629621,3.3405999999940406],[0.04645833333333336,0.16296296296296298,3.356899999998511],[0.07166666666666661,0.15388888888888894,3.3766999999955303],[0.10489583333333338,0.10574074074074079,3.3918999999985147],[0.11812500000000009,0.1544444444444444,3.410599999994041],[0.11583333333333339,0.18629629629629635,3.426000000000002],[0.11354166666666667,0.21814814814814806,3.447199999995533],[0.11354166666666667,0.21814814814814806,3.4568999999985124],[0.12145833333333324,0.15703703703703695,3.4735999999940432],[0.14812500000000003,0.08037037037037033,3.490199999995532],[0.15583333333333324,0.09074074074074075,3.5078999999985143],[0.1560416666666666,0.09796296296296292,3.5235000000000056],[0.15135416666666662,0.0933333333333333,3.5452999999970203],[0.15135416666666662,0.0933333333333333,3.557000000000002],[0.14729166666666677,0.07611111111111116,3.5737999999970214],[0.10718750000000009,0.07092592592592584,3.5903999999985103],[0.10364583333333334,0.034999999999999955,3.6115999999940414],[0.10083333333333329,-0.017407407407407365,3.6270999999940443],[0.10302083333333342,-0.0690740740740741,3.64259999999404],[0.10302083333333342,-0.0690740740740741,3.6570000000000036],[0.10052083333333334,-0.04944444444444453,3.6758999999985136],[0.07999999999999995,0.013333333333333417,3.6947999999970236],[0.07697916666666677,-0.014259259259259343,3.7100999999940427],[0.07395833333333333,-0.0418518518518519,3.7265999999940433],[0.07322916666666662,-0.03222222222222218,3.743099999994044],[0.0578125,0.012037037037037037,3.75859999999404],[0.06645833333333329,0.06925925925925921,3.7772999999970196],[0.08770833333333337,0.052407407407407326,3.792899999998511],[0.07156250000000004,0.030000000000000086,3.8086999999955324],[0.050416666666666644,0.006851851851851936,3.823699999995533],[-0.0037500000000000237,-0.052222222222222205,3.842399999998513],[-0.042604166666666644,-0.10333333333333336,3.856899999998511],[-0.07999999999999995,-0.1307407407407408,3.8758999999985093],[-0.11739583333333338,-0.1581481481481481,3.890199999995531],[-0.11739583333333338,-0.1581481481481481,3.9068999999985152],[-0.11354166666666667,-0.18555555555555553,3.923500000000004],[-0.10604166666666662,-0.13777777777777775,3.940199999995535],[-0.08656250000000003,-0.11500000000000005,3.9595000000000056],[-0.10656249999999995,-0.07888888888888893,3.9766999999955317],[-0.10656249999999995,-0.07888888888888893,3.990199999995532],[-0.09781249999999998,-0.021851851851851768,4.0068999999985095],[-0.07416666666666671,0.007777777777777862,4.023500000000006],[-0.024479166666666666,0.102962962962963,4.043299999997025],[-0.024479166666666666,0.102962962962963,4.064699999995533],[0.02010416666666662,0.14055555555555552,4.08309999999404],[0.02010416666666662,0.14055555555555552,4.090299999997022],[0.057083333333333285,0.1594444444444445,4.106899999998511],[0.09406249999999995,0.17833333333333326,4.126000000000005],[0.10583333333333324,0.1609259259259259,4.141500000000001],[0.11395833333333343,0.06833333333333329,4.160199999995534],[0.06614583333333333,-0.01703703703703712,4.176000000000002],[0.06031249999999998,-0.06166666666666669,4.190199999995535],[0.06458333333333334,-0.10999999999999996,4.210000000000001],[0.07374999999999995,-0.10574074074074079,4.224299999997022],[0.07374999999999995,-0.10574074074074079,4.240199999995532],[0.09145833333333328,-0.13240740740740742,4.257000000000005],[0.07520833333333338,-0.13240740740740742,4.273500000000006],[0.06656249999999998,-0.11370370370370367,4.2927999999970226],[0.10374999999999991,-0.12259259259259257,4.307099999994044],[0.09885416666666676,-0.0809259259259259,4.323500000000003],[0.11635416666666672,-0.025925925925925925,4.340199999995534]]","[0.0002999999970256795,0.0510999999940438,0.05679999999702545,0.07359999999404465,0.09029999999702198,0.10809999999403885,0.12349999999999994,0.14029999999701914,0.15700000000000358,0.1755999999940414,0.19539999999851432,0.2150000000000034,0.22959999999404346,0.2435000000000045,0.25689999999850954,0.2735999999940404,0.29299999999999926,0.3098999999985139,0.32359999999404465,0.34039999999851034,0.35689999999851096,0.37609999999403954,0.39029999999701914,0.41009999999403846,0.4235000000000042,0.44069999999553033,0.4598999999985125,0.47359999999404323,0.4901999999955322,0.5068999999985095,0.5235000000000056,0.5426999999955342,0.5568999999985138,0.573699999995533,0.5901999999955336,0.6069999999999993,0.626199999995535,0.6401999999955308,0.6568999999985152,0.6736999999955344,0.690199999995535,0.7098999999985125,0.7235999999940432,0.7401999999955322,0.757000000000005,0.7735999999940404,0.7927999999970226,0.8068999999985138,0.8235000000000028,0.8401999999955336,0.856899999998511,0.8763999999985117,0.8912999999970239,0.9070000000000036,0.9236999999955344,0.940199999995535,0.9595999999940403,0.9745999999940409,0.9901999999955322,1.008899999998512,1.0290999999940453,1.0430999999940411,1.0578999999985115,1.0735999999940447,1.0905000000000058,1.1071999999955295,1.1262999999970233,1.143199999995531,1.1568999999985152,1.173599999994039,1.1902999999970234,1.2093999999985101,1.2235999999940432,1.2432999999970207,1.2568999999985095,1.2735000000000056,1.292899999998511,1.3093999999985115,1.3260999999940424,1.3405000000000058,1.3571999999955295,1.3781999999955303,1.3903999999985146,1.4073999999985105,1.4237999999970228,1.4470999999940446,1.4592999999970218,1.4736999999955316,1.490399999998509,1.5110999999940447,1.5286999999955313,1.5405000000000015,1.5571999999955324,1.5766999999955331,1.5905000000000058,1.6115999999940414,1.6275999999940396,1.6428999999985123,1.6570999999940454,1.673599999994039,1.6902999999970234,1.7106999999955335,1.7246999999955293,1.7401999999955322,1.7585999999940398,1.7750999999940404,1.7927999999970226,1.8092999999970232,1.8235999999940447,1.8405999999940406,1.856899999998511,1.8760999999940395,1.8902999999970191,1.910499999999999,1.9251999999955345,1.940599999994042,1.9598999999985125,1.976099999994041,1.9901999999955322,2.0070999999940398,2.0235999999940404,2.0433999999985133,2.057399999998509,2.0735999999940447,2.0901999999955336,2.1069999999999993,2.1262999999970233,2.14259999999404,2.160599999994041,2.176799999997023,2.1943999999985095,2.2110000000000056,2.224899999998513,2.24419999999553,2.2590000000000003,2.2735000000000056,2.2933999999985133,2.3100000000000023,2.3260000000000005,2.3412999999970197,2.3567999999970226,2.3760999999940395,2.3903999999985146,2.408699999995534,2.423500000000004,2.445299999997019,2.4568999999985124,2.4735999999940432,2.490399999998509,2.507399999998512,2.5235000000000056,2.5431999999955295,2.5575000000000045,2.573500000000003,2.5901999999955336,2.6069999999999993,2.6260999999940395,2.6415999999940425,2.6568999999985152,2.673599999994039,2.690199999995535,2.7068999999985124,2.7235999999940432,2.740199999995532,2.7601999999955353,2.7790000000000035,2.793299999997025,2.8130999999940443,2.826500000000003,2.8426999999955314,2.8573999999985134,2.8785999999940444,2.8903999999985146,2.908099999994043,2.9247999999970204,2.9453999999985143,2.9600999999940427,2.97379999999702,2.993000000000002,3.0095000000000027,3.024000000000001,3.046299999997025,3.057099999994044,3.0735999999940447,3.0901999999955336,3.110899999998516,3.129000000000005,3.1445999999940426,3.1598999999985153,3.1758999999985136,3.1938999999985143,3.210599999994045,3.225999999999999,3.2424999999999997,3.2570999999940398,3.2735999999940404,3.2927999999970226,3.306899999998514,3.3235999999940447,3.3405999999940406,3.356899999998511,3.3766999999955303,3.3918999999985147,3.410599999994041,3.426000000000002,3.447199999995533,3.4568999999985124,3.4735999999940432,3.490199999995532,3.5078999999985143,3.5235000000000056,3.5452999999970203,3.557000000000002,3.5737999999970214,3.5903999999985103,3.6115999999940414,3.6270999999940443,3.64259999999404,3.6570000000000036,3.6758999999985136,3.6947999999970236,3.7100999999940427,3.7265999999940433,3.743099999994044,3.75859999999404,3.7772999999970196,3.792899999998511,3.8086999999955324,3.823699999995533,3.842399999998513,3.856899999998511,3.8758999999985093,3.890199999995531,3.9068999999985152,3.923500000000004,3.940199999995535,3.9595000000000056,3.9766999999955317,3.990199999995532,4.0068999999985095,4.023500000000006,4.043299999997025,4.064699999995533,4.08309999999404,4.090299999997022,4.106899999998511,4.126000000000005,4.141500000000001,4.160199999995534,4.176000000000002,4.190199999995535,4.210000000000001,4.224299999997022,4.240199999995532,4.257000000000005,4.273500000000006,4.2927999999970226,4.307099999994044,4.323500000000003,4.340199999995534]","[1732593429904,1732593429944,1732593429950,1732593429967,1732593429984,1732593430001,1732593430017,1732593430034,1732593430050,1732593430069,1732593430089,1732593430108,1732593430123,1732593430137,1732593430150,1732593430167,1732593430186,1732593430203,1732593430217,1732593430234,1732593430250,1732593430269,1732593430284,1732593430303,1732593430317,1732593430334,1732593430353,1732593430367,1732593430384,1732593430400,1732593430417,1732593430436,1732593430450,1732593430467,1732593430484,1732593430500,1732593430520,1732593430534,1732593430550,1732593430567,1732593430584,1732593430603,1732593430617,1732593430634,1732593430650,1732593430667,1732593430686,1732593430700,1732593430717,1732593430733,1732593430750,1732593430770,1732593430785,1732593430800,1732593430817,1732593430834,1732593430853,1732593430868,1732593430884,1732593430902,1732593430922,1732593430936,1732593430951,1732593430967,1732593430984,1732593431001,1732593431020,1732593431036,1732593431050,1732593431067,1732593431084,1732593431103,1732593431117,1732593431137,1732593431150,1732593431167,1732593431186,1732593431203,1732593431219,1732593431234,1732593431250,1732593431272,1732593431284,1732593431301,1732593431317,1732593431340,1732593431353,1732593431367,1732593431384,1732593431404,1732593431422,1732593431434,1732593431450,1732593431470,1732593431484,1732593431505,1732593431521,1732593431536,1732593431550,1732593431567,1732593431584,1732593431604,1732593431618,1732593431633,1732593431652,1732593431668,1732593431686,1732593431703,1732593431717,1732593431734,1732593431750,1732593431769,1732593431784,1732593431804,1732593431818,1732593431834,1732593431853,1732593431869,1732593431884,1732593431900,1732593431917,1732593431937,1732593431951,1732593431967,1732593431984,1732593432000,1732593432020,1732593432036,1732593432054,1732593432070,1732593432088,1732593432104,1732593432118,1732593432138,1732593432152,1732593432167,1732593432187,1732593432203,1732593432219,1732593432235,1732593432250,1732593432269,1732593432284,1732593432302,1732593432317,1732593432339,1732593432350,1732593432367,1732593432384,1732593432401,1732593432417,1732593432436,1732593432451,1732593432467,1732593432484,1732593432500,1732593432519,1732593432535,1732593432550,1732593432567,1732593432584,1732593432600,1732593432617,1732593432633,1732593432654,1732593432672,1732593432687,1732593432706,1732593432720,1732593432736,1732593432751,1732593432772,1732593432784,1732593432801,1732593432818,1732593432839,1732593432853,1732593432867,1732593432886,1732593432903,1732593432917,1732593432940,1732593432950,1732593432967,1732593432984,1732593433004,1732593433022,1732593433038,1732593433053,1732593433069,1732593433087,1732593433104,1732593433119,1732593433136,1732593433150,1732593433167,1732593433186,1732593433200,1732593433217,1732593433234,1732593433250,1732593433270,1732593433285,1732593433304,1732593433319,1732593433341,1732593433350,1732593433367,1732593433383,1732593433401,1732593433417,1732593433439,1732593433450,1732593433467,1732593433484,1732593433505,1732593433520,1732593433536,1732593433550,1732593433569,1732593433588,1732593433603,1732593433620,1732593433636,1732593433652,1732593433671,1732593433686,1732593433702,1732593433717,1732593433736,1732593433750,1732593433769,1732593433784,1732593433800,1732593433817,1732593433833,1732593433853,1732593433870,1732593433884,1732593433900,1732593433917,1732593433937,1732593433958,1732593433976,1732593433984,1732593434000,1732593434019,1732593434035,1732593434053,1732593434069,1732593434083,1732593434103,1732593434118,1732593434133,1732593434150,1732593434167,1732593434186,1732593434200,1732593434217,1732593434233]","[[1152.6,787.6],[1152.6,787.6],[1123.3,795.1],[1127.6,801.1],[1109,814.7],[1067.7,809.7],[1067.7,809.7],[1026.4,804.7],[1029.4,790.3],[1026.7,795],[1027.6,782.3],[1027.6,782.3],[1076.7,793.7],[1056.5,781.8],[1080.3,787.7],[1078.1,787.9],[1069.3,783.1],[1096.1,799.5],[1096.1,799.5],[1131.8,814.7],[1134.8,813],[1153.5,812.1],[1170.1,809.1],[1140.2,809.5],[1132,804.4],[1141.8,813.5],[1151.6,822.6],[1151.6,822.6],[1153.7,828],[1144.2,819.9],[1150.8,803.7],[1140.1,784.9],[1125.2,779.5],[1118.1,791],[1120.2,792.3],[1127.2,781.1],[1118.2,756.3],[1116.3,744.9],[1122.1,737.2],[1135.8,732.9],[1126.5,731.7],[1130,745.3],[1136.1,755.5],[1125.7,754.9],[1116.2,752.8],[1104.9,759],[1096.1,765.2],[1096.1,765.2],[1092.2,768],[1100.5,767.6],[1112.6,770.2],[1115.2,772.7],[1125.2,765.4],[1125.2,765.4],[1113,770.5],[1131.7,771.1],[1147.8,775.1],[1158.8,779.4],[1172.6,783.9],[1176.8,769.1],[1168.8,757.5],[1138.5,756.6],[1123.3,764.5],[1123.3,764.5],[1108.1,772.4],[1128.5,761],[1128.8,750.1],[1136.4,740.4],[1136.4,740.4],[1131.5,719.5],[1113.1,696.7],[1096.4,692],[1079.7,687.3],[1058.6,676.6],[1057.4,668.9],[1056.3,659.1],[1039.2,659.6],[997.8,657.3],[997.8,657.3],[964.9,644.9],[935.2,668.4],[942.4,681.5],[942.4,681.5],[941.1,680.5],[937.1,662.7],[963,658.8],[963,658.8],[956.2,641.7],[949.3,626.7],[944.4,611.6],[966.3,596.8],[966.3,596.8],[976.5,596.1],[976.5,596.1],[993,575.4],[981.4,561.1],[974.2,552.1],[991.6,575.1],[991.6,575.1],[996.1,592.1],[982.5,608.2],[979.6,617],[974.7,625.9],[952.4,650.2],[926,669.3],[922.6,679.5],[918.6,695.4],[895.4,727.5],[850.3,744.4],[801.7,757.2],[776.4,778.6],[740.2,782.6],[704,786.6],[698.6,798],[693.2,809.4],[667,798],[640.8,786.6],[638.5,759.9],[638.5,759.9],[646.5,726.1],[680.2,691.6],[695.3,662.3],[710.6,657.7],[710.6,657.7],[726.2,646],[720.3,610.2],[714.4,574.4],[714.8,592.8],[712.9,611.2],[727,610.7],[730.8,617.3],[731.1,627.6],[753,629.5],[774.9,631.4],[789.7,632.7],[810.1,637.8],[830.5,642.9],[853.9,611.2],[879.6,579.5],[899.7,579.6],[919.8,579.7],[919.4,571.9],[919.8,568.8],[938.3,563.1],[963.6,565.1],[973.7,573.1],[973.7,573.1],[984.8,582],[1002.2,603.8],[1006.7,609.4],[993.6,601.4],[990.4,600.7],[1018.5,601.7],[1018.5,601.7],[1014.6,620.2],[1015.8,634.6],[1010,634.6],[1018.1,651.6],[1025.2,667.7],[1032,684.3],[1051.7,717.1],[1051.7,717.1],[1083.5,753.4],[1111.6,779.7],[1119.9,800.7],[1136.9,776],[1130.7,758],[1126,759.5],[1127.4,725.5],[1125.1,698.7],[1117,672.8],[1113.3,636.1],[1113.3,636.1],[1095.1,598.8],[1076.8,579.4],[1044.3,545.9],[1039.3,536.5],[1039.3,536.5],[1004,518.8],[1006.2,514.8],[1003.6,523.3],[995.3,514.6],[995.3,514.6],[984.4,516.3],[968.2,527.6],[994,518.1],[1004.7,500.3],[1018.1,520.3],[1023.5,542.9],[1049.5,581.5],[1042.4,579],[1027.6,597.6],[1017.7,599.3],[1032.9,600.3],[1049,602.5],[1021.2,634.8],[1002.4,660.2],[1002.4,660.2],[995.1,650.9],[995,643.3],[1004.6,628],[1028.8,623.1],[1060.7,597.1],[1073.4,623.4],[1071.2,640.6],[1069,657.8],[1069,657.8],[1076.6,624.8],[1102.2,583.4],[1109.6,589],[1109.8,592.9],[1105.3,590.4],[1105.3,590.4],[1101.4,581.1],[1062.9,578.3],[1059.5,558.9],[1056.8,530.6],[1058.9,502.7],[1058.9,502.7],[1056.5,513.3],[1036.8,547.2],[1033.9,532.3],[1031,517.4],[1030.3,522.6],[1015.5,546.5],[1023.8,577.4],[1044.2,568.3],[1028.7,556.2],[1008.4,543.7],[956.4,511.8],[919.1,484.2],[883.2,469.4],[847.3,454.6],[847.3,454.6],[851,439.8],[858.2,465.6],[876.9,477.9],[857.7,497.4],[857.7,497.4],[866.1,528.2],[888.8,544.2],[936.5,595.6],[936.5,595.6],[979.3,615.9],[979.3,615.9],[1014.8,626.1],[1050.3,636.3],[1061.6,626.9],[1069.4,576.9],[1023.5,530.8],[1017.9,506.7],[1022,480.6],[1030.8,482.9],[1030.8,482.9],[1047.8,468.5],[1032.2,468.5],[1023.9,478.6],[1059.6,473.8],[1054.9,496.3],[1071.7,526]]","[-0.056692,0.170076]","[0.056692,0.170076]","[0.170076,0.170076]","[-0.170076,0.056692]","[-0.170076,-0.170076]","[-0.170076,-0.056692]","[-0.056692,0.056692]","[0.056692,0.056692]","[0.170076,0.056692]","[-0.056692,-0.170076]","[0.056692,-0.170076]","[0.170076,-0.170076]","[-0.056692,-0.056692]","[0.056692,-0.056692]","[0.170076,-0.056692]",0,0,0,0,1,4,Smartphone,25,20,8,1,60,4,1,60,3
,,,,,,,,,,,,,,,,,,,,38,001,2024-11-26_11h56.26.619,Attention_exp_legacy,2023.1.0,Win32,60.24096386,,,,,,,,,,[-0.06770833333333333],[0.17037037037037037],[1],[0],[0],[2.397600000001489],"[""Bus_label""]",Bus_label,2,3.4163,"[[0.075,-0.003703703703703704],[0.075,-0.003703703703703704],[0.075,-0.003703703703703704],[0.075,-0.003703703703703704],[0.075,-0.003703703703703704],[0.075,-0.003703703703703704],[0.075,-0.003703703703703704],[0.075,-0.003703703703703704],[0.075,-0.003703703703703704],[0.075,-0.003703703703703704],[0.075,-0.003703703703703704],[0.075,-0.003703703703703704],[0.075,-0.003703703703703704],[0.075,-0.003703703703703704],[0.075,-0.003703703703703704],[0.075,-0.003703703703703704],[0.075,-0.003703703703703704],[0.075,-0.003703703703703704],[0.075,-0.003703703703703704],[0.075,-0.003703703703703704],[0.075,-0.003703703703703704],[0.075,-0.003703703703703704],[0.075,-0.003703703703703704],[0.075,-0.003703703703703704],[0.075,-0.003703703703703704],[0.075,-0.003703703703703704],[0.075,-0.003703703703703704],[0.075,-0.003703703703703704],[0.075,-0.003703703703703704],[0.075,-0.003703703703703704],[0.075,-0.003703703703703704],[0.075,-0.003703703703703704],[0.075,-0.003703703703703704],[0.075,-0.003703703703703704],[0.075,-0.003703703703703704],[0.075,-0.003703703703703704],[0.075,-0.003703703703703704],[0.075,-0.003703703703703704],[0.075,-0.003703703703703704],[0.075,-0.003703703703703704],[0.075,-0.003703703703703704],[0.075,-0.003703703703703704],[0.075,-0.003703703703703704],[0.075,-0.003703703703703704],[0.075,-0.003703703703703704],[0.075,-0.003703703703703704],[0.075,-0.003703703703703704],[0.075,-0.003703703703703704],[0.075,-0.003703703703703704],[0.075,-0.003703703703703704],[0.075,-0.003703703703703704],[0.075,-0.003703703703703704],[0.075,-0.003703703703703704],[0.075,-0.003703703703703704],[0.075,-0.003703703703703704],[0.075,-0.003703703703703704],[0.075,-0.003703703703703704],[0.075,-0.003703703703703704],[0.075,-0.003703703703703704],[0.075,-0.003703703703703704],[0.075,-0.003703703703703704],[0.075,-0.003703703703703704],[0.075,-0.003703703703703704],[0.075,-0.003703703703703704],[0.075,-0.003703703703703704],[0.075,-0.003703703703703704],[0.075,-0.003703703703703704],[0.075,-0.003703703703703704],[0.075,-0.003703703703703704],[0.075,-0.003703703703703704],[0.075,-0.003703703703703704],[0.075,-0.003703703703703704],[0.075,-0.003703703703703704],[0.075,-0.003703703703703704],[0.075,-0.003703703703703704],[0.075,-0.003703703703703704],[0.075,-0.003703703703703704],[0.075,-0.003703703703703704],[0.075,-0.003703703703703704],[0.075,-0.003703703703703704],[0.075,-0.003703703703703704],[0.075,-0.003703703703703704],[0.075,-0.003703703703703704],[0.075,-0.003703703703703704],[0.075,-0.003703703703703704],[0.075,-0.003703703703703704],[0.075,-0.003703703703703704],[0.075,-0.003703703703703704],[0.075,-0.003703703703703704],[0.075,-0.003703703703703704],[0.075,-0.003703703703703704],[0.075,-0.003703703703703704],[0.075,-0.003703703703703704],[0.075,-0.003703703703703704],[0.075,-0.003703703703703704],[0.075,-0.003703703703703704],[0.075,-0.003703703703703704],[0.075,-0.003703703703703704],[0.075,-0.003703703703703704],[0.075,-0.003703703703703704],[0.075,-0.003703703703703704],[0.075,-0.003703703703703704],[0.075,-0.003703703703703704],[0.075,-0.005555555555555556],[0.06770833333333333,-0.003703703703703704],[0.06458333333333334,0],[0.05416666666666667,0.014814814814814815],[0.04479166666666667,0.025925925925925925],[0.034375,0.03888888888888889],[0.026041666666666668,0.04814814814814815],[0.015625,0.06296296296296296],[0.00625,0.07407407407407407],[-0.0010416666666666667,0.08518518518518518],[-0.005208333333333333,0.09074074074074075],[-0.009375,0.09814814814814815],[-0.010416666666666666,0.10185185185185185],[-0.0125,0.10740740740740741],[-0.013541666666666667,0.1111111111111111],[-0.019791666666666666,0.12222222222222222],[-0.025,0.12777777777777777],[-0.03333333333333333,0.13518518518518519],[-0.041666666666666664,0.14444444444444443],[-0.046875,0.14814814814814814],[-0.05,0.15185185185185185],[-0.051041666666666666,0.1537037037037037],[-0.05416666666666667,0.1574074074074074],[-0.057291666666666664,0.15925925925925927],[-0.059375,0.16296296296296298],[-0.06145833333333333,0.1648148148148148],[-0.06458333333333334,0.1685185185185185],[-0.065625,0.1685185185185185],[-0.065625,0.17037037037037037],[-0.065625,0.17037037037037037],[-0.06666666666666667,0.17037037037037037],[-0.06666666666666667,0.17037037037037037],[-0.06666666666666667,0.17037037037037037],[-0.06666666666666667,0.17037037037037037],[-0.06666666666666667,0.17037037037037037],[-0.06666666666666667,0.17037037037037037],[-0.06666666666666667,0.17037037037037037],[-0.06666666666666667,0.17037037037037037],[-0.06666666666666667,0.17037037037037037],[-0.06666666666666667,0.17037037037037037],[-0.06770833333333333,0.17037037037037037],[-0.06770833333333333,0.17037037037037037],[-0.06770833333333333,0.17037037037037037],[-0.06770833333333333,0.17037037037037037],[-0.06770833333333333,0.17037037037037037],[-0.06770833333333333,0.17037037037037037],[-0.06770833333333333,0.17037037037037037],[-0.06770833333333333,0.17037037037037037],[-0.06770833333333333,0.17037037037037037],[-0.06770833333333333,0.17037037037037037],[-0.06770833333333333,0.17037037037037037],[-0.06770833333333333,0.17037037037037037],[-0.06770833333333333,0.17037037037037037],[-0.06770833333333333,0.17037037037037037],[-0.06770833333333333,0.15],[-0.06770833333333333,0.1111111111111111],[-0.06770833333333333,0.09259259259259259],[-0.06770833333333333,0.08333333333333333],[-0.06666666666666667,0.06666666666666667],[-0.06666666666666667,0.05185185185185185],[-0.0625,0.03148148148148148],[-0.05520833333333333,0.007407407407407408],[-0.04791666666666667,-0.012962962962962963],[-0.04375,-0.025925925925925925],[-0.041666666666666664,-0.03333333333333333],[-0.035416666666666666,-0.046296296296296294],[-0.03229166666666667,-0.05],[-0.027083333333333334,-0.05555555555555555],[-0.022916666666666665,-0.06111111111111111],[-0.016666666666666666,-0.06481481481481481],[-0.010416666666666666,-0.06851851851851852],[-0.004166666666666667,-0.07037037037037037],[0.0010416666666666667,-0.07037037037037037],[0.007291666666666667,-0.07037037037037037],[0.011458333333333333,-0.07037037037037037],[0.013541666666666667,-0.07037037037037037],[0.01875,-0.06851851851851852],[0.022916666666666665,-0.06296296296296296],[0.027083333333333334,-0.05925925925925926],[0.030208333333333334,-0.053703703703703705],[0.03229166666666667,-0.05185185185185185],[0.03333333333333333,-0.05],[0.034375,-0.04814814814814815],[0.034375,-0.04814814814814815],[0.034375,-0.04814814814814815],[0.034375,-0.04814814814814815],[0.034375,-0.04814814814814815],[0.034375,-0.04814814814814815],[0.034375,-0.04814814814814815],[0.034375,-0.04814814814814815],[0.034375,-0.04814814814814815],[0.034375,-0.04814814814814815],[0.034375,-0.04814814814814815],[0.034375,-0.04814814814814815],[0.034375,-0.04814814814814815],[0.034375,-0.04814814814814815],[0.034375,-0.04814814814814815],[0.034375,-0.04814814814814815],[0.034375,-0.04814814814814815],[0.034375,-0.04814814814814815],[0.034375,-0.04814814814814815],[0.034375,-0.04814814814814815],[0.034375,-0.04814814814814815]]","[[-0.2013541666666666,0.06333333333333342],[-0.2123958333333333,0.04018518518518527],[-0.22854166666666664,0.02111111111111107],[-0.21812499999999999,0.03314814814814811],[-0.20822916666666663,0.01518518518518527],[-0.23020833333333332,0.004814814814814857],[-0.23020833333333332,0.004814814814814857],[-0.21708333333333332,-0.013518518518518435],[-0.18885416666666663,-0.01722222222222214],[-0.1466666666666666,-0.01722222222222214],[-0.10260416666666666,-0.01703703703703712],[-0.08020833333333334,-0.013703703703703662],[-0.07229166666666664,-0.014629629629629588],[-0.06177083333333329,-0.04277777777777782],[-0.05916666666666662,-0.07481481481481478],[-0.035520833333333356,-0.05351851851851848],[-0.011874999999999976,-0.03222222222222218],[-0.011874999999999976,-0.03222222222222218],[0.0032291666666666905,-0.011111111111111112],[0.008124999999999953,-0.0007407407407406986],[-0.0009374999999999763,0.00592592592592601],[-0.003854166666666714,0.025925925925925925],[0.016666666666666666,0.03333333333333333],[0.027604166666666666,0.040370370370370286],[0.04104166666666664,0.0705555555555556],[0.058645833333333286,0.10925925925925926],[0.057187499999999974,0.14333333333333328],[0.07520833333333338,0.15648148148148147],[0.08083333333333324,0.15851851851851856],[0.09249999999999996,0.1609259259259259],[0.10416666666666667,0.1633333333333334],[0.09812500000000005,0.16444444444444437],[0.09031250000000005,0.175],[0.09031250000000005,0.175],[0.09812500000000005,0.16833333333333328],[0.058749999999999976,0.15018518518518523],[0.015208333333333357,0.1235185185185186],[0.008020833333333382,0.08055555555555556],[-0.01864583333333331,0.05851851851851856],[-0.04354166666666662,0.07555555555555547],[-0.06427083333333337,0.102962962962963],[-0.09145833333333328,0.09499999999999992],[-0.10708333333333328,0.075],[-0.14375,0.07092592592592584],[-0.18645833333333334,0.08444444444444449],[-0.18541666666666667,0.08481481481481473],[-0.184375,0.08518518518518518],[-0.21124999999999997,0.07814814814814823],[-0.21124999999999997,0.07814814814814823],[-0.23812500000000003,0.07111111111111107],[-0.2297916666666667,0.026481481481481398],[-0.23635416666666664,0.0014814814814813973],[-0.23645833333333333,0.01185185185185181],[-0.22906249999999997,0.036481481481481566],[-0.20114583333333336,0.026481481481481398],[-0.17322916666666663,0.01648148148148144],[-0.14187500000000006,0.031111111111111027],[-0.11510416666666666,0.041111111111111195],[-0.11510416666666666,0.041111111111111195],[-0.090625,0.05314814814814823],[-0.08374999999999998,0.052962962962963],[-0.11291666666666664,0.06592592592592597],[-0.12718750000000004,0.05925925925925926],[-0.13531249999999997,0.0477777777777777],[-0.15093749999999997,0.022037037037036994],[-0.17020833333333332,0.044444444444444446],[-0.18947916666666664,0.0668518518518519],[-0.18947916666666664,0.0668518518518519],[-0.21770833333333334,0.058703703703703786],[-0.21364583333333337,0.05962962962962971],[-0.21364583333333337,0.05962962962962971],[-0.20958333333333337,0.06055555555555564],[-0.19697916666666668,0.06185185185185181],[-0.18041666666666673,0.06722222222222214],[-0.18583333333333332,0.05981481481481473],[-0.1736458333333334,0.0911111111111112],[-0.16770833333333332,0.13277777777777786],[-0.15760416666666663,0.1449999999999999],[-0.14750000000000002,0.15722222222222218],[-0.13072916666666667,0.19685185185185178],[-0.14166666666666666,0.23203703703703696],[-0.16635416666666672,0.2294444444444444],[-0.18197916666666672,0.23870370370370367],[-0.20416666666666666,0.21777777777777782],[-0.1890625,0.2153703703703703],[-0.19916666666666671,0.18981481481481483],[-0.20302083333333332,0.15388888888888894],[-0.20302083333333332,0.15388888888888894],[-0.20260416666666667,0.13351851851851856],[-0.21156250000000001,0.07166666666666675],[-0.21822916666666667,0.012962962962962963],[-0.240625,-0.036666666666666584],[-0.24927083333333327,-0.0485185185185186],[-0.24427083333333333,-0.053148148148148125],[-0.2376041666666667,-0.046296296296296294],[-0.24635416666666668,-0.019259259259259216],[-0.25364583333333335,-0.002962962962963005],[-0.27708333333333335,0.004444444444444402],[-0.3047916666666667,-0.003703703703703704],[-0.3047916666666667,-0.003703703703703704],[-0.3232291666666666,0.06537037037037029],[-0.33697916666666666,0.08129629629629626],[-0.30666666666666664,0.12666666666666662],[-0.2969791666666667,0.1757407407407407],[-0.2938541666666667,0.1874074074074075],[-0.2938541666666667,0.1874074074074075],[-0.2920833333333333,0.1874074074074075],[-0.26364583333333336,0.17981481481481484],[-0.23427083333333332,0.15555555555555556],[-0.21197916666666666,0.122037037037037],[-0.18968750000000004,0.08851851851851844],[-0.16781250000000003,0.06092592592592588],[-0.13072916666666667,0.05814814814814811],[-0.13072916666666667,0.05814814814814811],[-0.13718750000000005,-0.001851851851851852],[-0.12041666666666669,-0.052222222222222205],[-0.09979166666666663,-0.07000000000000002],[-0.09979166666666663,-0.07000000000000002],[-0.0829166666666667,-0.07111111111111107],[-0.11052083333333336,-0.08759259259259261],[-0.12281249999999998,-0.13481481481481483],[-0.10375000000000002,-0.09666666666666665],[-0.0890625,-0.09037037037037039],[-0.11322916666666671,-0.11074074074074076],[-0.1171875,-0.13351851851851856],[-0.1171875,-0.13351851851851856],[-0.10427083333333335,-0.1205555555555556],[-0.10427083333333335,-0.1205555555555556],[-0.09510416666666661,-0.10888888888888891],[-0.11604166666666664,-0.12296296296296293],[-0.1280208333333333,-0.14833333333333337],[-0.09135416666666671,-0.11574074074074074],[-0.09135416666666671,-0.11574074074074074],[-0.08999999999999998,-0.08296296296296299],[-0.07583333333333328,-0.1190740740740741],[-0.06135416666666664,-0.09944444444444442],[-0.0037500000000000237,-0.11796296296296294],[-0.02822916666666669,-0.08037037037037033],[-0.04468749999999998,-0.07185185185185188],[-0.034791666666666644,-0.0955555555555556],[-0.005729166666666666,-0.09592592592592594],[0.04364583333333331,-0.09055555555555551],[0.06229166666666662,-0.14611111111111108],[0.06229166666666662,-0.14611111111111108],[0.03760416666666669,-0.12333333333333338],[0.01114583333333338,-0.0514814814814814],[-0.011249999999999953,-0.0035185185185184764],[-0.03916666666666669,0.041111111111111195],[-0.018124999999999978,0.016666666666666666],[0.002291666666666714,0.02092592592592584],[-0.0021875000000000236,0.026481481481481398],[0.005833333333333357,0.0477777777777777],[-0.022187499999999954,0.05185185185185185],[-0.07166666666666661,0.046481481481481526],[-0.05572916666666667,-0.009259259259259259],[-0.04364583333333331,-0.09240740740740737],[-0.03156249999999995,-0.17555555555555558],[-0.03843749999999998,-0.1925925925925926],[-0.03843749999999998,-0.1925925925925926],[-0.03843749999999998,-0.1905555555555555],[-0.03843749999999998,-0.1905555555555555],[-0.05604166666666662,-0.1735185185185185],[-0.06062500000000005,-0.16796296296296295],[-0.08666666666666671,-0.17],[-0.10083333333333329,-0.1542592592592593],[-0.10083333333333329,-0.1542592592592593],[-0.10833333333333334,-0.13574074074074077],[-0.11166666666666672,-0.08574074074074076],[-0.11312500000000002,-0.06111111111111111],[-0.10656249999999995,-0.0016666666666666245],[-0.07927083333333336,0.018148148148148063],[-0.10416666666666667,-0.03462962962962971],[-0.14322916666666666,-0.13537037037037042],[-0.14322916666666666,-0.13537037037037042],[-0.1898958333333333,-0.2161111111111111],[-0.24229166666666668,-0.2588888888888889],[-0.24656250000000005,-0.26666666666666666],[-0.26927083333333335,-0.30629629629629623],[-0.26927083333333335,-0.30629629629629623],[-0.2319791666666667,-0.23407407407407405],[-0.253125,-0.18944444444444447],[-0.2867708333333333,-0.18870370370370365],[-0.30010416666666667,-0.2518518518518518],[-0.30010416666666667,-0.2518518518518518],[-0.28093750000000006,-0.17685185185185184],[-0.2430208333333333,-0.08259259259259263],[-0.2430208333333333,-0.08259259259259263],[-0.19093749999999995,0.016666666666666666],[-0.1330208333333334,0.06481481481481481],[-0.115625,0.10722222222222218],[-0.07052083333333338,0.2111111111111111],[-0.11166666666666672,0.16722222222222213],[-0.11156250000000002,0.15629629629629627],[-0.11156250000000002,0.15629629629629627],[-0.09583333333333334,0.15500000000000008],[-0.11031249999999998,0.16277777777777774],[-0.11895833333333337,0.12962962962962962],[-0.08697916666666666,0.11388888888888889],[-0.07489583333333331,0.10351851851851848],[-0.07760416666666667,0.0514814814814814],[-0.08791666666666664,-0.029814814814814856],[-0.11083333333333331,-0.07444444444444442],[-0.11343749999999998,-0.1007407407407407],[-0.11229166666666662,-0.102962962962963],[-0.11895833333333337,-0.10870370370370368],[-0.1330208333333334,-0.1051851851851852]]","[[-0.2013541666666666,0.06333333333333342,0.0001000000014954594],[-0.2123958333333333,0.04018518518518527,0.019000000000005457],[-0.22854166666666664,0.02111111111111107,0.0328999999985129],[-0.21812499999999999,0.03314814814814811,0.053200000002981085],[-0.20822916666666663,0.01518518518518527,0.06800000000000495],[-0.23020833333333332,0.004814814814814857,0.08820000000298478],[-0.23020833333333332,0.004814814814814857,0.09970000000298285],[-0.21708333333333332,-0.013518518518518435,0.11630000000447183],[-0.18885416666666663,-0.01722222222222214,0.13300000000000267],[-0.1466666666666666,-0.01722222222222214,0.14989999999851022],[-0.10260416666666666,-0.01703703703703712,0.1663000000044761],[-0.08020833333333334,-0.013703703703703662,0.18550000000000466],[-0.07229166666666664,-0.014629629629629588,0.19960000000149591],[-0.06177083333333329,-0.04277777777777782,0.21630000000447325],[-0.05916666666666662,-0.07481481481481478,0.2330000000000041],[-0.035520833333333356,-0.05351851851851848,0.2508999999985093],[-0.011874999999999976,-0.03222222222222218,0.26920000000298216],[-0.011874999999999976,-0.03222222222222218,0.28300000000000125],[0.0032291666666666905,-0.011111111111111112,0.29960000000149023],[0.008124999999999953,-0.0007407407407406986,0.31639999999850943],[-0.0009374999999999763,0.00592592592592601,0.3330000000000055],[-0.003854166666666714,0.025925925925925925,0.3521000000014922],[0.016666666666666666,0.03333333333333333,0.3663999999985137],[0.027604166666666666,0.040370370370370286,0.38300000000000267],[0.04104166666666664,0.0705555555555556,0.39960000000149165],[0.058645833333333286,0.10925925925925926,0.4163000000044761],[0.057187499999999974,0.14333333333333328,0.43460000000149535],[0.07520833333333338,0.15648148148148147,0.44970000000298427],[0.08083333333333324,0.15851851851851856,0.46630000000447325],[0.09249999999999996,0.1609259259259259,0.4830000000000041],[0.10416666666666667,0.1633333333333334,0.4997000000029814],[0.09812500000000005,0.16444444444444437,0.5193999999985124],[0.09031250000000005,0.175,0.5331000000014896],[0.09031250000000005,0.175,0.549800000004474],[0.09812500000000005,0.16833333333333328,0.5663000000044747],[0.058749999999999976,0.15018518518518523,0.5830000000000055],[0.015208333333333357,0.1235185185185186,0.6026000000014946],[0.008020833333333382,0.08055555555555556,0.616899999998509],[-0.01864583333333331,0.05851851851851856,0.6330000000000027],[-0.04354166666666662,0.07555555555555547,0.6502000000029824],[-0.06427083333333337,0.102962962962963,0.6663999999985109],[-0.09145833333333328,0.09499999999999992,0.6857000000029814],[-0.10708333333333328,0.075,0.6998999999985145],[-0.14375,0.07092592592592584,0.7163000000044732],[-0.18645833333333334,0.08444444444444449,0.7330000000000041],[-0.18541666666666667,0.08481481481481473,0.7497000000029814],[-0.184375,0.08518518518518518,0.76889999999851],[-0.21124999999999997,0.07814814814814823,0.784399999998513],[-0.21124999999999997,0.07814814814814823,0.7997000000029857],[-0.23812500000000003,0.07111111111111107,0.8163000000044747],[-0.2297916666666667,0.026481481481481398,0.83289999999851],[-0.23635416666666664,0.0014814814814813973,0.8526000000014946],[-0.23645833333333333,0.01185185185185181,0.866899999998509],[-0.22906249999999997,0.036481481481481566,0.8868999999985121],[-0.20114583333333336,0.026481481481481398,0.902000000000001],[-0.17322916666666663,0.01648148148148144,0.9164999999999992],[-0.14187500000000006,0.031111111111111027,0.9358999999985116],[-0.11510416666666666,0.041111111111111195,0.9527000000029844],[-0.11510416666666666,0.041111111111111195,0.9663999999985151],[-0.090625,0.05314814814814823,0.9830000000000041],[-0.08374999999999998,0.052962962962963,0.9997000000029814],[-0.11291666666666664,0.06592592592592597,1.0190000000000055],[-0.12718750000000004,0.05925925925925926,1.0330000000000013],[-0.13531249999999997,0.0477777777777777,1.0496000000014902],[-0.15093749999999997,0.022037037037036994,1.0663000000044747],[-0.17020833333333332,0.044444444444444446,1.0833999999985124],[-0.18947916666666664,0.0668518518518519,1.104200000002983],[-0.18947916666666664,0.0668518518518519,1.1163000000044718],[-0.21770833333333334,0.058703703703703786,1.1328999999985143],[-0.21364583333333337,0.05962962962962971,1.1518000000044708],[-0.21364583333333337,0.05962962962962971,1.166300000004476],[-0.20958333333333337,0.06055555555555564,1.1829999999999998],[-0.19697916666666668,0.06185185185185181,1.1997000000029843],[-0.18041666666666673,0.06722222222222214,1.2163999999985151],[-0.18583333333333332,0.05981481481481473,1.2333000000044763],[-0.1736458333333334,0.0911111111111112,1.249600000001493],[-0.16770833333333332,0.13277777777777786,1.26889999999851],[-0.15760416666666663,0.1449999999999999,1.2833000000044734],[-0.14750000000000002,0.15722222222222218,1.2997000000029857],[-0.13072916666666667,0.19685185185185178,1.31680000000447],[-0.14166666666666666,0.23203703703703696,1.3330000000000055],[-0.16635416666666672,0.2294444444444444,1.3530000000000015],[-0.18197916666666672,0.23870370370370367,1.3667000000029859],[-0.20416666666666666,0.21777777777777782,1.3828999999985143],[-0.1890625,0.2153703703703703,1.3996000000014917],[-0.19916666666666671,0.18981481481481483,1.416300000004476],[-0.20302083333333332,0.15388888888888894,1.4357000000029814],[-0.20302083333333332,0.15388888888888894,1.4497000000029843],[-0.20260416666666667,0.13351851851851856,1.4663000000044732],[-0.21156250000000001,0.07166666666666675,1.483000000000004],[-0.21822916666666667,0.012962962962962963,1.499600000001493],[-0.240625,-0.036666666666666584,1.5190000000000055],[-0.24927083333333327,-0.0485185185185186,1.532899999998513],[-0.24427083333333333,-0.053148148148148125,1.5533999999985113],[-0.2376041666666667,-0.046296296296296294,1.5665000000000049],[-0.24635416666666668,-0.019259259259259216,1.5830000000000055],[-0.25364583333333335,-0.002962962962963005,1.602300000004476],[-0.27708333333333335,0.004444444444444402,1.6185000000000045],[-0.3047916666666667,-0.003703703703703704,1.6366000000014935],[-0.3047916666666667,-0.003703703703703704,1.6498999999985102],[-0.3232291666666666,0.06537037037037029,1.666300000004476],[-0.33697916666666666,0.08129629629629626,1.6870000000000047],[-0.30666666666666664,0.12666666666666662,1.7027000000029844],[-0.2969791666666667,0.1757407407407407,1.7198999999985105],[-0.2938541666666667,0.1874074074074075,1.7360000000000042],[-0.2938541666666667,0.1874074074074075,1.75],[-0.2920833333333333,0.1874074074074075,1.7663999999985123],[-0.26364583333333336,0.17981481481481484,1.7863999999985154],[-0.23427083333333332,0.15555555555555556,1.802100000001495],[-0.21197916666666666,0.122037037037037,1.8188000000044724],[-0.18968750000000004,0.08851851851851844,1.8331000000014939],[-0.16781250000000003,0.06092592592592588,1.8538999999985109],[-0.13072916666666667,0.05814814814814811,1.8686000000014928],[-0.13072916666666667,0.05814814814814811,1.883100000001491],[-0.13718750000000005,-0.001851851851851852,1.8998999999985102],[-0.12041666666666669,-0.052222222222222205,1.9213999999985134],[-0.09979166666666663,-0.07000000000000002,1.9365000000000023],[-0.09979166666666663,-0.07000000000000002,1.9498999999985145],[-0.0829166666666667,-0.07111111111111107,1.9693999999985152],[-0.11052083333333336,-0.08759259259259261,1.9845000000000041],[-0.12281249999999998,-0.13481481481481483,1.9998000000044698],[-0.10375000000000002,-0.09666666666666665,2.0205000000000055],[-0.0890625,-0.09037037037037039,2.0360000000000014],[-0.11322916666666671,-0.11074074074074076,2.053200000002981],[-0.1171875,-0.13351851851851856,2.0730000000000004],[-0.1171875,-0.13351851851851856,2.084600000001494],[-0.10427083333333335,-0.1205555555555556,2.1000000000000014],[-0.10427083333333335,-0.1205555555555556,2.1163999999985137],[-0.09510416666666661,-0.10888888888888891,2.136300000004475],[-0.11604166666666664,-0.12296296296296293,2.152300000004473],[-0.1280208333333333,-0.14833333333333337,2.1666000000014947],[-0.09135416666666671,-0.11574074074074074,2.1883999999985093],[-0.09135416666666671,-0.11574074074074074,2.199600000001496],[-0.08999999999999998,-0.08296296296296299,2.2165000000000035],[-0.07583333333333328,-0.1190740740740741,2.2328999999985157],[-0.06135416666666664,-0.09944444444444442,2.249600000001493],[-0.0037500000000000237,-0.11796296296296294,2.269600000001496],[-0.02822916666666669,-0.08037037037037033,2.2848000000044735],[-0.04468749999999998,-0.07185185185185188,2.2996000000014902],[-0.034791666666666644,-0.0955555555555556,2.3178999999985095],[-0.005729166666666666,-0.09592592592592594,2.3330000000000055],[0.04364583333333331,-0.09055555555555551,2.3526000000014946],[0.06229166666666662,-0.14611111111111108,2.3666000000014904],[0.06229166666666662,-0.14611111111111108,2.385700000002984],[0.03760416666666669,-0.12333333333333338,2.39970000000298],[0.01114583333333338,-0.0514814814814814,2.416300000004476],[-0.011249999999999953,-0.0035185185185184764,2.4355000000000047],[-0.03916666666666669,0.041111111111111195,2.452200000002982],[-0.018124999999999978,0.016666666666666666,2.4698999999985105],[0.002291666666666714,0.02092592592592584,2.4867000000029833],[-0.0021875000000000236,0.026481481481481398,2.505100000001491],[0.005833333333333357,0.0477777777777777,2.5197000000029846],[-0.022187499999999954,0.05185185185185185,2.535100000001492],[-0.07166666666666661,0.046481481481481526,2.5530000000000044],[-0.05572916666666667,-0.009259259259259259,2.567399999998514],[-0.04364583333333331,-0.09240740740740737,2.5830000000000055],[-0.03156249999999995,-0.17555555555555558,2.602300000004476],[-0.03843749999999998,-0.1925925925925926,2.6237000000029838],[-0.03843749999999998,-0.1925925925925926,2.644800000004473],[-0.03843749999999998,-0.1905555555555555,2.6587000000029803],[-0.03843749999999998,-0.1905555555555555,2.6692000000029807],[-0.05604166666666662,-0.1735185185185185,2.6850000000000023],[-0.06062500000000005,-0.16796296296296295,2.6997000000029843],[-0.08666666666666671,-0.17,2.716399999998515],[-0.10083333333333329,-0.1542592592592593,2.7397000000029834],[-0.10083333333333329,-0.1542592592592593,2.75130000000447],[-0.10833333333333334,-0.13574074074074077,2.7663999999985123],[-0.11166666666666672,-0.08574074074074076,2.7833999999985153],[-0.11312500000000002,-0.06111111111111111,2.802700000002986],[-0.10656249999999995,-0.0016666666666666245,2.8177000000029793],[-0.07927083333333336,0.018148148148148063,2.833200000002982],[-0.10416666666666667,-0.03462962962962971,2.852899999998513],[-0.14322916666666666,-0.13537037037037042,2.868700000002981],[-0.14322916666666666,-0.13537037037037042,2.8830000000000027],[-0.1898958333333333,-0.2161111111111111,2.8998000000044755],[-0.24229166666666668,-0.2588888888888889,2.92010000000149],[-0.24656250000000005,-0.26666666666666666,2.9357000000029814],[-0.26927083333333335,-0.30629629629629623,2.9516000000014913],[-0.26927083333333335,-0.30629629629629623,2.9693000000044734],[-0.2319791666666667,-0.23407407407407405,2.9831000000014924],[-0.253125,-0.18944444444444447,2.9998999999985116],[-0.2867708333333333,-0.18870370370370365,3.019600000001496],[-0.30010416666666667,-0.2518518518518518,3.0331000000014896],[-0.30010416666666667,-0.2518518518518518,3.049800000004474],[-0.28093750000000006,-0.17685185185185184,3.066500000000005],[-0.2430208333333333,-0.08259259259259263,3.0888999999985103],[-0.2430208333333333,-0.08259259259259263,3.099700000002983],[-0.19093749999999995,0.016666666666666666,3.1163999999985137],[-0.1330208333333334,0.06481481481481481,3.1328999999985143],[-0.115625,0.10722222222222218,3.1496000000014917],[-0.07052083333333338,0.2111111111111111,3.1662000000029806],[-0.11166666666666672,0.16722222222222213,3.185399999998509],[-0.11156250000000002,0.15629629629629627,3.199600000001496],[-0.11156250000000002,0.15629629629629627,3.2163000000044732],[-0.09583333333333334,0.15500000000000008,3.2328999999985157],[-0.11031249999999998,0.16277777777777774,3.249600000001493],[-0.11895833333333337,0.12962962962962962,3.269200000002982],[-0.08697916666666666,0.11388888888888889,3.282899999998513],[-0.07489583333333331,0.10351851851851848,3.2996000000014902],[-0.07760416666666667,0.0514814814814814,3.3178000000044747],[-0.08791666666666664,-0.029814814814814856,3.3333999999985124],[-0.11083333333333331,-0.07444444444444442,3.3526000000014946],[-0.11343749999999998,-0.1007407407407407,3.3670000000000044],[-0.11229166666666662,-0.102962962962963,3.386000000000003],[-0.11895833333333337,-0.10870370370370368,3.3996000000014917],[-0.1330208333333334,-0.1051851851851852,3.416300000004476]]","[0.0001000000014954594,0.019000000000005457,0.0328999999985129,0.053200000002981085,0.06800000000000495,0.08820000000298478,0.09970000000298285,0.11630000000447183,0.13300000000000267,0.14989999999851022,0.1663000000044761,0.18550000000000466,0.19960000000149591,0.21630000000447325,0.2330000000000041,0.2508999999985093,0.26920000000298216,0.28300000000000125,0.29960000000149023,0.31639999999850943,0.3330000000000055,0.3521000000014922,0.3663999999985137,0.38300000000000267,0.39960000000149165,0.4163000000044761,0.43460000000149535,0.44970000000298427,0.46630000000447325,0.4830000000000041,0.4997000000029814,0.5193999999985124,0.5331000000014896,0.549800000004474,0.5663000000044747,0.5830000000000055,0.6026000000014946,0.616899999998509,0.6330000000000027,0.6502000000029824,0.6663999999985109,0.6857000000029814,0.6998999999985145,0.7163000000044732,0.7330000000000041,0.7497000000029814,0.76889999999851,0.784399999998513,0.7997000000029857,0.8163000000044747,0.83289999999851,0.8526000000014946,0.866899999998509,0.8868999999985121,0.902000000000001,0.9164999999999992,0.9358999999985116,0.9527000000029844,0.9663999999985151,0.9830000000000041,0.9997000000029814,1.0190000000000055,1.0330000000000013,1.0496000000014902,1.0663000000044747,1.0833999999985124,1.104200000002983,1.1163000000044718,1.1328999999985143,1.1518000000044708,1.166300000004476,1.1829999999999998,1.1997000000029843,1.2163999999985151,1.2333000000044763,1.249600000001493,1.26889999999851,1.2833000000044734,1.2997000000029857,1.31680000000447,1.3330000000000055,1.3530000000000015,1.3667000000029859,1.3828999999985143,1.3996000000014917,1.416300000004476,1.4357000000029814,1.4497000000029843,1.4663000000044732,1.483000000000004,1.499600000001493,1.5190000000000055,1.532899999998513,1.5533999999985113,1.5665000000000049,1.5830000000000055,1.602300000004476,1.6185000000000045,1.6366000000014935,1.6498999999985102,1.666300000004476,1.6870000000000047,1.7027000000029844,1.7198999999985105,1.7360000000000042,1.75,1.7663999999985123,1.7863999999985154,1.802100000001495,1.8188000000044724,1.8331000000014939,1.8538999999985109,1.8686000000014928,1.883100000001491,1.8998999999985102,1.9213999999985134,1.9365000000000023,1.9498999999985145,1.9693999999985152,1.9845000000000041,1.9998000000044698,2.0205000000000055,2.0360000000000014,2.053200000002981,2.0730000000000004,2.084600000001494,2.1000000000000014,2.1163999999985137,2.136300000004475,2.152300000004473,2.1666000000014947,2.1883999999985093,2.199600000001496,2.2165000000000035,2.2328999999985157,2.249600000001493,2.269600000001496,2.2848000000044735,2.2996000000014902,2.3178999999985095,2.3330000000000055,2.3526000000014946,2.3666000000014904,2.385700000002984,2.39970000000298,2.416300000004476,2.4355000000000047,2.452200000002982,2.4698999999985105,2.4867000000029833,2.505100000001491,2.5197000000029846,2.535100000001492,2.5530000000000044,2.567399999998514,2.5830000000000055,2.602300000004476,2.6237000000029838,2.644800000004473,2.6587000000029803,2.6692000000029807,2.6850000000000023,2.6997000000029843,2.716399999998515,2.7397000000029834,2.75130000000447,2.7663999999985123,2.7833999999985153,2.802700000002986,2.8177000000029793,2.833200000002982,2.852899999998513,2.868700000002981,2.8830000000000027,2.8998000000044755,2.92010000000149,2.9357000000029814,2.9516000000014913,2.9693000000044734,2.9831000000014924,2.9998999999985116,3.019600000001496,3.0331000000014896,3.049800000004474,3.066500000000005,3.0888999999985103,3.099700000002983,3.1163999999985137,3.1328999999985143,3.1496000000014917,3.1662000000029806,3.185399999998509,3.199600000001496,3.2163000000044732,3.2328999999985157,3.249600000001493,3.269200000002982,3.282899999998513,3.2996000000014902,3.3178000000044747,3.3333999999985124,3.3526000000014946,3.3670000000000044,3.386000000000003,3.3996000000014917,3.416300000004476]","[1732593435253,1732593435269,1732593435283,1732593435304,1732593435318,1732593435339,1732593435350,1732593435367,1732593435384,1732593435400,1732593435417,1732593435436,1732593435450,1732593435467,1732593435483,1732593435502,1732593435520,1732593435533,1732593435550,1732593435567,1732593435583,1732593435603,1732593435617,1732593435633,1732593435650,1732593435667,1732593435685,1732593435700,1732593435717,1732593435733,1732593435750,1732593435770,1732593435783,1732593435800,1732593435817,1732593435833,1732593435853,1732593435867,1732593435883,1732593435901,1732593435917,1732593435936,1732593435950,1732593435967,1732593435983,1732593436000,1732593436019,1732593436035,1732593436050,1732593436067,1732593436083,1732593436103,1732593436117,1732593436137,1732593436152,1732593436167,1732593436186,1732593436203,1732593436217,1732593436234,1732593436250,1732593436269,1732593436283,1732593436300,1732593436317,1732593436334,1732593436355,1732593436367,1732593436383,1732593436402,1732593436417,1732593436433,1732593436450,1732593436467,1732593436484,1732593436500,1732593436519,1732593436534,1732593436550,1732593436567,1732593436584,1732593436603,1732593436617,1732593436633,1732593436650,1732593436667,1732593436686,1732593436700,1732593436717,1732593436733,1732593436750,1732593436769,1732593436783,1732593436804,1732593436817,1732593436833,1732593436853,1732593436869,1732593436887,1732593436900,1732593436917,1732593436937,1732593436953,1732593436970,1732593436986,1732593437000,1732593437017,1732593437037,1732593437053,1732593437069,1732593437084,1732593437104,1732593437119,1732593437134,1732593437150,1732593437172,1732593437187,1732593437200,1732593437220,1732593437235,1732593437250,1732593437271,1732593437286,1732593437304,1732593437324,1732593437335,1732593437350,1732593437367,1732593437387,1732593437403,1732593437417,1732593437439,1732593437450,1732593437467,1732593437483,1732593437500,1732593437520,1732593437535,1732593437550,1732593437568,1732593437583,1732593437603,1732593437617,1732593437636,1732593437650,1732593437667,1732593437686,1732593437703,1732593437720,1732593437737,1732593437756,1732593437770,1732593437786,1732593437803,1732593437818,1732593437833,1732593437853,1732593437874,1732593437895,1732593437909,1732593437920,1732593437935,1732593437950,1732593437967,1732593437990,1732593438002,1732593438017,1732593438034,1732593438053,1732593438068,1732593438084,1732593438103,1732593438119,1732593438134,1732593438150,1732593438171,1732593438186,1732593438202,1732593438220,1732593438234,1732593438250,1732593438270,1732593438284,1732593438300,1732593438317,1732593438339,1732593438350,1732593438367,1732593438383,1732593438400,1732593438417,1732593438436,1732593438450,1732593438467,1732593438483,1732593438500,1732593438520,1732593438533,1732593438550,1732593438568,1732593438584,1732593438603,1732593438617,1732593438636,1732593438650,1732593438667]","[[766.7,574.2],[756.1,561.7],[740.6,551.4],[750.6,557.9],[760.1,548.2],[739,542.6],[739,542.6],[751.6,532.7],[778.7,530.7],[819.2,530.7],[861.5,530.8],[883,532.6],[890.6,532.1],[900.7,516.9],[903.2,499.6],[925.9,511.1],[948.6,522.6],[948.6,522.6],[963.1,534],[967.8,539.6],[959.1,543.2],[956.3,554],[976,558],[986.5,561.8],[999.4,578.1],[1016.3,599],[1014.9,617.4],[1032.2,624.5],[1037.6,625.6],[1048.8,626.9],[1060,628.2],[1054.2,628.8],[1046.7,634.5],[1046.7,634.5],[1054.2,630.9],[1016.4,621.1],[974.6,606.7],[967.7,583.5],[942.1,571.6],[918.2,580.8],[898.3,595.6],[872.2,591.3],[857.2,580.5],[822,578.3],[781,585.6],[782,585.8],[783,586],[757.2,582.2],[757.2,582.2],[731.4,578.4],[739.4,554.3],[733.1,540.8],[733,546.4],[740.1,559.7],[766.9,554.3],[793.7,548.9],[823.8,556.8],[849.5,562.2],[849.5,562.2],[873,568.7],[879.6,568.6],[851.6,575.6],[837.9,572],[830.1,565.8],[815.1,551.9],[796.6,564],[778.1,576.1],[778.1,576.1],[751,571.7],[754.9,572.2],[754.9,572.2],[758.8,572.7],[770.9,573.4],[786.8,576.3],[781.6,572.3],[793.3,589.2],[799,611.7],[808.7,618.3],[818.4,624.9],[834.5,646.3],[824,665.3],[800.3,663.9],[785.3,668.9],[764,657.6],[778.5,656.3],[768.8,642.5],[765.1,623.1],[765.1,623.1],[765.5,612.1],[756.9,578.7],[750.5,547],[729,520.2],[720.7,513.8],[725.5,511.3],[731.9,515],[723.5,529.6],[716.5,538.4],[694,542.4],[667.4,538],[667.4,538],[649.7,575.3],[636.5,583.9],[665.6,608.4],[674.9,634.9],[677.9,641.2],[677.9,641.2],[679.6,641.2],[706.9,637.1],[735.1,624],[756.5,605.9],[777.9,587.8],[798.9,572.9],[834.5,571.4],[834.5,571.4],[828.3,539],[844.4,511.8],[864.2,502.2],[864.2,502.2],[880.4,501.6],[853.9,492.7],[842.1,467.2],[860.4,487.8],[874.5,491.2],[851.3,480.2],[847.5,467.9],[847.5,467.9],[859.9,474.9],[859.9,474.9],[868.7,481.2],[848.6,473.6],[837.1,459.9],[872.3,477.5],[872.3,477.5],[873.6,495.2],[887.2,475.7],[901.1,486.3],[956.4,476.3],[932.9,496.6],[917.1,501.2],[926.6,488.4],[954.5,488.2],[1001.9,491.1],[1019.8,461.1],[1019.8,461.1],[996.1,473.4],[970.7,512.2],[949.2,538.1],[922.4,562.2],[942.6,549],[962.2,551.3],[957.9,554.3],[965.6,565.8],[938.7,568],[891.2,565.1],[906.5,535],[918.1,490.1],[929.7,445.2],[923.1,436],[923.1,436],[923.1,437.1],[923.1,437.1],[906.2,446.3],[901.8,449.3],[876.8,448.2],[863.2,456.7],[863.2,456.7],[856,466.7],[852.8,493.7],[851.4,507],[857.7,539.1],[883.9,549.8],[860,521.3],[822.5,466.9],[822.5,466.9],[777.7,423.3],[727.4,400.2],[723.3,396],[701.5,374.6],[701.5,374.6],[737.3,413.6],[717,437.7],[684.7,438.1],[671.9,404],[671.9,404],[690.3,444.5],[726.7,495.4],[726.7,495.4],[776.7,549],[832.3,575],[849,597.9],[892.3,654],[852.8,630.3],[852.9,624.4],[852.9,624.4],[868,623.7],[854.1,627.9],[845.8,610],[876.5,601.5],[888.1,595.9],[885.5,567.8],[875.6,523.9],[853.6,499.8],[851.1,485.6],[852.2,484.4],[845.8,481.3],[832.3,483.2]]","[-0.056692,0.170076]","[0.056692,0.170076]","[0.170076,0.170076]","[-0.170076,-0.056692]","[-0.170076,0.056692]","[-0.170076,-0.170076]","[-0.056692,-0.056692]","[0.056692,-0.056692]","[0.170076,-0.056692]","[-0.056692,0.056692]","[0.056692,0.056692]","[0.170076,0.056692]","[-0.056692,-0.170076]","[0.056692,-0.170076]","[0.170076,-0.170076]",0,1,1,1,1,4,Smartphone,20,40,8,2,70,4,2,70,5
