inst1_resp.keys,inst1_resp.rt,calibrationMouse.x,calibrationMouse.y,calibrationMouse.leftButton,calibrationMouse.midButton,calibrationMouse.rightButton,calibrationClick.x,calibrationClick.y,calibrationClick.leftButton,calibrationClick.midButton,calibrationClick.rightButton,calibrationClick.clicked_name,trialsc.thisRepN,trialsc.thisTrialN,trialsc.thisN,trialsc.thisIndex,trialsc.ran,calibration_x,calibration_y,participant,session,date,expName,psychopyVersion,OS,frameRate,ScreenRes_pixels,Camera_pixels,mouse_2.x,mouse_2.y,mouse_2.leftButton,mouse_2.midButton,mouse_2.rightButton,mouse_2.time,mouse_2.clicked_name,mouse.x,mouse.y,mouse.leftButton,mouse.midButton,mouse.rightButton,mouse.time,mouse.clicked_name,Choice,Trial,TrialDuration,MOUSE_GAZE,ET_GAZE,ET_GAZE_x_T,time,unixTime,ET_GAZE_NF,Loc_Bus_label,Loc_Metro_label,Loc_RH_label,Loc_Cost_label,Loc_Travel_label,Loc_Comfort_label,Loc_Bus_cost,Loc_Metro_cost,Loc_RH_cost,Loc_Bus_travel,Loc_Metro_travel,Loc_RH_travel,Loc_Bus_comfort,Loc_Metro_comfort,Loc_RH_comfort,trials.thisRepN,trials.thisTrialN,trials.thisN,trials.thisIndex,trials.ran,Block,Device,RH_cost,RH_travel_time,RH_Comfort,metro_cost,metro_travel_time,metro_Comfort,Bus_cost,Bus_travel_time,Bus_Comfort
space,2.0816,-0.155208333,-0.064814815,1,0,0,0.663541667,-0.668518519,1,0,0,calibration_square,0,0,0,20,1,0.67,-0.67,42,001,2024-11-29_18h36.04.712,Attention_exp_legacy,2023.1.0,Win32,59.88023952,,,,,,,,,,,,,,,,,,,,,,,,,,,,,,,,,,,,,,,,,,,,,,,,,,,,,,,,
,,,,,,,-0.336458333,-0.32037037,1,0,0,calibration_square,0,1,1,5,1,-0.33,-0.33,42,001,2024-11-29_18h36.04.712,Attention_exp_legacy,2023.1.0,Win32,59.88023952,,,,,,,,,,,,,,,,,,,,,,,,,,,,,,,,,,,,,,,,,,,,,,,,,,,,,,,,
,,,,,,,0.333333333,-0.672222222,1,0,0,calibration_square,0,2,2,14,1,0.33,-0.67,42,001,2024-11-29_18h36.04.712,Attention_exp_legacy,2023.1.0,Win32,59.88023952,,,,,,,,,,,,,,,,,,,,,,,,,,,,,,,,,,,,,,,,,,,,,,,,,,,,,,,,
,,,,,,,-0.005208333,0.011111111,1,0,0,,0,3,3,11,1,0,0,42,001,2024-11-29_18h36.04.712,Attention_exp_legacy,2023.1.0,Win32,59.88023952,,,,,,,,,,,,,,,,,,,,,,,,,,,,,,,,,,,,,,,,,,,,,,,,,,,,,,,,
,,,,,,,0.344791667,-0.324074074,1,0,0,,0,4,4,15,1,0.33,-0.33,42,001,2024-11-29_18h36.04.712,Attention_exp_legacy,2023.1.0,Win32,59.88023952,,,,,,,,,,,,,,,,,,,,,,,,,,,,,,,,,,,,,,,,,,,,,,,,,,,,,,,,
,,,,,,,-0.338541667,0.690740741,1,0,0,,0,5,5,8,1,-0.33,0.67,42,001,2024-11-29_18h36.04.712,Attention_exp_legacy,2023.1.0,Win32,59.88023952,,,,,,,,,,,,,,,,,,,,,,,,,,,,,,,,,,,,,,,,,,,,,,,,,,,,,,,,
,,,,,,,-0.33125,0.338888889,1,0,0,calibration_square,0,6,6,7,1,-0.33,0.33,42,001,2024-11-29_18h36.04.712,Attention_exp_legacy,2023.1.0,Win32,59.88023952,,,,,,,,,,,,,,,,,,,,,,,,,,,,,,,,,,,,,,,,,,,,,,,,,,,,,,,,
,,,,,,,-0.004166667,0.661111111,1,0,0,calibration_square,0,7,7,13,1,0,0.67,42,001,2024-11-29_18h36.04.712,Attention_exp_legacy,2023.1.0,Win32,59.88023952,,,,,,,,,,,,,,,,,,,,,,,,,,,,,,,,,,,,,,,,,,,,,,,,,,,,,,,,
,,,,,,,-0.328125,-0.661111111,1,0,0,calibration_square,0,8,8,4,1,-0.33,-0.67,42,001,2024-11-29_18h36.04.712,Attention_exp_legacy,2023.1.0,Win32,59.88023952,,,,,,,,,,,,,,,,,,,,,,,,,,,,,,,,,,,,,,,,,,,,,,,,,,,,,,,,
,,,,,,,0.31875,0.674074074,1,0,0,,0,9,9,18,1,0.33,0.67,42,001,2024-11-29_18h36.04.712,Attention_exp_legacy,2023.1.0,Win32,59.88023952,,,,,,,,,,,,,,,,,,,,,,,,,,,,,,,,,,,,,,,,,,,,,,,,,,,,,,,,
,,,,,,,-0.00625,0.32037037,1,0,0,calibration_square,0,10,10,12,1,0,0.33,42,001,2024-11-29_18h36.04.712,Attention_exp_legacy,2023.1.0,Win32,59.88023952,,,,,,,,,,,,,,,,,,,,,,,,,,,,,,,,,,,,,,,,,,,,,,,,,,,,,,,,
,,,,,,,-0.335416667,0.011111111,1,0,0,,0,11,11,6,1,-0.33,0,42,001,2024-11-29_18h36.04.712,Attention_exp_legacy,2023.1.0,Win32,59.88023952,,,,,,,,,,,,,,,,,,,,,,,,,,,,,,,,,,,,,,,,,,,,,,,,,,,,,,,,
,,,,,,,-0.682291667,0.32962963,1,0,0,,0,12,12,3,1,-0.67,0.33,42,001,2024-11-29_18h36.04.712,Attention_exp_legacy,2023.1.0,Win32,59.88023952,,,,,,,,,,,,,,,,,,,,,,,,,,,,,,,,,,,,,,,,,,,,,,,,,,,,,,,,
,,,,,,,-0.676041667,-0.683333333,1,0,0,,0,13,13,0,1,-0.67,-0.67,42,001,2024-11-29_18h36.04.712,Attention_exp_legacy,2023.1.0,Win32,59.88023952,,,,,,,,,,,,,,,,,,,,,,,,,,,,,,,,,,,,,,,,,,,,,,,,,,,,,,,,
,,,,,,,-0.663541667,-0.325925926,1,0,0,calibration_square,0,14,14,1,1,-0.67,-0.33,42,001,2024-11-29_18h36.04.712,Attention_exp_legacy,2023.1.0,Win32,59.88023952,,,,,,,,,,,,,,,,,,,,,,,,,,,,,,,,,,,,,,,,,,,,,,,,,,,,,,,,
,,,,,,,0.333333333,-0.007407407,1,0,0,calibration_square,0,15,15,16,1,0.33,0,42,001,2024-11-29_18h36.04.712,Attention_exp_legacy,2023.1.0,Win32,59.88023952,,,,,,,,,,,,,,,,,,,,,,,,,,,,,,,,,,,,,,,,,,,,,,,,,,,,,,,,
,,,,,,,-0.663541667,-0.001851852,1,0,0,calibration_square,0,16,16,2,1,-0.67,0,42,001,2024-11-29_18h36.04.712,Attention_exp_legacy,2023.1.0,Win32,59.88023952,,,,,,,,,,,,,,,,,,,,,,,,,,,,,,,,,,,,,,,,,,,,,,,,,,,,,,,,
,,,,,,,0.001041667,-0.324074074,1,0,0,calibration_square,0,17,17,10,1,0,-0.33,42,001,2024-11-29_18h36.04.712,Attention_exp_legacy,2023.1.0,Win32,59.88023952,,,,,,,,,,,,,,,,,,,,,,,,,,,,,,,,,,,,,,,,,,,,,,,,,,,,,,,,
,,,,,,,-0.00625,-0.662962963,1,0,0,calibration_square,0,18,18,9,1,0,-0.67,42,001,2024-11-29_18h36.04.712,Attention_exp_legacy,2023.1.0,Win32,59.88023952,,,,,,,,,,,,,,,,,,,,,,,,,,,,,,,,,,,,,,,,,,,,,,,,,,,,,,,,
,,,,,,,0.319791667,0.325925926,1,0,0,,0,19,19,17,1,0.33,0.33,42,001,2024-11-29_18h36.04.712,Attention_exp_legacy,2023.1.0,Win32,59.88023952,,,,,,,,,,,,,,,,,,,,,,,,,,,,,,,,,,,,,,,,,,,,,,,,,,,,,,,,
,,,,,,,0.659375,0.662962963,1,0,0,,0,20,20,19,1,0.67,0.67,42,001,2024-11-29_18h36.04.712,Attention_exp_legacy,2023.1.0,Win32,59.88023952,,,,,,,,,,,,,,,,,,,,,,,,,,,,,,,,,,,,,,,,,,,,,,,,,,,,,,,,
,,,,,,,,,,,,,,,,,,,,42,001,2024-11-29_18h36.04.712,Attention_exp_legacy,2023.1.0,Win32,59.88023952,"[1920,1080]","[640,480]",[-0.004166666666666667],[-0.4981481481481482],[1],[0],[0],[2.8623000000119205],"[""StartButton""]",[-0.16666666666666666],[0.42962962962962964],[1],[0],[0],[6.055100000023849],"[""Bus_label""]",Bus_label,1,7.0739,"[[-0.027083333333333334,-0.0962962962962963],[-0.027083333333333334,-0.0962962962962963],[-0.027083333333333334,-0.0962962962962963],[-0.027083333333333334,-0.0962962962962963],[-0.027083333333333334,-0.0962962962962963],[-0.027083333333333334,-0.0962962962962963],[-0.027083333333333334,-0.0962962962962963],[-0.027083333333333334,-0.0962962962962963],[-0.027083333333333334,-0.0962962962962963],[-0.027083333333333334,-0.0962962962962963],[-0.027083333333333334,-0.0962962962962963],[-0.027083333333333334,-0.0962962962962963],[-0.027083333333333334,-0.0962962962962963],[-0.027083333333333334,-0.0962962962962963],[-0.027083333333333334,-0.0962962962962963],[-0.027083333333333334,-0.0962962962962963],[-0.027083333333333334,-0.0962962962962963],[-0.027083333333333334,-0.0962962962962963],[-0.027083333333333334,-0.0962962962962963],[-0.027083333333333334,-0.0962962962962963],[-0.027083333333333334,-0.0962962962962963],[-0.027083333333333334,-0.0962962962962963],[-0.027083333333333334,-0.0962962962962963],[-0.027083333333333334,-0.0962962962962963],[-0.027083333333333334,-0.0962962962962963],[-0.027083333333333334,-0.0962962962962963],[-0.027083333333333334,-0.0962962962962963],[-0.027083333333333334,-0.0962962962962963],[-0.027083333333333334,-0.0962962962962963],[-0.027083333333333334,-0.0962962962962963],[-0.027083333333333334,-0.0962962962962963],[-0.027083333333333334,-0.0962962962962963],[-0.027083333333333334,-0.0962962962962963],[-0.027083333333333334,-0.0962962962962963],[-0.027083333333333334,-0.0962962962962963],[-0.027083333333333334,-0.0962962962962963],[-0.027083333333333334,-0.0962962962962963],[-0.027083333333333334,-0.0962962962962963],[-0.027083333333333334,-0.0962962962962963],[-0.027083333333333334,-0.0962962962962963],[-0.027083333333333334,-0.0962962962962963],[-0.027083333333333334,-0.0962962962962963],[-0.027083333333333334,-0.0962962962962963],[-0.027083333333333334,-0.0962962962962963],[-0.027083333333333334,-0.0962962962962963],[-0.027083333333333334,-0.0962962962962963],[-0.027083333333333334,-0.0962962962962963],[-0.027083333333333334,-0.0962962962962963],[-0.027083333333333334,-0.0962962962962963],[-0.027083333333333334,-0.0962962962962963],[-0.027083333333333334,-0.0962962962962963],[-0.027083333333333334,-0.0962962962962963],[-0.027083333333333334,-0.0962962962962963],[-0.027083333333333334,-0.0962962962962963],[-0.027083333333333334,-0.0962962962962963],[-0.027083333333333334,-0.0962962962962963],[-0.027083333333333334,-0.0962962962962963],[-0.027083333333333334,-0.0962962962962963],[-0.027083333333333334,-0.0962962962962963],[-0.027083333333333334,-0.0962962962962963],[-0.027083333333333334,-0.0962962962962963],[-0.027083333333333334,-0.0962962962962963],[-0.027083333333333334,-0.0962962962962963],[-0.027083333333333334,-0.0962962962962963],[-0.027083333333333334,-0.0962962962962963],[-0.027083333333333334,-0.0962962962962963],[-0.027083333333333334,-0.0962962962962963],[-0.027083333333333334,-0.0962962962962963],[-0.027083333333333334,-0.0962962962962963],[-0.027083333333333334,-0.0962962962962963],[-0.027083333333333334,-0.0962962962962963],[-0.027083333333333334,-0.0962962962962963],[-0.027083333333333334,-0.0962962962962963],[-0.027083333333333334,-0.0962962962962963],[-0.027083333333333334,-0.0962962962962963],[-0.027083333333333334,-0.0962962962962963],[-0.027083333333333334,-0.0962962962962963],[-0.027083333333333334,-0.0962962962962963],[-0.027083333333333334,-0.0962962962962963],[-0.027083333333333334,-0.0962962962962963],[-0.027083333333333334,-0.0962962962962963],[-0.027083333333333334,-0.0962962962962963],[-0.027083333333333334,-0.0962962962962963],[-0.027083333333333334,-0.0962962962962963],[-0.027083333333333334,-0.0962962962962963],[-0.027083333333333334,-0.0962962962962963],[-0.027083333333333334,-0.0962962962962963],[-0.027083333333333334,-0.0962962962962963],[-0.027083333333333334,-0.0962962962962963],[-0.027083333333333334,-0.0962962962962963],[-0.027083333333333334,-0.0962962962962963],[-0.027083333333333334,-0.0962962962962963],[-0.027083333333333334,-0.0962962962962963],[-0.027083333333333334,-0.0962962962962963],[-0.027083333333333334,-0.0962962962962963],[-0.027083333333333334,-0.0962962962962963],[-0.027083333333333334,-0.0962962962962963],[-0.027083333333333334,-0.0962962962962963],[-0.027083333333333334,-0.0962962962962963],[-0.027083333333333334,-0.0962962962962963],[-0.027083333333333334,-0.0962962962962963],[-0.027083333333333334,-0.0962962962962963],[-0.027083333333333334,-0.0962962962962963],[-0.027083333333333334,-0.0962962962962963],[-0.027083333333333334,-0.0962962962962963],[-0.027083333333333334,-0.0962962962962963],[-0.027083333333333334,-0.0962962962962963],[-0.027083333333333334,-0.0962962962962963],[-0.027083333333333334,-0.0962962962962963],[-0.027083333333333334,-0.0962962962962963],[-0.027083333333333334,-0.0962962962962963],[-0.027083333333333334,-0.0962962962962963],[-0.027083333333333334,-0.0962962962962963],[-0.027083333333333334,-0.0962962962962963],[-0.027083333333333334,-0.0962962962962963],[-0.027083333333333334,-0.0962962962962963],[-0.027083333333333334,-0.0962962962962963],[-0.027083333333333334,-0.0962962962962963],[-0.027083333333333334,-0.0962962962962963],[-0.027083333333333334,-0.0962962962962963],[-0.027083333333333334,-0.0962962962962963],[-0.027083333333333334,-0.0962962962962963],[-0.027083333333333334,-0.0962962962962963],[-0.027083333333333334,-0.0962962962962963],[-0.027083333333333334,-0.0962962962962963],[-0.027083333333333334,-0.0962962962962963],[-0.027083333333333334,-0.0962962962962963],[-0.027083333333333334,-0.0962962962962963],[-0.027083333333333334,-0.0962962962962963],[-0.027083333333333334,-0.0962962962962963],[-0.027083333333333334,-0.0962962962962963],[-0.027083333333333334,-0.0962962962962963],[-0.027083333333333334,-0.0962962962962963],[-0.027083333333333334,-0.0962962962962963],[-0.028125,-0.0962962962962963],[-0.03125,-0.09444444444444444],[-0.034375,-0.08518518518518518],[-0.0375,-0.07777777777777778],[-0.040625,-0.06851851851851852],[-0.046875,-0.05740740740740741],[-0.052083333333333336,-0.04814814814814815],[-0.05625,-0.04259259259259259],[-0.06041666666666667,-0.03333333333333333],[-0.06354166666666666,-0.027777777777777776],[-0.06666666666666667,-0.018518518518518517],[-0.06979166666666667,-0.012962962962962963],[-0.07083333333333333,-0.009259259259259259],[-0.071875,-0.005555555555555556],[-0.07291666666666667,-0.003703703703703704],[-0.07291666666666667,-0.001851851851851852],[-0.075,0],[-0.07708333333333334,0.003703703703703704],[-0.078125,0.007407407407407408],[-0.07916666666666666,0.009259259259259259],[-0.07916666666666666,0.009259259259259259],[-0.07916666666666666,0.009259259259259259],[-0.07916666666666666,0.009259259259259259],[-0.07916666666666666,0.009259259259259259],[-0.07916666666666666,0.009259259259259259],[-0.07916666666666666,0.009259259259259259],[-0.08125,0.009259259259259259],[-0.08125,0.009259259259259259],[-0.08125,0.009259259259259259],[-0.08125,0.009259259259259259],[-0.08125,0.009259259259259259],[-0.08125,0.009259259259259259],[-0.08125,0.009259259259259259],[-0.08125,0.009259259259259259],[-0.08125,0.009259259259259259],[-0.08125,0.009259259259259259],[-0.08125,0.009259259259259259],[-0.08125,0.009259259259259259],[-0.08125,0.009259259259259259],[-0.08229166666666667,0.009259259259259259],[-0.08229166666666667,0.009259259259259259],[-0.08229166666666667,0.009259259259259259],[-0.08333333333333333,0.009259259259259259],[-0.08333333333333333,0.009259259259259259],[-0.084375,0.007407407407407408],[-0.084375,0.007407407407407408],[-0.08541666666666667,0.005555555555555556],[-0.08645833333333333,0.003703703703703704],[-0.08645833333333333,0.001851851851851852],[-0.08854166666666667,-0.001851851851851852],[-0.08958333333333333,-0.003703703703703704],[-0.09166666666666666,-0.007407407407407408],[-0.09270833333333334,-0.009259259259259259],[-0.09270833333333334,-0.011111111111111112],[-0.09375,-0.012962962962962963],[-0.09583333333333334,-0.014814814814814815],[-0.09583333333333334,-0.018518518518518517],[-0.096875,-0.018518518518518517],[-0.096875,-0.018518518518518517],[-0.09791666666666667,-0.020370370370370372],[-0.09895833333333333,-0.022222222222222223],[-0.10104166666666667,-0.025925925925925925],[-0.10104166666666667,-0.027777777777777776],[-0.103125,-0.03148148148148148],[-0.10520833333333333,-0.037037037037037035],[-0.10729166666666666,-0.040740740740740744],[-0.109375,-0.046296296296296294],[-0.11145833333333334,-0.05],[-0.11354166666666667,-0.05740740740740741],[-0.11458333333333333,-0.06481481481481481],[-0.115625,-0.07037037037037037],[-0.11666666666666667,-0.07592592592592592],[-0.11875,-0.08333333333333333],[-0.11979166666666667,-0.08518518518518518],[-0.11979166666666667,-0.08888888888888889],[-0.11979166666666667,-0.09074074074074075],[-0.12083333333333333,-0.09259259259259259],[-0.12083333333333333,-0.09259259259259259],[-0.12083333333333333,-0.09259259259259259],[-0.12083333333333333,-0.09259259259259259],[-0.12083333333333333,-0.09259259259259259],[-0.12083333333333333,-0.09259259259259259],[-0.12083333333333333,-0.09259259259259259],[-0.12083333333333333,-0.09259259259259259],[-0.12083333333333333,-0.09259259259259259],[-0.12083333333333333,-0.09259259259259259],[-0.12083333333333333,-0.09259259259259259],[-0.12083333333333333,-0.09259259259259259],[-0.12083333333333333,-0.09259259259259259],[-0.12083333333333333,-0.09259259259259259],[-0.12083333333333333,-0.09259259259259259],[-0.12083333333333333,-0.09259259259259259],[-0.12083333333333333,-0.09259259259259259],[-0.12083333333333333,-0.09259259259259259],[-0.12083333333333333,-0.09259259259259259],[-0.12083333333333333,-0.09259259259259259],[-0.12083333333333333,-0.09259259259259259],[-0.12083333333333333,-0.09259259259259259],[-0.12083333333333333,-0.09259259259259259],[-0.12083333333333333,-0.09259259259259259],[-0.12083333333333333,-0.09259259259259259],[-0.12083333333333333,-0.09259259259259259],[-0.12083333333333333,-0.09259259259259259],[-0.12083333333333333,-0.09259259259259259],[-0.12083333333333333,-0.09259259259259259],[-0.12083333333333333,-0.09259259259259259],[-0.12083333333333333,-0.09259259259259259],[-0.12083333333333333,-0.09259259259259259],[-0.12083333333333333,-0.09074074074074075],[-0.115625,-0.07777777777777778],[-0.11354166666666667,-0.07037037037037037],[-0.10833333333333334,-0.05740740740740741],[-0.10208333333333333,-0.040740740740740744],[-0.09583333333333334,-0.03148148148148148],[-0.0875,-0.020370370370370372],[-0.07916666666666666,-0.009259259259259259],[-0.06979166666666667,-0.003703703703703704],[-0.06041666666666667,0.001851851851851852],[-0.04895833333333333,0.007407407407407408],[-0.04375,0.011111111111111112],[-0.03229166666666667,0.012962962962962963],[-0.0125,0.016666666666666666],[0.003125,0.016666666666666666],[0.020833333333333332,0.016666666666666666],[0.036458333333333336,0.016666666666666666],[0.05520833333333333,0.016666666666666666],[0.071875,0.016666666666666666],[0.09375,0.011111111111111112],[0.11354166666666667,0.005555555555555556],[0.13333333333333333,0.001851851851851852],[0.15104166666666666,-0.003703703703703704],[0.1625,-0.005555555555555556],[0.17083333333333334,-0.007407407407407408],[0.175,-0.009259259259259259],[0.178125,-0.009259259259259259],[0.17916666666666667,-0.011111111111111112],[0.17916666666666667,-0.011111111111111112],[0.17916666666666667,-0.011111111111111112],[0.17916666666666667,-0.011111111111111112],[0.17916666666666667,-0.011111111111111112],[0.17916666666666667,-0.011111111111111112],[0.17916666666666667,-0.011111111111111112],[0.17916666666666667,-0.011111111111111112],[0.17916666666666667,-0.011111111111111112],[0.17916666666666667,-0.011111111111111112],[0.17916666666666667,-0.011111111111111112],[0.17916666666666667,-0.011111111111111112],[0.17916666666666667,-0.011111111111111112],[0.17916666666666667,-0.011111111111111112],[0.175,-0.012962962962962963],[0.16145833333333334,-0.022222222222222223],[0.15625,-0.025925925925925925],[0.14375,-0.037037037037037035],[0.11875,-0.05555555555555555],[0.10416666666666667,-0.06481481481481481],[0.09583333333333334,-0.07407407407407407],[0.07291666666666667,-0.09074074074074075],[0.058333333333333334,-0.10185185185185185],[0.04479166666666667,-0.11296296296296296],[0.03229166666666667,-0.12222222222222222],[0.021875,-0.13148148148148148],[0.013541666666666667,-0.13703703703703704],[0.005208333333333333,-0.1425925925925926],[-0.005208333333333333,-0.1537037037037037],[-0.011458333333333333,-0.1574074074074074],[-0.017708333333333333,-0.16111111111111112],[-0.025,-0.16666666666666666],[-0.03229166666666667,-0.17222222222222222],[-0.035416666666666666,-0.17592592592592593],[-0.03958333333333333,-0.17777777777777778],[-0.040625,-0.17962962962962964],[-0.04375,-0.1814814814814815],[-0.04479166666666667,-0.18333333333333332],[-0.04479166666666667,-0.18333333333333332],[-0.04583333333333333,-0.18333333333333332],[-0.04791666666666667,-0.18518518518518517],[-0.05,-0.18888888888888888],[-0.05,-0.18888888888888888],[-0.051041666666666666,-0.18888888888888888],[-0.051041666666666666,-0.18888888888888888],[-0.051041666666666666,-0.18888888888888888],[-0.051041666666666666,-0.18703703703703703],[-0.051041666666666666,-0.1685185185185185],[-0.05520833333333333,-0.12407407407407407],[-0.06458333333333334,-0.03518518518518519],[-0.08333333333333333,0.07037037037037037],[-0.109375,0.17592592592592593],[-0.13229166666666667,0.26666666666666666],[-0.146875,0.32592592592592595],[-0.16145833333333334,0.3888888888888889],[-0.16458333333333333,0.4166666666666667],[-0.16770833333333332,0.43333333333333335],[-0.16875,0.4388888888888889],[-0.17083333333333334,0.4444444444444444],[-0.17083333333333334,0.4444444444444444],[-0.17083333333333334,0.44814814814814813],[-0.171875,0.45185185185185184],[-0.17395833333333333,0.45555555555555555],[-0.17395833333333333,0.45555555555555555],[-0.17395833333333333,0.45555555555555555],[-0.17395833333333333,0.45555555555555555],[-0.17395833333333333,0.45555555555555555],[-0.17395833333333333,0.45555555555555555],[-0.17395833333333333,0.45555555555555555],[-0.17395833333333333,0.45555555555555555],[-0.17395833333333333,0.45185185185185184],[-0.17395833333333333,0.4444444444444444],[-0.17395833333333333,0.4388888888888889],[-0.17395833333333333,0.43703703703703706],[-0.17395833333333333,0.4351851851851852],[-0.16979166666666667,0.43148148148148147],[-0.16666666666666666,0.42962962962962964],[-0.16666666666666666,0.42962962962962964],[-0.16666666666666666,0.42962962962962964],[-0.16666666666666666,0.42962962962962964],[-0.16666666666666666,0.42962962962962964],[-0.16666666666666666,0.42962962962962964],[-0.16666666666666666,0.42962962962962964],[-0.16666666666666666,0.42962962962962964],[-0.16666666666666666,0.42962962962962964],[-0.16666666666666666,0.42962962962962964],[-0.16666666666666666,0.42962962962962964],[-0.16666666666666666,0.42962962962962964],[-0.16666666666666666,0.42962962962962964],[-0.16666666666666666,0.42962962962962964],[-0.16666666666666666,0.42962962962962964],[-0.16666666666666666,0.42962962962962964],[-0.16666666666666666,0.42962962962962964],[-0.16666666666666666,0.42962962962962964],[-0.16666666666666666,0.42962962962962964],[-0.16666666666666666,0.42962962962962964],[-0.16666666666666666,0.42962962962962964],[-0.16666666666666666,0.42962962962962964],[-0.16666666666666666,0.42962962962962964],[-0.16666666666666666,0.42962962962962964],[-0.16666666666666666,0.42962962962962964],[-0.16666666666666666,0.42962962962962964],[-0.16666666666666666,0.42962962962962964],[-0.16666666666666666,0.42962962962962964],[-0.16666666666666666,0.42962962962962964],[-0.16666666666666666,0.42962962962962964],[-0.16666666666666666,0.42962962962962964],[-0.16666666666666666,0.42962962962962964],[-0.16666666666666666,0.42962962962962964],[-0.16666666666666666,0.42962962962962964],[-0.16666666666666666,0.42962962962962964],[-0.16666666666666666,0.42962962962962964],[-0.16666666666666666,0.42962962962962964],[-0.16666666666666666,0.42962962962962964],[-0.16666666666666666,0.42962962962962964],[-0.16666666666666666,0.42962962962962964],[-0.16666666666666666,0.42962962962962964],[-0.16666666666666666,0.42962962962962964],[-0.16666666666666666,0.42962962962962964],[-0.16666666666666666,0.42962962962962964],[-0.16666666666666666,0.42962962962962964],[-0.16666666666666666,0.42962962962962964],[-0.16666666666666666,0.42962962962962964],[-0.16666666666666666,0.42962962962962964],[-0.16666666666666666,0.42962962962962964],[-0.16666666666666666,0.42962962962962964],[-0.16666666666666666,0.42962962962962964],[-0.16666666666666666,0.42962962962962964],[-0.16666666666666666,0.42962962962962964],[-0.16666666666666666,0.42962962962962964],[-0.16666666666666666,0.42962962962962964],[-0.16666666666666666,0.42962962962962964],[-0.16666666666666666,0.42962962962962964],[-0.16666666666666666,0.42962962962962964],[-0.16666666666666666,0.42962962962962964],[-0.16666666666666666,0.42962962962962964],[-0.16666666666666666,0.42962962962962964],[-0.16666666666666666,0.42962962962962964],[-0.16666666666666666,0.42962962962962964],[-0.16666666666666666,0.42962962962962964],[-0.16666666666666666,0.42962962962962964],[-0.16666666666666666,0.42962962962962964],[-0.16666666666666666,0.42962962962962964],[-0.16666666666666666,0.42962962962962964],[-0.16666666666666666,0.42962962962962964],[-0.16666666666666666,0.42962962962962964],[-0.16666666666666666,0.42962962962962964],[-0.16666666666666666,0.42962962962962964],[-0.16666666666666666,0.42962962962962964],[-0.16666666666666666,0.42962962962962964],[-0.16666666666666666,0.42962962962962964],[-0.16666666666666666,0.42962962962962964],[-0.16666666666666666,0.42962962962962964],[-0.16666666666666666,0.42962962962962964],[-0.16666666666666666,0.42962962962962964]]","[[0.03937499999999995,-0.02555555555555547],[0.03937499999999995,-0.02555555555555547],[0.02677083333333338,-0.027962962962963005],[0.02677083333333338,-0.027962962962963005],[0.03239583333333336,-0.02166666666666675],[0.03239583333333336,-0.02166666666666675],[0.011562500000000024,-0.040740740740740744],[-0.00458333333333331,-0.07851851851851847],[-0.03677083333333329,-0.11444444444444446],[-0.05541666666666671,-0.12907407407407406],[-0.06499999999999997,-0.1594444444444445],[-0.06270833333333338,-0.21074074074074076],[-0.07895833333333328,-0.2566666666666667],[-0.09083333333333338,-0.30537037037037035],[-0.10218750000000003,-0.3501851851851852],[-0.11354166666666667,-0.395],[-0.1436458333333333,-0.4155555555555555],[-0.1782291666666667,-0.4235185185185185],[-0.2085416666666667,-0.4131481481481482],[-0.24104166666666665,-0.42000000000000004],[-0.3032291666666667,-0.4072222222222222],[-0.3654166666666666,-0.39444444444444443],[-0.40510416666666665,-0.38981481481481484],[-0.42135416666666664,-0.39296296296296296],[-0.4418750000000001,-0.40481481481481485],[-0.45593750000000005,-0.41759259259259257],[-0.4605208333333334,-0.4142592592592592],[-0.46333333333333326,-0.41888888888888887],[-0.45437500000000003,-0.44370370370370377],[-0.4545833333333333,-0.4468518518518519],[-0.44197916666666665,-0.43796296296296294],[-0.4217708333333333,-0.442037037037037],[-0.4061458333333333,-0.4374074074074074],[-0.4196875,-0.42685185185185187],[-0.4247916666666666,-0.4007407407407407],[-0.43635416666666665,-0.3737037037037037],[-0.4304166666666667,-0.3618518518518518],[-0.4262500000000001,-0.34203703703703703],[-0.40822916666666664,-0.35351851851851845],[-0.40822916666666664,-0.35351851851851845],[-0.3891666666666667,-0.3707407407407407],[-0.3563541666666667,-0.3933333333333333],[-0.32697916666666665,-0.39814814814814814],[-0.32697916666666665,-0.39814814814814814],[-0.30281250000000004,-0.4111111111111111],[-0.27843749999999995,-0.41648148148148145],[-0.25187499999999996,-0.432962962962963],[-0.22531249999999994,-0.4494444444444444],[-0.21031249999999999,-0.4918518518518519],[-0.1953125,-0.5342592592592592],[-0.1905208333333333,-0.545],[-0.1857291666666666,-0.5557407407407408],[-0.19197916666666662,-0.5877777777777777],[-0.19520833333333332,-0.5864814814814815],[-0.20562499999999997,-0.6027777777777777],[-0.18177083333333333,-0.6309259259259259],[-0.14500000000000005,-0.6461111111111111],[-0.12052083333333338,-0.6688888888888889],[-0.08718750000000004,-0.6872222222222223],[-0.05385416666666672,-0.7055555555555556],[-0.012083333333333357,-0.6942592592592592],[0.0296875,-0.682962962962963],[0.07156250000000004,-0.6651851851851852],[0.10625,-0.6855555555555556],[0.10625,-0.6855555555555556],[0.1466666666666666,-0.6801851851851852],[0.1466666666666666,-0.6801851851851852],[0.19166666666666668,-0.6759259259259259],[0.2085416666666667,-0.662962962962963],[0.23770833333333338,-0.6424074074074073],[0.26614583333333336,-0.6177777777777779],[0.2945833333333333,-0.5931481481481482],[0.2945833333333333,-0.5931481481481482],[0.31906249999999997,-0.6066666666666667],[0.3310416666666666,-0.6277777777777778],[0.34916666666666674,-0.6374074074074074],[0.34916666666666674,-0.6374074074074074],[0.3664583333333333,-0.6553703703703704],[0.3881249999999999,-0.6725925925925925],[0.3671875,-0.6687037037037038],[0.3658333333333334,-0.6868518518518518],[0.3658333333333334,-0.6868518518518518],[0.36447916666666674,-0.705],[0.3502083333333334,-0.700925925925926],[0.3412499999999999,-0.7014814814814815],[0.33083333333333326,-0.6979629629629629],[0.3289583333333333,-0.6925925925925925],[0.32708333333333334,-0.6872222222222223],[0.32041666666666657,-0.6616666666666667],[0.3352083333333333,-0.6564814814814814],[0.3054166666666667,-0.6696296296296297],[0.2631249999999999,-0.6762962962962963],[0.1974999999999999,-0.6794444444444444],[0.1974999999999999,-0.6794444444444444],[0.14708333333333337,-0.6944444444444444],[0.10739583333333323,-0.6955555555555556],[0.065625,-0.6799999999999999],[0.02781250000000005,-0.6587037037037037],[-0.026145833333333358,-0.6594444444444445],[-0.06968749999999997,-0.6766666666666666],[-0.125,-0.6825925925925926],[-0.1171875,-0.6507407407407407],[-0.1258333333333333,-0.6244444444444445],[-0.09479166666666666,-0.6374074074074074],[-0.08406250000000005,-0.6240740740740741],[-0.08937499999999995,-0.62],[-0.08406250000000005,-0.6303703703703704],[-0.07875000000000003,-0.6407407407407407],[-0.08135416666666669,-0.6055555555555555],[-0.08875000000000005,-0.5657407407407408],[-0.10270833333333336,-0.5142592592592592],[-0.12593749999999998,-0.49611111111111106],[-0.128125,-0.48259259259259263],[-0.1466666666666666,-0.43333333333333335],[-0.15833333333333333,-0.4153703703703704],[-0.17000000000000004,-0.39740740740740743],[-0.19520833333333332,-0.37111111111111106],[-0.22041666666666668,-0.3448148148148148],[-0.23552083333333335,-0.32833333333333337],[-0.25062500000000004,-0.3118518518518518],[-0.27364583333333337,-0.3303703703703703],[-0.27364583333333337,-0.3303703703703703],[-0.2897916666666667,-0.33555555555555555],[-0.3042708333333334,-0.3292592592592593],[-0.3042708333333334,-0.3292592592592593],[-0.32354166666666667,-0.3264814814814815],[-0.32937500000000003,-0.31870370370370377],[-0.35489583333333335,-0.317037037037037],[-0.36666666666666664,-0.31055555555555553],[-0.3784374999999999,-0.30407407407407405],[-0.33697916666666666,-0.34574074074074074],[-0.2955208333333334,-0.38740740740740737],[-0.24718749999999995,-0.38370370370370366],[-0.24718749999999995,-0.38370370370370366],[-0.20572916666666666,-0.3933333333333333],[-0.20572916666666666,-0.3933333333333333],[-0.1736458333333334,-0.35833333333333334],[-0.13791666666666663,-0.3235185185185185],[-0.13791666666666663,-0.3235185185185185],[-0.1219791666666667,-0.29129629629629633],[-0.06281249999999995,-0.2661111111111111],[-0.06281249999999995,-0.2661111111111111],[-0.03093750000000005,-0.23444444444444448],[0.014895833333333285,-0.2022222222222222],[0.00458333333333331,-0.1366666666666667],[-0.003958333333333286,-0.0727777777777778],[-0.024583333333333356,-0.04055555555555551],[-0.04520833333333331,-0.008333333333333333],[-0.04520833333333331,-0.008333333333333333],[-0.06239583333333331,-0.0020370370370370794],[-0.07843749999999995,0.007962962962962878],[-0.08166666666666664,0.0016666666666666245],[-0.08166666666666664,0.0016666666666666245],[-0.10249999999999998,-0.01907407407407399],[-0.10833333333333334,-0.04611111111111107],[-0.128125,-0.07370370370370373],[-0.13927083333333337,-0.10462962962962963],[-0.15416666666666667,-0.12888888888888894],[-0.15125000000000005,-0.10537037037037032],[-0.15249999999999997,-0.10388888888888893],[-0.14916666666666673,-0.14888888888888885],[-0.1438541666666667,-0.16203703703703703],[-0.14416666666666664,-0.1705555555555556],[-0.15041666666666664,-0.1514814814814815],[-0.16927083333333334,-0.10999999999999996],[-0.18812500000000001,-0.06851851851851852],[-0.20260416666666667,-0.017407407407407365],[-0.20416666666666666,0.010740740740740657],[-0.24260416666666665,0.009259259259259259],[-0.2768749999999999,0.029814814814814856],[-0.2768749999999999,0.029814814814814856],[-0.2939583333333334,0.07407407407407407],[-0.30885416666666665,0.09185185185185189],[-0.3111458333333334,0.12388888888888884],[-0.3116666666666667,0.17462962962962955],[-0.29406249999999995,0.16537037037037028],[-0.28072916666666664,0.15685185185185194],[-0.2635416666666667,0.14314814814814805],[-0.26458333333333334,0.13222222222222219],[-0.23864583333333336,0.1316666666666667],[-0.1961458333333333,0.12037037037037036],[-0.16145833333333334,0.11055555555555564],[-0.15739583333333335,0.0977777777777777],[-0.15739583333333335,0.0977777777777777],[-0.1430208333333333,0.08092592592592601],[-0.13718750000000005,0.07388888888888885],[-0.12385416666666664,0.08259259259259263],[-0.12385416666666664,0.08259259259259263],[-0.1264583333333333,0.09277777777777782],[-0.12604166666666666,0.10240740740740732],[-0.09125000000000003,0.11851851851851852],[-0.06395833333333331,0.1316666666666667],[-0.059062500000000046,0.13629629629629633],[-0.06843750000000005,0.14222222222222214],[-0.08072916666666667,0.14444444444444443],[-0.08072916666666667,0.14444444444444443],[-0.10333333333333337,0.1507407407407407],[-0.10218750000000003,0.15851851851851856],[-0.09885416666666665,0.1479629629629629],[-0.07531249999999995,0.13518518518518519],[-0.07531249999999995,0.1088888888888888],[-0.096875,0.10240740740740732],[-0.12510416666666668,0.10203703703703708],[-0.14750000000000002,0.12092592592592584],[-0.15510416666666665,0.12370370370370362],[-0.13333333333333333,0.12777777777777777],[-0.11104166666666669,0.12740740740740733],[-0.11104166666666669,0.12740740740740733],[-0.10864583333333329,0.09962962962962954],[-0.14270833333333333,0.11722222222222214],[-0.18125,0.11629629629629622],[-0.18125,0.11629629629629622],[-0.17687499999999995,0.13203703703703695],[-0.19604166666666673,0.14444444444444443],[-0.20843750000000003,0.10759259259259263],[-0.19624999999999998,0.08185185185185194],[-0.22385416666666663,0.08925925925925934],[-0.2514583333333333,0.09666666666666675],[-0.2727083333333333,0.09648148148148153],[-0.29104166666666664,0.09370370370370375],[-0.29125,0.0742592592592593],[-0.28624999999999995,0.08796296296296297],[-0.30625,0.08296296296296288],[-0.30791666666666667,0.06796296296296304],[-0.2859375,0.0485185185185186],[-0.28854166666666664,0.01796296296296305],[-0.28531249999999997,-0.016666666666666666],[-0.2820833333333333,-0.05129629629629638],[-0.2819791666666667,-0.08407407407407404],[-0.2735416666666667,-0.12925925925925927],[-0.27770833333333333,-0.1655555555555555],[-0.2826041666666666,-0.21648148148148144],[-0.31218750000000006,-0.2588888888888889],[-0.3420833333333333,-0.29907407407407405],[-0.3411458333333333,-0.29814814814814816],[-0.34020833333333333,-0.2972222222222222],[-0.3141666666666667,-0.3066666666666667],[-0.288125,-0.31611111111111106],[-0.2747916666666666,-0.33259259259259266],[-0.27010416666666665,-0.33851851851851855],[-0.27010416666666665,-0.33851851851851855],[-0.2552083333333333,-0.3455555555555556],[-0.23697916666666666,-0.36314814814814816],[-0.23697916666666666,-0.36314814814814816],[-0.18739583333333332,-0.31592592592592594],[-0.18739583333333332,-0.31592592592592594],[-0.14114583333333333,-0.3],[-0.12260416666666671,-0.30925925925925923],[-0.11625000000000002,-0.30481481481481487],[-0.11625000000000002,-0.30481481481481487],[-0.0984375,-0.31574074074074077],[-0.08312499999999995,-0.33055555555555555],[-0.049270833333333285,-0.3109259259259259],[-0.049270833333333285,-0.3109259259259259],[-0.0390625,-0.28425925925925927],[-0.03177083333333333,-0.2803703703703703],[-0.03177083333333333,-0.2803703703703703],[-0.01114583333333338,-0.24666666666666665],[0.02374999999999995,-0.21666666666666667],[0.06197916666666667,-0.15537037037037033],[0.06197916666666667,-0.15537037037037033],[0.07083333333333333,-0.08407407407407404],[0.12354166666666658,-0.05703703703703706],[0.125,-0.020185185185185143],[0.125,-0.020185185185185143],[0.10541666666666671,0.056296296296296254],[0.07489583333333343,0.1],[0.06833333333333323,0.13851851851851843],[0.06833333333333323,0.13851851851851843],[0.07895833333333328,0.20722222222222217],[0.09729166666666676,0.26222222222222225],[0.08010416666666677,0.2492592592592593],[0.07083333333333333,0.22407407407407406],[0.07083333333333333,0.22407407407407406],[0.06197916666666667,0.2124074074074075],[0.013645833333333357,0.2577777777777779],[-0.007187499999999976,0.3096296296296297],[0.0003124999999999526,0.318888888888889],[0.008749999999999977,0.3266666666666666],[0.024791666666666618,0.330925925925926],[0.014895833333333285,0.3351851851851852],[-0.019375000000000024,0.3338888888888888],[-0.02947916666666662,0.34],[-0.04750000000000002,0.35833333333333334],[-0.024270833333333287,0.342962962962963],[-0.024270833333333287,0.342962962962963],[0.00791666666666669,0.30407407407407416],[0.029270833333333357,0.23851851851851844],[0.03260416666666662,0.1874074074074075],[0.03260416666666662,0.1874074074074075],[0.04083333333333338,0.15685185185185194],[0.041458333333333285,0.12981481481481486],[0.05614583333333331,0.08759259259259251],[0.05614583333333331,0.08759259259259251],[0.11749999999999995,0.06185185185185181],[0.15489583333333337,0.053703703703703705],[0.1772916666666667,0.051111111111111156],[0.16656250000000009,0.07537037037037045],[0.1482291666666666,0.07592592592592592],[0.1482291666666666,0.07592592592592592],[0.1352083333333333,0.10574074074074079],[0.14260416666666675,0.12407407407407407],[0.13166666666666677,0.13555555555555565],[0.13166666666666677,0.13555555555555565],[0.12489583333333343,0.15611111111111103],[0.12489583333333343,0.15611111111111103],[0.13093750000000004,0.17462962962962955],[0.08270833333333343,0.16740740740740737],[0.04906250000000002,0.14685185185185176],[0.04906250000000002,0.14685185185185176],[0.02645833333333331,0.13574074074074066],[0.0234375,0.0514814814814814],[0.0010416666666666667,0.01907407407407399],[-0.010520833333333358,0.00851851851851856],[-0.010520833333333358,0.00851851851851856],[-0.024687500000000046,-0.032407407407407406],[-0.025,-0.07000000000000002],[-0.03343750000000002,-0.0883333333333333],[-0.03343750000000002,-0.0883333333333333],[-0.049270833333333285,-0.11814814814814817],[-0.07083333333333333,-0.14870370370370373],[-0.07083333333333333,-0.14870370370370373],[-0.08999999999999998,-0.1764814814814815],[-0.10437500000000005,-0.18129629629629626],[-0.12468750000000005,-0.13111111111111112],[-0.11916666666666664,-0.11203703703703703],[-0.11916666666666664,-0.11203703703703703],[-0.11968749999999997,-0.1294444444444444],[-0.12374999999999996,-0.13962962962962958],[-0.11802083333333328,-0.11833333333333329],[-0.11958333333333329,-0.16277777777777774],[-0.1265625,-0.19370370370370374],[-0.12458333333333335,-0.20981481481481484],[-0.12166666666666662,-0.21888888888888886],[-0.11656249999999997,-0.2531481481481481],[-0.11656249999999997,-0.2531481481481481],[-0.11854166666666661,-0.3007407407407407],[-0.1454166666666667,-0.35611111111111116],[-0.1454166666666667,-0.35611111111111116],[-0.13468749999999996,-0.37907407407407406],[-0.14854166666666668,-0.38722222222222225],[-0.17218749999999997,-0.42685185185185187],[-0.17218749999999997,-0.42685185185185187],[-0.175,-0.4196296296296297],[-0.1814583333333334,-0.40907407407407403],[-0.18354166666666671,-0.4033333333333334],[-0.18354166666666671,-0.4033333333333334],[-0.18968750000000004,-0.38],[-0.20437500000000006,-0.3907407407407407],[-0.225,-0.3707407407407407],[-0.20249999999999999,-0.33666666666666667],[-0.21052083333333335,-0.3264814814814815],[-0.1890625,-0.302962962962963],[-0.16760416666666664,-0.2794444444444444],[-0.16697916666666662,-0.25037037037037035],[-0.16270833333333337,-0.22462962962962965],[-0.1578125,-0.18888888888888888],[-0.14979166666666663,-0.17777777777777778],[-0.14020833333333335,-0.15870370370370368],[-0.14020833333333335,-0.15870370370370368],[-0.13062499999999996,-0.13962962962962958],[-0.1296875,-0.13759259259259263],[-0.1414583333333333,-0.12240740740740745],[-0.1414583333333333,-0.12240740740740745],[-0.15916666666666662,-0.10833333333333334],[-0.1482291666666666,-0.12370370370370372],[-0.11916666666666664,-0.1227777777777778],[-0.10291666666666661,-0.13777777777777775],[-0.0875,-0.15351851851851847],[-0.0889583333333333,-0.19740740740740745],[-0.07885416666666671,-0.20185185185185187],[-0.06760416666666665,-0.21296296296296297],[-0.05927083333333331,-0.21277777777777773],[-0.03802083333333333,-0.22555555555555556],[-0.03802083333333333,-0.22555555555555556],[-0.028645833333333332,-0.25092592592592594],[-0.04781249999999997,-0.24111111111111108],[-0.07364583333333338,-0.262037037037037],[-0.07989583333333337,-0.27444444444444444],[-0.0859375,-0.29611111111111105],[-0.08531249999999997,-0.3164814814814814],[-0.09229166666666669,-0.362962962962963],[-0.10197916666666665,-0.40370370370370373],[-0.10197916666666665,-0.40370370370370373],[-0.11166666666666672,-0.4414814814814814],[-0.11625000000000002,-0.48259259259259263],[-0.10447916666666662,-0.5161111111111111],[-0.0984375,-0.5633333333333334],[-0.0984375,-0.5633333333333334],[-0.09114583333333333,-0.6094444444444445],[-0.09114583333333333,-0.6094444444444445],[-0.09739583333333333,-0.6522222222222221],[-0.12000000000000005,-0.6681481481481482],[-0.13239583333333335,-0.6572222222222222],[-0.14010416666666667,-0.6622222222222223],[-0.14624999999999996,-0.6662962962962963],[-0.1648958333333333,-0.6696296296296297],[-0.17697916666666663,-0.6570370370370371],[-0.21843750000000003,-0.6407407407407407],[-0.2439583333333334,-0.6205555555555556],[-0.2794791666666666,-0.6024074074074074],[-0.30822916666666667,-0.5801851851851852],[-0.3051041666666666,-0.587037037037037],[-0.30197916666666663,-0.5938888888888889],[-0.305625,-0.5842592592592593],[-0.30927083333333333,-0.5746296296296296],[-0.3023958333333333,-0.5833333333333334],[-0.30739583333333337,-0.6048148148148148],[-0.2938541666666667,-0.6203703703703703],[-0.290625,-0.6318518518518518],[-0.2877083333333334,-0.6475925925925926],[-0.28479166666666667,-0.6633333333333333],[-0.28479166666666667,-0.6633333333333333],[-0.29739583333333336,-0.6768518518518518],[-0.29583333333333334,-0.6794444444444444],[-0.3198958333333334,-0.6844444444444445],[-0.31927083333333334,-0.6922222222222223],[-0.31218750000000006,-0.7020370370370371],[-0.3145833333333333,-0.7094444444444444],[-0.31062500000000004,-0.7214814814814815],[-0.321875,-0.7342592592592593],[-0.3242708333333333,-0.7424074074074074],[-0.30927083333333333,-0.7335185185185186],[-0.30927083333333333,-0.7335185185185186]]","[[0.03937499999999995,-0.02555555555555547,0.00019999998807662678],[0.03937499999999995,-0.02555555555555547,0.05039999997615752],[0.02677083333333338,-0.027962962962963005,0.06059999996423926],[0.02677083333333338,-0.027962962962963005,0.07399999999999807],[0.03239583333333336,-0.02166666666666675,0.09059999996423329],[0.03239583333333336,-0.02166666666666675,0.10730000001191797],[0.011562500000000024,-0.040740740740740744,0.12400000000000233],[-0.00458333333333331,-0.07851851851851847,0.14069999998807958],[-0.03677083333333329,-0.11444444444444446,0.15759999996423346],[-0.05541666666666671,-0.12907407407407406,0.17389999997615746],[-0.06499999999999997,-0.1594444444444445,0.1905999999642347],[-0.06270833333333338,-0.21074074074074076,0.20719999998807737],[-0.07895833333333328,-0.2566666666666667,0.22389999997615462],[-0.09083333333333338,-0.30537037037037035,0.240699999988081],[-0.10218750000000003,-0.3501851851851852,0.2583999999761559],[-0.11354166666666667,-0.395,0.2758999999761542],[-0.1436458333333333,-0.4155555555555555,0.29050000000000153],[-0.1782291666666667,-0.4235185185185185,0.3071999999880788],[-0.2085416666666667,-0.4131481481481482,0.32389999997615604],[-0.24104166666666665,-0.42000000000000004,0.3404999999999987],[-0.3032291666666667,-0.4072222222222222,0.357300000011918],[-0.3654166666666666,-0.39444444444444443,0.37530000001191866],[-0.40510416666666665,-0.38981481481481484,0.39059999996423755],[-0.42135416666666664,-0.39296296296296296,0.4071999999880802],[-0.4418750000000001,-0.40481481481481485,0.4239999999999995],[-0.45593750000000005,-0.41759259259259257,0.4405999999642347],[-0.4605208333333334,-0.4142592592592592,0.45719999998807737],[-0.46333333333333326,-0.41888888888888887,0.47449999999999903],[-0.45437500000000003,-0.44370370370370377,0.490599999964239],[-0.4545833333333333,-0.4468518518518519,0.5073000000119166],[-0.44197916666666665,-0.43796296296296294,0.5240000000000009],[-0.4217708333333333,-0.442037037037037,0.5405000000000015],[-0.4061458333333333,-0.4374074074074074,0.5571999999880788],[-0.4196875,-0.42685185185185187,0.5753000000119215],[-0.4247916666666666,-0.4007407407407407,0.5920999999642333],[-0.43635416666666665,-0.3737037037037037,0.6090999999642364],[-0.4304166666666667,-0.3618518518518518,0.6238000000119186],[-0.4262500000000001,-0.34203703703703703,0.6405999999642376],[-0.40822916666666664,-0.35351851851851845,0.6573999999761568],[-0.40822916666666664,-0.35351851851851845,0.6738999999761575],[-0.3891666666666667,-0.3707407407407407,0.6905999999642347],[-0.3563541666666667,-0.3933333333333333,0.707399999976154],[-0.32697916666666665,-0.39814814814814814,0.7238999999761546],[-0.32697916666666665,-0.39814814814814814,0.740599999964239],[-0.30281250000000004,-0.4111111111111111,0.7573000000119166],[-0.27843749999999995,-0.41648148148148145,0.7751999999880752],[-0.25187499999999996,-0.432962962962963,0.7905999999642361],[-0.22531249999999994,-0.4494444444444444,0.8071999999880788],[-0.21031249999999999,-0.4918518518518519,0.823899999976156],[-0.1953125,-0.5342592592592592,0.8405999999642333],[-0.1905208333333333,-0.545,0.857199999988076],[-0.1857291666666666,-0.5557407407407408,0.8740999999642369],[-0.19197916666666662,-0.5877777777777777,0.8904999999999959],[-0.19520833333333332,-0.5864814814814815,0.9071999999880802],[-0.20562499999999997,-0.6027777777777777,0.9238999999761575],[-0.18177083333333333,-0.6309259259259259,0.9409999999999954],[-0.14500000000000005,-0.6461111111111111,0.9605999999642378],[-0.12052083333333338,-0.6688888888888889,0.9760999999642337],[-0.08718750000000004,-0.6872222222222223,0.990599999964239],[-0.05385416666666672,-0.7055555555555556,1.0078999999761535],[-0.012083333333333357,-0.6942592592592592,1.0238999999761589],[0.0296875,-0.682962962962963,1.0405000000000015],[0.07156250000000004,-0.6651851851851852,1.0571999999880788],[0.10625,-0.6855555555555556,1.0786999999880749],[0.10625,-0.6855555555555556,1.090899999976159],[0.1466666666666666,-0.6801851851851852,1.107300000011918],[0.1466666666666666,-0.6801851851851852,1.1240000000000023],[0.19166666666666668,-0.6759259259259259,1.1405999999642376],[0.2085416666666667,-0.662962962962963,1.1571999999880802],[0.23770833333333338,-0.6424074074074073,1.1738000000119229],[0.26614583333333336,-0.6177777777777779,1.1905000000000001],[0.2945833333333333,-0.5931481481481482,1.2073000000119194],[0.2945833333333333,-0.5931481481481482,1.2239999999999966],[0.31906249999999997,-0.6066666666666667,1.240599999964239],[0.3310416666666666,-0.6277777777777778,1.2571999999880745],[0.34916666666666674,-0.6374074074074074,1.2751999999880752],[0.34916666666666674,-0.6374074074074074,1.2905999999642361],[0.3664583333333333,-0.6553703703703704,1.3071999999880788],[0.3881249999999999,-0.6725925925925925,1.3254999999999981],[0.3671875,-0.6687037037037038,1.3441999999880778],[0.3658333333333334,-0.6868518518518518,1.3611999999880808],[0.3658333333333334,-0.6868518518518518,1.3738999999761603],[0.36447916666666674,-0.705,1.3906999999880796],[0.3502083333333334,-0.700925925925926,1.4071999999880802],[0.3412499999999999,-0.7014814814814815,1.4238000000119229],[0.33083333333333326,-0.6979629629629629,1.4408999999761605],[0.3289583333333333,-0.6925925925925925,1.4571999999880774],[0.32708333333333334,-0.6872222222222223,1.4740999999642384],[0.32041666666666657,-0.6616666666666667,1.4939999999999998],[0.3352083333333333,-0.6564814814814814,1.508499999999998],[0.3054166666666667,-0.6696296296296297,1.5238999999761589],[0.2631249999999999,-0.6762962962962963,1.5405000000000015],[0.1974999999999999,-0.6794444444444444,1.5620999999642393],[0.1974999999999999,-0.6794444444444444,1.573899999976156],[0.14708333333333337,-0.6944444444444444,1.5905999999642333],[0.10739583333333323,-0.6955555555555556,1.607300000011918],[0.065625,-0.6799999999999999,1.6238999999761603],[0.02781250000000005,-0.6587037037037037,1.642599999964233],[-0.026145833333333358,-0.6594444444444445,1.6570999999642382],[-0.06968749999999997,-0.6766666666666666,1.6741999999880761],[-0.125,-0.6825925925925926,1.6905999999642347],[-0.1171875,-0.6507407407407407,1.7073000000119194],[-0.1258333333333333,-0.6244444444444445,1.7238999999761546],[-0.09479166666666666,-0.6374074074074074,1.740599999964239],[-0.08406250000000005,-0.6240740740740741,1.7575000000000003],[-0.08937499999999995,-0.62,1.776899999976159],[-0.08406250000000005,-0.6303703703703704,1.7913000000119226],[-0.07875000000000003,-0.6407407407407407,1.8073999999761554],[-0.08135416666666669,-0.6055555555555555,1.823999999999998],[-0.08875000000000005,-0.5657407407407408,1.8411999999880777],[-0.10270833333333336,-0.5142592592592592,1.857199999988076],[-0.12593749999999998,-0.49611111111111106,1.8750999999642346],[-0.128125,-0.48259259259259263,1.8909999999999982],[-0.1466666666666666,-0.43333333333333335,1.9084999999999965],[-0.15833333333333333,-0.4153703703703704,1.9238000000119229],[-0.17000000000000004,-0.39740740740740743,1.9405999999642347],[-0.19520833333333332,-0.37111111111111106,1.957399999976154],[-0.22041666666666668,-0.3448148148148148,1.9783999999761548],[-0.23552083333333335,-0.32833333333333337,1.9945000000000022],[-0.25062500000000004,-0.3118518518518518,2.0101999999880746],[-0.27364583333333337,-0.3303703703703703,2.026300000011922],[-0.27364583333333337,-0.3303703703703703,2.0405000000000015],[-0.2897916666666667,-0.33555555555555555,2.057300000011921],[-0.3042708333333334,-0.3292592592592593,2.0788999999761586],[-0.3042708333333334,-0.3292592592592593,2.0913000000119197],[-0.32354166666666667,-0.3264814814814815,2.107199999988076],[-0.32937500000000003,-0.31870370370370377,2.1238000000119186],[-0.35489583333333335,-0.317037037037037,2.140499999999996],[-0.36666666666666664,-0.31055555555555553,2.1586999999880803],[-0.3784374999999999,-0.30407407407407405,2.176599999964239],[-0.33697916666666666,-0.34574074074074074,2.1924999999999955],[-0.2955208333333334,-0.38740740740740737,2.207800000011922],[-0.24718749999999995,-0.38370370370370366,2.2238999999761546],[-0.24718749999999995,-0.38370370370370366,2.240599999964239],[-0.20572916666666666,-0.3933333333333333,2.2608999999761537],[-0.20572916666666666,-0.3933333333333333,2.274000000000001],[-0.1736458333333334,-0.35833333333333334,2.290699999988078],[-0.13791666666666663,-0.3235185185185185,2.3130000000000024],[-0.13791666666666663,-0.3235185185185185,2.323999999999998],[-0.1219791666666667,-0.29129629629629633,2.3408000000119173],[-0.06281249999999995,-0.2661111111111111,2.3573999999761597],[-0.06281249999999995,-0.2661111111111111,2.378599999964237],[-0.03093750000000005,-0.23444444444444448,2.3906999999880796],[0.014895833333333285,-0.2022222222222222,2.4078999999761592],[0.00458333333333331,-0.1366666666666667,2.426599999964239],[-0.003958333333333286,-0.0727777777777778,2.444399999976156],[-0.024583333333333356,-0.04055555555555551,2.46069999998808],[-0.04520833333333331,-0.008333333333333333,2.480699999988076],[-0.04520833333333331,-0.008333333333333333,2.490699999988081],[-0.06239583333333331,-0.0020370370370370794,2.5075000000000003],[-0.07843749999999995,0.007962962962962878,2.525399999976159],[-0.08166666666666664,0.0016666666666666245,2.5463999999761597],[-0.08166666666666664,0.0016666666666666245,2.5574999999999974],[-0.10249999999999998,-0.01907407407407399,2.5740999999642327],[-0.10833333333333334,-0.04611111111111107,2.592399999976159],[-0.128125,-0.07370370370370373,2.607300000011918],[-0.13927083333333337,-0.10462962962962963,2.6238999999761603],[-0.15416666666666667,-0.12888888888888894,2.6408000000119216],[-0.15125000000000005,-0.10537037037037032,2.6573000000119222],[-0.15249999999999997,-0.10388888888888893,2.674199999988076],[-0.14916666666666673,-0.14888888888888885,2.6933000000119165],[-0.1438541666666667,-0.16203703703703703,2.710599999964238],[-0.14416666666666664,-0.1705555555555556,2.726599999964236],[-0.15041666666666664,-0.1514814814814815,2.74289999997616],[-0.16927083333333334,-0.10999999999999996,2.7579999999999956],[-0.18812500000000001,-0.06851851851851852,2.7743000000119196],[-0.20260416666666667,-0.017407407407407365,2.7943999999761573],[-0.20416666666666666,0.010740740740740657,2.8098999999761602],[-0.24260416666666665,0.009259259259259259,2.825800000011917],[-0.2768749999999999,0.029814814814814856,2.8411999999880777],[-0.2768749999999999,0.029814814814814856,2.865699999988081],[-0.2939583333333334,0.07407407407407407,2.879399999976158],[-0.30885416666666665,0.09185185185185189,2.8928999999761587],[-0.3111458333333334,0.12388888888888884,2.9093000000119176],[-0.3116666666666667,0.17462962962962955,2.927500000000002],[-0.29406249999999995,0.16537037037037028,2.9423999999761605],[-0.28072916666666664,0.15685185185185194,2.957399999976154],[-0.2635416666666667,0.14314814814814805,2.9740999999642384],[-0.26458333333333334,0.13222222222222219,2.993599999964239],[-0.23864583333333336,0.1316666666666667,3.008499999999998],[-0.1961458333333333,0.12037037037037036,3.024000000000001],[-0.16145833333333334,0.11055555555555564,3.040599999964236],[-0.15739583333333335,0.0977777777777777,3.061699999988079],[-0.15739583333333335,0.0977777777777777,3.0741999999880747],[-0.1430208333333333,0.08092592592592601,3.091000000000001],[-0.13718750000000005,0.07388888888888885,3.107300000011918],[-0.12385416666666664,0.08259259259259263,3.128],[-0.12385416666666664,0.08259259259259263,3.1405999999642376],[-0.1264583333333333,0.09277777777777782,3.157499999999999],[-0.12604166666666666,0.10240740740740732,3.1763000000119206],[-0.09125000000000003,0.11851851851851852,3.1908999999761605],[-0.06395833333333331,0.1316666666666667,3.207399999976154],[-0.059062500000000046,0.13629629629629633,3.22380000001192],[-0.06843750000000005,0.14222222222222214,3.2425999999642343],[-0.08072916666666667,0.14444444444444443,3.2573999999761583],[-0.08072916666666667,0.14444444444444443,3.274000000000001],[-0.10333333333333337,0.1507407407407407,3.290699999988078],[-0.10218750000000003,0.15851851851851856,3.3093000000119233],[-0.09885416666666665,0.1479629629629629,3.3240999999642327],[-0.07531249999999995,0.13518518518518519,3.3406999999880753],[-0.07531249999999995,0.1088888888888888,3.359800000011923],[-0.096875,0.10240740740740732,3.375699999988079],[-0.12510416666666668,0.10203703703703708,3.3906999999880796],[-0.14750000000000002,0.12092592592592584,3.409699999988078],[-0.15510416666666665,0.12370370370370362,3.424099999964234],[-0.13333333333333333,0.12777777777777777,3.4406999999880767],[-0.11104166666666669,0.12740740740740733,3.457399999976154],[-0.11104166666666669,0.12740740740740733,3.4770999999642385],[-0.10864583333333329,0.09962962962962954,3.490699999988081],[-0.14270833333333333,0.11722222222222214,3.5073000000119166],[-0.18125,0.11629629629629622,3.5264999999999986],[-0.18125,0.11629629629629622,3.5405000000000015],[-0.17687499999999995,0.13203703703703695,3.557199999988079],[-0.19604166666666673,0.14444444444444443,3.5738000000119214],[-0.20843750000000003,0.10759259259259263,3.5904999999999987],[-0.19624999999999998,0.08185185185185194,3.610899999976155],[-0.22385416666666663,0.08925925925925934,3.6251999999880766],[-0.2514583333333333,0.09666666666666675,3.640499999999996],[-0.2727083333333333,0.09648148148148153,3.657099999964238],[-0.29104166666666664,0.09370370370370375,3.6738999999761575],[-0.29125,0.0742592592592593,3.6905],[-0.28624999999999995,0.08796296296296297,3.7071999999880774],[-0.30625,0.08296296296296288,3.7239999999999966],[-0.30791666666666667,0.06796296296296304,3.7408999999761576],[-0.2859375,0.0485185185185186,3.759300000011919],[-0.28854166666666664,0.01796296296296305,3.775399999976159],[-0.28531249999999997,-0.016666666666666666,3.790699999988078],[-0.2820833333333333,-0.05129629629629638,3.810099999964237],[-0.2819791666666667,-0.08407407407407404,3.8266999999880795],[-0.2735416666666667,-0.12925925925925927,3.8404999999999987],[-0.27770833333333333,-0.1655555555555555,3.857099999964234],[-0.2826041666666666,-0.21648148148148144,3.8748000000119234],[-0.31218750000000006,-0.2588888888888889,3.890899999976156],[-0.3420833333333333,-0.29907407407407405,3.907099999964238],[-0.3411458333333333,-0.29814814814814816,3.923800000011923],[-0.34020833333333333,-0.2972222222222222,3.9405],[-0.3141666666666667,-0.3066666666666667,3.9571999999880774],[-0.288125,-0.31611111111111106,3.9756999999880804],[-0.2747916666666666,-0.33259259259259266,3.9904999999999973],[-0.27010416666666665,-0.33851851851851855,4.0073000000119166],[-0.27010416666666665,-0.33851851851851855,4.023899999976159],[-0.2552083333333333,-0.3455555555555556,4.040599999964236],[-0.23697916666666666,-0.36314814814814816,4.063099999964237],[-0.23697916666666666,-0.36314814814814816,4.074199999988075],[-0.18739583333333332,-0.31592592592592594,4.091000000000001],[-0.18739583333333332,-0.31592592592592594,4.111599999964234],[-0.14114583333333333,-0.3,4.124099999964237],[-0.12260416666666671,-0.30925925925925923,4.14069999998808],[-0.11625000000000002,-0.30481481481481487,4.16319999998808],[-0.11625000000000002,-0.30481481481481487,4.1739999999999995],[-0.0984375,-0.31574074074074077,4.190699999988077],[-0.08312499999999995,-0.33055555555555555,4.207300000011919],[-0.049270833333333285,-0.3109259259259259,4.23130000001192],[-0.049270833333333285,-0.3109259259259259,4.240699999988081],[-0.0390625,-0.28425925925925927,4.2575],[-0.03177083333333333,-0.2803703703703703,4.276099999964238],[-0.03177083333333333,-0.2803703703703703,4.294599999964234],[-0.01114583333333338,-0.24666666666666665,4.307300000011921],[0.02374999999999995,-0.21666666666666667,4.323999999999998],[0.06197916666666667,-0.15537037037037033,4.3438000000119175],[0.06197916666666667,-0.15537037037037033,4.35739999997616],[0.07083333333333333,-0.08407407407407404,4.374000000000002],[0.12354166666666658,-0.05703703703703706,4.393099999964235],[0.125,-0.020185185185185143,4.409300000011918],[0.125,-0.020185185185185143,4.4239999999999995],[0.10541666666666671,0.056296296296296254,4.4446999999880745],[0.07489583333333343,0.1,4.460499999999996],[0.06833333333333323,0.13851851851851843,4.477499999999999],[0.06833333333333323,0.13851851851851843,4.490699999988081],[0.07895833333333328,0.20722222222222217,4.511599999964233],[0.09729166666666676,0.26222222222222225,4.527199999988078],[0.08010416666666677,0.2492592592592593,4.543699999988078],[0.07083333333333333,0.22407407407407406,4.562599999964235],[0.07083333333333333,0.22407407407407406,4.573999999999998],[0.06197916666666667,0.2124074074074075,4.590499999999999],[0.013645833333333357,0.2577777777777779,4.607099999964234],[-0.007187499999999976,0.3096296296296297,4.624399999976156],[0.0003124999999999526,0.318888888888889,4.643499999999996],[0.008749999999999977,0.3266666666666666,4.658199999988078],[0.024791666666666618,0.330925925925926,4.675599999964234],[0.014895833333333285,0.3351851851851852,4.6931999999880745],[-0.019375000000000024,0.3338888888888888,4.709800000011917],[-0.02947916666666662,0.34,4.725199999988078],[-0.04750000000000002,0.35833333333333334,4.744099999964234],[-0.024270833333333287,0.342962962962963,4.762599999964237],[-0.024270833333333287,0.342962962962963,4.773899999976159],[0.00791666666666669,0.30407407407407416,4.794199999988081],[0.029270833333333357,0.23851851851851844,4.811500000000002],[0.03260416666666662,0.1874074074074075,4.829099999964235],[0.03260416666666662,0.1874074074074075,4.843899999976159],[0.04083333333333338,0.15685185185185194,4.857500000000002],[0.041458333333333285,0.12981481481481486,4.875500000000002],[0.05614583333333331,0.08759259259259251,4.893599999964238],[0.05614583333333331,0.08759259259259251,4.907300000011922],[0.11749999999999995,0.06185185185185181,4.9239999999999995],[0.15489583333333337,0.053703703703703705,4.944899999976158],[0.1772916666666667,0.051111111111111156,4.959800000011917],[0.16656250000000009,0.07537037037037045,4.977800000011918],[0.1482291666666666,0.07592592592592592,4.9971999999880765],[0.1482291666666666,0.07592592592592592,5.0071999999880745],[0.1352083333333333,0.10574074074074079,5.0240999999642355],[0.14260416666666675,0.12407407407407407,5.04230000001192],[0.13166666666666677,0.13555555555555565,5.061699999988079],[0.13166666666666677,0.13555555555555565,5.073999999999998],[0.12489583333333343,0.15611111111111103,5.091000000000001],[0.12489583333333343,0.15611111111111103,5.1129999999999995],[0.13093750000000004,0.17462962962962955,5.124000000000002],[0.08270833333333343,0.16740740740740737,5.140499999999996],[0.04906250000000002,0.14685185185185176,5.157399999976157],[0.04906250000000002,0.14685185185185176,5.179300000011921],[0.02645833333333331,0.13574074074074066,5.190699999988077],[0.0234375,0.0514814814814814,5.208599999964235],[0.0010416666666666667,0.01907407407407399,5.227800000011918],[-0.010520833333333358,0.00851851851851856,5.2455],[-0.010520833333333358,0.00851851851851856,5.25709999996424],[-0.024687500000000046,-0.032407407407407406,5.27430000001192],[-0.025,-0.07000000000000002,5.294699999988076],[-0.03343750000000002,-0.0883333333333333,5.313399999976156],[-0.03343750000000002,-0.0883333333333333,5.323999999999998],[-0.049270833333333285,-0.11814814814814817,5.344599999964238],[-0.07083333333333333,-0.14870370370370373,5.3613999999761575],[-0.07083333333333333,-0.14870370370370373,5.374099999964237],[-0.08999999999999998,-0.1764814814814815,5.394800000011919],[-0.10437500000000005,-0.18129629629629626,5.410399999976157],[-0.12468750000000005,-0.13111111111111112,5.426699999988081],[-0.11916666666666664,-0.11203703703703703,5.449300000011917],[-0.11916666666666664,-0.11203703703703703,5.460399999976154],[-0.11968749999999997,-0.1294444444444444,5.474099999964238],[-0.12374999999999996,-0.13962962962962958,5.490699999988081],[-0.11802083333333328,-0.11833333333333329,5.510099999964233],[-0.11958333333333329,-0.16277777777777774,5.527499999999996],[-0.1265625,-0.19370370370370374,5.543500000000002],[-0.12458333333333335,-0.20981481481481484,5.560699999988081],[-0.12166666666666662,-0.21888888888888886,5.577800000011919],[-0.11656249999999997,-0.2531481481481481,5.59430000001192],[-0.11656249999999997,-0.2531481481481481,5.607099999964234],[-0.11854166666666661,-0.3007407407407407,5.62389999997616],[-0.1454166666666667,-0.35611111111111116,5.640499999999996],[-0.1454166666666667,-0.35611111111111116,5.65719999998808],[-0.13468749999999996,-0.37907407407407406,5.677999999999997],[-0.14854166666666668,-0.38722222222222225,5.6939999999999955],[-0.17218749999999997,-0.42685185185185187,5.709899999976159],[-0.17218749999999997,-0.42685185185185187,5.723999999999997],[-0.175,-0.4196296296296297,5.744699999988079],[-0.1814583333333334,-0.40907407407407403,5.761099999964237],[-0.18354166666666671,-0.4033333333333334,5.777599999964238],[-0.18354166666666671,-0.4033333333333334,5.7905000000000015],[-0.18968750000000004,-0.38,5.807199999988079],[-0.20437500000000006,-0.3907407407407407,5.823899999976156],[-0.225,-0.3707407407407407,5.840499999999999],[-0.20249999999999999,-0.33666666666666667,5.85780000001192],[-0.21052083333333335,-0.3264814814814815,5.877800000011916],[-0.1890625,-0.302962962962963,5.894300000011917],[-0.16760416666666664,-0.2794444444444444,5.91019999998808],[-0.16697916666666662,-0.25037037037037035,5.926399999976155],[-0.16270833333333337,-0.22462962962962965,5.941800000011916],[-0.1578125,-0.18888888888888888,5.959099999964238],[-0.14979166666666663,-0.17777777777777778,5.9778999999761595],[-0.14020833333333335,-0.15870370370370368,5.994699999988079],[-0.14020833333333335,-0.15870370370370368,6.0071999999880745],[-0.13062499999999996,-0.13962962962962958,6.023800000011917],[-0.1296875,-0.13759259259259263,6.0405000000000015],[-0.1414583333333333,-0.12240740740740745,6.064199999988077],[-0.1414583333333333,-0.12240740740740745,6.073899999976156],[-0.15916666666666662,-0.10833333333333334,6.090499999999999],[-0.1482291666666666,-0.12370370370370372,6.110500000000002],[-0.11916666666666664,-0.1227777777777778,6.1276999999880815],[-0.10291666666666661,-0.13777777777777775,6.144800000011919],[-0.0875,-0.15351851851851847,6.160699999988076],[-0.0889583333333333,-0.19740740740740745,6.177],[-0.07885416666666671,-0.20185185185185187,6.1939999999999955],[-0.06760416666666665,-0.21296296296296297,6.209599999964233],[-0.05927083333333331,-0.21277777777777773,6.223999999999997],[-0.03802083333333333,-0.22555555555555556,6.241800000011921],[-0.03802083333333333,-0.22555555555555556,6.2573000000119166],[-0.028645833333333332,-0.25092592592592594,6.273899999976159],[-0.04781249999999997,-0.24111111111111108,6.2905000000000015],[-0.07364583333333338,-0.262037037037037,6.307399999976155],[-0.07989583333333337,-0.27444444444444444,6.323800000011921],[-0.0859375,-0.29611111111111105,6.341000000000001],[-0.08531249999999997,-0.3164814814814814,6.357199999988076],[-0.09229166666666669,-0.362962962962963,6.374099999964237],[-0.10197916666666665,-0.40370370370370373,6.390399999976154],[-0.10197916666666665,-0.40370370370370373,6.40719999998808],[-0.11166666666666672,-0.4414814814814814,6.423800000011923],[-0.11625000000000002,-0.48259259259259263,6.4408999999761605],[-0.10447916666666662,-0.5161111111111111,6.457199999988077],[-0.0984375,-0.5633333333333334,6.4770999999642385],[-0.0984375,-0.5633333333333334,6.500599999964237],[-0.09114583333333333,-0.6094444444444445,6.515899999976156],[-0.09114583333333333,-0.6094444444444445,6.5241999999880775],[-0.09739583333333333,-0.6522222222222221,6.5405000000000015],[-0.12000000000000005,-0.6681481481481482,6.557099999964237],[-0.13239583333333335,-0.6572222222222222,6.573800000011921],[-0.14010416666666667,-0.6622222222222223,6.590499999999999],[-0.14624999999999996,-0.6662962962962963,6.607099999964234],[-0.1648958333333333,-0.6696296296296297,6.623800000011919],[-0.17697916666666663,-0.6570370370370371,6.640499999999996],[-0.21843750000000003,-0.6407407407407407,6.657099999964238],[-0.2439583333333334,-0.6205555555555556,6.678699999988076],[-0.2794791666666666,-0.6024074074074074,6.6931999999880745],[-0.30822916666666667,-0.5801851851851852,6.707199999988077],[-0.3051041666666666,-0.587037037037037,6.72380000001192],[-0.30197916666666663,-0.5938888888888889,6.740599999964239],[-0.305625,-0.5842592592592593,6.75709999996424],[-0.30927083333333333,-0.5746296296296296,6.774000000000001],[-0.3023958333333333,-0.5833333333333334,6.7905000000000015],[-0.30739583333333337,-0.6048148148148148,6.807099999964237],[-0.2938541666666667,-0.6203703703703703,6.823699999988079],[-0.290625,-0.6318518518518518,6.840499999999999],[-0.2877083333333334,-0.6475925925925926,6.857099999964234],[-0.28479166666666667,-0.6633333333333333,6.875],[-0.28479166666666667,-0.6633333333333333,6.890499999999996],[-0.29739583333333336,-0.6768518518518518,6.90719999998808],[-0.29583333333333334,-0.6794444444444444,6.9238999999761575],[-0.3198958333333334,-0.6844444444444445,6.940599999964235],[-0.31927083333333334,-0.6922222222222223,6.958599999964235],[-0.31218750000000006,-0.7020370370370371,6.97569999998808],[-0.3145833333333333,-0.7094444444444444,6.990399999976155],[-0.31062500000000004,-0.7214814814814815,7.00709999996424],[-0.321875,-0.7342592592592593,7.02730000001192],[-0.3242708333333333,-0.7424074074074074,7.04230000001192],[-0.30927083333333333,-0.7335185185185186,7.057300000011921],[-0.30927083333333333,-0.7335185185185186,7.073899999976156]]","[0.00019999998807662678,0.05039999997615752,0.06059999996423926,0.07399999999999807,0.09059999996423329,0.10730000001191797,0.12400000000000233,0.14069999998807958,0.15759999996423346,0.17389999997615746,0.1905999999642347,0.20719999998807737,0.22389999997615462,0.240699999988081,0.2583999999761559,0.2758999999761542,0.29050000000000153,0.3071999999880788,0.32389999997615604,0.3404999999999987,0.357300000011918,0.37530000001191866,0.39059999996423755,0.4071999999880802,0.4239999999999995,0.4405999999642347,0.45719999998807737,0.47449999999999903,0.490599999964239,0.5073000000119166,0.5240000000000009,0.5405000000000015,0.5571999999880788,0.5753000000119215,0.5920999999642333,0.6090999999642364,0.6238000000119186,0.6405999999642376,0.6573999999761568,0.6738999999761575,0.6905999999642347,0.707399999976154,0.7238999999761546,0.740599999964239,0.7573000000119166,0.7751999999880752,0.7905999999642361,0.8071999999880788,0.823899999976156,0.8405999999642333,0.857199999988076,0.8740999999642369,0.8904999999999959,0.9071999999880802,0.9238999999761575,0.9409999999999954,0.9605999999642378,0.9760999999642337,0.990599999964239,1.0078999999761535,1.0238999999761589,1.0405000000000015,1.0571999999880788,1.0786999999880749,1.090899999976159,1.107300000011918,1.1240000000000023,1.1405999999642376,1.1571999999880802,1.1738000000119229,1.1905000000000001,1.2073000000119194,1.2239999999999966,1.240599999964239,1.2571999999880745,1.2751999999880752,1.2905999999642361,1.3071999999880788,1.3254999999999981,1.3441999999880778,1.3611999999880808,1.3738999999761603,1.3906999999880796,1.4071999999880802,1.4238000000119229,1.4408999999761605,1.4571999999880774,1.4740999999642384,1.4939999999999998,1.508499999999998,1.5238999999761589,1.5405000000000015,1.5620999999642393,1.573899999976156,1.5905999999642333,1.607300000011918,1.6238999999761603,1.642599999964233,1.6570999999642382,1.6741999999880761,1.6905999999642347,1.7073000000119194,1.7238999999761546,1.740599999964239,1.7575000000000003,1.776899999976159,1.7913000000119226,1.8073999999761554,1.823999999999998,1.8411999999880777,1.857199999988076,1.8750999999642346,1.8909999999999982,1.9084999999999965,1.9238000000119229,1.9405999999642347,1.957399999976154,1.9783999999761548,1.9945000000000022,2.0101999999880746,2.026300000011922,2.0405000000000015,2.057300000011921,2.0788999999761586,2.0913000000119197,2.107199999988076,2.1238000000119186,2.140499999999996,2.1586999999880803,2.176599999964239,2.1924999999999955,2.207800000011922,2.2238999999761546,2.240599999964239,2.2608999999761537,2.274000000000001,2.290699999988078,2.3130000000000024,2.323999999999998,2.3408000000119173,2.3573999999761597,2.378599999964237,2.3906999999880796,2.4078999999761592,2.426599999964239,2.444399999976156,2.46069999998808,2.480699999988076,2.490699999988081,2.5075000000000003,2.525399999976159,2.5463999999761597,2.5574999999999974,2.5740999999642327,2.592399999976159,2.607300000011918,2.6238999999761603,2.6408000000119216,2.6573000000119222,2.674199999988076,2.6933000000119165,2.710599999964238,2.726599999964236,2.74289999997616,2.7579999999999956,2.7743000000119196,2.7943999999761573,2.8098999999761602,2.825800000011917,2.8411999999880777,2.865699999988081,2.879399999976158,2.8928999999761587,2.9093000000119176,2.927500000000002,2.9423999999761605,2.957399999976154,2.9740999999642384,2.993599999964239,3.008499999999998,3.024000000000001,3.040599999964236,3.061699999988079,3.0741999999880747,3.091000000000001,3.107300000011918,3.128,3.1405999999642376,3.157499999999999,3.1763000000119206,3.1908999999761605,3.207399999976154,3.22380000001192,3.2425999999642343,3.2573999999761583,3.274000000000001,3.290699999988078,3.3093000000119233,3.3240999999642327,3.3406999999880753,3.359800000011923,3.375699999988079,3.3906999999880796,3.409699999988078,3.424099999964234,3.4406999999880767,3.457399999976154,3.4770999999642385,3.490699999988081,3.5073000000119166,3.5264999999999986,3.5405000000000015,3.557199999988079,3.5738000000119214,3.5904999999999987,3.610899999976155,3.6251999999880766,3.640499999999996,3.657099999964238,3.6738999999761575,3.6905,3.7071999999880774,3.7239999999999966,3.7408999999761576,3.759300000011919,3.775399999976159,3.790699999988078,3.810099999964237,3.8266999999880795,3.8404999999999987,3.857099999964234,3.8748000000119234,3.890899999976156,3.907099999964238,3.923800000011923,3.9405,3.9571999999880774,3.9756999999880804,3.9904999999999973,4.0073000000119166,4.023899999976159,4.040599999964236,4.063099999964237,4.074199999988075,4.091000000000001,4.111599999964234,4.124099999964237,4.14069999998808,4.16319999998808,4.1739999999999995,4.190699999988077,4.207300000011919,4.23130000001192,4.240699999988081,4.2575,4.276099999964238,4.294599999964234,4.307300000011921,4.323999999999998,4.3438000000119175,4.35739999997616,4.374000000000002,4.393099999964235,4.409300000011918,4.4239999999999995,4.4446999999880745,4.460499999999996,4.477499999999999,4.490699999988081,4.511599999964233,4.527199999988078,4.543699999988078,4.562599999964235,4.573999999999998,4.590499999999999,4.607099999964234,4.624399999976156,4.643499999999996,4.658199999988078,4.675599999964234,4.6931999999880745,4.709800000011917,4.725199999988078,4.744099999964234,4.762599999964237,4.773899999976159,4.794199999988081,4.811500000000002,4.829099999964235,4.843899999976159,4.857500000000002,4.875500000000002,4.893599999964238,4.907300000011922,4.9239999999999995,4.944899999976158,4.959800000011917,4.977800000011918,4.9971999999880765,5.0071999999880745,5.0240999999642355,5.04230000001192,5.061699999988079,5.073999999999998,5.091000000000001,5.1129999999999995,5.124000000000002,5.140499999999996,5.157399999976157,5.179300000011921,5.190699999988077,5.208599999964235,5.227800000011918,5.2455,5.25709999996424,5.27430000001192,5.294699999988076,5.313399999976156,5.323999999999998,5.344599999964238,5.3613999999761575,5.374099999964237,5.394800000011919,5.410399999976157,5.426699999988081,5.449300000011917,5.460399999976154,5.474099999964238,5.490699999988081,5.510099999964233,5.527499999999996,5.543500000000002,5.560699999988081,5.577800000011919,5.59430000001192,5.607099999964234,5.62389999997616,5.640499999999996,5.65719999998808,5.677999999999997,5.6939999999999955,5.709899999976159,5.723999999999997,5.744699999988079,5.761099999964237,5.777599999964238,5.7905000000000015,5.807199999988079,5.823899999976156,5.840499999999999,5.85780000001192,5.877800000011916,5.894300000011917,5.91019999998808,5.926399999976155,5.941800000011916,5.959099999964238,5.9778999999761595,5.994699999988079,6.0071999999880745,6.023800000011917,6.0405000000000015,6.064199999988077,6.073899999976156,6.090499999999999,6.110500000000002,6.1276999999880815,6.144800000011919,6.160699999988076,6.177,6.1939999999999955,6.209599999964233,6.223999999999997,6.241800000011921,6.2573000000119166,6.273899999976159,6.2905000000000015,6.307399999976155,6.323800000011921,6.341000000000001,6.357199999988076,6.374099999964237,6.390399999976154,6.40719999998808,6.423800000011923,6.4408999999761605,6.457199999988077,6.4770999999642385,6.500599999964237,6.515899999976156,6.5241999999880775,6.5405000000000015,6.557099999964237,6.573800000011921,6.590499999999999,6.607099999964234,6.623800000011919,6.640499999999996,6.657099999964238,6.678699999988076,6.6931999999880745,6.707199999988077,6.72380000001192,6.740599999964239,6.75709999996424,6.774000000000001,6.7905000000000015,6.807099999964237,6.823699999988079,6.840499999999999,6.857099999964234,6.875,6.890499999999996,6.90719999998808,6.9238999999761575,6.940599999964235,6.958599999964235,6.97569999998808,6.990399999976155,7.00709999996424,7.02730000001192,7.04230000001192,7.057300000011921,7.073899999976156]","[1732876607347,1732876607388,1732876607398,1732876607411,1732876607428,1732876607445,1732876607461,1732876607478,1732876607495,1732876607511,1732876607528,1732876607544,1732876607561,1732876607578,1732876607596,1732876607613,1732876607628,1732876607644,1732876607661,1732876607678,1732876607695,1732876607713,1732876607728,1732876607744,1732876607761,1732876607778,1732876607795,1732876607812,1732876607828,1732876607844,1732876607861,1732876607878,1732876607894,1732876607913,1732876607929,1732876607946,1732876607961,1732876607978,1732876607995,1732876608011,1732876608030,1732876608047,1732876608063,1732876608080,1732876608096,1732876608114,1732876608130,1732876608146,1732876608163,1732876608180,1732876608196,1732876608213,1732876608230,1732876608246,1732876608263,1732876608280,1732876608300,1732876608315,1732876608330,1732876608347,1732876608363,1732876608380,1732876608396,1732876608418,1732876608430,1732876608446,1732876608463,1732876608480,1732876608496,1732876608513,1732876608530,1732876608546,1732876608563,1732876608580,1732876608596,1732876608614,1732876608630,1732876608646,1732876608665,1732876608683,1732876608700,1732876608713,1732876608730,1732876608746,1732876608763,1732876608780,1732876608796,1732876608813,1732876608833,1732876608848,1732876608863,1732876608880,1732876608901,1732876608913,1732876608930,1732876608946,1732876608963,1732876608982,1732876608996,1732876609013,1732876609030,1732876609047,1732876609063,1732876609080,1732876609097,1732876609116,1732876609130,1732876609147,1732876609163,1732876609180,1732876609196,1732876609214,1732876609230,1732876609248,1732876609263,1732876609280,1732876609297,1732876609318,1732876609334,1732876609349,1732876609365,1732876609380,1732876609396,1732876609418,1732876609431,1732876609446,1732876609463,1732876609480,1732876609498,1732876609516,1732876609532,1732876609547,1732876609563,1732876609580,1732876609600,1732876609613,1732876609630,1732876609652,1732876609663,1732876609680,1732876609697,1732876609718,1732876609730,1732876609747,1732876609766,1732876609784,1732876609800,1732876609820,1732876609830,1732876609847,1732876609865,1732876609886,1732876609897,1732876609913,1732876609932,1732876609947,1732876609963,1732876609980,1732876609996,1732876610013,1732876610033,1732876610050,1732876610066,1732876610082,1732876610097,1732876610113,1732876610134,1732876610149,1732876610165,1732876610180,1732876610205,1732876610219,1732876610232,1732876610248,1732876610267,1732876610282,1732876610297,1732876610313,1732876610333,1732876610348,1732876610363,1732876610380,1732876610401,1732876610413,1732876610430,1732876610447,1732876610467,1732876610480,1732876610497,1732876610516,1732876610530,1732876610547,1732876610563,1732876610582,1732876610597,1732876610613,1732876610630,1732876610649,1732876610663,1732876610680,1732876610699,1732876610715,1732876610730,1732876610749,1732876610763,1732876610780,1732876610797,1732876610816,1732876610830,1732876610847,1732876610866,1732876610880,1732876610896,1732876610913,1732876610930,1732876610950,1732876610964,1732876610980,1732876610996,1732876611013,1732876611030,1732876611046,1732876611063,1732876611080,1732876611098,1732876611115,1732876611130,1732876611149,1732876611166,1732876611180,1732876611196,1732876611214,1732876611230,1732876611246,1732876611263,1732876611280,1732876611296,1732876611315,1732876611330,1732876611347,1732876611363,1732876611380,1732876611402,1732876611413,1732876611430,1732876611451,1732876611463,1732876611480,1732876611502,1732876611513,1732876611530,1732876611547,1732876611571,1732876611580,1732876611597,1732876611615,1732876611634,1732876611647,1732876611663,1732876611683,1732876611697,1732876611713,1732876611732,1732876611748,1732876611763,1732876611784,1732876611800,1732876611817,1732876611830,1732876611851,1732876611866,1732876611883,1732876611902,1732876611913,1732876611930,1732876611946,1732876611964,1732876611983,1732876611997,1732876612015,1732876612032,1732876612049,1732876612064,1732876612083,1732876612102,1732876612113,1732876612133,1732876612151,1732876612168,1732876612183,1732876612197,1732876612215,1732876612233,1732876612246,1732876612263,1732876612284,1732876612299,1732876612317,1732876612337,1732876612347,1732876612363,1732876612381,1732876612401,1732876612413,1732876612430,1732876612452,1732876612463,1732876612480,1732876612497,1732876612518,1732876612530,1732876612548,1732876612567,1732876612585,1732876612596,1732876612614,1732876612634,1732876612653,1732876612663,1732876612684,1732876612701,1732876612713,1732876612734,1732876612750,1732876612766,1732876612788,1732876612800,1732876612813,1732876612830,1732876612849,1732876612867,1732876612883,1732876612900,1732876612917,1732876612933,1732876612946,1732876612963,1732876612980,1732876612996,1732876613017,1732876613033,1732876613049,1732876613063,1732876613084,1732876613100,1732876613117,1732876613130,1732876613146,1732876613163,1732876613180,1732876613197,1732876613217,1732876613234,1732876613249,1732876613266,1732876613281,1732876613298,1732876613317,1732876613334,1732876613346,1732876613363,1732876613380,1732876613404,1732876613413,1732876613430,1732876613450,1732876613467,1732876613484,1732876613500,1732876613516,1732876613533,1732876613549,1732876613563,1732876613581,1732876613596,1732876613613,1732876613630,1732876613647,1732876613663,1732876613680,1732876613696,1732876613713,1732876613730,1732876613746,1732876613763,1732876613780,1732876613796,1732876613816,1732876613840,1732876613855,1732876613863,1732876613880,1732876613896,1732876613913,1732876613930,1732876613946,1732876613963,1732876613980,1732876613996,1732876614018,1732876614032,1732876614046,1732876614063,1732876614080,1732876614096,1732876614113,1732876614130,1732876614146,1732876614163,1732876614180,1732876614196,1732876614214,1732876614230,1732876614246,1732876614263,1732876614280,1732876614298,1732876614315,1732876614330,1732876614346,1732876614366,1732876614382,1732876614396,1732876614413]","[[997.8,526.2],[997.8,526.2],[985.7,524.9],[985.7,524.9],[991.1,528.3],[991.1,528.3],[971.1,518],[955.6,497.6],[924.7,478.2],[906.8,470.3],[897.6,453.9],[899.8,426.2],[884.2,401.4],[872.8,375.1],[861.9,350.9],[851,326.7],[822.1,315.6],[788.9,311.3],[759.8,316.9],[728.6,313.2],[668.9,320.1],[609.2,327],[571.1,329.5],[555.5,327.8],[535.8,321.4],[522.3,314.5],[517.9,316.3],[515.2,313.8],[523.8,300.4],[523.6,298.7],[535.7,303.5],[555.1,301.3],[570.1,303.8],[557.1,309.5],[552.2,323.6],[541.1,338.2],[546.8,344.6],[550.8,355.3],[568.1,349.1],[568.1,349.1],[586.4,339.8],[617.9,327.6],[646.1,325],[646.1,325],[669.3,318],[692.7,315.1],[718.2,306.2],[743.7,297.3],[758.1,274.4],[772.5,251.5],[777.1,245.7],[781.7,239.9],[775.7,222.6],[772.6,223.3],[762.6,214.5],[785.5,199.3],[820.8,191.1],[844.3,178.8],[876.3,168.9],[908.3,159],[948.4,165.1],[988.5,171.2],[1028.7,180.8],[1062,169.8],[1062,169.8],[1100.8,172.7],[1100.8,172.7],[1144,175],[1160.2,182],[1188.2,193.1],[1215.5,206.4],[1242.8,219.7],[1242.8,219.7],[1266.3,212.4],[1277.8,201],[1295.2,195.8],[1295.2,195.8],[1311.8,186.1],[1332.6,176.8],[1312.5,178.9],[1311.2,169.1],[1311.2,169.1],[1309.9,159.3],[1296.2,161.5],[1287.6,161.2],[1277.6,163.1],[1275.8,166],[1274,168.9],[1267.6,182.7],[1281.8,185.5],[1253.2,178.4],[1212.6,174.8],[1149.6,173.1],[1149.6,173.1],[1101.2,165],[1063.1,164.4],[1023,172.8],[986.7,184.3],[934.9,183.9],[893.1,174.6],[840,171.4],[847.5,188.6],[839.2,202.8],[869,195.8],[879.3,203],[874.2,205.2],[879.3,199.6],[884.4,194],[881.9,213],[874.8,234.5],[861.4,262.3],[839.1,272.1],[837,279.4],[819.2,306],[808,315.7],[796.8,325.4],[772.6,339.6],[748.4,353.8],[733.9,362.7],[719.4,371.6],[697.3,361.6],[697.3,361.6],[681.8,358.8],[667.9,362.2],[667.9,362.2],[649.4,363.7],[643.8,367.9],[619.3,368.8],[608,372.3],[596.7,375.8],[636.5,353.3],[676.3,330.8],[722.7,332.8],[722.7,332.8],[762.5,327.6],[762.5,327.6],[793.3,346.5],[827.6,365.3],[827.6,365.3],[842.9,382.7],[899.7,396.3],[899.7,396.3],[930.3,413.4],[974.3,430.8],[964.4,466.2],[956.2,500.7],[936.4,518.1],[916.6,535.5],[916.6,535.5],[900.1,538.9],[884.7,544.3],[881.6,540.9],[881.6,540.9],[861.6,529.7],[856,515.1],[837,500.2],[826.3,483.5],[812,470.4],[814.8,483.1],[813.6,483.9],[816.8,459.6],[821.9,452.5],[821.6,447.9],[815.6,458.2],[797.5,480.6],[779.4,503],[765.5,530.6],[764,545.8],[727.1,545],[694.2,556.1],[694.2,556.1],[677.8,580],[663.5,589.6],[661.3,606.9],[660.8,634.3],[677.7,629.3],[690.5,624.7],[707,617.3],[706,611.4],[730.9,611.1],[771.7,605],[805,599.7],[808.9,592.8],[808.9,592.8],[822.7,583.7],[828.3,579.9],[841.1,584.6],[841.1,584.6],[838.6,590.1],[839,595.3],[872.4,604],[898.6,611.1],[903.3,613.6],[894.3,616.8],[882.5,618],[882.5,618],[860.8,621.4],[861.9,625.6],[865.1,619.9],[887.7,613],[887.7,598.8],[867,595.3],[839.9,595.1],[818.4,605.3],[811.1,606.8],[832,609],[853.4,608.8],[853.4,608.8],[855.7,593.8],[823,603.3],[786,602.8],[786,602.8],[790.2,611.3],[771.8,618],[759.9,598.1],[771.6,584.2],[745.1,588.2],[718.6,592.2],[698.2,592.1],[680.6,590.6],[680.4,580.1],[685.2,587.5],[666,584.8],[664.4,576.7],[685.5,566.2],[683,549.7],[686.1,531],[689.2,512.3],[689.3,494.6],[697.4,470.2],[693.4,450.6],[688.7,423.1],[660.3,400.2],[631.6,378.5],[632.5,379],[633.4,379.5],[658.4,374.4],[683.4,369.3],[696.2,360.4],[700.7,357.2],[700.7,357.2],[715,353.4],[732.5,343.9],[732.5,343.9],[780.1,369.4],[780.1,369.4],[824.5,378],[842.3,373],[848.4,375.4],[848.4,375.4],[865.5,369.5],[880.2,361.5],[912.7,372.1],[912.7,372.1],[922.5,386.5],[929.5,388.6],[929.5,388.6],[949.3,406.8],[982.8,423],[1019.5,456.1],[1019.5,456.1],[1028,494.6],[1078.6,509.2],[1080,529.1],[1080,529.1],[1061.2,570.4],[1031.9,594],[1025.6,614.8],[1025.6,614.8],[1035.8,651.9],[1053.4,681.6],[1036.9,674.6],[1028,661],[1028,661],[1019.5,654.7],[973.1,679.2],[953.1,707.2],[960.3,712.2],[968.4,716.4],[983.8,718.7],[974.3,721],[941.4,720.3],[931.7,723.6],[914.4,733.5],[936.7,725.2],[936.7,725.2],[967.6,704.2],[988.1,668.8],[991.3,641.2],[991.3,641.2],[999.2,624.7],[999.8,610.1],[1013.9,587.3],[1013.9,587.3],[1072.8,573.4],[1108.7,569],[1130.2,567.6],[1119.9,580.7],[1102.3,581],[1102.3,581],[1089.8,597.1],[1096.9,607],[1086.4,613.2],[1086.4,613.2],[1079.9,624.3],[1079.9,624.3],[1085.7,634.3],[1039.4,630.4],[1007.1,619.3],[1007.1,619.3],[985.4,613.3],[982.5,567.8],[961,550.3],[949.9,544.6],[949.9,544.6],[936.3,522.5],[936,502.2],[927.9,492.3],[927.9,492.3],[912.7,476.2],[892,459.7],[892,459.7],[873.6,444.7],[859.8,442.1],[840.3,469.2],[845.6,479.5],[845.6,479.5],[845.1,470.1],[841.2,464.6],[846.7,476.1],[845.2,452.1],[838.5,435.4],[840.4,426.7],[843.2,421.8],[848.1,403.3],[848.1,403.3],[846.2,377.6],[820.4,347.7],[820.4,347.7],[830.7,335.3],[817.4,330.9],[794.7,309.5],[794.7,309.5],[792,313.4],[785.8,319.1],[783.8,322.2],[783.8,322.2],[777.9,334.8],[763.8,329],[744,339.8],[765.6,358.2],[757.9,363.7],[778.5,376.4],[799.1,389.1],[799.7,404.8],[803.8,418.7],[808.5,438],[816.2,444],[825.4,454.3],[825.4,454.3],[834.6,464.6],[835.5,465.7],[824.2,473.9],[824.2,473.9],[807.2,481.5],[817.7,473.2],[845.6,473.7],[861.2,465.6],[876,457.1],[874.6,433.4],[884.3,431],[895.1,425],[903.1,425.1],[923.5,418.2],[923.5,418.2],[932.5,404.5],[914.1,409.8],[889.3,398.5],[883.3,391.8],[877.5,380.1],[878.1,369.1],[871.4,344],[862.1,322],[862.1,322],[852.8,301.6],[848.4,279.4],[859.7,261.3],[865.5,235.8],[865.5,235.8],[872.5,210.9],[872.5,210.9],[866.5,187.8],[844.8,179.2],[832.9,185.1],[825.5,182.4],[819.6,180.2],[801.7,178.4],[790.1,185.2],[750.3,194],[725.8,204.9],[691.7,214.7],[664.1,226.7],[667.1,223],[670.1,219.3],[666.6,224.5],[663.1,229.7],[669.7,225],[664.9,213.4],[677.9,205],[681,198.8],[683.8,190.3],[686.6,181.8],[686.6,181.8],[674.5,174.5],[676,173.1],[652.9,170.4],[653.5,166.2],[660.3,160.9],[658,156.9],[661.8,150.4],[651,143.5],[648.7,139.1],[663.1,143.9],[663.1,143.9]]","[-0.132282,0.39684600000000003]","[0.132282,0.39684600000000003]","[0.39684600000000003,0.39684600000000003]","[-0.39684600000000003,-0.132282]","[-0.39684600000000003,-0.39684600000000003]","[-0.39684600000000003,0.132282]","[-0.132282,-0.132282]","[0.132282,-0.132282]","[0.39684600000000003,-0.132282]","[-0.132282,-0.39684600000000003]","[0.132282,-0.39684600000000003]","[0.39684600000000003,-0.39684600000000003]","[-0.132282,0.132282]","[0.132282,0.132282]","[0.39684600000000003,0.132282]",0,0,0,0,1,1,Tablet,20,20,7,2,70,4,2,70,4
