inst1_resp.keys,inst1_resp.rt,calibrationMouse.x,calibrationMouse.y,calibrationMouse.leftButton,calibrationMouse.midButton,calibrationMouse.rightButton,calibrationClick.x,calibrationClick.y,calibrationClick.leftButton,calibrationClick.midButton,calibrationClick.rightButton,trialsc.thisRepN,trialsc.thisTrialN,trialsc.thisN,trialsc.thisIndex,trialsc.ran,calibration_x,calibration_y,participant,session,date,expName,psychopyVersion,OS,frameRate,calibrationClick.clicked_name,ScreenRes_pixels,Camera_pixels,mouse_2.x,mouse_2.y,mouse_2.leftButton,mouse_2.midButton,mouse_2.rightButton,mouse_2.time,mouse_2.clicked_name,mouse.x,mouse.y,mouse.leftButton,mouse.midButton,mouse.rightButton,mouse.time,mouse.clicked_name,Choice,Trial,TrialDuration,MOUSE_GAZE,ET_GAZE,ET_GAZE_x_T,time,unixTime,ET_GAZE_NF,Loc_Bus_label,Loc_Metro_label,Loc_RH_label,Loc_Cost_label,Loc_Travel_label,Loc_Comfort_label,Loc_Bus_cost,Loc_Metro_cost,Loc_RH_cost,Loc_Bus_travel,Loc_Metro_travel,Loc_RH_travel,Loc_Bus_comfort,Loc_Metro_comfort,Loc_RH_comfort,trials.thisRepN,trials.thisTrialN,trials.thisN,trials.thisIndex,trials.ran,Block,Device,RH_cost,RH_travel_time,RH_Comfort,metro_cost,metro_travel_time,metro_Comfort,Bus_cost,Bus_travel_time,Bus_Comfort
space,2.0815,0.078125,-0.333333333,1,0,0,-0.003125,0.011111111,1,0,0,0,0,0,11,1,0,0,17,001,2024-11-26_16h14.44.976,Attention_exp_legacy,2023.1.0,Win32,59.88023952,,,,,,,,,,,,,,,,,,,,,,,,,,,,,,,,,,,,,,,,,,,,,,,,,,,,,,,,,
,,,,,,,0.325,0.655555556,1,0,0,0,1,1,18,1,0.33,0.67,17,001,2024-11-26_16h14.44.976,Attention_exp_legacy,2023.1.0,Win32,59.88023952,,,,,,,,,,,,,,,,,,,,,,,,,,,,,,,,,,,,,,,,,,,,,,,,,,,,,,,,,
,,,,,,,0.005208333,0.32962963,1,0,0,0,2,2,12,1,0,0.33,17,001,2024-11-26_16h14.44.976,Attention_exp_legacy,2023.1.0,Win32,59.88023952,calibration_square,,,,,,,,,,,,,,,,,,,,,,,,,,,,,,,,,,,,,,,,,,,,,,,,,,,,,,,,
,,,,,,,-0.004166667,0.653703704,1,0,0,0,3,3,13,1,0,0.67,17,001,2024-11-26_16h14.44.976,Attention_exp_legacy,2023.1.0,Win32,59.88023952,,,,,,,,,,,,,,,,,,,,,,,,,,,,,,,,,,,,,,,,,,,,,,,,,,,,,,,,,
,,,,,,,0.003125,-0.677777778,1,0,0,0,4,4,9,1,0,-0.67,17,001,2024-11-26_16h14.44.976,Attention_exp_legacy,2023.1.0,Win32,59.88023952,calibration_square,,,,,,,,,,,,,,,,,,,,,,,,,,,,,,,,,,,,,,,,,,,,,,,,,,,,,,,,
,,,,,,,0.322916667,0.312962963,1,0,0,0,5,5,17,1,0.33,0.33,17,001,2024-11-26_16h14.44.976,Attention_exp_legacy,2023.1.0,Win32,59.88023952,,,,,,,,,,,,,,,,,,,,,,,,,,,,,,,,,,,,,,,,,,,,,,,,,,,,,,,,,
,,,,,,,-0.665625,-0.674074074,1,0,0,0,6,6,0,1,-0.67,-0.67,17,001,2024-11-26_16h14.44.976,Attention_exp_legacy,2023.1.0,Win32,59.88023952,calibration_square,,,,,,,,,,,,,,,,,,,,,,,,,,,,,,,,,,,,,,,,,,,,,,,,,,,,,,,,
,,,,,,,-0.013541667,-0.333333333,1,0,0,0,7,7,10,1,0,-0.33,17,001,2024-11-26_16h14.44.976,Attention_exp_legacy,2023.1.0,Win32,59.88023952,,,,,,,,,,,,,,,,,,,,,,,,,,,,,,,,,,,,,,,,,,,,,,,,,,,,,,,,,
,,,,,,,0.315625,-0.659259259,1,0,0,0,8,8,14,1,0.33,-0.67,17,001,2024-11-26_16h14.44.976,Attention_exp_legacy,2023.1.0,Win32,59.88023952,,,,,,,,,,,,,,,,,,,,,,,,,,,,,,,,,,,,,,,,,,,,,,,,,,,,,,,,,
,,,,,,,-0.336458333,0.014814815,1,0,0,0,9,9,6,1,-0.33,0,17,001,2024-11-26_16h14.44.976,Attention_exp_legacy,2023.1.0,Win32,59.88023952,,,,,,,,,,,,,,,,,,,,,,,,,,,,,,,,,,,,,,,,,,,,,,,,,,,,,,,,,
,,,,,,,0.325,-0.344444444,1,0,0,0,10,10,15,1,0.33,-0.33,17,001,2024-11-26_16h14.44.976,Attention_exp_legacy,2023.1.0,Win32,59.88023952,,,,,,,,,,,,,,,,,,,,,,,,,,,,,,,,,,,,,,,,,,,,,,,,,,,,,,,,,
,,,,,,,0.320833333,0.003703704,1,0,0,0,11,11,16,1,0.33,0,17,001,2024-11-26_16h14.44.976,Attention_exp_legacy,2023.1.0,Win32,59.88023952,calibration_square,,,,,,,,,,,,,,,,,,,,,,,,,,,,,,,,,,,,,,,,,,,,,,,,,,,,,,,,
,,,,,,,-0.33125,-0.324074074,1,0,0,0,12,12,5,1,-0.33,-0.33,17,001,2024-11-26_16h14.44.976,Attention_exp_legacy,2023.1.0,Win32,59.88023952,calibration_square,,,,,,,,,,,,,,,,,,,,,,,,,,,,,,,,,,,,,,,,,,,,,,,,,,,,,,,,
,,,,,,,-0.669791667,0.007407407,1,0,0,0,13,13,2,1,-0.67,0,17,001,2024-11-26_16h14.44.976,Attention_exp_legacy,2023.1.0,Win32,59.88023952,calibration_square,,,,,,,,,,,,,,,,,,,,,,,,,,,,,,,,,,,,,,,,,,,,,,,,,,,,,,,,
,,,,,,,-0.35,0.32962963,1,0,0,0,14,14,7,1,-0.33,0.33,17,001,2024-11-26_16h14.44.976,Attention_exp_legacy,2023.1.0,Win32,59.88023952,,,,,,,,,,,,,,,,,,,,,,,,,,,,,,,,,,,,,,,,,,,,,,,,,,,,,,,,,
,,,,,,,-0.670833333,-0.32962963,1,0,0,0,15,15,1,1,-0.67,-0.33,17,001,2024-11-26_16h14.44.976,Attention_exp_legacy,2023.1.0,Win32,59.88023952,calibration_square,,,,,,,,,,,,,,,,,,,,,,,,,,,,,,,,,,,,,,,,,,,,,,,,,,,,,,,,
,,,,,,,-0.322916667,-0.67962963,1,0,0,0,16,16,4,1,-0.33,-0.67,17,001,2024-11-26_16h14.44.976,Attention_exp_legacy,2023.1.0,Win32,59.88023952,calibration_square,,,,,,,,,,,,,,,,,,,,,,,,,,,,,,,,,,,,,,,,,,,,,,,,,,,,,,,,
,,,,,,,0.665625,0.672222222,1,0,0,0,17,17,19,1,0.67,0.67,17,001,2024-11-26_16h14.44.976,Attention_exp_legacy,2023.1.0,Win32,59.88023952,calibration_square,,,,,,,,,,,,,,,,,,,,,,,,,,,,,,,,,,,,,,,,,,,,,,,,,,,,,,,,
,,,,,,,-0.669791667,0.327777778,1,0,0,0,18,18,3,1,-0.67,0.33,17,001,2024-11-26_16h14.44.976,Attention_exp_legacy,2023.1.0,Win32,59.88023952,calibration_square,,,,,,,,,,,,,,,,,,,,,,,,,,,,,,,,,,,,,,,,,,,,,,,,,,,,,,,,
,,,,,,,0.677083333,-0.681481481,1,0,0,0,19,19,20,1,0.67,-0.67,17,001,2024-11-26_16h14.44.976,Attention_exp_legacy,2023.1.0,Win32,59.88023952,,,,,,,,,,,,,,,,,,,,,,,,,,,,,,,,,,,,,,,,,,,,,,,,,,,,,,,,,
,,,,,,,-0.333333333,0.651851852,1,0,0,0,20,20,8,1,-0.33,0.67,17,001,2024-11-26_16h14.44.976,Attention_exp_legacy,2023.1.0,Win32,59.88023952,,,,,,,,,,,,,,,,,,,,,,,,,,,,,,,,,,,,,,,,,,,,,,,,,,,,,,,,,
,,,,,,,,,,,,,,,,,,,17,001,2024-11-26_16h14.44.976,Attention_exp_legacy,2023.1.0,Win32,59.88023952,,"[1920,1080]","[640,480]",[-0.007291666666666667],[-0.4925925925925926],[1],[0],[0],[2.8459999999999965],"[""StartButton""]",[0.05],[0.1648148148148148],[1],[0],[0],[7.283399999991062],"[""Metro_label""]",Metro_label,1,8.2932,"[[0.4322916666666667,-0.23148148148148148],[0.4322916666666667,-0.23148148148148148],[0.4322916666666667,-0.23148148148148148],[0.4322916666666667,-0.23148148148148148],[0.4322916666666667,-0.23148148148148148],[0.4322916666666667,-0.23333333333333334],[0.4322916666666667,-0.23333333333333334],[0.4322916666666667,-0.23333333333333334],[0.4322916666666667,-0.23333333333333334],[0.4322916666666667,-0.23333333333333334],[0.4322916666666667,-0.23333333333333334],[0.4322916666666667,-0.23333333333333334],[0.4322916666666667,-0.23333333333333334],[0.4322916666666667,-0.23333333333333334],[0.4322916666666667,-0.23333333333333334],[0.4322916666666667,-0.23333333333333334],[0.4322916666666667,-0.23333333333333334],[0.4322916666666667,-0.23333333333333334],[0.4322916666666667,-0.23333333333333334],[0.4322916666666667,-0.23333333333333334],[0.4322916666666667,-0.23333333333333334],[0.4322916666666667,-0.23333333333333334],[0.4322916666666667,-0.23333333333333334],[0.4322916666666667,-0.23333333333333334],[0.4322916666666667,-0.23333333333333334],[0.4322916666666667,-0.23333333333333334],[0.4322916666666667,-0.23333333333333334],[0.4322916666666667,-0.23333333333333334],[0.4322916666666667,-0.23333333333333334],[0.4322916666666667,-0.23333333333333334],[0.4322916666666667,-0.23333333333333334],[0.4322916666666667,-0.23333333333333334],[0.4322916666666667,-0.23333333333333334],[0.4322916666666667,-0.23333333333333334],[0.4322916666666667,-0.23333333333333334],[0.4322916666666667,-0.23333333333333334],[0.4322916666666667,-0.23333333333333334],[0.4322916666666667,-0.23333333333333334],[0.4322916666666667,-0.23333333333333334],[0.4322916666666667,-0.23333333333333334],[0.4322916666666667,-0.23333333333333334],[0.4322916666666667,-0.23333333333333334],[0.4322916666666667,-0.23333333333333334],[0.4322916666666667,-0.23333333333333334],[0.4322916666666667,-0.23333333333333334],[0.4322916666666667,-0.23333333333333334],[0.43125,-0.23333333333333334],[0.43020833333333336,-0.23333333333333334],[0.43020833333333336,-0.23333333333333334],[0.43020833333333336,-0.23333333333333334],[0.43020833333333336,-0.23333333333333334],[0.43020833333333336,-0.23333333333333334],[0.43020833333333336,-0.23333333333333334],[0.43020833333333336,-0.23333333333333334],[0.43020833333333336,-0.23333333333333334],[0.43020833333333336,-0.23333333333333334],[0.43020833333333336,-0.23333333333333334],[0.43020833333333336,-0.23333333333333334],[0.43020833333333336,-0.23333333333333334],[0.43020833333333336,-0.23333333333333334],[0.43020833333333336,-0.23333333333333334],[0.43020833333333336,-0.23333333333333334],[0.43020833333333336,-0.23333333333333334],[0.43020833333333336,-0.23333333333333334],[0.43020833333333336,-0.23333333333333334],[0.43020833333333336,-0.23333333333333334],[0.43020833333333336,-0.23333333333333334],[0.43020833333333336,-0.23333333333333334],[0.43020833333333336,-0.23333333333333334],[0.43020833333333336,-0.23333333333333334],[0.43020833333333336,-0.23333333333333334],[0.43020833333333336,-0.23333333333333334],[0.43020833333333336,-0.23333333333333334],[0.43020833333333336,-0.23333333333333334],[0.43020833333333336,-0.23333333333333334],[0.43020833333333336,-0.23333333333333334],[0.43020833333333336,-0.23333333333333334],[0.43020833333333336,-0.23333333333333334],[0.43020833333333336,-0.23333333333333334],[0.43020833333333336,-0.23333333333333334],[0.43020833333333336,-0.23333333333333334],[0.43020833333333336,-0.23333333333333334],[0.43020833333333336,-0.23333333333333334],[0.43020833333333336,-0.23333333333333334],[0.43020833333333336,-0.23333333333333334],[0.43020833333333336,-0.23333333333333334],[0.43020833333333336,-0.23333333333333334],[0.43020833333333336,-0.23333333333333334],[0.43020833333333336,-0.23333333333333334],[0.43020833333333336,-0.23333333333333334],[0.43020833333333336,-0.23333333333333334],[0.43020833333333336,-0.23333333333333334],[0.43020833333333336,-0.23333333333333334],[0.43020833333333336,-0.23333333333333334],[0.43020833333333336,-0.23333333333333334],[0.43020833333333336,-0.23333333333333334],[0.43020833333333336,-0.23333333333333334],[0.43020833333333336,-0.23333333333333334],[0.43020833333333336,-0.23333333333333334],[0.43020833333333336,-0.23333333333333334],[0.43020833333333336,-0.23333333333333334],[0.43020833333333336,-0.23333333333333334],[0.43020833333333336,-0.23333333333333334],[0.43020833333333336,-0.23333333333333334],[0.43020833333333336,-0.23333333333333334],[0.43020833333333336,-0.23333333333333334],[0.43020833333333336,-0.23333333333333334],[0.43020833333333336,-0.23333333333333334],[0.43020833333333336,-0.23333333333333334],[0.43020833333333336,-0.23333333333333334],[0.43020833333333336,-0.23333333333333334],[0.43020833333333336,-0.23333333333333334],[0.43020833333333336,-0.23333333333333334],[0.43020833333333336,-0.23333333333333334],[0.43020833333333336,-0.23333333333333334],[0.43020833333333336,-0.23333333333333334],[0.43020833333333336,-0.23333333333333334],[0.43020833333333336,-0.23333333333333334],[0.43020833333333336,-0.23333333333333334],[0.43020833333333336,-0.23333333333333334],[0.43020833333333336,-0.23333333333333334],[0.43020833333333336,-0.23333333333333334],[0.43020833333333336,-0.23333333333333334],[0.43020833333333336,-0.23333333333333334],[0.43020833333333336,-0.23333333333333334],[0.43020833333333336,-0.23333333333333334],[0.43020833333333336,-0.23333333333333334],[0.43020833333333336,-0.23333333333333334],[0.43020833333333336,-0.23333333333333334],[0.43020833333333336,-0.23333333333333334],[0.43020833333333336,-0.23333333333333334],[0.43020833333333336,-0.23333333333333334],[0.43020833333333336,-0.23333333333333334],[0.43020833333333336,-0.23333333333333334],[0.43020833333333336,-0.23333333333333334],[0.43020833333333336,-0.23333333333333334],[0.43020833333333336,-0.23333333333333334],[0.43020833333333336,-0.23333333333333334],[0.43020833333333336,-0.23333333333333334],[0.43020833333333336,-0.23333333333333334],[0.43020833333333336,-0.23333333333333334],[0.43020833333333336,-0.23333333333333334],[0.43020833333333336,-0.23333333333333334],[0.43020833333333336,-0.23333333333333334],[0.43020833333333336,-0.23333333333333334],[0.43020833333333336,-0.23333333333333334],[0.43020833333333336,-0.23333333333333334],[0.43020833333333336,-0.23333333333333334],[0.43020833333333336,-0.23333333333333334],[0.43020833333333336,-0.23333333333333334],[0.43020833333333336,-0.23333333333333334],[0.43020833333333336,-0.23333333333333334],[0.43020833333333336,-0.23333333333333334],[0.43020833333333336,-0.23333333333333334],[0.43020833333333336,-0.23333333333333334],[0.43020833333333336,-0.23333333333333334],[0.43020833333333336,-0.23333333333333334],[0.43020833333333336,-0.23333333333333334],[0.43020833333333336,-0.23333333333333334],[0.43020833333333336,-0.23333333333333334],[0.43020833333333336,-0.23333333333333334],[0.43020833333333336,-0.23333333333333334],[0.43020833333333336,-0.23333333333333334],[0.43020833333333336,-0.23333333333333334],[0.43020833333333336,-0.23333333333333334],[0.43020833333333336,-0.23333333333333334],[0.43020833333333336,-0.23333333333333334],[0.43020833333333336,-0.23333333333333334],[0.43020833333333336,-0.23333333333333334],[0.43020833333333336,-0.23333333333333334],[0.43020833333333336,-0.23333333333333334],[0.43020833333333336,-0.23333333333333334],[0.42291666666666666,-0.23333333333333334],[0.40625,-0.24259259259259258],[0.3729166666666667,-0.25],[0.309375,-0.2574074074074074],[0.23854166666666668,-0.2574074074074074],[0.16041666666666668,-0.22962962962962963],[0.13333333333333333,-0.20185185185185187],[0.1125,-0.17222222222222222],[0.10416666666666667,-0.1574074074074074],[0.08333333333333333,-0.11666666666666667],[0.07083333333333333,-0.08518518518518518],[0.058333333333333334,-0.05185185185185185],[0.04479166666666667,-0.020370370370370372],[0.03333333333333333,0.012962962962962963],[0.027083333333333334,0.03888888888888889],[0.022916666666666665,0.06111111111111111],[0.021875,0.08703703703703704],[0.021875,0.0962962962962963],[0.021875,0.1111111111111111],[0.022916666666666665,0.12777777777777777],[0.025,0.1388888888888889],[0.027083333333333334,0.15185185185185185],[0.028125,0.1537037037037037],[0.030208333333333334,0.16111111111111112],[0.030208333333333334,0.16111111111111112],[0.03125,0.16111111111111112],[0.03229166666666667,0.16111111111111112],[0.036458333333333336,0.16296296296296298],[0.03854166666666667,0.1648148148148148],[0.03958333333333333,0.1648148148148148],[0.040625,0.1648148148148148],[0.04375,0.1648148148148148],[0.04375,0.1648148148148148],[0.046875,0.1648148148148148],[0.04895833333333333,0.1648148148148148],[0.05,0.1648148148148148],[0.05,0.1648148148148148],[0.05,0.1648148148148148],[0.05,0.1648148148148148],[0.05,0.1648148148148148],[0.05,0.1648148148148148],[0.05,0.1648148148148148],[0.05,0.1648148148148148],[0.05,0.1648148148148148],[0.05,0.1648148148148148],[0.05,0.1648148148148148],[0.05,0.1648148148148148],[0.05,0.1648148148148148],[0.05,0.1648148148148148],[0.05,0.1648148148148148],[0.05,0.1648148148148148],[0.05,0.1648148148148148],[0.05,0.1648148148148148],[0.05,0.1648148148148148],[0.05,0.1648148148148148],[0.05,0.1648148148148148],[0.05,0.1648148148148148],[0.05,0.1648148148148148],[0.05,0.1648148148148148],[0.05,0.1648148148148148],[0.05,0.1648148148148148],[0.05,0.1648148148148148],[0.05,0.1648148148148148],[0.05,0.1648148148148148],[0.05,0.1648148148148148],[0.05,0.1648148148148148],[0.05,0.1648148148148148],[0.05,0.1648148148148148],[0.05,0.1648148148148148],[0.05,0.1648148148148148],[0.05,0.1648148148148148],[0.05,0.1648148148148148],[0.05,0.1648148148148148],[0.05,0.1648148148148148],[0.05,0.1648148148148148],[0.05,0.1648148148148148],[0.05,0.1648148148148148],[0.05,0.1648148148148148],[0.05,0.1648148148148148],[0.05,0.1648148148148148],[0.05,0.1648148148148148],[0.05,0.1648148148148148],[0.05,0.1648148148148148],[0.05,0.1648148148148148],[0.05,0.1648148148148148],[0.05,0.1648148148148148],[0.05,0.1648148148148148],[0.05,0.1648148148148148],[0.05,0.1648148148148148],[0.05,0.1648148148148148],[0.05,0.1648148148148148],[0.05,0.1648148148148148],[0.05,0.1648148148148148],[0.05,0.1648148148148148],[0.05,0.1648148148148148],[0.05,0.1648148148148148],[0.05,0.1648148148148148],[0.05,0.1648148148148148],[0.05,0.1648148148148148],[0.05,0.1648148148148148],[0.05,0.1648148148148148],[0.05,0.1648148148148148],[0.05,0.1648148148148148],[0.05,0.1648148148148148],[0.05,0.1648148148148148],[0.05,0.1648148148148148],[0.05,0.1648148148148148],[0.05,0.1648148148148148],[0.05,0.1648148148148148],[0.05,0.1648148148148148],[0.05,0.1648148148148148],[0.05,0.1648148148148148],[0.05,0.1648148148148148],[0.05,0.1648148148148148],[0.05,0.1648148148148148],[0.05,0.1648148148148148],[0.05,0.1648148148148148],[0.05,0.1648148148148148],[0.05,0.1648148148148148],[0.05,0.1648148148148148],[0.05,0.1648148148148148],[0.05,0.1648148148148148],[0.05,0.1648148148148148],[0.05,0.1648148148148148],[0.05,0.1648148148148148],[0.05,0.1648148148148148],[0.05,0.1648148148148148],[0.05,0.1648148148148148],[0.05,0.1648148148148148],[0.05,0.1648148148148148],[0.05,0.1648148148148148],[0.05,0.1648148148148148],[0.05,0.1648148148148148],[0.05,0.1648148148148148],[0.05,0.1648148148148148],[0.05,0.1648148148148148],[0.05,0.1648148148148148],[0.05,0.1648148148148148],[0.05,0.1648148148148148],[0.05,0.1648148148148148],[0.05,0.1648148148148148],[0.05,0.1648148148148148],[0.05,0.1648148148148148],[0.05,0.1648148148148148],[0.05,0.1648148148148148],[0.05,0.1648148148148148],[0.05,0.1648148148148148],[0.05,0.1648148148148148],[0.05,0.1648148148148148],[0.05,0.1648148148148148],[0.05,0.1648148148148148],[0.05,0.1648148148148148],[0.05,0.1648148148148148],[0.05,0.1648148148148148],[0.05,0.1648148148148148],[0.05,0.1648148148148148],[0.05,0.1648148148148148],[0.05,0.1648148148148148],[0.05,0.1648148148148148],[0.05,0.1648148148148148],[0.05,0.1648148148148148],[0.05,0.1648148148148148],[0.05,0.1648148148148148],[0.05,0.1648148148148148],[0.05,0.1648148148148148],[0.05,0.1648148148148148],[0.05,0.1648148148148148],[0.05,0.1648148148148148],[0.05,0.1648148148148148],[0.05,0.1648148148148148],[0.05,0.1648148148148148],[0.05,0.1648148148148148],[0.05,0.1648148148148148],[0.05,0.1648148148148148],[0.05,0.1648148148148148],[0.05,0.1648148148148148],[0.05,0.1648148148148148],[0.05,0.1648148148148148],[0.05,0.1648148148148148],[0.05,0.1648148148148148],[0.05,0.1648148148148148],[0.05,0.1648148148148148],[0.05,0.1648148148148148],[0.05,0.1648148148148148],[0.05,0.1648148148148148],[0.05,0.1648148148148148],[0.05,0.1648148148148148],[0.05,0.1648148148148148],[0.05,0.1648148148148148],[0.05,0.1648148148148148],[0.05,0.1648148148148148],[0.05,0.1648148148148148],[0.05,0.1648148148148148],[0.05,0.1648148148148148],[0.05,0.1648148148148148],[0.05,0.1648148148148148],[0.05,0.1648148148148148],[0.05,0.1648148148148148],[0.05,0.1648148148148148],[0.05,0.1648148148148148],[0.05,0.1648148148148148],[0.05,0.1648148148148148],[0.05,0.1648148148148148],[0.05,0.1648148148148148],[0.05,0.1648148148148148],[0.05,0.1648148148148148],[0.05,0.1648148148148148],[0.05,0.1648148148148148],[0.05,0.1648148148148148],[0.05,0.1648148148148148],[0.05,0.1648148148148148],[0.05,0.1648148148148148],[0.05,0.1648148148148148],[0.05,0.1648148148148148],[0.05,0.1648148148148148],[0.05,0.1648148148148148],[0.05,0.1648148148148148],[0.05,0.1648148148148148],[0.05,0.1648148148148148],[0.05,0.1648148148148148],[0.05,0.1648148148148148],[0.05,0.1648148148148148],[0.05,0.1648148148148148],[0.05,0.1648148148148148],[0.05,0.1648148148148148],[0.05,0.1648148148148148],[0.05,0.1648148148148148],[0.05,0.1648148148148148],[0.05,0.1648148148148148],[0.05,0.1648148148148148],[0.05,0.1648148148148148],[0.05,0.1648148148148148],[0.05,0.1648148148148148],[0.05,0.1648148148148148],[0.05,0.1648148148148148],[0.05,0.1648148148148148],[0.05,0.1648148148148148],[0.05,0.1648148148148148],[0.05,0.1648148148148148],[0.05,0.1648148148148148],[0.05,0.1648148148148148],[0.05,0.1648148148148148],[0.05,0.1648148148148148],[0.05,0.1648148148148148],[0.05,0.1648148148148148],[0.05,0.1648148148148148],[0.05,0.1648148148148148],[0.05,0.1648148148148148],[0.05,0.1648148148148148],[0.05,0.1648148148148148],[0.05,0.1648148148148148],[0.05,0.1648148148148148],[0.05,0.1648148148148148],[0.05,0.1648148148148148],[0.05,0.1648148148148148],[0.05,0.1648148148148148],[0.05,0.1648148148148148],[0.05,0.1648148148148148],[0.05,0.1648148148148148],[0.05,0.1648148148148148],[0.05,0.1648148148148148],[0.05,0.1648148148148148],[0.05,0.1648148148148148],[0.05,0.1648148148148148],[0.05,0.1648148148148148],[0.05,0.1648148148148148],[0.05,0.1648148148148148],[0.05,0.1648148148148148],[0.05,0.1648148148148148],[0.05,0.1648148148148148],[0.05,0.1648148148148148],[0.05,0.1648148148148148],[0.05,0.1648148148148148],[0.05,0.1648148148148148],[0.05,0.1648148148148148],[0.05,0.1648148148148148],[0.05,0.1648148148148148],[0.05,0.1648148148148148],[0.05,0.1648148148148148],[0.05,0.1648148148148148],[0.05,0.1648148148148148],[0.05,0.1648148148148148],[0.05,0.1648148148148148],[0.05,0.1648148148148148],[0.05,0.1648148148148148],[0.05,0.1648148148148148],[0.05,0.1648148148148148],[0.05,0.1648148148148148],[0.05,0.1648148148148148],[0.05,0.1648148148148148],[0.05,0.1648148148148148],[0.05,0.1648148148148148],[0.05,0.1648148148148148],[0.05,0.1648148148148148],[0.05,0.1648148148148148],[0.05,0.1648148148148148],[0.05,0.1648148148148148],[0.05,0.1648148148148148],[0.05,0.1648148148148148],[0.05,0.1648148148148148],[0.05,0.1648148148148148],[0.05,0.1648148148148148],[0.05,0.1648148148148148],[0.05,0.1648148148148148],[0.05,0.1648148148148148],[0.05,0.1648148148148148],[0.05,0.1648148148148148],[0.05,0.1648148148148148],[0.05,0.1648148148148148],[0.05,0.1648148148148148],[0.05,0.1648148148148148],[0.05,0.1648148148148148],[0.05,0.1648148148148148],[0.05,0.1648148148148148],[0.05,0.1648148148148148],[0.05,0.1648148148148148],[0.05,0.1648148148148148],[0.05,0.1648148148148148],[0.05,0.1648148148148148],[0.05,0.1648148148148148],[0.05,0.1648148148148148],[0.05,0.1648148148148148],[0.05,0.1648148148148148],[0.05,0.1648148148148148],[0.05,0.1648148148148148]]","[[0.03135416666666669,0.6449999999999999],[0.03135416666666669,0.6449999999999999],[0.03135416666666669,0.6449999999999999],[0.07156250000000004,0.6618518518518518],[0.05020833333333338,0.643148148148148],[0.024687500000000046,0.6550000000000001],[0.024687500000000046,0.6550000000000001],[0.08770833333333337,0.602037037037037],[0.12750000000000009,0.5603703703703704],[0.12458333333333324,0.5418518518518519],[0.12145833333333324,0.5111111111111111],[0.15322916666666658,0.47018518518518515],[0.18114583333333342,0.43925925925925935],[0.18395833333333325,0.44518518518518513],[0.1678124999999999,0.4348148148148147],[0.19031250000000005,0.4444444444444444],[0.20895833333333325,0.4038888888888889],[0.19229166666666658,0.4118518518518518],[0.1727083333333333,0.412962962962963],[0.1727083333333333,0.412962962962963],[0.17854166666666677,0.4305555555555556],[0.19322916666666667,0.42833333333333323],[0.1984375,0.47166666666666673],[0.19177083333333325,0.4699999999999999],[0.19177083333333325,0.4699999999999999],[0.20604166666666662,0.4390740740740741],[0.22531249999999994,0.4022222222222223],[0.22843749999999996,0.41092592592592586],[0.22802083333333342,0.3888888888888889],[0.19947916666666668,0.38055555555555554],[0.2163541666666667,0.38333333333333336],[0.2099999999999999,0.3494444444444445],[0.1787499999999999,0.3485185185185186],[0.1382291666666667,0.32148148148148153],[0.1382291666666667,0.32148148148148153],[0.10958333333333338,0.3394444444444444],[0.07114583333333328,0.362962962962963],[0.043124999999999976,0.37185185185185177],[0.029062499999999977,0.35722222222222216],[-0.0009374999999999763,0.3785185185185185],[-0.014479166666666644,0.3966666666666668],[-0.044375000000000026,0.4050000000000001],[-0.06812499999999998,0.43555555555555564],[-0.06458333333333334,0.43925925925925935],[-0.06458333333333334,0.43925925925925935],[-0.06052083333333336,0.4388888888888889],[-0.0704166666666667,0.4583333333333333],[-0.050625000000000024,0.4596296296296297],[-0.06177083333333329,0.46333333333333343],[-0.06177083333333329,0.46333333333333343],[-0.07739583333333329,0.4692592592592592],[-0.05645833333333338,0.4735185185185186],[-0.04375,0.4685185185185185],[-0.04375,0.4685185185185185],[-0.013854166666666619,0.47537037037037044],[-0.013854166666666619,0.47537037037037044],[0.01572916666666669,0.48555555555555563],[0.03572916666666662,0.5037037037037037],[0.05572916666666667,0.5218518518518518],[0.08833333333333329,0.5096296296296298],[0.10104166666666667,0.51],[0.12729166666666672,0.5346296296296297],[0.15354166666666677,0.5592592592592592],[0.16291666666666677,0.5672222222222222],[0.16291666666666677,0.5672222222222222],[0.1772916666666667,0.5881481481481482],[0.16541666666666663,0.5953703703703703],[0.1955208333333334,0.5737037037037036],[0.2087500000000001,0.5692592592592592],[0.20385416666666673,0.5890740740740741],[0.20385416666666673,0.5890740740740741],[0.20031249999999995,0.6194444444444445],[0.17218749999999997,0.6316666666666667],[0.17218749999999997,0.6316666666666667],[0.16708333333333342,0.6040740740740742],[0.18250000000000005,0.5844444444444444],[0.1884375000000001,0.557037037037037],[0.2103125000000001,0.5381481481481482],[0.22166666666666662,0.527962962962963],[0.22166666666666662,0.527962962962963],[0.18604166666666658,0.552962962962963],[0.1640625,0.5762962962962964],[0.1640625,0.5762962962962964],[0.159375,0.5812962962962962],[0.159375,0.5812962962962962],[0.1609375,0.5235185185185186],[0.1929166666666667,0.532037037037037],[0.2007291666666667,0.5277777777777778],[0.18802083333333333,0.5155555555555555],[0.19572916666666676,0.5212962962962963],[0.19572916666666676,0.5212962962962963],[0.17677083333333338,0.5464814814814816],[0.16958333333333328,0.5511111111111111],[0.16958333333333328,0.5511111111111111],[0.17354166666666657,0.531111111111111],[0.16291666666666677,0.5148148148148148],[0.153125,0.4925925925925926],[0.1414583333333333,0.5046296296296297],[0.1368750000000001,0.4699999999999999],[0.15395833333333328,0.48407407407407405],[0.14177083333333323,0.4781481481481482],[0.11843750000000004,0.4751851851851852],[0.1234375,0.4381481481481482],[0.13333333333333333,0.40907407407407403],[0.14458333333333329,0.4101851851851852],[0.17197916666666657,0.3977777777777777],[0.1993750000000001,0.3853703703703704],[0.23093750000000005,0.40925925925925927],[0.24958333333333324,0.4316666666666667],[0.1990624999999999,0.4242592592592593],[0.17781250000000004,0.4368518518518518],[0.15,0.4583333333333333],[0.15,0.4583333333333333],[0.10864583333333329,0.47740740740740734],[0.058541666666666714,0.5005555555555554],[0.0005208333333333333,0.5087037037037038],[-0.057500000000000044,0.5168518518518519],[-0.09604166666666672,0.5277777777777778],[-0.09604166666666672,0.5277777777777778],[-0.14312499999999997,0.530925925925926],[-0.18645833333333334,0.5142592592592593],[-0.16697916666666662,0.5401851851851853],[-0.14750000000000002,0.5661111111111112],[-0.12416666666666672,0.5668518518518519],[-0.12416666666666672,0.5668518518518519],[-0.10343749999999995,0.5764814814814814],[-0.07718750000000002,0.5803703703703703],[-0.05020833333333338,0.5840740740740741],[-0.02510416666666669,0.5611111111111111],[-0.005937500000000048,0.552962962962963],[0.013229166666666714,0.5448148148148149],[0.03927083333333338,0.5801851851851851],[0.050520833333333334,0.5746296296296295],[0.04510416666666662,0.5535185185185185],[0.04479166666666667,0.5842592592592593],[0.05375000000000003,0.5475925925925926],[0.06593749999999995,0.5125925925925925],[0.07906250000000009,0.47981481481481486],[0.09406249999999995,0.4737037037037036],[0.09614583333333329,0.49537037037037035],[0.09822916666666662,0.5170370370370371],[0.10208333333333333,0.4985185185185186],[0.11624999999999991,0.4844444444444445],[0.12791666666666662,0.4807407407407408],[0.12791666666666662,0.4807407407407408],[0.12687499999999996,0.4372222222222223],[0.15302083333333344,0.4766666666666666],[0.15968749999999995,0.5374074074074074],[0.1462500000000001,0.5442592592592592],[0.1462500000000001,0.5442592592592592],[0.1328125,0.5511111111111111],[0.12166666666666662,0.5422222222222222],[0.10822916666666677,0.4981481481481482],[0.08239583333333324,0.4705555555555556],[0.049583333333333354,0.4448148148148149],[0.00635416666666669,0.43796296296296294],[-0.026979166666666644,0.4335185185185186],[-0.0829166666666667,0.3983333333333334],[-0.12604166666666666,0.3516666666666666],[-0.1304166666666667,0.36129629629629634],[-0.13479166666666664,0.3709259259259258],[-0.15364583333333334,0.3446296296296297],[-0.17020833333333332,0.35351851851851845],[-0.19260416666666663,0.36925925925925923],[-0.19260416666666663,0.36925925925925923],[-0.21499999999999997,0.38499999999999995],[-0.18395833333333336,0.3709259259259258],[-0.15666666666666665,0.40018518518518525],[-0.15666666666666665,0.40018518518518525],[-0.1616666666666667,0.4103703703703704],[-0.1616666666666667,0.4103703703703704],[-0.17145833333333335,0.4118518518518518],[-0.17145833333333335,0.4118518518518518],[-0.12937500000000005,0.4212962962962963],[-0.12937500000000005,0.4212962962962963],[-0.11322916666666671,0.43740740740740747],[-0.0484375,0.4359259259259259],[-0.005520833333333286,0.42592592592592593],[0.043229166666666666,0.40907407407407403],[0.09708333333333338,0.3918518518518519],[0.09708333333333338,0.3918518518518519],[0.109375,0.38259259259259265],[0.1009375000000001,0.35259259259259257],[0.1125,0.36870370370370376],[0.1125,0.36870370370370376],[0.1734375,0.33499999999999996],[0.16989583333333325,0.2601851851851852],[0.18614583333333337,0.20555555555555555],[0.14270833333333333,0.16518518518518527],[0.14270833333333333,0.16518518518518527],[0.14249999999999996,0.1388888888888889],[0.11885416666666657,0.12611111111111115],[0.09010416666666667,0.11370370370370367],[0.08385416666666666,0.1337037037037038],[0.08385416666666666,0.1337037037037038],[0.09812500000000005,0.13111111111111104],[0.11260416666666657,0.11259259259259251],[0.08791666666666677,0.12037037037037036],[0.08791666666666677,0.12037037037037036],[0.06281249999999995,0.18555555555555564],[0.05437500000000005,0.18000000000000008],[0.06854166666666663,0.18407407407407403],[0.04885416666666664,0.16814814814814807],[0.03947916666666664,0.1905555555555555],[0.03947916666666664,0.1905555555555555],[0.030104166666666644,0.21296296296296297],[0.03166666666666664,0.122037037037037],[0.03781249999999995,0.0698148148148149],[0.04562499999999995,0.027962962962963005],[0.07802083333333343,-0.0014814814814813973],[0.10385416666666672,-0.059814814814814835],[0.12364583333333339,-0.07000000000000002],[0.14052083333333343,-0.07314814814814814],[0.13562500000000005,-0.08314814814814811],[0.13562500000000005,-0.08314814814814811],[0.15822916666666675,-0.13851851851851854],[0.1977083333333333,-0.20537037037037034],[0.21822916666666667,-0.17018518518518513],[0.23854166666666668,-0.17185185185185187],[0.23854166666666668,-0.17185185185185187],[0.2555208333333333,-0.18851851851851853],[0.24427083333333333,-0.19537037037037036],[0.2621875000000001,-0.1985185185185185],[0.2756249999999999,-0.2059259259259259],[0.3068749999999999,-0.2168518518518519],[0.36770833333333336,-0.20055555555555557],[0.41416666666666657,-0.19074074074074074],[0.4033333333333334,-0.17888888888888893],[0.39572916666666674,-0.17999999999999997],[0.39572916666666674,-0.17999999999999997],[0.4006249999999999,-0.1727777777777778],[0.4202083333333334,-0.1661111111111111],[0.4202083333333334,-0.1661111111111111],[0.4227083333333333,-0.1514814814814815],[0.4227083333333333,-0.1514814814814815],[0.4076041666666666,-0.14888888888888885],[0.3633333333333333,-0.11018518518518519],[0.2989583333333333,-0.10018518518518522],[0.2989583333333333,-0.10018518518518522],[0.2625,-0.08870370370370366],[0.2275000000000001,-0.06703703703703702],[0.2178124999999999,-0.05907407407407403],[0.20812499999999995,-0.051111111111111156],[0.20812499999999995,-0.051111111111111156],[0.20114583333333325,-0.04981481481481477],[0.17718749999999991,-0.08314814814814811],[0.17718749999999991,-0.08314814814814811],[0.17000000000000004,-0.0772222222222222],[0.1506249999999999,-0.07685185185185185],[0.1506249999999999,-0.07685185185185185],[0.16041666666666668,-0.11259259259259262],[0.1756249999999999,-0.12074074074074072],[0.16760416666666675,-0.13629629629629633],[0.11989583333333324,-0.12981481481481486],[0.11989583333333324,-0.12981481481481486],[0.08802083333333334,-0.0955555555555556],[0.057291666666666664,-0.07907407407407405],[0.025520833333333333,-0.07462962962962966],[-0.005104166666666643,-0.0242592592592593],[-0.005104166666666643,-0.0242592592592593],[-0.04239583333333338,-0.014629629629629588],[-0.06322916666666671,0.03481481481481473],[-0.08093750000000005,0.09907407407407408],[-0.10479166666666669,0.1668518518518519],[-0.10479166666666669,0.1668518518518519],[-0.12864583333333332,0.23462962962962972],[-0.11906249999999995,0.282037037037037],[-0.1094791666666667,0.3198148148148149],[-0.11104166666666669,0.37037037037037035],[-0.1267708333333334,0.43129629629629623],[-0.12218749999999995,0.4777777777777778],[-0.10572916666666667,0.5179629629629631],[-0.1358333333333333,0.5651851851851852],[-0.16687500000000005,0.5918518518518519],[-0.19197916666666662,0.6125925925925925],[-0.19979166666666662,0.6096296296296297],[-0.20281250000000003,0.5948148148148149],[-0.19375,0.5914814814814814],[-0.17468750000000005,0.5931481481481481],[-0.17552083333333332,0.6083333333333333],[-0.1733333333333333,0.617962962962963],[-0.17958333333333332,0.6248148148148148],[-0.15510416666666665,0.5987037037037036],[-0.11041666666666666,0.5744444444444445],[-0.0796875,0.5527777777777778],[-0.07677083333333339,0.5568518518518519],[-0.07104166666666671,0.5307407407407407],[-0.07124999999999998,0.5414814814814815],[-0.07104166666666671,0.4903703703703703],[-0.07104166666666671,0.4903703703703703],[-0.07312500000000005,0.48648148148148157],[-0.09291666666666672,0.459074074074074],[-0.09291666666666672,0.459074074074074],[-0.11635416666666672,0.44351851851851853],[-0.09802083333333336,0.4329629629629629],[-0.10177083333333338,0.4264814814814814],[-0.04583333333333333,0.427962962962963],[0.0046875,0.4051851851851851],[0.05239583333333329,0.4125925925925925],[0.05239583333333329,0.4125925925925925],[0.08364583333333328,0.3942592592592592],[0.11052083333333323,0.4105555555555556],[0.12218749999999995,0.372037037037037],[0.175,0.3653703703703703],[0.175,0.3653703703703703],[0.23468749999999997,0.36999999999999994],[0.25895833333333323,0.3596296296296297],[0.2635416666666667,0.31925925925925924],[0.22729166666666673,0.2692592592592592],[0.22729166666666673,0.2692592592592592],[0.20260416666666667,0.2631481481481482],[0.17770833333333325,0.27074074074074084],[0.15333333333333338,0.22611111111111115],[0.1396874999999999,0.22037037037037038],[0.1634375000000001,0.1925925925925926],[0.14322916666666666,0.17037037037037037],[0.1212500000000001,0.15537037037037033],[0.09291666666666672,0.15037037037037046],[0.08947916666666676,0.16314814814814818],[0.08114583333333343,0.175],[0.058333333333333334,0.17462962962962955],[0.03572916666666662,0.16055555555555565],[0.022187499999999954,0.18111111111111103],[-0.009687499999999953,0.19444444444444445],[-0.009687499999999953,0.19444444444444445],[-0.034895833333333334,0.18925925925925935],[-0.05166666666666669,0.1985185185185186],[-0.06572916666666669,0.18333333333333332],[-0.07979166666666669,0.16814814814814807],[-0.08645833333333333,0.17592592592592593],[-0.09312499999999997,0.18370370370370379],[-0.10093749999999997,0.18870370370370365],[-0.10093749999999997,0.18870370370370365],[-0.08999999999999998,0.1868518518518518],[-0.08999999999999998,0.1868518518518518],[-0.07677083333333339,0.2264814814814814],[-0.0484375,0.25314814814814823],[-0.021041666666666715,0.29000000000000004],[-0.0010416666666666667,0.3135185185185184],[0.02322916666666662,0.3338888888888888],[0.044479166666666715,0.3416666666666667],[0.05281250000000005,0.33851851851851844],[0.06114583333333338,0.33537037037037043],[0.09072916666666657,0.3594444444444445],[0.09072916666666657,0.3594444444444445],[0.10708333333333328,0.3762962962962964],[0.12114583333333329,0.3516666666666666],[0.14427083333333332,0.34148148148148144],[0.1540625000000001,0.3253703703703705],[0.15927083333333342,0.32592592592592595],[0.16447916666666676,0.3264814814814814],[0.17635416666666662,0.36148148148148157],[0.17635416666666662,0.36148148148148157],[0.18822916666666673,0.39648148148148155],[0.18822916666666673,0.39648148148148155],[0.16822916666666668,0.42555555555555546],[0.1740624999999999,0.3890740740740741],[0.17385416666666675,0.3764814814814814],[0.1736458333333334,0.3638888888888889],[0.1736458333333334,0.3638888888888889],[0.13020833333333334,0.3461111111111111],[0.09760416666666671,0.38499999999999995],[0.06854166666666663,0.40611111111111103],[0.06854166666666663,0.40611111111111103],[0.0655208333333333,0.4198148148148149],[0.044062499999999956,0.3725925925925927],[0.005312500000000024,0.3405555555555555],[0.005312500000000024,0.3405555555555555],[-0.0015625,0.31444444444444436],[-0.0015625,0.31444444444444436],[-0.04583333333333333,0.34518518518518515],[-0.0953125,0.3475925925925927],[-0.12562500000000001,0.3581481481481481],[-0.13489583333333333,0.34629629629629627],[-0.14739583333333334,0.3081481481481481],[-0.14437500000000003,0.259074074074074],[-0.1766666666666667,0.24611111111111106],[-0.2133333333333333,0.24592592592592585],[-0.23270833333333332,0.23055555555555557],[-0.24604166666666671,0.230925925925926],[-0.24906250000000002,0.20611111111111102],[-0.21937500000000001,0.18703703703703703],[-0.20885416666666667,0.15981481481481474],[-0.17677083333333338,0.19907407407407407],[-0.17677083333333338,0.19907407407407407],[-0.14468749999999997,0.23833333333333342],[-0.11427083333333338,0.26592592592592595],[-0.08999999999999998,0.2727777777777777],[-0.05583333333333336,0.3164814814814814],[-0.02166666666666662,0.36018518518518516],[0.0034374999999999527,0.39888888888888885],[0.028541666666666642,0.43759259259259253],[0.035520833333333356,0.465],[0.035520833333333356,0.465],[0.042499999999999954,0.49240740740740735],[0.033749999999999974,0.4624074074074075],[0.025,0.4324074074074074],[0.018437500000000048,0.4425925925925926],[0.02041666666666669,0.41333333333333344],[0.035104166666666714,0.38629629629629636],[0.041979166666666616,0.38499999999999995],[0.042916666666666714,0.3509259259259259],[0.04385416666666669,0.3168518518518519],[0.05677083333333333,0.3316666666666667],[0.05677083333333333,0.3316666666666667],[0.0696875000000001,0.3464814814814815],[0.08770833333333337,0.3172222222222221],[0.10802083333333339,0.32166666666666677],[0.11364583333333324,0.3066666666666667],[0.12260416666666671,0.3109259259259259],[0.121875,0.3544444444444444],[0.10062499999999991,0.3375925925925925],[0.10062499999999991,0.3375925925925925],[0.08833333333333329,0.3427777777777778],[0.057500000000000044,0.33851851851851844],[0.005833333333333357,0.30944444444444447],[-0.029375000000000047,0.302962962962963],[-0.06593749999999995,0.3531481481481482],[-0.10479166666666669,0.3696296296296297],[-0.16218750000000004,0.3611111111111111],[-0.21604166666666663,0.3648148148148148],[-0.24947916666666667,0.3322222222222222],[-0.25458333333333333,0.33425925925925926],[-0.24125000000000002,0.31796296296296306],[-0.24125000000000002,0.31796296296296306],[-0.209375,0.3111111111111111],[-0.18562500000000004,0.32259259259259265],[-0.15895833333333337,0.3194444444444444],[-0.13229166666666667,0.3162962962962962],[-0.10614583333333331,0.2655555555555555],[-0.06281249999999995,0.24166666666666667],[-0.024479166666666666,0.22962962962962963],[-0.0003124999999999526,0.20185185185185187],[0.0390625,0.22962962962962963],[0.05604166666666662,0.20314814814814824],[0.058645833333333286,0.18574074074074065],[0.06937499999999991,0.15],[0.07291666666666667,0.09592592592592585],[0.07104166666666671,0.05722222222222218],[0.0696875000000001,0.06611111111111119],[0.06312500000000003,0.06833333333333329],[0.06218750000000005,0.09518518518518514],[0.06062500000000005,0.08555555555555563],[0.03125,0.022222222222222223],[0.022083333333333382,0.014814814814814815],[0.043229166666666666,-0.002777777777777778],[0.04208333333333331,0.01518518518518527],[0.02781250000000005,0.07814814814814823],[0.01895833333333338,0.1257407407407407],[0.021979166666666692,0.15648148148148147],[0.01864583333333331,0.1905555555555555],[0.011666666666666714,0.14055555555555552],[0.005312500000000024,0.1270370370370371],[0.018020833333333285,0.1205555555555556],[0.014479166666666644,0.1307407407407408],[0.018124999999999978,0.1814814814814815],[0.044062499999999956,0.19666666666666674],[0.05677083333333333,0.15407407407407417],[0.06947916666666672,0.11148148148148157],[0.08114583333333343,0.09444444444444444],[0.07583333333333328,0.07092592592592584],[0.07354166666666657,0.09499999999999992],[0.09343750000000005,0.1270370370370371],[0.09552083333333337,0.14537037037037037],[0.09552083333333337,0.14537037037037037],[0.10447916666666662,0.19499999999999992],[0.09031250000000005,0.2051851851851851],[0.07760416666666667,0.19370370370370374],[0.07145833333333323,0.1935185185185185],[0.07208333333333337,0.21518518518518526],[0.06187499999999998,0.22814814814814824],[0.08302083333333338,0.24388888888888896],[0.08302083333333338,0.24388888888888896],[0.10416666666666667,0.2596296296296297],[0.10416666666666667,0.2596296296296297],[0.08364583333333328,0.25925925925925924],[0.07322916666666662,0.27037037037037037],[0.059895833333333336,0.22666666666666663],[0.05770833333333331,0.18925925925925935],[0.05770833333333331,0.18925925925925935],[0.052187500000000026,0.16629629629629622],[0.05010416666666669,0.18518518518518517],[0.04125000000000002,0.18222222222222217],[0.05322916666666669,0.16703703703703712],[0.058229166666666644,0.172037037037037],[0.06322916666666671,0.17703703703703708],[0.08375000000000009,0.17703703703703708],[0.10552083333333329,0.17037037037037037],[0.12822916666666656,0.18296296296296288],[0.12822916666666656,0.18296296296296288],[0.1397916666666667,0.18925925925925935],[0.1538541666666667,0.23111111111111102],[0.1720833333333334,0.24296296296296305],[0.18010416666666676,0.2351851851851852],[0.18010416666666676,0.2351851851851852],[0.16729166666666656,0.23962962962962958],[0.17177083333333343,0.25685185185185194]]","[[0.03135416666666669,0.6449999999999999,0.0002999999970256795],[0.03135416666666669,0.6449999999999999,0.05150000000000432],[0.03135416666666669,0.6449999999999999,0.05719999998807879],[0.07156250000000004,0.6618518518518518,0.07389999999106323],[0.05020833333333338,0.643148148148148,0.09079999999702437],[0.024687500000000046,0.6550000000000001,0.1115000000000066],[0.024687500000000046,0.6550000000000001,0.12369999998808368],[0.08770833333333337,0.602037037037037,0.14050000000000296],[0.12750000000000009,0.5603703703703704,0.1600000000000037],[0.12458333333333324,0.5418518518518519,0.17450000000000188],[0.12145833333333324,0.5111111111111111,0.19069999998808385],[0.15322916666666658,0.47018518518518515,0.2070999999940426],[0.18114583333333342,0.43925925925925935,0.22689999999106192],[0.18395833333333325,0.44518518518518513,0.242299999997023],[0.1678124999999999,0.4348148148148147,0.25719999998808163],[0.19031250000000005,0.4444444444444444,0.277799999997022],[0.20895833333333325,0.4038888888888889,0.2955000000000041],[0.19229166666666658,0.4118518518518518,0.31219999998808134],[0.1727083333333333,0.412962962962963,0.32709999999404005],[0.1727083333333333,0.412962962962963,0.3405000000000058],[0.17854166666666677,0.4305555555555556,0.3570999999940412],[0.19322916666666667,0.42833333333333323,0.3738999999910604],[0.1984375,0.47166666666666673,0.39050000000000296],[0.19177083333333325,0.4699999999999999,0.40989999999106175],[0.19177083333333325,0.4699999999999999,0.42369999998808083],[0.20604166666666662,0.4390740740740741,0.44039999999106527],[0.22531249999999994,0.4022222222222223,0.45719999998808447],[0.22843749999999996,0.41092592592592586,0.4738999999910618],[0.22802083333333342,0.3888888888888889,0.49339999999106254],[0.19947916666666668,0.38055555555555554,0.5070999999940398],[0.2163541666666667,0.38333333333333336,0.5236999999880823],[0.2099999999999999,0.3494444444444445,0.5405999999940434],[0.1787499999999999,0.3485185185185186,0.5613999999910604],[0.1382291666666667,0.32148148148148153,0.5773999999910657],[0.1382291666666667,0.32148148148148153,0.5903999999910639],[0.10958333333333338,0.3394444444444444,0.6070999999940412],[0.07114583333333328,0.362962962962963,0.624199999988079],[0.043124999999999976,0.37185185185185177,0.6405999999940448],[0.029062499999999977,0.35722222222222216,0.659000000000006],[-0.0009374999999999763,0.3785185185185185,0.6740000000000066],[-0.014479166666666644,0.3966666666666668,0.6925999999940444],[-0.044375000000000026,0.4050000000000001,0.7077999999970217],[-0.06812499999999998,0.43555555555555564,0.7236999999880851],[-0.06458333333333334,0.43925925925925935,0.7428999999910602],[-0.06458333333333334,0.43925925925925935,0.7570999999940398],[-0.06052083333333336,0.4388888888888889,0.7740000000000009],[-0.0704166666666667,0.4583333333333333,0.7953999999910621],[-0.050625000000000024,0.4596296296296297,0.8115000000000023],[-0.06177083333333329,0.46333333333333343,0.8273999999910657],[-0.06177083333333329,0.46333333333333343,0.8405000000000058],[-0.07739583333333329,0.4692592592592592,0.8570000000000064],[-0.05645833333333338,0.4735185185185186,0.8737999999970256],[-0.04375,0.4685185185185185,0.8966999999880798],[-0.04375,0.4685185185185185,0.9071999999880802],[-0.013854166666666619,0.47537037037037044,0.9236999999880808],[-0.013854166666666619,0.47537037037037044,0.9405000000000001],[0.01572916666666669,0.48555555555555563,0.9571999999880845],[0.03572916666666662,0.5037037037037037,0.9740999999940456],[0.05572916666666667,0.5218518518518518,0.9935999999940393],[0.08833333333333329,0.5096296296296298,1.0075999999940422],[0.10104166666666667,0.51,1.0237999999970242],[0.12729166666666672,0.5346296296296297,1.0405000000000015],[0.15354166666666677,0.5592592592592592,1.057099999994044],[0.16291666666666677,0.5672222222222222,1.0770000000000053],[0.16291666666666677,0.5672222222222222,1.0905000000000058],[0.1772916666666667,0.5881481481481482,1.107199999988083],[0.16541666666666663,0.5953703703703703,1.1237999999970256],[0.1955208333333334,0.5737037037037036,1.140500000000003],[0.2087500000000001,0.5692592592592592,1.160500000000006],[0.20385416666666673,0.5890740740740741,1.17889999999106],[0.20385416666666673,0.5890740740740741,1.1902999999970234],[0.20031249999999995,0.6194444444444445,1.2070999999940426],[0.17218749999999997,0.6316666666666667,1.2285999999940458],[0.17218749999999997,0.6316666666666667,1.2403999999910624],[0.16708333333333342,0.6040740740740742,1.2573999999910654],[0.18250000000000005,0.5844444444444444,1.2765000000000057],[0.1884375000000001,0.557037037037037,1.292500000000004],[0.2103125000000001,0.5381481481481482,1.3118999999910628],[0.22166666666666662,0.527962962962963,1.3275999999940424],[0.22166666666666662,0.527962962962963,1.3406999999880824],[0.18604166666666658,0.552962962962963,1.3570999999940412],[0.1640625,0.5762962962962964,1.3807999999970235],[0.1640625,0.5762962962962964,1.3990999999940428],[0.159375,0.5812962962962962,1.4130000000000038],[0.159375,0.5812962962962962,1.4236999999880808],[0.1609375,0.5235185185185186,1.440599999994042],[0.1929166666666667,0.532037037037037,1.4570999999940426],[0.2007291666666667,0.5277777777777778,1.4738999999910618],[0.18802083333333333,0.5155555555555555,1.4924999999999997],[0.19572916666666676,0.5212962962962963,1.5071999999880816],[0.19572916666666676,0.5212962962962963,1.5236999999880823],[0.17677083333333338,0.5464814814814816,1.5405000000000015],[0.16958333333333328,0.5511111111111111,1.5615999999940442],[0.16958333333333328,0.5511111111111111,1.5738999999910632],[0.17354166666666657,0.531111111111111,1.5903999999910639],[0.16291666666666677,0.5148148148148148,1.6077999999970203],[0.153125,0.4925925925925926,1.6236999999880837],[0.1414583333333333,0.5046296296296297,1.640500000000003],[0.1368750000000001,0.4699999999999999,1.6571999999880802],[0.15395833333333328,0.48407407407407405,1.6780000000000044],[0.14177083333333323,0.4781481481481482,1.6933999999910654],[0.11843750000000004,0.4751851851851852,1.7071999999880845],[0.1234375,0.4381481481481482,1.7281999999880853],[0.13333333333333333,0.40907407407407403,1.742299999997023],[0.14458333333333329,0.4101851851851852,1.7570999999940398],[0.17197916666666657,0.3977777777777777,1.77469999998808],[0.1993750000000001,0.3853703703703704,1.7903999999910596],[0.23093750000000005,0.40925925925925927,1.8071999999880788],[0.24958333333333324,0.4316666666666667,1.8240000000000052],[0.1990624999999999,0.4242592592592593,1.8405000000000058],[0.17781250000000004,0.4368518518518518,1.8588999999910598],[0.15,0.4583333333333333,1.8738999999910604],[0.15,0.4583333333333333,1.89109999999404],[0.10864583333333329,0.47740740740740734,1.9070999999940454],[0.058541666666666714,0.5005555555555554,1.9236999999880808],[0.0005208333333333333,0.5087037037037038,1.9403999999910653],[-0.057500000000000044,0.5168518518518519,1.9571999999880845],[-0.09604166666666672,0.5277777777777778,1.978399999991062],[-0.09604166666666672,0.5277777777777778,1.9903999999910624],[-0.14312499999999997,0.530925925925926,2.0071999999880816],[-0.18645833333333334,0.5142592592592593,2.026299999997022],[-0.16697916666666662,0.5401851851851853,2.0405000000000015],[-0.14750000000000002,0.5661111111111112,2.057000000000002],[-0.12416666666666672,0.5668518518518519,2.075799999997024],[-0.12416666666666672,0.5668518518518519,2.090299999997022],[-0.10343749999999995,0.5764814814814814,2.107099999994041],[-0.07718750000000002,0.5803703703703703,2.1255999999940443],[-0.05020833333333338,0.5840740740740741,2.1453999999910636],[-0.02510416666666669,0.5611111111111111,2.1600000000000037],[-0.005937500000000048,0.552962962962963,2.175099999994046],[0.013229166666666714,0.5448148148148149,2.1905],[0.03927083333333338,0.5801851851851851,2.2071999999880845],[0.050520833333333334,0.5746296296296295,2.22379999999702],[0.04510416666666662,0.5535185185185185,2.242399999991065],[0.04479166666666667,0.5842592592592593,2.2570999999940398],[0.05375000000000003,0.5475925925925926,2.273899999991059],[0.06593749999999995,0.5125925925925925,2.290299999997025],[0.07906250000000009,0.47981481481481486,2.307199999988079],[0.09406249999999995,0.4737037037037036,2.3238999999910632],[0.09614583333333329,0.49537037037037035,2.340399999991064],[0.09822916666666662,0.5170370370370371,2.357099999994041],[0.10208333333333333,0.4985185185185186,2.3738999999910604],[0.11624999999999991,0.4844444444444445,2.394399999991066],[0.12791666666666662,0.4807407407407408,2.4100999999940456],[0.12791666666666662,0.4807407407407408,2.423699999988081],[0.12687499999999996,0.4372222222222223,2.4403999999910653],[0.15302083333333344,0.4766666666666666,2.4570000000000007],[0.15968749999999995,0.5374074074074074,2.476699999988085],[0.1462500000000001,0.5442592592592592,2.4933999999910625],[0.1462500000000001,0.5442592592592592,2.5070999999940398],[0.1328125,0.5511111111111111,2.5236999999880823],[0.12166666666666662,0.5422222222222222,2.540299999997025],[0.10822916666666677,0.4981481481481482,2.560299999997021],[0.08239583333333324,0.4705555555555556,2.5758999999910657],[0.049583333333333354,0.4448148148148149,2.590299999997022],[0.00635416666666669,0.43796296296296294,2.607099999994041],[-0.026979166666666644,0.4335185185185186,2.6236999999880837],[-0.0829166666666667,0.3983333333333334,2.640399999991061],[-0.12604166666666666,0.3516666666666666,2.657299999997022],[-0.1304166666666667,0.36129629629629634,2.6740000000000066],[-0.13479166666666664,0.3709259259259258,2.6905],[-0.15364583333333334,0.3446296296296297,2.7070999999940426],[-0.17020833333333332,0.35351851851851845,2.723699999988085],[-0.19260416666666663,0.36925925925925923,2.742299999997023],[-0.19260416666666663,0.36925925925925923,2.7570999999940398],[-0.21499999999999997,0.38499999999999995,2.773799999997024],[-0.18395833333333336,0.3709259259259258,2.7906999999880853],[-0.15666666666666665,0.40018518518518525,2.811699999988079],[-0.15666666666666665,0.40018518518518525,2.8236999999880794],[-0.1616666666666667,0.4103703703703704,2.8406999999880824],[-0.1616666666666667,0.4103703703703704,2.8570000000000064],[-0.17145833333333335,0.4118518518518518,2.8740000000000023],[-0.17145833333333335,0.4118518518518518,2.896500000000003],[-0.12937500000000005,0.4212962962962963,2.9075999999940407],[-0.12937500000000005,0.4212962962962963,2.923799999997023],[-0.11322916666666671,0.43740740740740747,2.940599999994042],[-0.0484375,0.4359259259259259,2.9620000000000033],[-0.005520833333333286,0.42592592592592593,2.978599999994046],[0.043229166666666666,0.40907407407407403,2.994699999988079],[0.09708333333333338,0.3918518518518519,3.013899999991061],[0.09708333333333338,0.3918518518518519,3.024000000000001],[0.109375,0.38259259259259265,3.0406999999880853],[0.1009375000000001,0.35259259259259257,3.061599999994044],[0.1125,0.36870370370370376,3.083500000000001],[0.1125,0.36870370370370376,3.0936999999880825],[0.1734375,0.33499999999999996,3.107299999997025],[0.16989583333333325,0.2601851851851852,3.1237999999970256],[0.18614583333333337,0.20555555555555555,3.1446999999880845],[0.14270833333333333,0.16518518518518527,3.1606999999880827],[0.14270833333333333,0.16518518518518527,3.174199999988083],[0.14249999999999996,0.1388888888888889,3.193699999988084],[0.11885416666666657,0.12611111111111115,3.208399999991066],[0.09010416666666667,0.11370370370370367,3.22829999999702],[0.08385416666666666,0.1337037037037038,3.247],[0.08385416666666666,0.1337037037037038,3.2571999999880816],[0.09812500000000005,0.13111111111111104,3.2740999999940428],[0.11260416666666657,0.11259259259259251,3.2905000000000015],[0.08791666666666677,0.12037037037037036,3.3135000000000048],[0.08791666666666677,0.12037037037037036,3.3238999999910632],[0.06281249999999995,0.18555555555555564,3.3405999999940406],[0.05437500000000005,0.18000000000000008,3.3590999999940436],[0.06854166666666663,0.18407407407407403,3.3800000000000026],[0.04885416666666664,0.16814814814814807,3.395899999991066],[0.03947916666666664,0.1905555555555555,3.4102999999970223],[0.03947916666666664,0.1905555555555555,3.423699999988081],[0.030104166666666644,0.21296296296296297,3.4432999999970235],[0.03166666666666664,0.122037037037037,3.458199999988082],[0.03781249999999995,0.0698148148148149,3.4780000000000015],[0.04562499999999995,0.027962962962963005,3.493099999994044],[0.07802083333333343,-0.0014814814814813973,3.507000000000005],[0.10385416666666672,-0.059814814814814835,3.5235999999940404],[0.12364583333333339,-0.07000000000000002,3.5403999999910596],[0.14052083333333343,-0.07314814814814814,3.557099999994044],[0.13562500000000005,-0.08314814814814811,3.5760999999940424],[0.13562500000000005,-0.08314814814814811,3.590399999991064],[0.15822916666666675,-0.13851851851851854,3.607099999994041],[0.1977083333333333,-0.20537037037037034,3.6240000000000023],[0.21822916666666667,-0.17018518518518513,3.640500000000003],[0.23854166666666668,-0.17185185185185187,3.659599999994043],[0.23854166666666668,-0.17185185185185187,3.6740000000000066],[0.2555208333333333,-0.18851851851851853,3.6903999999910653],[0.24427083333333333,-0.19537037037037036,3.7070999999940426],[0.2621875000000001,-0.1985185185185185,3.728399999991062],[0.2756249999999999,-0.2059259259259259,3.7441999999880835],[0.3068749999999999,-0.2168518518518519,3.7610999999940447],[0.36770833333333336,-0.20055555555555557,3.7772999999970196],[0.41416666666666657,-0.19074074074074074,3.793299999997025],[0.4033333333333334,-0.17888888888888893,3.8113999999910604],[0.39572916666666674,-0.17999999999999997,3.826500000000003],[0.39572916666666674,-0.17999999999999997,3.840500000000006],[0.4006249999999999,-0.1727777777777778,3.8570000000000064],[0.4202083333333334,-0.1661111111111111,3.880199999988079],[0.4202083333333334,-0.1661111111111111,3.893399999991061],[0.4227083333333333,-0.1514814814814815,3.90829999999702],[0.4227083333333333,-0.1514814814814815,3.923699999988081],[0.4076041666666666,-0.14888888888888885,3.9403999999910653],[0.3633333333333333,-0.11018518518518519,3.9570999999940426],[0.2989583333333333,-0.10018518518518522,3.9780000000000015],[0.2989583333333333,-0.10018518518518522,3.9902999999970206],[0.2625,-0.08870370370370366,4.00709999999404],[0.2275000000000001,-0.06703703703703702,4.026000000000003],[0.2178124999999999,-0.05907407407407403,4.041399999991064],[0.20812499999999995,-0.051111111111111156,4.0620999999940395],[0.20812499999999995,-0.051111111111111156,4.073799999997021],[0.20114583333333325,-0.04981481481481477,4.090299999997022],[0.17718749999999991,-0.08314814814814811,4.111199999988081],[0.17718749999999991,-0.08314814814814811,4.123699999988084],[0.17000000000000004,-0.0772222222222222,4.140500000000003],[0.1506249999999999,-0.07685185185185185,4.160399999991064],[0.1506249999999999,-0.07685185185185185,4.173799999997023],[0.16041666666666668,-0.11259259259259262,4.190399999991065],[0.1756249999999999,-0.12074074074074072,4.20769999998808],[0.16760416666666675,-0.13629629629629633,4.228599999994046],[0.11989583333333324,-0.12981481481481486,4.243799999997023],[0.11989583333333324,-0.12981481481481486,4.257199999988082],[0.08802083333333334,-0.0955555555555556,4.273899999991059],[0.057291666666666664,-0.07907407407407405,4.290299999997025],[0.025520833333333333,-0.07462962962962966,4.307299999997021],[-0.005104166666666643,-0.0242592592592593,4.326599999994045],[-0.005104166666666643,-0.0242592592592593,4.340399999991064],[-0.04239583333333338,-0.014629629629629588,4.357099999994041],[-0.06322916666666671,0.03481481481481473,4.37389999999106],[-0.08093750000000005,0.09907407407407408,4.39519999998808],[-0.10479166666666669,0.1668518518518519,4.410500000000006],[-0.10479166666666669,0.1668518518518519,4.423799999997023],[-0.12864583333333332,0.23462962962962972,4.440399999991065],[-0.11906249999999995,0.282037037037037,4.457000000000001],[-0.1094791666666667,0.3198148148148149,4.474699999988083],[-0.11104166666666669,0.37037037037037035,4.493299999997021],[-0.1267708333333334,0.43129629629629623,4.50709999999404],[-0.12218749999999995,0.4777777777777778,4.526099999994045],[-0.10572916666666667,0.5179629629629631,4.542399999991062],[-0.1358333333333333,0.5651851851851852,4.561500000000002],[-0.16687500000000005,0.5918518518518519,4.576899999991063],[-0.19197916666666662,0.6125925925925925,4.594099999994043],[-0.19979166666666662,0.6096296296296297,4.609399999991062],[-0.20281250000000003,0.5948148148148149,4.624299999997021],[-0.19375,0.5914814814814814,4.640500000000003],[-0.17468750000000005,0.5931481481481481,4.659399999991059],[-0.17552083333333332,0.6083333333333333,4.675000000000004],[-0.1733333333333333,0.617962962962963,4.693199999988082],[-0.17958333333333332,0.6248148148148148,4.707899999991064],[-0.15510416666666665,0.5987037037037036,4.728099999994043],[-0.11041666666666666,0.5744444444444445,4.744],[-0.0796875,0.5527777777777778,4.761399999991063],[-0.07677083333333339,0.5568518518518519,4.777799999997022],[-0.07104166666666671,0.5307407407407407,4.795500000000004],[-0.07124999999999998,0.5414814814814815,4.811199999988084],[-0.07104166666666671,0.4903703703703703,4.827500000000001],[-0.07104166666666671,0.4903703703703703,4.840399999991064],[-0.07312500000000005,0.48648148148148157,4.857000000000006],[-0.09291666666666672,0.459074074074074,4.873799999997026],[-0.09291666666666672,0.459074074074074,4.893000000000001],[-0.11635416666666672,0.44351851851851853,4.9070999999940454],[-0.09802083333333336,0.4329629629629629,4.928000000000004],[-0.10177083333333338,0.4264814814814814,4.9432999999970235],[-0.04583333333333333,0.427962962962963,4.95769999998808],[0.0046875,0.4051851851851851,4.9786999999880805],[0.05239583333333329,0.4125925925925925,4.993899999991065],[0.05239583333333329,0.4125925925925925,5.00709999999404],[0.08364583333333328,0.3942592592592592,5.023699999988082],[0.11052083333333323,0.4105555555555556,5.040299999997025],[0.12218749999999995,0.372037037037037,5.057000000000002],[0.175,0.3653703703703703,5.077000000000005],[0.175,0.3653703703703703,5.090399999991064],[0.23468749999999997,0.36999999999999994,5.107099999994041],[0.25895833333333323,0.3596296296296297,5.123699999988084],[0.2635416666666667,0.31925925925925924,5.140500000000003],[0.22729166666666673,0.2692592592592592,5.160399999991064],[0.22729166666666673,0.2692592592592592,5.173899999991065],[0.20260416666666667,0.2631481481481482,5.190299999997023],[0.17770833333333325,0.27074074074074084,5.207299999997026],[0.15333333333333338,0.22611111111111115,5.227099999994046],[0.1396874999999999,0.22037037037037038,5.244599999994044],[0.1634375000000001,0.1925925925925926,5.261199999988079],[0.14322916666666666,0.17037037037037037,5.277599999994045],[0.1212500000000001,0.15537037037037033,5.29529999999702],[0.09291666666666672,0.15037037037037046,5.311599999994044],[0.08947916666666676,0.16314814814814818,5.327000000000005],[0.08114583333333343,0.175,5.343399999991064],[0.058333333333333334,0.17462962962962955,5.357899999991062],[0.03572916666666662,0.16055555555555565,5.3745999999940395],[0.022187499999999954,0.18111111111111103,5.393799999997022],[-0.009687499999999953,0.19444444444444445,5.410599999994041],[-0.009687499999999953,0.19444444444444445,5.423599999994046],[-0.034895833333333334,0.18925925925925935,5.440399999991065],[-0.05166666666666669,0.1985185185185186,5.457000000000001],[-0.06572916666666669,0.18333333333333332,5.4787999999970225],[-0.07979166666666669,0.16814814814814807,5.493799999997023],[-0.08645833333333333,0.17592592592592593,5.510399999991066],[-0.09312499999999997,0.18370370370370379,5.526799999997024],[-0.10093749999999997,0.18870370370370365,5.542599999994046],[-0.10093749999999997,0.18870370370370365,5.557799999997023],[-0.08999999999999998,0.1868518518518518,5.578500000000005],[-0.08999999999999998,0.1868518518518518,5.599799999997025],[-0.07677083333333339,0.2264814814814814,5.60779999999702],[-0.0484375,0.25314814814814823,5.626399999991065],[-0.021041666666666715,0.29000000000000004,5.643599999994045],[-0.0010416666666666667,0.3135185185185184,5.659299999997025],[0.02322916666666662,0.3338888888888888,5.673799999997023],[0.044479166666666715,0.3416666666666667,5.692599999994044],[0.05281250000000005,0.33851851851851844,5.707000000000001],[0.06114583333333338,0.33537037037037043,5.72829999999702],[0.09072916666666657,0.3594444444444445,5.743299999997021],[0.09072916666666657,0.3594444444444445,5.75709999999404],[0.10708333333333328,0.3762962962962964,5.773699999988082],[0.12114583333333329,0.3516666666666666,5.79039999999106],[0.14427083333333332,0.34148148148148144,5.807099999994044],[0.1540625000000001,0.3253703703703705,5.823899999991063],[0.15927083333333342,0.32592592592592595,5.840500000000006],[0.16447916666666676,0.3264814814814814,5.859799999997023],[0.17635416666666662,0.36148148148148157,5.87389999999106],[0.17635416666666662,0.36148148148148157,5.890299999997026],[0.18822916666666673,0.39648148148148155,5.907299999997022],[0.18822916666666673,0.39648148148148155,5.923699999988081],[0.16822916666666668,0.42555555555555546,5.940399999991065],[0.1740624999999999,0.3890740740740741,5.957000000000001],[0.17385416666666675,0.3764814814814814,5.977500000000006],[0.1736458333333334,0.3638888888888889,5.9933999999910625],[0.1736458333333334,0.3638888888888889,6.00709999999404],[0.13020833333333334,0.3461111111111111,6.023899999991059],[0.09760416666666671,0.38499999999999995,6.0405000000000015],[0.06854166666666663,0.40611111111111103,6.0620999999940395],[0.06854166666666663,0.40611111111111103,6.073799999997021],[0.0655208333333333,0.4198148148148149,6.090399999991064],[0.044062499999999956,0.3725925925925927,6.109899999991065],[0.005312500000000024,0.3405555555555555,6.128799999997021],[0.005312500000000024,0.3405555555555555,6.140500000000003],[-0.0015625,0.31444444444444436,6.1570999999940454],[-0.0015625,0.31444444444444436,6.173899999991065],[-0.04583333333333333,0.34518518518518515,6.190299999997023],[-0.0953125,0.3475925925925927,6.207099999994043],[-0.12562500000000001,0.3581481481481481,6.223699999988085],[-0.13489583333333333,0.34629629629629627,6.242399999991065],[-0.14739583333333334,0.3081481481481481,6.257000000000005],[-0.14437500000000003,0.259074074074074,6.276399999991064],[-0.1766666666666667,0.24611111111111106,6.2905000000000015],[-0.2133333333333333,0.24592592592592585,6.307099999994044],[-0.23270833333333332,0.23055555555555557,6.324599999994042],[-0.24604166666666671,0.230925925925926,6.340299999997022],[-0.24906250000000002,0.20611111111111102,6.35929999999702],[-0.21937500000000001,0.18703703703703703,6.375699999988079],[-0.20885416666666667,0.15981481481481474,6.395699999988082],[-0.17677083333333338,0.19907407407407407,6.410099999994046],[-0.17677083333333338,0.19907407407407407,6.423699999988081],[-0.14468749999999997,0.23833333333333342,6.440299999997023],[-0.11427083333333338,0.26592592592592595,6.456899999991066],[-0.08999999999999998,0.2727777777777777,6.47379999999702],[-0.05583333333333336,0.3164814814814814,6.492199999988081],[-0.02166666666666662,0.36018518518518516,6.507000000000005],[0.0034374999999999527,0.39888888888888885,6.525899999991061],[0.028541666666666642,0.43759259259259253,6.54229999999702],[0.035520833333333356,0.465,6.561699999988079],[0.035520833333333356,0.465,6.573799999997021],[0.042499999999999954,0.49240740740740735,6.590299999997022],[0.033749999999999974,0.4624074074074075,6.607000000000006],[0.025,0.4324074074074074,6.623599999994042],[0.018437500000000048,0.4425925925925926,6.640399999991061],[0.02041666666666669,0.41333333333333344,6.6570999999940454],[0.035104166666666714,0.38629629629629636,6.673799999997023],[0.041979166666666616,0.38499999999999995,6.692500000000003],[0.042916666666666714,0.3509259259259259,6.707099999994043],[0.04385416666666669,0.3168518518518519,6.728399999991062],[0.05677083333333333,0.3316666666666667,6.743699999988081],[0.05677083333333333,0.3316666666666667,6.757000000000005],[0.0696875000000001,0.3464814814814815,6.773899999991059],[0.08770833333333337,0.3172222222222221,6.790599999994043],[0.10802083333333339,0.32166666666666677,6.807000000000002],[0.11364583333333324,0.3066666666666667,6.824199999988082],[0.12260416666666671,0.3109259259259259,6.840399999991064],[0.121875,0.3544444444444444,6.85889999999106],[0.10062499999999991,0.3375925925925925,6.874299999997021],[0.10062499999999991,0.3375925925925925,6.8915999999940425],[0.08833333333333329,0.3427777777777778,6.9070999999940454],[0.057500000000000044,0.33851851851851844,6.923899999991065],[0.005833333333333357,0.30944444444444447,6.940299999997023],[-0.029375000000000047,0.302962962962963,6.957099999994043],[-0.06593749999999995,0.3531481481481482,6.97379999999702],[-0.10479166666666669,0.3696296296296297,6.991],[-0.16218750000000004,0.3611111111111111,7.007199999988082],[-0.21604166666666663,0.3648148148148148,7.025699999988085],[-0.24947916666666667,0.3322222222222222,7.040299999997025],[-0.25458333333333333,0.33425925925925926,7.05689999999106],[-0.24125000000000002,0.31796296296296306,7.076399999991061],[-0.24125000000000002,0.31796296296296306,7.090299999997022],[-0.209375,0.3111111111111111,7.107099999994041],[-0.18562500000000004,0.32259259259259265,7.123599999994042],[-0.15895833333333337,0.3194444444444444,7.140399999991061],[-0.13229166666666667,0.3162962962962962,7.158500000000004],[-0.10614583333333331,0.2655555555555555,7.173799999997023],[-0.06281249999999995,0.24166666666666667,7.192399999991061],[-0.024479166666666666,0.22962962962962963,7.207000000000001],[-0.0003124999999999526,0.20185185185185187,7.223599999994043],[0.0390625,0.22962962962962963,7.240899999991065],[0.05604166666666662,0.20314814814814824,7.25709999999404],[0.058645833333333286,0.18574074074074065,7.274199999988085],[0.06937499999999991,0.15,7.292500000000004],[0.07291666666666667,0.09592592592592585,7.311599999994044],[0.07104166666666671,0.05722222222222218,7.326500000000003],[0.0696875000000001,0.06611111111111119,7.340299999997022],[0.06312500000000003,0.06833333333333329,7.357000000000006],[0.06218750000000005,0.09518518518518514,7.373699999988084],[0.06062500000000005,0.08555555555555563,7.394500000000001],[0.03125,0.022222222222222223,7.409199999988083],[0.022083333333333382,0.014814814814814815,7.426799999997023],[0.043229166666666666,-0.002777777777777778,7.441199999988079],[0.04208333333333331,0.01518518518518527,7.45769999998808],[0.02781250000000005,0.07814814814814823,7.47829999999702],[0.01895833333333338,0.1257407407407407,7.4950000000000045],[0.021979166666666692,0.15648148148148147,7.510199999988082],[0.01864583333333331,0.1905555555555555,7.526000000000003],[0.011666666666666714,0.14055555555555552,7.5405000000000015],[0.005312500000000024,0.1270370370370371,7.557000000000002],[0.018020833333333285,0.1205555555555556,7.577399999991066],[0.014479166666666644,0.1307407407407408,7.59469999998808],[0.018124999999999978,0.1814814814814815,7.609699999988081],[0.044062499999999956,0.19666666666666674,7.624000000000002],[0.05677083333333333,0.15407407407407417,7.640399999991061],[0.06947916666666672,0.11148148148148157,7.659899999991062],[0.08114583333333343,0.09444444444444444,7.677199999988083],[0.07583333333333328,0.07092592592592584,7.692599999994044],[0.07354166666666657,0.09499999999999992,7.707000000000001],[0.09343750000000005,0.1270370370370371,7.728899999991064],[0.09552083333333337,0.14537037037037037,7.743199999988079],[0.09552083333333337,0.14537037037037037,7.757000000000005],[0.10447916666666662,0.19499999999999992,7.773799999997024],[0.09031250000000005,0.2051851851851851,7.790299999997025],[0.07760416666666667,0.19370370370370374,7.807099999994044],[0.07145833333333323,0.1935185185185185,7.824000000000005],[0.07208333333333337,0.21518518518518526,7.844500000000004],[0.06187499999999998,0.22814814814814824,7.860599999994044],[0.08302083333333338,0.24388888888888896,7.880500000000005],[0.08302083333333338,0.24388888888888896,7.8938999999910635],[0.10416666666666667,0.2596296296296297,7.9070999999940454],[0.10416666666666667,0.2596296296296297,7.923500000000004],[0.08364583333333328,0.25925925925925924,7.940399999991065],[0.07322916666666662,0.27037037037037037,7.956899999991066],[0.059895833333333336,0.22666666666666663,7.973899999991062],[0.05770833333333331,0.18925925925925935,7.994799999997021],[0.05770833333333331,0.18925925925925935,8.007199999988082],[0.052187500000000026,0.16629629629629622,8.02359999999404],[0.05010416666666669,0.18518518518518517,8.04039999999106],[0.04125000000000002,0.18222222222222217,8.05689999999106],[0.05322916666666669,0.16703703703703712,8.077599999994042],[0.058229166666666644,0.172037037037037,8.09319999998808],[0.06322916666666671,0.17703703703703708,8.110099999994041],[0.08375000000000009,0.17703703703703708,8.126299999997023],[0.10552083333333329,0.17037037037037037,8.145299999997022],[0.12822916666666656,0.18296296296296288,8.160699999988083],[0.12822916666666656,0.18296296296296288,8.173799999997023],[0.1397916666666667,0.18925925925925935,8.190199999988081],[0.1538541666666667,0.23111111111111102,8.207099999994043],[0.1720833333333334,0.24296296296296305,8.228599999994046],[0.18010416666666676,0.2351851851851852,8.243899999991065],[0.18010416666666676,0.2351851851851852,8.257000000000005],[0.16729166666666656,0.23962962962962958,8.273899999991059],[0.17177083333333343,0.25685185185185194,8.293199999988083]]","[0.0002999999970256795,0.05150000000000432,0.05719999998807879,0.07389999999106323,0.09079999999702437,0.1115000000000066,0.12369999998808368,0.14050000000000296,0.1600000000000037,0.17450000000000188,0.19069999998808385,0.2070999999940426,0.22689999999106192,0.242299999997023,0.25719999998808163,0.277799999997022,0.2955000000000041,0.31219999998808134,0.32709999999404005,0.3405000000000058,0.3570999999940412,0.3738999999910604,0.39050000000000296,0.40989999999106175,0.42369999998808083,0.44039999999106527,0.45719999998808447,0.4738999999910618,0.49339999999106254,0.5070999999940398,0.5236999999880823,0.5405999999940434,0.5613999999910604,0.5773999999910657,0.5903999999910639,0.6070999999940412,0.624199999988079,0.6405999999940448,0.659000000000006,0.6740000000000066,0.6925999999940444,0.7077999999970217,0.7236999999880851,0.7428999999910602,0.7570999999940398,0.7740000000000009,0.7953999999910621,0.8115000000000023,0.8273999999910657,0.8405000000000058,0.8570000000000064,0.8737999999970256,0.8966999999880798,0.9071999999880802,0.9236999999880808,0.9405000000000001,0.9571999999880845,0.9740999999940456,0.9935999999940393,1.0075999999940422,1.0237999999970242,1.0405000000000015,1.057099999994044,1.0770000000000053,1.0905000000000058,1.107199999988083,1.1237999999970256,1.140500000000003,1.160500000000006,1.17889999999106,1.1902999999970234,1.2070999999940426,1.2285999999940458,1.2403999999910624,1.2573999999910654,1.2765000000000057,1.292500000000004,1.3118999999910628,1.3275999999940424,1.3406999999880824,1.3570999999940412,1.3807999999970235,1.3990999999940428,1.4130000000000038,1.4236999999880808,1.440599999994042,1.4570999999940426,1.4738999999910618,1.4924999999999997,1.5071999999880816,1.5236999999880823,1.5405000000000015,1.5615999999940442,1.5738999999910632,1.5903999999910639,1.6077999999970203,1.6236999999880837,1.640500000000003,1.6571999999880802,1.6780000000000044,1.6933999999910654,1.7071999999880845,1.7281999999880853,1.742299999997023,1.7570999999940398,1.77469999998808,1.7903999999910596,1.8071999999880788,1.8240000000000052,1.8405000000000058,1.8588999999910598,1.8738999999910604,1.89109999999404,1.9070999999940454,1.9236999999880808,1.9403999999910653,1.9571999999880845,1.978399999991062,1.9903999999910624,2.0071999999880816,2.026299999997022,2.0405000000000015,2.057000000000002,2.075799999997024,2.090299999997022,2.107099999994041,2.1255999999940443,2.1453999999910636,2.1600000000000037,2.175099999994046,2.1905,2.2071999999880845,2.22379999999702,2.242399999991065,2.2570999999940398,2.273899999991059,2.290299999997025,2.307199999988079,2.3238999999910632,2.340399999991064,2.357099999994041,2.3738999999910604,2.394399999991066,2.4100999999940456,2.423699999988081,2.4403999999910653,2.4570000000000007,2.476699999988085,2.4933999999910625,2.5070999999940398,2.5236999999880823,2.540299999997025,2.560299999997021,2.5758999999910657,2.590299999997022,2.607099999994041,2.6236999999880837,2.640399999991061,2.657299999997022,2.6740000000000066,2.6905,2.7070999999940426,2.723699999988085,2.742299999997023,2.7570999999940398,2.773799999997024,2.7906999999880853,2.811699999988079,2.8236999999880794,2.8406999999880824,2.8570000000000064,2.8740000000000023,2.896500000000003,2.9075999999940407,2.923799999997023,2.940599999994042,2.9620000000000033,2.978599999994046,2.994699999988079,3.013899999991061,3.024000000000001,3.0406999999880853,3.061599999994044,3.083500000000001,3.0936999999880825,3.107299999997025,3.1237999999970256,3.1446999999880845,3.1606999999880827,3.174199999988083,3.193699999988084,3.208399999991066,3.22829999999702,3.247,3.2571999999880816,3.2740999999940428,3.2905000000000015,3.3135000000000048,3.3238999999910632,3.3405999999940406,3.3590999999940436,3.3800000000000026,3.395899999991066,3.4102999999970223,3.423699999988081,3.4432999999970235,3.458199999988082,3.4780000000000015,3.493099999994044,3.507000000000005,3.5235999999940404,3.5403999999910596,3.557099999994044,3.5760999999940424,3.590399999991064,3.607099999994041,3.6240000000000023,3.640500000000003,3.659599999994043,3.6740000000000066,3.6903999999910653,3.7070999999940426,3.728399999991062,3.7441999999880835,3.7610999999940447,3.7772999999970196,3.793299999997025,3.8113999999910604,3.826500000000003,3.840500000000006,3.8570000000000064,3.880199999988079,3.893399999991061,3.90829999999702,3.923699999988081,3.9403999999910653,3.9570999999940426,3.9780000000000015,3.9902999999970206,4.00709999999404,4.026000000000003,4.041399999991064,4.0620999999940395,4.073799999997021,4.090299999997022,4.111199999988081,4.123699999988084,4.140500000000003,4.160399999991064,4.173799999997023,4.190399999991065,4.20769999998808,4.228599999994046,4.243799999997023,4.257199999988082,4.273899999991059,4.290299999997025,4.307299999997021,4.326599999994045,4.340399999991064,4.357099999994041,4.37389999999106,4.39519999998808,4.410500000000006,4.423799999997023,4.440399999991065,4.457000000000001,4.474699999988083,4.493299999997021,4.50709999999404,4.526099999994045,4.542399999991062,4.561500000000002,4.576899999991063,4.594099999994043,4.609399999991062,4.624299999997021,4.640500000000003,4.659399999991059,4.675000000000004,4.693199999988082,4.707899999991064,4.728099999994043,4.744,4.761399999991063,4.777799999997022,4.795500000000004,4.811199999988084,4.827500000000001,4.840399999991064,4.857000000000006,4.873799999997026,4.893000000000001,4.9070999999940454,4.928000000000004,4.9432999999970235,4.95769999998808,4.9786999999880805,4.993899999991065,5.00709999999404,5.023699999988082,5.040299999997025,5.057000000000002,5.077000000000005,5.090399999991064,5.107099999994041,5.123699999988084,5.140500000000003,5.160399999991064,5.173899999991065,5.190299999997023,5.207299999997026,5.227099999994046,5.244599999994044,5.261199999988079,5.277599999994045,5.29529999999702,5.311599999994044,5.327000000000005,5.343399999991064,5.357899999991062,5.3745999999940395,5.393799999997022,5.410599999994041,5.423599999994046,5.440399999991065,5.457000000000001,5.4787999999970225,5.493799999997023,5.510399999991066,5.526799999997024,5.542599999994046,5.557799999997023,5.578500000000005,5.599799999997025,5.60779999999702,5.626399999991065,5.643599999994045,5.659299999997025,5.673799999997023,5.692599999994044,5.707000000000001,5.72829999999702,5.743299999997021,5.75709999999404,5.773699999988082,5.79039999999106,5.807099999994044,5.823899999991063,5.840500000000006,5.859799999997023,5.87389999999106,5.890299999997026,5.907299999997022,5.923699999988081,5.940399999991065,5.957000000000001,5.977500000000006,5.9933999999910625,6.00709999999404,6.023899999991059,6.0405000000000015,6.0620999999940395,6.073799999997021,6.090399999991064,6.109899999991065,6.128799999997021,6.140500000000003,6.1570999999940454,6.173899999991065,6.190299999997023,6.207099999994043,6.223699999988085,6.242399999991065,6.257000000000005,6.276399999991064,6.2905000000000015,6.307099999994044,6.324599999994042,6.340299999997022,6.35929999999702,6.375699999988079,6.395699999988082,6.410099999994046,6.423699999988081,6.440299999997023,6.456899999991066,6.47379999999702,6.492199999988081,6.507000000000005,6.525899999991061,6.54229999999702,6.561699999988079,6.573799999997021,6.590299999997022,6.607000000000006,6.623599999994042,6.640399999991061,6.6570999999940454,6.673799999997023,6.692500000000003,6.707099999994043,6.728399999991062,6.743699999988081,6.757000000000005,6.773899999991059,6.790599999994043,6.807000000000002,6.824199999988082,6.840399999991064,6.85889999999106,6.874299999997021,6.8915999999940425,6.9070999999940454,6.923899999991065,6.940299999997023,6.957099999994043,6.97379999999702,6.991,7.007199999988082,7.025699999988085,7.040299999997025,7.05689999999106,7.076399999991061,7.090299999997022,7.107099999994041,7.123599999994042,7.140399999991061,7.158500000000004,7.173799999997023,7.192399999991061,7.207000000000001,7.223599999994043,7.240899999991065,7.25709999999404,7.274199999988085,7.292500000000004,7.311599999994044,7.326500000000003,7.340299999997022,7.357000000000006,7.373699999988084,7.394500000000001,7.409199999988083,7.426799999997023,7.441199999988079,7.45769999998808,7.47829999999702,7.4950000000000045,7.510199999988082,7.526000000000003,7.5405000000000015,7.557000000000002,7.577399999991066,7.59469999998808,7.609699999988081,7.624000000000002,7.640399999991061,7.659899999991062,7.677199999988083,7.692599999994044,7.707000000000001,7.728899999991064,7.743199999988079,7.757000000000005,7.773799999997024,7.790299999997025,7.807099999994044,7.824000000000005,7.844500000000004,7.860599999994044,7.880500000000005,7.8938999999910635,7.9070999999940454,7.923500000000004,7.940399999991065,7.956899999991066,7.973899999991062,7.994799999997021,8.007199999988082,8.02359999999404,8.04039999999106,8.05689999999106,8.077599999994042,8.09319999998808,8.110099999994041,8.126299999997023,8.145299999997022,8.160699999988083,8.173799999997023,8.190199999988081,8.207099999994043,8.228599999994046,8.243899999991065,8.257000000000005,8.273899999991059,8.293199999988083]","[1732608926760,1732608926802,1732608926808,1732608926825,1732608926842,1732608926862,1732608926875,1732608926891,1732608926911,1732608926925,1732608926941,1732608926958,1732608926978,1732608926993,1732608927008,1732608927028,1732608927046,1732608927063,1732608927078,1732608927091,1732608927108,1732608927125,1732608927141,1732608927161,1732608927174,1732608927191,1732608927208,1732608927225,1732608927244,1732608927258,1732608927274,1732608927291,1732608927312,1732608927328,1732608927341,1732608927358,1732608927375,1732608927391,1732608927410,1732608927425,1732608927443,1732608927458,1732608927474,1732608927494,1732608927508,1732608927525,1732608927546,1732608927562,1732608927578,1732608927591,1732608927608,1732608927625,1732608927647,1732608927658,1732608927674,1732608927691,1732608927708,1732608927725,1732608927744,1732608927758,1732608927774,1732608927791,1732608927808,1732608927828,1732608927841,1732608927858,1732608927874,1732608927891,1732608927911,1732608927930,1732608927941,1732608927958,1732608927979,1732608927992,1732608928009,1732608928028,1732608928044,1732608928063,1732608928079,1732608928092,1732608928109,1732608928132,1732608928151,1732608928164,1732608928175,1732608928192,1732608928208,1732608928225,1732608928244,1732608928259,1732608928275,1732608928292,1732608928313,1732608928325,1732608928342,1732608928359,1732608928375,1732608928392,1732608928409,1732608928429,1732608928445,1732608928459,1732608928480,1732608928494,1732608928508,1732608928526,1732608928542,1732608928559,1732608928575,1732608928592,1732608928610,1732608928625,1732608928643,1732608928659,1732608928675,1732608928692,1732608928709,1732608928730,1732608928742,1732608928759,1732608928778,1732608928792,1732608928808,1732608928827,1732608928842,1732608928859,1732608928877,1732608928897,1732608928911,1732608928927,1732608928942,1732608928959,1732608928975,1732608928994,1732608929008,1732608929025,1732608929042,1732608929059,1732608929075,1732608929092,1732608929108,1732608929125,1732608929146,1732608929162,1732608929175,1732608929192,1732608929208,1732608929228,1732608929245,1732608929259,1732608929275,1732608929292,1732608929312,1732608929327,1732608929342,1732608929359,1732608929375,1732608929392,1732608929409,1732608929426,1732608929442,1732608929459,1732608929475,1732608929494,1732608929509,1732608929525,1732608929542,1732608929563,1732608929575,1732608929592,1732608929609,1732608929625,1732608929648,1732608929659,1732608929675,1732608929692,1732608929714,1732608929730,1732608929746,1732608929765,1732608929775,1732608929792,1732608929813,1732608929835,1732608929845,1732608929859,1732608929875,1732608929896,1732608929912,1732608929926,1732608929945,1732608929960,1732608929980,1732608929998,1732608930009,1732608930026,1732608930042,1732608930065,1732608930075,1732608930092,1732608930110,1732608930131,1732608930147,1732608930162,1732608930175,1732608930195,1732608930210,1732608930229,1732608930245,1732608930258,1732608930275,1732608930292,1732608930308,1732608930328,1732608930342,1732608930359,1732608930375,1732608930392,1732608930411,1732608930425,1732608930442,1732608930459,1732608930480,1732608930496,1732608930513,1732608930529,1732608930545,1732608930563,1732608930578,1732608930592,1732608930608,1732608930632,1732608930645,1732608930660,1732608930675,1732608930692,1732608930708,1732608930729,1732608930742,1732608930759,1732608930777,1732608930793,1732608930814,1732608930825,1732608930842,1732608930863,1732608930875,1732608930892,1732608930912,1732608930925,1732608930942,1732608930959,1732608930980,1732608930995,1732608931009,1732608931025,1732608931042,1732608931059,1732608931078,1732608931092,1732608931108,1732608931125,1732608931147,1732608931162,1732608931175,1732608931192,1732608931208,1732608931226,1732608931245,1732608931259,1732608931278,1732608931294,1732608931313,1732608931328,1732608931345,1732608931361,1732608931376,1732608931392,1732608931411,1732608931426,1732608931445,1732608931459,1732608931480,1732608931495,1732608931513,1732608931529,1732608931547,1732608931563,1732608931579,1732608931592,1732608931608,1732608931625,1732608931644,1732608931659,1732608931679,1732608931695,1732608931709,1732608931730,1732608931745,1732608931759,1732608931775,1732608931792,1732608931808,1732608931828,1732608931842,1732608931859,1732608931875,1732608931892,1732608931912,1732608931925,1732608931942,1732608931959,1732608931979,1732608931996,1732608932013,1732608932029,1732608932047,1732608932063,1732608932078,1732608932095,1732608932109,1732608932126,1732608932145,1732608932162,1732608932175,1732608932192,1732608932208,1732608932230,1732608932245,1732608932262,1732608932278,1732608932294,1732608932309,1732608932330,1732608932351,1732608932359,1732608932378,1732608932395,1732608932411,1732608932425,1732608932444,1732608932458,1732608932480,1732608932495,1732608932509,1732608932525,1732608932542,1732608932559,1732608932575,1732608932592,1732608932611,1732608932625,1732608932642,1732608932659,1732608932675,1732608932692,1732608932708,1732608932729,1732608932745,1732608932759,1732608932775,1732608932792,1732608932814,1732608932825,1732608932842,1732608932861,1732608932880,1732608932892,1732608932909,1732608932925,1732608932942,1732608932959,1732608932975,1732608932994,1732608933008,1732608933028,1732608933042,1732608933059,1732608933076,1732608933092,1732608933111,1732608933127,1732608933147,1732608933161,1732608933175,1732608933192,1732608933208,1732608933225,1732608933244,1732608933258,1732608933277,1732608933294,1732608933313,1732608933325,1732608933342,1732608933358,1732608933375,1732608933392,1732608933409,1732608933425,1732608933444,1732608933459,1732608933480,1732608933495,1732608933508,1732608933525,1732608933542,1732608933559,1732608933576,1732608933592,1732608933610,1732608933626,1732608933643,1732608933659,1732608933675,1732608933692,1732608933709,1732608933725,1732608933742,1732608933759,1732608933777,1732608933792,1732608933808,1732608933828,1732608933842,1732608933858,1732608933875,1732608933892,1732608933910,1732608933925,1732608933944,1732608933958,1732608933975,1732608933992,1732608934009,1732608934026,1732608934044,1732608934063,1732608934078,1732608934092,1732608934108,1732608934125,1732608934146,1732608934161,1732608934178,1732608934193,1732608934209,1732608934230,1732608934246,1732608934262,1732608934277,1732608934292,1732608934308,1732608934329,1732608934346,1732608934361,1732608934375,1732608934392,1732608934411,1732608934429,1732608934444,1732608934458,1732608934480,1732608934495,1732608934508,1732608934525,1732608934542,1732608934559,1732608934575,1732608934596,1732608934612,1732608934632,1732608934645,1732608934659,1732608934675,1732608934692,1732608934708,1732608934725,1732608934746,1732608934759,1732608934775,1732608934792,1732608934808,1732608934829,1732608934845,1732608934861,1732608934878,1732608934897,1732608934912,1732608934925,1732608934942,1732608934958,1732608934980,1732608934995,1732608935008,1732608935025,1732608935045]","[[990.1,888.3],[990.1,888.3],[990.1,888.3],[1028.7,897.4],[1008.2,887.3],[983.7,893.7],[983.7,893.7],[1044.2,865.1],[1082.4,842.6],[1079.6,832.6],[1076.6,816],[1107.1,793.9],[1133.9,777.2],[1136.6,780.4],[1121.1,774.8],[1142.7,780],[1160.6,758.1],[1144.6,762.4],[1125.8,763],[1125.8,763],[1131.4,772.5],[1145.5,771.3],[1150.5,794.7],[1144.1,793.8],[1144.1,793.8],[1157.8,777.1],[1176.3,757.2],[1179.3,761.9],[1178.9,750],[1151.5,745.5],[1167.7,747],[1161.6,728.7],[1131.6,728.2],[1092.7,713.6],[1092.7,713.6],[1065.2,723.3],[1028.3,736],[1001.4,740.8],[987.9,732.9],[959.1,744.4],[946.1,754.2],[917.4,758.7],[894.6,775.2],[898,777.2],[898,777.2],[901.9,777],[892.4,787.5],[911.4,788.2],[900.7,790.2],[900.7,790.2],[885.7,793.4],[905.8,795.7],[918,793],[918,793],[946.7,796.7],[946.7,796.7],[975.1,802.2],[994.3,812],[1013.5,821.8],[1044.8,815.2],[1057,815.4],[1082.2,828.7],[1107.4,842],[1116.4,846.3],[1116.4,846.3],[1130.2,857.6],[1118.8,861.5],[1147.7,849.8],[1160.4,847.4],[1155.7,858.1],[1155.7,858.1],[1152.3,874.5],[1125.3,881.1],[1125.3,881.1],[1120.4,866.2],[1135.2,855.6],[1140.9,840.8],[1161.9,830.6],[1172.8,825.1],[1172.8,825.1],[1138.6,838.6],[1117.5,851.2],[1117.5,851.2],[1113,853.9],[1113,853.9],[1114.5,822.7],[1145.2,827.3],[1152.7,825],[1140.5,818.4],[1147.9,821.5],[1147.9,821.5],[1129.7,835.1],[1122.8,837.6],[1122.8,837.6],[1126.6,826.8],[1116.4,818],[1107,806],[1095.8,812.5],[1091.4,793.8],[1107.8,801.4],[1096.1,798.2],[1073.7,796.6],[1078.5,776.6],[1088,760.9],[1098.8,761.5],[1125.1,754.8],[1151.4,748.1],[1181.7,761],[1199.6,773.1],[1151.1,769.1],[1130.7,775.9],[1104,787.5],[1104,787.5],[1064.3,797.8],[1016.2,810.3],[960.5,814.7],[904.8,819.1],[867.8,825],[867.8,825],[822.6,826.7],[781,817.7],[799.7,831.7],[818.4,845.7],[840.8,846.1],[840.8,846.1],[860.7,851.3],[885.9,853.4],[911.8,855.4],[935.9,843],[954.3,838.6],[972.7,834.2],[997.7,853.3],[1008.5,850.3],[1003.3,838.9],[1003,855.5],[1011.6,835.7],[1023.3,816.8],[1035.9,799.1],[1050.3,795.8],[1052.3,807.5],[1054.3,819.2],[1058,809.2],[1071.6,801.6],[1082.8,799.6],[1082.8,799.6],[1081.8,776.1],[1106.9,797.4],[1113.3,830.2],[1100.4,833.9],[1100.4,833.9],[1087.5,837.6],[1076.8,832.8],[1063.9,809],[1039.1,794.1],[1007.6,780.2],[966.1,776.5],[934.1,774.1],[880.4,755.1],[839,729.9],[834.8,735.1],[830.6,740.3],[812.5,726.1],[796.6,730.9],[775.1,739.4],[775.1,739.4],[753.6,747.9],[783.4,740.3],[809.6,756.1],[809.6,756.1],[804.8,761.6],[804.8,761.6],[795.4,762.4],[795.4,762.4],[835.8,767.5],[835.8,767.5],[851.3,776.2],[913.5,775.4],[954.7,770],[1001.5,760.9],[1053.2,751.6],[1053.2,751.6],[1065,746.6],[1056.9,730.4],[1068,739.1],[1068,739.1],[1126.5,720.9],[1123.1,680.5],[1138.7,651],[1097,629.2],[1097,629.2],[1096.8,615],[1074.1,608.1],[1046.5,601.4],[1040.5,612.2],[1040.5,612.2],[1054.2,610.8],[1068.1,600.8],[1044.4,605],[1044.4,605],[1020.3,640.2],[1012.2,637.2],[1025.8,639.4],[1006.9,630.8],[997.9,642.9],[997.9,642.9],[988.9,655],[990.4,605.9],[996.3,577.7],[1003.8,555.1],[1034.9,539.2],[1059.7,507.7],[1078.7,502.2],[1094.9,500.5],[1090.2,495.1],[1090.2,495.1],[1111.9,465.2],[1149.8,429.1],[1169.5,448.1],[1189,447.2],[1189,447.2],[1205.3,438.2],[1194.5,434.5],[1211.7,432.8],[1224.6,428.8],[1254.6,422.9],[1313,431.7],[1357.6,437],[1347.2,443.4],[1339.9,442.8],[1339.9,442.8],[1344.6,446.7],[1363.4,450.3],[1363.4,450.3],[1365.8,458.2],[1365.8,458.2],[1351.3,459.6],[1308.8,480.5],[1247,485.9],[1247,485.9],[1212,492.1],[1178.4,503.8],[1169.1,508.1],[1159.8,512.4],[1159.8,512.4],[1153.1,513.1],[1130.1,495.1],[1130.1,495.1],[1123.2,498.3],[1104.6,498.5],[1104.6,498.5],[1114,479.2],[1128.6,474.8],[1120.9,466.4],[1075.1,469.9],[1075.1,469.9],[1044.5,488.4],[1015,497.3],[984.5,499.7],[955.1,526.9],[955.1,526.9],[919.3,532.1],[899.3,558.8],[882.3,593.5],[859.4,630.1],[859.4,630.1],[836.5,666.7],[845.7,692.3],[854.9,712.7],[853.4,740],[838.3,772.9],[842.7,798],[858.5,819.7],[829.6,845.2],[799.8,859.6],[775.7,870.8],[768.2,869.2],[765.3,861.2],[774,859.4],[792.3,860.3],[791.5,868.5],[793.6,873.7],[787.6,877.4],[811.1,863.3],[854,850.2],[883.5,838.5],[886.3,840.7],[891.8,826.6],[891.6,832.4],[891.8,804.8],[891.8,804.8],[889.8,802.7],[870.8,787.9],[870.8,787.9],[848.3,779.5],[865.9,773.8],[862.3,770.3],[916,771.1],[964.5,758.8],[1010.3,762.8],[1010.3,762.8],[1040.3,752.9],[1066.1,761.7],[1077.3,740.9],[1128,737.3],[1128,737.3],[1185.3,739.8],[1208.6,734.2],[1213,712.4],[1178.2,685.4],[1178.2,685.4],[1154.5,682.1],[1130.6,686.2],[1107.2,662.1],[1094.1,659],[1116.9,644],[1097.5,632],[1076.4,623.9],[1049.2,621.2],[1045.9,628.1],[1037.9,634.5],[1016,634.3],[994.3,626.7],[981.3,637.8],[950.7,645],[950.7,645],[926.5,642.2],[910.4,647.2],[896.9,639],[883.4,630.8],[877,635],[870.6,639.2],[863.1,641.9],[863.1,641.9],[873.6,640.9],[873.6,640.9],[886.3,662.3],[913.5,676.7],[939.8,696.6],[959,709.3],[982.3,720.3],[1002.7,724.5],[1010.7,722.8],[1018.7,721.1],[1047.1,734.1],[1047.1,734.1],[1062.8,743.2],[1076.3,729.9],[1098.5,724.4],[1107.9,715.7],[1112.9,716],[1117.9,716.3],[1129.3,735.2],[1129.3,735.2],[1140.7,754.1],[1140.7,754.1],[1121.5,769.8],[1127.1,750.1],[1126.9,743.3],[1126.7,736.5],[1126.7,736.5],[1085,726.9],[1053.7,747.9],[1025.8,759.3],[1025.8,759.3],[1022.9,766.7],[1002.3,741.2],[965.1,723.9],[965.1,723.9],[958.5,709.8],[958.5,709.8],[916,726.4],[868.5,727.7],[839.4,733.4],[830.5,727],[818.5,706.4],[821.4,679.9],[790.4,672.9],[755.2,672.8],[736.6,664.5],[723.8,664.7],[720.9,651.3],[749.4,641],[759.5,626.3],[790.3,647.5],[790.3,647.5],[821.1,668.7],[850.3,683.6],[873.6,687.3],[906.4,710.9],[939.2,734.5],[963.3,755.4],[987.4,776.3],[994.1,791.1],[994.1,791.1],[1000.8,805.9],[992.4,789.7],[984,773.5],[977.7,779],[979.6,763.2],[993.7,748.6],[1000.3,747.9],[1001.2,729.5],[1002.1,711.1],[1014.5,719.1],[1014.5,719.1],[1026.9,727.1],[1044.2,711.3],[1063.7,713.7],[1069.1,705.6],[1077.7,707.9],[1077,731.4],[1056.6,722.3],[1056.6,722.3],[1044.8,725.1],[1015.2,722.8],[965.6,707.1],[931.8,703.6],[896.7,730.7],[859.4,739.6],[804.3,735],[752.6,737],[720.5,719.4],[715.6,720.5],[728.4,711.7],[728.4,711.7],[759,708],[781.8,714.2],[807.4,712.5],[833,710.8],[858.1,683.4],[899.7,670.5],[936.5,664],[959.7,649],[997.5,664],[1013.8,649.7],[1016.3,640.3],[1026.6,621],[1030,591.8],[1028.2,570.9],[1026.9,575.7],[1020.6,576.9],[1019.7,591.4],[1018.2,586.2],[990,552],[981.2,548],[1001.5,538.5],[1000.4,548.2],[986.7,582.2],[978.2,607.9],[981.1,624.5],[977.9,642.9],[971.2,615.9],[965.1,608.6],[977.3,605.1],[973.9,610.6],[977.4,638],[1002.3,646.2],[1014.5,623.2],[1026.7,600.2],[1037.9,591],[1032.8,578.3],[1030.6,591.3],[1049.7,608.6],[1051.7,618.5],[1051.7,618.5],[1060.3,645.3],[1046.7,650.8],[1034.5,644.6],[1028.6,644.5],[1029.2,656.2],[1019.4,663.2],[1039.7,671.7],[1039.7,671.7],[1060,680.2],[1060,680.2],[1040.3,680],[1030.3,686],[1017.5,662.4],[1015.4,642.2],[1015.4,642.2],[1010.1,629.8],[1008.1,640],[999.6,638.4],[1011.1,630.2],[1015.9,632.9],[1020.7,635.6],[1040.4,635.6],[1061.3,632],[1083.1,638.8],[1083.1,638.8],[1094.2,642.2],[1107.7,664.8],[1125.2,671.2],[1132.9,667],[1132.9,667],[1120.6,669.4],[1124.9,678.7]]","[-0.056692,0.170076]","[0.056692,0.170076]","[0.170076,0.170076]","[-0.170076,0.056692]","[-0.170076,-0.056692]","[-0.170076,-0.170076]","[-0.056692,0.056692]","[0.056692,0.056692]","[0.170076,0.056692]","[-0.056692,-0.056692]","[0.056692,-0.056692]","[0.170076,-0.056692]","[-0.056692,-0.170076]","[0.056692,-0.170076]","[0.170076,-0.170076]",0,0,0,0,1,1,Smartphone,20,20,7,2,70,4,2,70,4
