inst1_resp.keys,inst1_resp.rt,calibrationMouse.x,calibrationMouse.y,calibrationMouse.leftButton,calibrationMouse.midButton,calibrationMouse.rightButton,calibrationClick.x,calibrationClick.y,calibrationClick.leftButton,calibrationClick.midButton,calibrationClick.rightButton,trialsc.thisRepN,trialsc.thisTrialN,trialsc.thisN,trialsc.thisIndex,trialsc.ran,calibration_x,calibration_y,participant,session,date,expName,psychopyVersion,OS,frameRate,calibrationClick.clicked_name,ScreenRes_pixels,Camera_pixels,mouse_2.x,mouse_2.y,mouse_2.leftButton,mouse_2.midButton,mouse_2.rightButton,mouse_2.time,mouse_2.clicked_name,mouse.x,mouse.y,mouse.leftButton,mouse.midButton,mouse.rightButton,mouse.time,mouse.clicked_name,Choice,Trial,TrialDuration,MOUSE_GAZE,ET_GAZE,ET_GAZE_x_T,time,unixTime,ET_GAZE_NF,Loc_Bus_label,Loc_Metro_label,Loc_RH_label,Loc_Cost_label,Loc_Travel_label,Loc_Comfort_label,Loc_Bus_cost,Loc_Metro_cost,Loc_RH_cost,Loc_Bus_travel,Loc_Metro_travel,Loc_RH_travel,Loc_Bus_comfort,Loc_Metro_comfort,Loc_RH_comfort,trials.thisRepN,trials.thisTrialN,trials.thisN,trials.thisIndex,trials.ran,Block,Device,RH_cost,RH_travel_time,RH_Comfort,metro_cost,metro_travel_time,metro_Comfort,Bus_cost,Bus_travel_time,Bus_Comfort
space,2.3306,0.072916667,-0.312962963,1,0,0,-0.663541667,-0.018518519,1,0,0,0,0,0,2,1,-0.67,0,36,001,2024-11-26_11h52.06.771,Attention_exp_legacy,2023.1.0,Win32,59.88023952,,,,,,,,,,,,,,,,,,,,,,,,,,,,,,,,,,,,,,,,,,,,,,,,,,,,,,,,,
,,,,,,,0.675,0.685185185,1,0,0,0,1,1,19,1,0.67,0.67,36,001,2024-11-26_11h52.06.771,Attention_exp_legacy,2023.1.0,Win32,59.88023952,,,,,,,,,,,,,,,,,,,,,,,,,,,,,,,,,,,,,,,,,,,,,,,,,,,,,,,,,
,,,,,,,-0.326041667,0.67962963,1,0,0,0,2,2,8,1,-0.33,0.67,36,001,2024-11-26_11h52.06.771,Attention_exp_legacy,2023.1.0,Win32,59.88023952,calibration_square,,,,,,,,,,,,,,,,,,,,,,,,,,,,,,,,,,,,,,,,,,,,,,,,,,,,,,,,
,,,,,,,0.332291667,-0.007407407,1,0,0,0,3,3,16,1,0.33,0,36,001,2024-11-26_11h52.06.771,Attention_exp_legacy,2023.1.0,Win32,59.88023952,calibration_square,,,,,,,,,,,,,,,,,,,,,,,,,,,,,,,,,,,,,,,,,,,,,,,,,,,,,,,,
,,,,,,,-0.33125,-0.333333333,1,0,0,0,4,4,5,1,-0.33,-0.33,36,001,2024-11-26_11h52.06.771,Attention_exp_legacy,2023.1.0,Win32,59.88023952,calibration_square,,,,,,,,,,,,,,,,,,,,,,,,,,,,,,,,,,,,,,,,,,,,,,,,,,,,,,,,
,,,,,,,0.669791667,-0.674074074,1,0,0,0,5,5,20,1,0.67,-0.67,36,001,2024-11-26_11h52.06.771,Attention_exp_legacy,2023.1.0,Win32,59.88023952,calibration_square,,,,,,,,,,,,,,,,,,,,,,,,,,,,,,,,,,,,,,,,,,,,,,,,,,,,,,,,
,,,,,,,-0.678125,-0.672222222,1,0,0,0,6,6,0,1,-0.67,-0.67,36,001,2024-11-26_11h52.06.771,Attention_exp_legacy,2023.1.0,Win32,59.88023952,calibration_square,,,,,,,,,,,,,,,,,,,,,,,,,,,,,,,,,,,,,,,,,,,,,,,,,,,,,,,,
,,,,,,,0.321875,0.324074074,1,0,0,0,7,7,17,1,0.33,0.33,36,001,2024-11-26_11h52.06.771,Attention_exp_legacy,2023.1.0,Win32,59.88023952,calibration_square,,,,,,,,,,,,,,,,,,,,,,,,,,,,,,,,,,,,,,,,,,,,,,,,,,,,,,,,
,,,,,,,-0.336458333,-0.009259259,1,0,0,0,8,8,6,1,-0.33,0,36,001,2024-11-26_11h52.06.771,Attention_exp_legacy,2023.1.0,Win32,59.88023952,calibration_square,,,,,,,,,,,,,,,,,,,,,,,,,,,,,,,,,,,,,,,,,,,,,,,,,,,,,,,,
,,,,,,,0.330208333,-0.661111111,1,0,0,0,9,9,14,1,0.33,-0.67,36,001,2024-11-26_11h52.06.771,Attention_exp_legacy,2023.1.0,Win32,59.88023952,calibration_square,,,,,,,,,,,,,,,,,,,,,,,,,,,,,,,,,,,,,,,,,,,,,,,,,,,,,,,,
,,,,,,,0,-0.674074074,1,0,0,0,10,10,9,1,0,-0.67,36,001,2024-11-26_11h52.06.771,Attention_exp_legacy,2023.1.0,Win32,59.88023952,calibration_square,,,,,,,,,,,,,,,,,,,,,,,,,,,,,,,,,,,,,,,,,,,,,,,,,,,,,,,,
,,,,,,,0.332291667,0.67037037,1,0,0,0,11,11,18,1,0.33,0.67,36,001,2024-11-26_11h52.06.771,Attention_exp_legacy,2023.1.0,Win32,59.88023952,calibration_square,,,,,,,,,,,,,,,,,,,,,,,,,,,,,,,,,,,,,,,,,,,,,,,,,,,,,,,,
,,,,,,,0,0.324074074,1,0,0,0,12,12,12,1,0,0.33,36,001,2024-11-26_11h52.06.771,Attention_exp_legacy,2023.1.0,Win32,59.88023952,calibration_square,,,,,,,,,,,,,,,,,,,,,,,,,,,,,,,,,,,,,,,,,,,,,,,,,,,,,,,,
,,,,,,,-0.003125,-0.338888889,1,0,0,0,13,13,10,1,0,-0.33,36,001,2024-11-26_11h52.06.771,Attention_exp_legacy,2023.1.0,Win32,59.88023952,calibration_square,,,,,,,,,,,,,,,,,,,,,,,,,,,,,,,,,,,,,,,,,,,,,,,,,,,,,,,,
,,,,,,,0.333333333,-0.324074074,1,0,0,0,14,14,15,1,0.33,-0.33,36,001,2024-11-26_11h52.06.771,Attention_exp_legacy,2023.1.0,Win32,59.88023952,calibration_square,,,,,,,,,,,,,,,,,,,,,,,,,,,,,,,,,,,,,,,,,,,,,,,,,,,,,,,,
,,,,,,,-0.335416667,0.333333333,1,0,0,0,15,15,7,1,-0.33,0.33,36,001,2024-11-26_11h52.06.771,Attention_exp_legacy,2023.1.0,Win32,59.88023952,calibration_square,,,,,,,,,,,,,,,,,,,,,,,,,,,,,,,,,,,,,,,,,,,,,,,,,,,,,,,,
,,,,,,,-0.665625,-0.337037037,1,0,0,0,16,16,1,1,-0.67,-0.33,36,001,2024-11-26_11h52.06.771,Attention_exp_legacy,2023.1.0,Win32,59.88023952,calibration_square,,,,,,,,,,,,,,,,,,,,,,,,,,,,,,,,,,,,,,,,,,,,,,,,,,,,,,,,
,,,,,,,0.004166667,0.005555556,1,0,0,0,17,17,11,1,0,0,36,001,2024-11-26_11h52.06.771,Attention_exp_legacy,2023.1.0,Win32,59.88023952,calibration_square,,,,,,,,,,,,,,,,,,,,,,,,,,,,,,,,,,,,,,,,,,,,,,,,,,,,,,,,
,,,,,,,0.001041667,0.675925926,1,0,0,0,18,18,13,1,0,0.67,36,001,2024-11-26_11h52.06.771,Attention_exp_legacy,2023.1.0,Win32,59.88023952,calibration_square,,,,,,,,,,,,,,,,,,,,,,,,,,,,,,,,,,,,,,,,,,,,,,,,,,,,,,,,
,,,,,,,-0.327083333,-0.672222222,1,0,0,0,19,19,4,1,-0.33,-0.67,36,001,2024-11-26_11h52.06.771,Attention_exp_legacy,2023.1.0,Win32,59.88023952,calibration_square,,,,,,,,,,,,,,,,,,,,,,,,,,,,,,,,,,,,,,,,,,,,,,,,,,,,,,,,
,,,,,,,-0.670833333,0.32037037,1,0,0,0,20,20,3,1,-0.67,0.33,36,001,2024-11-26_11h52.06.771,Attention_exp_legacy,2023.1.0,Win32,59.88023952,calibration_square,,,,,,,,,,,,,,,,,,,,,,,,,,,,,,,,,,,,,,,,,,,,,,,,,,,,,,,,
,,,,,,,,,,,,,,,,,,,36,001,2024-11-26_11h52.06.771,Attention_exp_legacy,2023.1.0,Win32,59.88023952,,"[1920,1080]","[640,480]",[0.014583333333333334],[-0.5314814814814814],[1],[0],[0],[6.497100000001488],"[""StartButton""]",[0.12604166666666666],[0.3611111111111111],[1],[0],[0],[2.7196999999955267],"[""Metro_label""]",Metro_label,1,3.7316,"[[-0.034375,-0.22962962962962963],[-0.034375,-0.22962962962962963],[-0.034375,-0.22962962962962963],[-0.034375,-0.22962962962962963],[-0.034375,-0.22962962962962963],[-0.034375,-0.22962962962962963],[-0.034375,-0.22962962962962963],[-0.034375,-0.22962962962962963],[-0.034375,-0.22962962962962963],[-0.034375,-0.22962962962962963],[-0.034375,-0.22962962962962963],[-0.034375,-0.22962962962962963],[-0.034375,-0.22962962962962963],[-0.034375,-0.22962962962962963],[-0.034375,-0.22962962962962963],[-0.034375,-0.22962962962962963],[-0.034375,-0.22962962962962963],[-0.034375,-0.22962962962962963],[-0.034375,-0.22962962962962963],[-0.034375,-0.22962962962962963],[-0.034375,-0.22962962962962963],[-0.034375,-0.22962962962962963],[-0.034375,-0.22962962962962963],[-0.034375,-0.22962962962962963],[-0.034375,-0.22962962962962963],[-0.034375,-0.22962962962962963],[-0.034375,-0.22962962962962963],[-0.034375,-0.22962962962962963],[-0.034375,-0.22962962962962963],[-0.034375,-0.22962962962962963],[-0.034375,-0.22962962962962963],[-0.034375,-0.22962962962962963],[-0.034375,-0.22962962962962963],[-0.034375,-0.22962962962962963],[-0.034375,-0.22962962962962963],[-0.034375,-0.22962962962962963],[-0.034375,-0.22962962962962963],[-0.034375,-0.22962962962962963],[-0.034375,-0.22962962962962963],[-0.034375,-0.22962962962962963],[-0.034375,-0.22962962962962963],[-0.034375,-0.22962962962962963],[-0.034375,-0.22962962962962963],[-0.034375,-0.22962962962962963],[-0.034375,-0.22962962962962963],[-0.034375,-0.22962962962962963],[-0.034375,-0.22962962962962963],[-0.034375,-0.22962962962962963],[-0.034375,-0.22962962962962963],[-0.034375,-0.22962962962962963],[-0.034375,-0.22962962962962963],[-0.034375,-0.22962962962962963],[-0.034375,-0.22962962962962963],[-0.034375,-0.22962962962962963],[-0.034375,-0.22962962962962963],[-0.034375,-0.22962962962962963],[-0.034375,-0.22962962962962963],[-0.034375,-0.22962962962962963],[-0.034375,-0.22962962962962963],[-0.034375,-0.22962962962962963],[-0.034375,-0.22962962962962963],[-0.034375,-0.22962962962962963],[-0.034375,-0.22962962962962963],[-0.034375,-0.22962962962962963],[-0.034375,-0.22962962962962963],[-0.034375,-0.22962962962962963],[-0.034375,-0.22962962962962963],[-0.034375,-0.22962962962962963],[-0.034375,-0.22962962962962963],[-0.034375,-0.22962962962962963],[-0.034375,-0.22962962962962963],[-0.034375,-0.22962962962962963],[-0.034375,-0.22962962962962963],[-0.034375,-0.22962962962962963],[-0.034375,-0.22962962962962963],[-0.034375,-0.22962962962962963],[-0.034375,-0.22962962962962963],[-0.034375,-0.22962962962962963],[-0.034375,-0.22962962962962963],[-0.03333333333333333,-0.22962962962962963],[-0.03333333333333333,-0.22962962962962963],[-0.03333333333333333,-0.22962962962962963],[-0.03333333333333333,-0.22962962962962963],[-0.03333333333333333,-0.22962962962962963],[-0.03333333333333333,-0.22962962962962963],[-0.03333333333333333,-0.22962962962962963],[-0.03333333333333333,-0.22962962962962963],[-0.03333333333333333,-0.22962962962962963],[-0.03333333333333333,-0.22962962962962963],[-0.03333333333333333,-0.22777777777777777],[-0.03229166666666667,-0.22592592592592592],[-0.03229166666666667,-0.22592592592592592],[-0.03229166666666667,-0.22592592592592592],[-0.03229166666666667,-0.22592592592592592],[-0.03229166666666667,-0.22592592592592592],[-0.03229166666666667,-0.22592592592592592],[-0.03229166666666667,-0.22592592592592592],[-0.03229166666666667,-0.22592592592592592],[-0.03229166666666667,-0.22592592592592592],[-0.03229166666666667,-0.22592592592592592],[-0.03229166666666667,-0.22592592592592592],[-0.03229166666666667,-0.22592592592592592],[-0.03229166666666667,-0.22592592592592592],[-0.03229166666666667,-0.22592592592592592],[-0.03229166666666667,-0.22592592592592592],[-0.03229166666666667,-0.22592592592592592],[-0.03125,-0.22592592592592592],[-0.03125,-0.22592592592592592],[-0.030208333333333334,-0.22407407407407406],[-0.029166666666666667,-0.22407407407407406],[-0.028125,-0.2222222222222222],[-0.027083333333333334,-0.2222222222222222],[-0.025,-0.21851851851851853],[-0.022916666666666665,-0.21666666666666667],[-0.021875,-0.21666666666666667],[-0.01875,-0.21296296296296297],[-0.016666666666666666,-0.2111111111111111],[-0.014583333333333334,-0.2074074074074074],[-0.011458333333333333,-0.2037037037037037],[-0.00625,-0.19444444444444445],[-0.0020833333333333333,-0.18518518518518517],[0.0020833333333333333,-0.17777777777777778],[0.008333333333333333,-0.16666666666666666],[0.019791666666666666,-0.14814814814814814],[0.035416666666666666,-0.12407407407407407],[0.05,-0.09814814814814815],[0.06666666666666667,-0.06296296296296296],[0.08645833333333333,-0.016666666666666666],[0.10104166666666667,0.011111111111111112],[0.11145833333333334,0.03333333333333333],[0.121875,0.06296296296296296],[0.12708333333333333,0.08518518518518518],[0.13020833333333334,0.10555555555555556],[0.13125,0.1259259259259259],[0.13229166666666667,0.14444444444444443],[0.13333333333333333,0.16296296296296298],[0.13333333333333333,0.17037037037037037],[0.13333333333333333,0.17962962962962964],[0.13333333333333333,0.18703703703703703],[0.13333333333333333,0.19814814814814816],[0.13125,0.2074074074074074],[0.12916666666666668,0.21666666666666667],[0.12708333333333333,0.22407407407407406],[0.12604166666666666,0.22962962962962963],[0.12604166666666666,0.2518518518518518],[0.12604166666666666,0.26851851851851855],[0.12604166666666666,0.29259259259259257],[0.12604166666666666,0.3111111111111111],[0.12604166666666666,0.3296296296296296],[0.12604166666666666,0.3425925925925926],[0.12604166666666666,0.35],[0.12604166666666666,0.3574074074074074],[0.12604166666666666,0.3592592592592593],[0.12604166666666666,0.3611111111111111],[0.12604166666666666,0.3611111111111111],[0.12604166666666666,0.3611111111111111],[0.12604166666666666,0.3611111111111111],[0.12604166666666666,0.3611111111111111],[0.12604166666666666,0.3611111111111111],[0.12604166666666666,0.3611111111111111],[0.12604166666666666,0.3611111111111111],[0.12604166666666666,0.3611111111111111],[0.12604166666666666,0.3611111111111111],[0.12604166666666666,0.3611111111111111],[0.12604166666666666,0.3611111111111111],[0.12604166666666666,0.3611111111111111],[0.12604166666666666,0.3611111111111111],[0.12604166666666666,0.3611111111111111],[0.12604166666666666,0.3611111111111111],[0.12604166666666666,0.3611111111111111],[0.12604166666666666,0.3611111111111111],[0.12604166666666666,0.3611111111111111],[0.12604166666666666,0.3611111111111111],[0.12604166666666666,0.3611111111111111],[0.12604166666666666,0.3611111111111111],[0.12604166666666666,0.3611111111111111],[0.12604166666666666,0.3611111111111111],[0.12604166666666666,0.3611111111111111],[0.12604166666666666,0.3611111111111111],[0.12604166666666666,0.3611111111111111],[0.12604166666666666,0.3611111111111111],[0.12604166666666666,0.3611111111111111],[0.12604166666666666,0.3611111111111111],[0.12604166666666666,0.3611111111111111],[0.12604166666666666,0.3611111111111111],[0.12604166666666666,0.3611111111111111],[0.12604166666666666,0.3611111111111111],[0.12604166666666666,0.3611111111111111],[0.12604166666666666,0.3611111111111111],[0.12604166666666666,0.3611111111111111],[0.12604166666666666,0.3611111111111111],[0.12604166666666666,0.3611111111111111],[0.12604166666666666,0.3611111111111111],[0.12604166666666666,0.3611111111111111],[0.12604166666666666,0.3611111111111111],[0.12604166666666666,0.3611111111111111],[0.12604166666666666,0.3611111111111111],[0.12604166666666666,0.3611111111111111],[0.12604166666666666,0.3611111111111111],[0.12604166666666666,0.3611111111111111],[0.12604166666666666,0.3611111111111111],[0.12604166666666666,0.3611111111111111],[0.12604166666666666,0.3611111111111111],[0.12604166666666666,0.3611111111111111],[0.12604166666666666,0.3611111111111111],[0.12604166666666666,0.3611111111111111],[0.12604166666666666,0.3611111111111111],[0.12604166666666666,0.3611111111111111],[0.12604166666666666,0.3611111111111111],[0.12604166666666666,0.3611111111111111],[0.12604166666666666,0.3611111111111111],[0.12604166666666666,0.3611111111111111],[0.12604166666666666,0.3611111111111111],[0.12604166666666666,0.3611111111111111],[0.12604166666666666,0.3611111111111111],[0.125,0.3611111111111111],[0.125,0.3611111111111111],[0.125,0.3611111111111111],[0.125,0.3611111111111111],[0.12395833333333334,0.3611111111111111],[0.12395833333333334,0.3611111111111111],[0.12395833333333334,0.3611111111111111],[0.12395833333333334,0.3592592592592593]]","[[0.040625,0.597037037037037],[0.040625,0.597037037037037],[0.040625,0.597037037037037],[0.0265625,0.6362962962962964],[0.035416666666666666,0.6024074074074073],[0.03833333333333329,0.6209259259259259],[0.03822916666666672,0.6088888888888888],[0.03322916666666664,0.6070370370370369],[0.02666666666666669,0.662962962962963],[0.021041666666666715,0.6927777777777778],[0.01604166666666664,0.7535185185185185],[-0.012812499999999952,0.8003703703703705],[-0.012812499999999952,0.8003703703703705],[-0.03583333333333331,0.8312962962962962],[-0.05333333333333338,0.855185185185185],[-0.07270833333333329,0.9457407407407408],[-0.09208333333333331,1.0072222222222225],[-0.11927083333333334,1.0588888888888888],[-0.1170833333333333,1.1031481481481482],[-0.13145833333333337,1.1314814814814815],[-0.14583333333333334,1.1598148148148146],[-0.159375,1.1331481481481482],[-0.14854166666666668,1.0937037037037036],[-0.15406249999999996,1.107777777777778],[-0.16635416666666672,1.1270370370370368],[-0.15281250000000005,1.1344444444444444],[-0.13333333333333333,1.1185185185185185],[-0.11645833333333329,1.1072222222222223],[-0.13999999999999999,1.0996296296296295],[-0.14072916666666668,1.0607407407407408],[-0.13770833333333338,0.9803703703703706],[-0.13562500000000005,1.0107407407407407],[-0.12697916666666664,1.048888888888889],[-0.1078125,1.0494444444444446],[-0.09541666666666669,1.055925925925926],[-0.08312499999999995,1.037222222222222],[-0.08312499999999995,1.037222222222222],[-0.09770833333333329,1.0699999999999998],[-0.09979166666666663,1.0638888888888889],[-0.13166666666666665,1.0546296296296296],[-0.16354166666666667,1.0453703703703703],[-0.1796875,1.010185185185185],[-0.21197916666666666,0.9944444444444445],[-0.2345833333333334,0.9425925925925925],[-0.25718749999999996,0.8907407407407407],[-0.27875,0.8494444444444446],[-0.325625,0.827962962962963],[-0.3458333333333333,0.7785185185185185],[-0.3458333333333333,0.7785185185185185],[-0.3725,0.780925925925926],[-0.36916666666666664,0.7761111111111112],[-0.3692708333333333,0.7687037037037038],[-0.3692708333333333,0.7687037037037038],[-0.3807291666666667,0.8327777777777778],[-0.38468749999999996,0.8229629629629629],[-0.4048958333333334,0.8414814814814814],[-0.4322916666666667,0.8670370370370372],[-0.4539583333333333,0.8761111111111112],[-0.47625,0.8953703703703704],[-0.48708333333333337,0.9066666666666665],[-0.4844791666666667,0.8887037037037037],[-0.4952083333333333,0.8857407407407406],[-0.494375,0.8566666666666667],[-0.5152083333333334,0.85],[-0.5272916666666666,0.8420370370370371],[-0.5452083333333333,0.8201851851851851],[-0.5559375000000001,0.7912962962962962],[-0.556875,0.7598148148148147],[-0.5578125,0.7283333333333333],[-0.5690624999999999,0.677962962962963],[-0.59375,0.6568518518518519],[-0.61375,0.6253703703703705],[-0.6332291666666666,0.6670370370370371],[-0.6391666666666667,0.6822222222222222],[-0.6451041666666666,0.6974074074074075],[-0.6523958333333333,0.7124074074074075],[-0.6596875,0.7274074074074073],[-0.6646875,0.7307407407407408],[-0.6646875,0.7307407407407408],[-0.6719791666666667,0.7303703703703703],[-0.5835416666666667,0.7638888888888888],[-0.49729166666666663,0.7803703703703704],[-0.38937499999999997,0.8233333333333334],[-0.29333333333333333,0.787962962962963],[-0.19729166666666664,0.7525925925925926],[-0.07541666666666665,0.7537037037037037],[0.05364583333333333,0.768888888888889],[0.05364583333333333,0.768888888888889],[0.17833333333333337,0.755925925925926],[0.28010416666666677,0.737037037037037],[0.35260416666666666,0.7253703703703704],[0.32135416666666666,0.6818518518518519],[0.3089583333333332,0.6714814814814816],[0.28177083333333336,0.6185185185185185],[0.2578125,0.5994444444444446],[0.25364583333333335,0.612037037037037],[0.20697916666666671,0.575],[0.20697916666666671,0.575],[0.1603125000000001,0.537962962962963],[0.0962500000000001,0.5414814814814815],[0.052291666666666715,0.5509259259259259],[0.03989583333333328,0.5568518518518519],[0.022083333333333382,0.5666666666666667],[-0.005416666666666714,0.5761111111111111],[-0.01572916666666669,0.5516666666666666],[-0.017499999999999953,0.5475925925925926],[-0.04760416666666671,0.49148148148148146],[-0.05541666666666671,0.5307407407407407],[-0.06354166666666666,0.5238888888888888],[-0.052187500000000026,0.5214814814814815],[-0.05270833333333336,0.4927777777777778],[-0.058229166666666644,0.5083333333333333],[-0.05166666666666669,0.49537037037037035],[-0.02010416666666662,0.4625925925925925],[-0.034895833333333334,0.4951851851851851],[-0.022500000000000023,0.49962962962962953],[-0.00302083333333331,0.5170370370370371],[0.002708333333333357,0.46407407407407414],[0.008749999999999977,0.4572222222222222],[-0.01885416666666669,0.36925925925925923],[-0.01885416666666669,0.36925925925925923],[-0.016875000000000046,0.3742592592592593],[-0.05166666666666669,0.34333333333333327],[-0.09156249999999998,0.3109259259259259],[-0.09156249999999998,0.3109259259259259],[-0.0734375,0.40851851851851856],[-0.0328125,0.4553703703703703],[-0.052291666666666715,0.4831481481481481],[-0.07364583333333338,0.4812962962962963],[-0.08687499999999998,0.4675925925925926],[-0.0811458333333333,0.42055555555555557],[-0.035208333333333286,0.4137037037037037],[-0.027395833333333286,0.375],[-0.027395833333333286,0.375],[0.03187500000000002,0.33203703703703696],[0.08520833333333329,0.33666666666666656],[0.04854166666666669,0.2153703703703703],[0.04854166666666669,0.2153703703703703],[0.02833333333333338,0.16962962962962966],[0.03354166666666671,0.1638888888888889],[0.03708333333333336,0.1337037037037038],[0.0900000000000001,0.11296296296296296],[0.10833333333333334,0.1455555555555556],[0.11218750000000005,0.17907407407407416],[0.11218750000000005,0.17907407407407416],[0.12062499999999995,0.16074074074074066],[0.11708333333333343,0.15314814814814823],[0.10666666666666676,0.09611111111111106],[0.11875,0.07592592592592592],[0.13802083333333334,0.049629629629629544],[0.14833333333333343,-0.01629629629629621],[0.16364583333333324,-0.020740740740740823],[0.1330208333333334,-0.05592592592592591],[0.11802083333333328,-0.1111111111111111],[0.11322916666666671,-0.14314814814814816],[0.11072916666666661,-0.13333333333333333],[0.11843750000000004,-0.1609259259259259],[0.1525000000000001,-0.14648148148148152],[0.1525000000000001,-0.14648148148148152],[0.15072916666666672,-0.14425925925925923],[0.15072916666666672,-0.14425925925925923],[0.12729166666666672,-0.15055555555555558],[0.12750000000000009,-0.1272222222222222],[0.12687499999999996,-0.1514814814814815],[0.12687499999999996,-0.1514814814814815],[0.13291666666666657,-0.13796296296296295],[0.13229166666666667,-0.06277777777777774],[0.10187499999999995,-0.06388888888888888],[0.103125,-0.034074074074074034],[0.06468750000000002,-0.02555555555555547],[0.018229166666666668,-0.029814814814814856],[0.009687499999999953,-0.01777777777777782],[-0.010520833333333358,-0.04592592592592584],[-0.04645833333333336,-0.0772222222222222],[-0.06802083333333328,-0.051666666666666625],[-0.09968750000000005,-0.04259259259259259],[-0.13250000000000003,-0.09074074074074075],[-0.13552083333333337,-0.06259259259259262],[-0.16593749999999996,-0.07592592592592592],[-0.15489583333333337,-0.041666666666666664],[-0.14479166666666668,-0.014259259259259343],[-0.16802083333333329,-0.034999999999999955],[-0.1622916666666666,-0.03166666666666671],[-0.15635416666666668,-0.040370370370370286],[-0.15635416666666668,-0.040370370370370286],[-0.17687499999999995,-0.05185185185185185],[-0.21312500000000004,-0.08370370370370368],[-0.25968749999999996,-0.10703703703703706],[-0.30625,-0.13037037037037033],[-0.3342708333333333,-0.14944444444444444],[-0.3757291666666667,-0.1668518518518519],[-0.3959375,-0.19759259259259257],[-0.4317708333333333,-0.18037037037037032],[-0.46208333333333335,-0.20851851851851855],[-0.5120833333333333,-0.18351851851851855],[-0.5215625,-0.21537037037037038],[-0.5586458333333333,-0.18796296296296297],[-0.53375,-0.20166666666666663],[-0.5423958333333334,-0.1609259259259259],[-0.5458333333333333,-0.2103703703703704],[-0.5589583333333333,-0.2657407407407407],[-0.6009375,-0.25462962962962965],[-0.6009375,-0.25462962962962965],[-0.6036458333333333,-0.32833333333333337],[-0.6396875000000001,-0.2788888888888889],[-0.5785416666666666,-0.3022222222222222],[-0.5511458333333333,-0.2777777777777778],[-0.4635416666666667,-0.2633333333333333],[-0.42302083333333335,-0.2588888888888889],[-0.33833333333333326,-0.3118518518518518],[-0.294375,-0.2553703703703703],[-0.2454166666666667,-0.2125925925925926],[-0.18374999999999997,-0.20092592592592592],[-0.11104166666666669,-0.07999999999999997],[-0.017083333333333308,-0.04870370370370362],[-0.004791666666666691,0.012222222222222264],[-0.004791666666666691,0.012222222222222264],[0.009062500000000048,0.034444444444444486],[-0.027708333333333356,0.012222222222222264],[-0.07229166666666664,0.09537037037037037],[-0.0765625,0.18333333333333332],[-0.05645833333333338,0.1883333333333334],[-0.029895833333333382,0.21796296296296305]]","[[0.040625,0.597037037037037,0.00029999999701857405],[0.040625,0.597037037037037,0.054699999995534654],[0.040625,0.597037037037037,0.060600000001493015],[0.0265625,0.6362962962962964,0.07750000000000057],[0.035416666666666666,0.6024074074074073,0.09669999999552914],[0.03833333333333329,0.6209259259259259,0.11269999999553448],[0.03822916666666672,0.6088888888888888,0.13100000000000023],[0.03322916666666664,0.6070370370370369,0.1460000000000008],[0.02666666666666669,0.662962962962963,0.16060000000149444],[0.021041666666666715,0.6927777777777778,0.1783999999985113],[0.01604166666666664,0.7535185185185185,0.19600000000000506],[-0.012812499999999952,0.8003703703703705,0.21429999999702432],[-0.012812499999999952,0.8003703703703705,0.2273999999985108],[-0.03583333333333331,0.8312962962962962,0.24399999999999977],[-0.05333333333333338,0.855185185185185,0.26060000000148875],[-0.07270833333333329,0.9457407407407408,0.2772999999970196],[-0.09208333333333331,1.0072222222222225,0.29650000000000176],[-0.11927083333333334,1.0588888888888888,0.31289999999851403],[-0.1170833333333333,1.1031481481481482,0.3283999999985099],[-0.13145833333333337,1.1314814814814815,0.34389999999851284],[-0.14583333333333334,1.1598148148148146,0.3616999999955297],[-0.159375,1.1331481481481482,0.377299999997021],[-0.14854166666666668,1.0937037037037036,0.39519999999553335],[-0.15406249999999996,1.107777777777778,0.41060000000149444],[-0.16635416666666672,1.1270370370370368,0.4272999999970253],[-0.15281250000000005,1.1344444444444444,0.4440000000000026],[-0.13333333333333333,1.1185185185185185,0.46069999999553346],[-0.11645833333333329,1.1072222222222223,0.4777999999970248],[-0.13999999999999999,1.0996296296296295,0.49419999999553],[-0.14072916666666668,1.0607407407407408,0.5135000000000005],[-0.13770833333333338,0.9803703703703706,0.5293999999985104],[-0.13562500000000005,1.0107407407407407,0.5476999999955297],[-0.12697916666666664,1.048888888888889,0.5637999999970233],[-0.1078125,1.0494444444444446,0.5773999999985122],[-0.09541666666666669,1.055925925925926,0.5956999999955315],[-0.08312499999999995,1.037222222222222,0.6132999999970252],[-0.08312499999999995,1.037222222222222,0.6273999999985094],[-0.09770833333333329,1.0699999999999998,0.6440000000000055],[-0.09979166666666663,1.0638888888888889,0.6606999999955292],[-0.13166666666666665,1.0546296296296296,0.6772999999970253],[-0.16354166666666667,1.0453703703703703,0.694100000001491],[-0.1796875,1.010185185185185,0.7106999999955335],[-0.21197916666666666,0.9944444444444445,0.7293999999985132],[-0.2345833333333334,0.9425925925925925,0.7438999999985114],[-0.25718749999999996,0.8907407407407407,0.7616999999955283],[-0.27875,0.8494444444444446,0.7772999999970196],[-0.325625,0.827962962962963,0.7977999999970251],[-0.3458333333333333,0.7785185185185185,0.8131999999955326],[-0.3458333333333333,0.7785185185185185,0.8273999999985122],[-0.3725,0.780925925925926,0.8438999999985128],[-0.36916666666666664,0.7761111111111112,0.8606000000014902],[-0.3692708333333333,0.7687037037037038,0.8906999999955332],[-0.3692708333333333,0.7687037037037038,0.9006000000014893],[-0.3807291666666667,0.8327777777777778,0.9117999999970223],[-0.38468749999999996,0.8229629629629629,0.928299999997023],[-0.4048958333333334,0.8414814814814814,0.9438999999985143],[-0.4322916666666667,0.8670370370370372,0.9606000000014916],[-0.4539583333333333,0.8761111111111112,0.9772999999970224],[-0.47625,0.8953703703703704,0.9939999999999998],[-0.48708333333333337,0.9066666666666665,1.0131999999955283],[-0.4844791666666667,0.8887037037037037,1.0272999999970196],[-0.4952083333333333,0.8857407407407406,1.044000000000004],[-0.494375,0.8566666666666667,1.0612999999970185],[-0.5152083333333334,0.85,1.0772999999970239],[-0.5272916666666666,0.8420370370370371,1.095199999995529],[-0.5452083333333333,0.8201851851851851,1.110699999995532],[-0.5559375000000001,0.7912962962962962,1.127299999997021],[-0.556875,0.7598148148148147,1.14389999999851],[-0.5578125,0.7283333333333333,1.1606999999955292],[-0.5690624999999999,0.677962962962963,1.179799999997023],[-0.59375,0.6568518518518519,1.1961999999955282],[-0.61375,0.6253703703703705,1.214100000001494],[-0.6332291666666666,0.6670370370370371,1.2287999999970225],[-0.6391666666666667,0.6822222222222222,1.2439999999999998],[-0.6451041666666666,0.6974074074074075,1.2606000000014888],[-0.6523958333333333,0.7124074074074075,1.2772999999970196],[-0.6596875,0.7274074074074073,1.2977999999970251],[-0.6646875,0.7307407407407408,1.3127999999970186],[-0.6646875,0.7307407407407408,1.3272999999970239],[-0.6719791666666667,0.7303703703703703,1.3457999999970198],[-0.5835416666666667,0.7638888888888888,1.360699999995532],[-0.49729166666666663,0.7803703703703704,1.377299999997021],[-0.38937499999999997,0.8233333333333334,1.3960000000000008],[-0.29333333333333333,0.787962962962963,1.4106999999955292],[-0.19729166666666664,0.7525925925925926,1.43019999999553],[-0.07541666666666665,0.7537037037037037,1.4438999999985143],[0.05364583333333333,0.768888888888889,1.4646000000014894],[0.05364583333333333,0.768888888888889,1.4772999999970224],[0.17833333333333337,0.755925925925926,1.4941000000014952],[0.28010416666666677,0.737037037037037,1.5125000000000028],[0.35260416666666666,0.7253703703703704,1.5286000000014894],[0.32135416666666666,0.6818518518518519,1.5478999999985135],[0.3089583333333332,0.6714814814814816,1.5631000000014907],[0.28177083333333336,0.6185185185185185,1.5773999999985122],[0.2578125,0.5994444444444446,1.5943999999985152],[0.25364583333333335,0.612037037037037,1.6121000000014902],[0.20697916666666671,0.575,1.6318999999985095],[0.20697916666666671,0.575,1.6440000000000055],[0.1603125000000001,0.537962962962963,1.6606000000014944],[0.0962500000000001,0.5414814814814815,1.6771999999955298],[0.052291666666666715,0.5509259259259259,1.6939999999999955],[0.03989583333333328,0.5568518518518519,1.7107999999970147],[0.022083333333333382,0.5666666666666667,1.7272999999970224],[-0.005416666666666714,0.5761111111111111,1.7438999999985114],[-0.01572916666666669,0.5516666666666666,1.7606000000014959],[-0.017499999999999953,0.5475925925925926,1.7771999999955383],[-0.04760416666666671,0.49148148148148146,1.7971999999955344],[-0.05541666666666671,0.5307407407407407,1.8106999999955278],[-0.06354166666666666,0.5238888888888888,1.8275000000000077],[-0.052187500000000026,0.5214814814814815,1.847699999995534],[-0.05270833333333336,0.4927777777777778,1.8618999999985064],[-0.058229166666666644,0.5083333333333333,1.8773999999985094],[-0.05166666666666669,0.49537037037037035,1.896000000000008],[-0.02010416666666662,0.4625925925925925,1.9136999999955364],[-0.034895833333333334,0.4951851851851851,1.928600000001488],[-0.022500000000000023,0.49962962962962953,1.9441999999955257],[-0.00302083333333331,0.5170370370370371,1.9636000000014988],[0.002708333333333357,0.46407407407407414,1.9774999999999991],[0.008749999999999977,0.4572222222222222,1.9941000000014881],[-0.01885416666666669,0.36925925925925923,2.015699999995526],[-0.01885416666666669,0.36925925925925923,2.0274999999999963],[-0.016875000000000046,0.3742592592592593,2.0441999999955343],[-0.05166666666666669,0.34333333333333327,2.062299999997016],[-0.09156249999999998,0.3109259259259259,2.0814999999999984],[-0.09156249999999998,0.3109259259259259,2.0941000000014967],[-0.0734375,0.40851851851851856,2.110899999998516],[-0.0328125,0.4553703703703703,2.130600000001486],[-0.052291666666666715,0.4831481481481481,2.146199999995538],[-0.07364583333333338,0.4812962962962963,2.1625000000000014],[-0.08687499999999998,0.4675925925925926,2.18019999999553],[-0.0811458333333333,0.42055555555555557,2.1961000000014863],[-0.035208333333333286,0.4137037037037037,2.2146999999955383],[-0.027395833333333286,0.375,2.2310000000000016],[-0.027395833333333286,0.375,2.244199999995537],[0.03187500000000002,0.33203703703703696,2.2608999999985073],[0.08520833333333329,0.33666666666666656,2.2774999999999963],[0.04854166666666669,0.2153703703703703,2.3002999999970157],[0.04854166666666669,0.2153703703703703,2.3108999999985187],[0.02833333333333338,0.16962962962962966,2.3275000000000077],[0.03354166666666671,0.1638888888888889,2.347299999997027],[0.03708333333333336,0.1337037037037038,2.366499999999995],[0.0900000000000001,0.11296296296296296,2.3811999999955376],[0.10833333333333334,0.1455555555555556,2.396899999998517],[0.11218750000000005,0.17907407407407416,2.4107999999970176],[0.11218750000000005,0.17907407407407416,2.4296999999955275],[0.12062499999999995,0.16074074074074066,2.444100000001491],[0.11708333333333343,0.15314814814814823,2.4606999999955335],[0.10666666666666676,0.09611111111111106,2.4810000000000016],[0.11875,0.07592592592592592,2.4976000000014906],[0.13802083333333334,0.049629629629629544,2.512199999995538],[0.14833333333333343,-0.01629629629629621,2.5278999999985174],[0.16364583333333324,-0.020740740740740823,2.5476999999955368],[0.1330208333333334,-0.05592592592592591,2.5629999999999953],[0.11802083333333328,-0.1111111111111111,2.577399999998512],[0.11322916666666671,-0.14314814814814816,2.594000000000001],[0.11072916666666661,-0.13333333333333333,2.6136000000014903],[0.11843750000000004,-0.1609259259259259,2.632399999998505],[0.1525000000000001,-0.14648148148148152,2.6469999999999985],[0.1525000000000001,-0.14648148148148152,2.6606000000014873],[0.15072916666666672,-0.14425925925925923,2.6772999999970253],[0.15072916666666672,-0.14425925925925923,2.6939999999999955],[0.12729166666666672,-0.15055555555555558,2.7106999999955335],[0.12750000000000009,-0.1272222222222222,2.7304999999999993],[0.12687499999999996,-0.1514814814814815,2.7468999999985115],[0.12687499999999996,-0.1514814814814815,2.760600000001496],[0.13291666666666657,-0.13796296296296295,2.777399999998515],[0.13229166666666667,-0.06277777777777774,2.7946999999955366],[0.10187499999999995,-0.06388888888888888,2.8116999999955326],[0.103125,-0.034074074074074034,2.8272999999970168],[0.06468750000000002,-0.02555555555555547,2.8438999999985057],[0.018229166666666668,-0.029814814814814856,2.86060000000149],[0.009687499999999953,-0.01777777777777782,2.877299999997028],[-0.010520833333333358,-0.04592592592592584,2.8962999999970194],[-0.04645833333333336,-0.0772222222222222,2.9107999999970176],[-0.06802083333333328,-0.051666666666666625,2.9272999999970253],[-0.09968750000000005,-0.04259259259259259,2.944100000001491],[-0.13250000000000003,-0.09074074074074075,2.9606000000014987],[-0.13552083333333337,-0.06259259259259262,2.9783999999985085],[-0.16593749999999996,-0.07592592592592592,2.9938999999985114],[-0.15489583333333337,-0.041666666666666664,3.0105000000000004],[-0.14479166666666668,-0.014259259259259343,3.0272999999970196],[-0.16802083333333329,-0.034999999999999955,3.044000000000004],[-0.1622916666666666,-0.03166666666666671,3.061],[-0.15635416666666668,-0.040370370370370286,3.0772999999970168],[-0.15635416666666668,-0.040370370370370286,3.094000000000001],[-0.17687499999999995,-0.05185185185185185,3.110699999995525],[-0.21312500000000004,-0.08370370370370368,3.1313999999985143],[-0.25968749999999996,-0.10703703703703706,3.146399999998515],[-0.30625,-0.13037037037037033,3.1633999999985107],[-0.3342708333333333,-0.14944444444444444,3.177500000000002],[-0.3757291666666667,-0.1668518518518519,3.1939999999999955],[-0.3959375,-0.19759259259259257,3.2106000000014987],[-0.4317708333333333,-0.18037037037037032,3.2287999999970154],[-0.46208333333333335,-0.20851851851851855,3.2438999999985114],[-0.5120833333333333,-0.18351851851851855,3.2616999999955354],[-0.5215625,-0.21537037037037038,3.2772999999970196],[-0.5586458333333333,-0.18796296296296297,3.298000000000009],[-0.53375,-0.20166666666666663,3.3129999999999953],[-0.5423958333333334,-0.1609259259259259,3.328399999998517],[-0.5458333333333333,-0.2103703703703704,3.3456999999955386],[-0.5589583333333333,-0.2657407407407407,3.3625000000000043],[-0.6009375,-0.25462962962962965,3.381299999997019],[-0.6009375,-0.25462962962962965,3.393899999998517],[-0.6036458333333333,-0.32833333333333337,3.4106999999955363],[-0.6396875000000001,-0.2788888888888889,3.4272999999970253],[-0.5785416666666666,-0.3022222222222222,3.4438999999985143],[-0.5511458333333333,-0.2777777777777778,3.4606000000014987],[-0.4635416666666667,-0.2633333333333333,3.4776000000014946],[-0.42302083333333335,-0.2588888888888889,3.494000000000007],[-0.33833333333333326,-0.3118518518518518,3.5136999999955307],[-0.294375,-0.2553703703703703,3.527399999998515],[-0.2454166666666667,-0.2125925925925926,3.5438999999985086],[-0.18374999999999997,-0.20092592592592592,3.562500000000007],[-0.11104166666666669,-0.07999999999999997,3.5771999999955355],[-0.017083333333333308,-0.04870370370370362,3.5958999999985153],[-0.004791666666666691,0.012222222222222264,3.6203999999985186],[-0.004791666666666691,0.012222222222222264,3.629899999998507],[0.009062500000000048,0.034444444444444486,3.643899999998517],[-0.027708333333333356,0.012222222222222264,3.6606000000014873],[-0.07229166666666664,0.09537037037037037,3.68019999999553],[-0.0765625,0.18333333333333332,3.6966000000014887],[-0.05645833333333338,0.1883333333333334,3.7146999999955383],[-0.029895833333333382,0.21796296296296305,3.7316000000014853]]","[0.00029999999701857405,0.054699999995534654,0.060600000001493015,0.07750000000000057,0.09669999999552914,0.11269999999553448,0.13100000000000023,0.1460000000000008,0.16060000000149444,0.1783999999985113,0.19600000000000506,0.21429999999702432,0.2273999999985108,0.24399999999999977,0.26060000000148875,0.2772999999970196,0.29650000000000176,0.31289999999851403,0.3283999999985099,0.34389999999851284,0.3616999999955297,0.377299999997021,0.39519999999553335,0.41060000000149444,0.4272999999970253,0.4440000000000026,0.46069999999553346,0.4777999999970248,0.49419999999553,0.5135000000000005,0.5293999999985104,0.5476999999955297,0.5637999999970233,0.5773999999985122,0.5956999999955315,0.6132999999970252,0.6273999999985094,0.6440000000000055,0.6606999999955292,0.6772999999970253,0.694100000001491,0.7106999999955335,0.7293999999985132,0.7438999999985114,0.7616999999955283,0.7772999999970196,0.7977999999970251,0.8131999999955326,0.8273999999985122,0.8438999999985128,0.8606000000014902,0.8906999999955332,0.9006000000014893,0.9117999999970223,0.928299999997023,0.9438999999985143,0.9606000000014916,0.9772999999970224,0.9939999999999998,1.0131999999955283,1.0272999999970196,1.044000000000004,1.0612999999970185,1.0772999999970239,1.095199999995529,1.110699999995532,1.127299999997021,1.14389999999851,1.1606999999955292,1.179799999997023,1.1961999999955282,1.214100000001494,1.2287999999970225,1.2439999999999998,1.2606000000014888,1.2772999999970196,1.2977999999970251,1.3127999999970186,1.3272999999970239,1.3457999999970198,1.360699999995532,1.377299999997021,1.3960000000000008,1.4106999999955292,1.43019999999553,1.4438999999985143,1.4646000000014894,1.4772999999970224,1.4941000000014952,1.5125000000000028,1.5286000000014894,1.5478999999985135,1.5631000000014907,1.5773999999985122,1.5943999999985152,1.6121000000014902,1.6318999999985095,1.6440000000000055,1.6606000000014944,1.6771999999955298,1.6939999999999955,1.7107999999970147,1.7272999999970224,1.7438999999985114,1.7606000000014959,1.7771999999955383,1.7971999999955344,1.8106999999955278,1.8275000000000077,1.847699999995534,1.8618999999985064,1.8773999999985094,1.896000000000008,1.9136999999955364,1.928600000001488,1.9441999999955257,1.9636000000014988,1.9774999999999991,1.9941000000014881,2.015699999995526,2.0274999999999963,2.0441999999955343,2.062299999997016,2.0814999999999984,2.0941000000014967,2.110899999998516,2.130600000001486,2.146199999995538,2.1625000000000014,2.18019999999553,2.1961000000014863,2.2146999999955383,2.2310000000000016,2.244199999995537,2.2608999999985073,2.2774999999999963,2.3002999999970157,2.3108999999985187,2.3275000000000077,2.347299999997027,2.366499999999995,2.3811999999955376,2.396899999998517,2.4107999999970176,2.4296999999955275,2.444100000001491,2.4606999999955335,2.4810000000000016,2.4976000000014906,2.512199999995538,2.5278999999985174,2.5476999999955368,2.5629999999999953,2.577399999998512,2.594000000000001,2.6136000000014903,2.632399999998505,2.6469999999999985,2.6606000000014873,2.6772999999970253,2.6939999999999955,2.7106999999955335,2.7304999999999993,2.7468999999985115,2.760600000001496,2.777399999998515,2.7946999999955366,2.8116999999955326,2.8272999999970168,2.8438999999985057,2.86060000000149,2.877299999997028,2.8962999999970194,2.9107999999970176,2.9272999999970253,2.944100000001491,2.9606000000014987,2.9783999999985085,2.9938999999985114,3.0105000000000004,3.0272999999970196,3.044000000000004,3.061,3.0772999999970168,3.094000000000001,3.110699999995525,3.1313999999985143,3.146399999998515,3.1633999999985107,3.177500000000002,3.1939999999999955,3.2106000000014987,3.2287999999970154,3.2438999999985114,3.2616999999955354,3.2772999999970196,3.298000000000009,3.3129999999999953,3.328399999998517,3.3456999999955386,3.3625000000000043,3.381299999997019,3.393899999998517,3.4106999999955363,3.4272999999970253,3.4438999999985143,3.4606000000014987,3.4776000000014946,3.494000000000007,3.5136999999955307,3.527399999998515,3.5438999999985086,3.562500000000007,3.5771999999955355,3.5958999999985153,3.6203999999985186,3.629899999998507,3.643899999998517,3.6606000000014873,3.68019999999553,3.6966000000014887,3.7146999999955383,3.7316000000014853]","[1732593177720,1732593177763,1732593177769,1732593177786,1732593177805,1732593177821,1732593177840,1732593177855,1732593177869,1732593177887,1732593177905,1732593177923,1732593177936,1732593177953,1732593177969,1732593177986,1732593178005,1732593178021,1732593178037,1732593178053,1732593178070,1732593178086,1732593178104,1732593178119,1732593178136,1732593178153,1732593178169,1732593178186,1732593178203,1732593178222,1732593178238,1732593178256,1732593178272,1732593178286,1732593178304,1732593178322,1732593178336,1732593178353,1732593178369,1732593178386,1732593178403,1732593178419,1732593178438,1732593178453,1732593178470,1732593178486,1732593178506,1732593178522,1732593178536,1732593178553,1732593178569,1732593178599,1732593178609,1732593178620,1732593178637,1732593178653,1732593178669,1732593178686,1732593178703,1732593178722,1732593178736,1732593178753,1732593178770,1732593178786,1732593178804,1732593178819,1732593178836,1732593178853,1732593178869,1732593178888,1732593178905,1732593178923,1732593178937,1732593178953,1732593178969,1732593178986,1732593179006,1732593179021,1732593179036,1732593179054,1732593179069,1732593179086,1732593179105,1732593179119,1732593179139,1732593179153,1732593179173,1732593179186,1732593179203,1732593179221,1732593179237,1732593179256,1732593179272,1732593179286,1732593179303,1732593179321,1732593179341,1732593179353,1732593179369,1732593179386,1732593179403,1732593179419,1732593179436,1732593179453,1732593179469,1732593179486,1732593179506,1732593179519,1732593179536,1732593179556,1732593179570,1732593179586,1732593179605,1732593179622,1732593179637,1732593179653,1732593179672,1732593179686,1732593179703,1732593179724,1732593179736,1732593179753,1732593179771,1732593179790,1732593179803,1732593179819,1732593179839,1732593179855,1732593179871,1732593179889,1732593179905,1732593179923,1732593179940,1732593179953,1732593179969,1732593179986,1732593180009,1732593180019,1732593180036,1732593180056,1732593180075,1732593180090,1732593180105,1732593180119,1732593180138,1732593180153,1732593180169,1732593180190,1732593180206,1732593180221,1732593180236,1732593180256,1732593180272,1732593180286,1732593180303,1732593180322,1732593180341,1732593180356,1732593180369,1732593180386,1732593180403,1732593180419,1732593180439,1732593180455,1732593180469,1732593180486,1732593180503,1732593180520,1732593180536,1732593180552,1732593180569,1732593180586,1732593180605,1732593180619,1732593180636,1732593180653,1732593180669,1732593180687,1732593180703,1732593180719,1732593180736,1732593180753,1732593180770,1732593180786,1732593180803,1732593180819,1732593180840,1732593180855,1732593180872,1732593180886,1732593180903,1732593180919,1732593180937,1732593180953,1732593180970,1732593180986,1732593181007,1732593181022,1732593181037,1732593181054,1732593181071,1732593181090,1732593181103,1732593181119,1732593181136,1732593181152,1732593181169,1732593181186,1732593181203,1732593181222,1732593181236,1732593181252,1732593181271,1732593181286,1732593181304,1732593181329,1732593181338,1732593181353,1732593181369,1732593181389,1732593181405,1732593181423,1732593181440]","[[999,862.4],[999,862.4],[999,862.4],[985.5,883.6],[994,865.3],[996.8,875.3],[996.7,868.8],[991.9,867.8],[985.6,898],[980.2,914.1],[975.4,946.9],[947.7,972.2],[947.7,972.2],[925.6,988.9],[908.8,1001.8],[890.2,1050.7],[871.6,1083.9],[845.5,1111.8],[847.6,1135.7],[833.8,1151],[820,1166.3],[807,1151.9],[817.4,1130.6],[812.1,1138.2],[800.3,1148.6],[813.3,1152.6],[832,1144],[848.2,1137.9],[825.6,1133.8],[824.9,1112.8],[827.8,1069.4],[829.8,1085.8],[838.1,1106.4],[856.5,1106.7],[868.4,1110.2],[880.2,1100.1],[880.2,1100.1],[866.2,1117.8],[864.2,1114.5],[833.6,1109.5],[803,1104.5],[787.5,1085.5],[756.5,1077],[734.8,1049],[713.1,1021],[692.4,998.7],[647.4,987.1],[628,960.4],[628,960.4],[602.4,961.7],[605.6,959.1],[605.5,955.1],[605.5,955.1],[594.5,989.7],[590.7,984.4],[571.3,994.4],[545,1008.2],[524.2,1013.1],[502.8,1023.5],[492.4,1029.6],[494.9,1019.9],[484.6,1018.3],[485.4,1002.6],[465.4,999],[453.8,994.7],[436.6,982.9],[426.3,967.3],[425.4,950.3],[424.5,933.3],[413.7,906.1],[390,894.7],[370.8,877.7],[352.1,900.2],[346.4,908.4],[340.7,916.6],[333.7,924.7],[326.7,932.8],[321.9,934.6],[321.9,934.6],[314.9,934.4],[399.8,952.5],[482.6,961.4],[586.2,984.6],[678.4,965.5],[770.6,946.4],[887.6,947],[1011.5,955.2],[1011.5,955.2],[1131.2,948.2],[1228.9,938],[1298.5,931.7],[1268.5,908.2],[1256.6,902.6],[1230.5,874],[1207.5,863.7],[1203.5,870.5],[1158.7,850.5],[1158.7,850.5],[1113.9,830.5],[1052.4,832.4],[1010.2,837.5],[998.3,840.7],[981.2,846],[954.8,851.1],[944.9,837.9],[943.2,835.7],[914.3,805.4],[906.8,826.6],[899,822.9],[909.9,821.6],[909.4,806.1],[904.1,814.5],[910.4,807.5],[940.7,789.8],[926.5,807.4],[938.4,809.8],[957.1,819.2],[962.6,790.6],[968.4,786.9],[941.9,739.4],[941.9,739.4],[943.8,742.1],[910.4,725.4],[872.1,707.9],[872.1,707.9],[889.5,760.6],[928.5,785.9],[909.8,800.9],[889.3,799.9],[876.6,792.5],[882.1,767.1],[926.2,763.4],[933.7,742.5],[933.7,742.5],[990.6,719.3],[1041.8,721.8],[1006.6,656.3],[1006.6,656.3],[987.2,631.6],[992.2,628.5],[995.6,612.2],[1046.4,601],[1064,618.6],[1067.7,636.7],[1067.7,636.7],[1075.8,626.8],[1072.4,622.7],[1062.4,591.9],[1074,581],[1092.5,566.8],[1102.4,531.2],[1117.1,528.8],[1087.7,509.8],[1073.3,480],[1068.7,462.7],[1066.3,468],[1073.7,453.1],[1106.4,460.9],[1106.4,460.9],[1104.7,462.1],[1104.7,462.1],[1082.2,458.7],[1082.4,471.3],[1081.8,458.2],[1081.8,458.2],[1087.6,465.5],[1087,506.1],[1057.8,505.5],[1059,521.6],[1022.1,526.2],[977.5,523.9],[969.3,530.4],[949.9,515.2],[915.4,498.3],[894.7,512.1],[864.3,517],[832.8,491],[829.9,506.2],[800.7,499],[811.3,517.5],[821,532.3],[798.7,521.1],[804.2,522.9],[809.9,518.2],[809.9,518.2],[790.2,512],[755.4,494.8],[710.7,482.2],[666,469.6],[639.1,459.3],[599.3,449.9],[579.9,433.3],[545.5,442.6],[516.4,427.4],[468.4,440.9],[459.3,423.7],[423.7,438.5],[447.6,431.1],[439.3,453.1],[436,426.4],[423.4,396.5],[383.1,402.5],[383.1,402.5],[380.5,362.7],[345.9,389.4],[404.6,376.8],[430.9,390],[515,397.8],[553.9,400.2],[635.2,371.6],[677.4,402.1],[724.4,425.2],[783.6,431.5],[853.4,496.8],[943.6,513.7],[955.4,546.6],[955.4,546.6],[968.7,558.6],[933.4,546.6],[890.6,591.5],[886.5,639],[905.8,641.7],[931.3,657.7]]","[-0.132282,0.39684600000000003]","[0.132282,0.39684600000000003]","[0.39684600000000003,0.39684600000000003]","[-0.39684600000000003,0.132282]","[-0.39684600000000003,-0.39684600000000003]","[-0.39684600000000003,-0.132282]","[-0.132282,0.132282]","[0.132282,0.132282]","[0.39684600000000003,0.132282]","[-0.132282,-0.39684600000000003]","[0.132282,-0.39684600000000003]","[0.39684600000000003,-0.39684600000000003]","[-0.132282,-0.132282]","[0.132282,-0.132282]","[0.39684600000000003,-0.132282]",0,0,0,0,1,4,Tablet,25,20,8,1,60,4,1,60,3
,,,,,,,,,,,,,,,,,,,36,001,2024-11-26_11h52.06.771,Attention_exp_legacy,2023.1.0,Win32,59.88023952,,,,,,,,,,,[-0.13541666666666666],[0.40185185185185185],[1],[0],[0],[2.6803999999985137],"[""Bus_label""]",Bus_label,2,3.6996,"[[0.11666666666666667,0.32407407407407407],[0.11666666666666667,0.32407407407407407],[0.11666666666666667,0.32407407407407407],[0.11666666666666667,0.32407407407407407],[0.11666666666666667,0.32407407407407407],[0.11666666666666667,0.32407407407407407],[0.11666666666666667,0.32407407407407407],[0.11666666666666667,0.32407407407407407],[0.11666666666666667,0.32407407407407407],[0.11666666666666667,0.32407407407407407],[0.11666666666666667,0.32407407407407407],[0.11666666666666667,0.32407407407407407],[0.11666666666666667,0.32407407407407407],[0.11666666666666667,0.32407407407407407],[0.11666666666666667,0.32407407407407407],[0.11666666666666667,0.32407407407407407],[0.11666666666666667,0.32407407407407407],[0.11666666666666667,0.32407407407407407],[0.11666666666666667,0.32407407407407407],[0.11666666666666667,0.32407407407407407],[0.11666666666666667,0.32407407407407407],[0.11666666666666667,0.32407407407407407],[0.11666666666666667,0.32407407407407407],[0.11666666666666667,0.32407407407407407],[0.11666666666666667,0.32407407407407407],[0.11666666666666667,0.32407407407407407],[0.11666666666666667,0.32407407407407407],[0.11666666666666667,0.32407407407407407],[0.11666666666666667,0.32407407407407407],[0.11666666666666667,0.32407407407407407],[0.11666666666666667,0.32407407407407407],[0.11666666666666667,0.32407407407407407],[0.11666666666666667,0.32407407407407407],[0.11666666666666667,0.32407407407407407],[0.11666666666666667,0.32407407407407407],[0.11666666666666667,0.32407407407407407],[0.11666666666666667,0.32407407407407407],[0.11666666666666667,0.32407407407407407],[0.11666666666666667,0.32407407407407407],[0.11666666666666667,0.32407407407407407],[0.11666666666666667,0.32407407407407407],[0.11666666666666667,0.32407407407407407],[0.11666666666666667,0.32407407407407407],[0.11666666666666667,0.32407407407407407],[0.11666666666666667,0.32407407407407407],[0.11666666666666667,0.32407407407407407],[0.11666666666666667,0.32407407407407407],[0.11666666666666667,0.32407407407407407],[0.11666666666666667,0.32407407407407407],[0.11666666666666667,0.32407407407407407],[0.11666666666666667,0.32407407407407407],[0.11666666666666667,0.32407407407407407],[0.11666666666666667,0.32407407407407407],[0.11666666666666667,0.32407407407407407],[0.11666666666666667,0.32407407407407407],[0.11666666666666667,0.32407407407407407],[0.11666666666666667,0.32407407407407407],[0.11666666666666667,0.32407407407407407],[0.11666666666666667,0.32407407407407407],[0.11666666666666667,0.32407407407407407],[0.11666666666666667,0.32407407407407407],[0.11666666666666667,0.32407407407407407],[0.11666666666666667,0.32407407407407407],[0.11666666666666667,0.32407407407407407],[0.11666666666666667,0.32407407407407407],[0.11666666666666667,0.32407407407407407],[0.11666666666666667,0.32407407407407407],[0.11666666666666667,0.32407407407407407],[0.11666666666666667,0.32407407407407407],[0.11666666666666667,0.32407407407407407],[0.11666666666666667,0.32407407407407407],[0.11666666666666667,0.32407407407407407],[0.11666666666666667,0.32407407407407407],[0.11666666666666667,0.32407407407407407],[0.11666666666666667,0.32407407407407407],[0.11666666666666667,0.32407407407407407],[0.11666666666666667,0.32407407407407407],[0.11666666666666667,0.32407407407407407],[0.11666666666666667,0.32407407407407407],[0.11666666666666667,0.32407407407407407],[0.11666666666666667,0.32407407407407407],[0.11666666666666667,0.32407407407407407],[0.11666666666666667,0.32407407407407407],[0.11666666666666667,0.32407407407407407],[0.11666666666666667,0.32407407407407407],[0.11666666666666667,0.32407407407407407],[0.11666666666666667,0.32407407407407407],[0.11666666666666667,0.32407407407407407],[0.11666666666666667,0.32407407407407407],[0.11666666666666667,0.32407407407407407],[0.11666666666666667,0.32407407407407407],[0.11666666666666667,0.32407407407407407],[0.11666666666666667,0.32407407407407407],[0.11666666666666667,0.32407407407407407],[0.11666666666666667,0.32407407407407407],[0.11666666666666667,0.32407407407407407],[0.115625,0.32222222222222224],[0.115625,0.32222222222222224],[0.11458333333333333,0.32037037037037036],[0.11458333333333333,0.32037037037037036],[0.11458333333333333,0.32037037037037036],[0.11458333333333333,0.32037037037037036],[0.11458333333333333,0.32037037037037036],[0.11458333333333333,0.32037037037037036],[0.11458333333333333,0.32037037037037036],[0.11458333333333333,0.32037037037037036],[0.11458333333333333,0.32037037037037036],[0.11458333333333333,0.32037037037037036],[0.11458333333333333,0.32037037037037036],[0.11458333333333333,0.32037037037037036],[0.11458333333333333,0.32037037037037036],[0.11458333333333333,0.32037037037037036],[0.11458333333333333,0.32037037037037036],[0.11458333333333333,0.32037037037037036],[0.11458333333333333,0.32037037037037036],[0.11458333333333333,0.32037037037037036],[0.11458333333333333,0.32037037037037036],[0.11458333333333333,0.32037037037037036],[0.11458333333333333,0.32037037037037036],[0.11458333333333333,0.32037037037037036],[0.11458333333333333,0.32037037037037036],[0.11458333333333333,0.32037037037037036],[0.11458333333333333,0.32037037037037036],[0.11458333333333333,0.32037037037037036],[0.11458333333333333,0.32037037037037036],[0.11458333333333333,0.32037037037037036],[0.11458333333333333,0.32037037037037036],[0.11458333333333333,0.32037037037037036],[0.11458333333333333,0.32037037037037036],[0.11458333333333333,0.31851851851851853],[0.11458333333333333,0.31851851851851853],[0.1125,0.31296296296296294],[0.11041666666666666,0.3111111111111111],[0.103125,0.3037037037037037],[0.09375,0.3],[0.0875,0.29814814814814816],[0.07604166666666666,0.29444444444444445],[0.06145833333333333,0.29074074074074074],[0.052083333333333336,0.29074074074074074],[0.040625,0.29074074074074074],[0.028125,0.29074074074074074],[0.020833333333333332,0.29259259259259257],[0.011458333333333333,0.29814814814814816],[-0.00625,0.30925925925925923],[-0.021875,0.32222222222222224],[-0.035416666666666666,0.3314814814814815],[-0.046875,0.34074074074074073],[-0.058333333333333334,0.34814814814814815],[-0.078125,0.3648148148148148],[-0.08958333333333333,0.37407407407407406],[-0.10104166666666667,0.38333333333333336],[-0.10833333333333334,0.3907407407407407],[-0.11666666666666667,0.39444444444444443],[-0.12395833333333334,0.39814814814814814],[-0.128125,0.39814814814814814],[-0.13229166666666667,0.4],[-0.134375,0.40185185185185185],[-0.13541666666666666,0.40185185185185185],[-0.13541666666666666,0.40185185185185185],[-0.13541666666666666,0.40185185185185185],[-0.13541666666666666,0.40185185185185185],[-0.13541666666666666,0.40185185185185185],[-0.13541666666666666,0.40185185185185185],[-0.13541666666666666,0.40185185185185185],[-0.13541666666666666,0.40185185185185185],[-0.13541666666666666,0.40185185185185185],[-0.13541666666666666,0.40185185185185185],[-0.13541666666666666,0.40185185185185185],[-0.13541666666666666,0.40185185185185185],[-0.13541666666666666,0.40185185185185185],[-0.13541666666666666,0.40185185185185185],[-0.13541666666666666,0.40185185185185185],[-0.13541666666666666,0.40185185185185185],[-0.13541666666666666,0.40185185185185185],[-0.13541666666666666,0.40185185185185185],[-0.13541666666666666,0.40185185185185185],[-0.13541666666666666,0.40185185185185185],[-0.1375,0.4],[-0.14166666666666666,0.3814814814814815],[-0.14479166666666668,0.3648148148148148],[-0.14895833333333333,0.34444444444444444],[-0.15104166666666666,0.3314814814814815],[-0.153125,0.3148148148148148],[-0.153125,0.29444444444444445],[-0.153125,0.2796296296296296],[-0.153125,0.26296296296296295],[-0.153125,0.24259259259259258],[-0.153125,0.21851851851851853],[-0.15416666666666667,0.18333333333333332],[-0.15416666666666667,0.17222222222222222],[-0.15416666666666667,0.1574074074074074],[-0.15416666666666667,0.14444444444444443],[-0.15416666666666667,0.13148148148148148],[-0.14895833333333333,0.1111111111111111],[-0.14791666666666667,0.10185185185185185],[-0.14270833333333333,0.08888888888888889],[-0.13958333333333334,0.07037037037037037],[-0.134375,0.05555555555555555],[-0.13020833333333334,0.044444444444444446],[-0.128125,0.037037037037037035],[-0.12604166666666666,0.03148148148148148],[-0.12395833333333334,0.024074074074074074],[-0.12395833333333334,0.016666666666666666],[-0.12291666666666666,0.009259259259259259],[-0.121875,0.001851851851851852],[-0.12083333333333333,-0.003703703703703704],[-0.11875,-0.011111111111111112],[-0.11666666666666667,-0.018518518518518517],[-0.11145833333333334,-0.024074074074074074],[-0.11041666666666666,-0.024074074074074074],[-0.11041666666666666,-0.024074074074074074],[-0.11041666666666666,-0.024074074074074074],[-0.11041666666666666,-0.024074074074074074],[-0.11041666666666666,-0.024074074074074074],[-0.11041666666666666,-0.024074074074074074],[-0.11041666666666666,-0.024074074074074074],[-0.11041666666666666,-0.024074074074074074],[-0.11041666666666666,-0.024074074074074074],[-0.11041666666666666,-0.024074074074074074],[-0.11041666666666666,-0.024074074074074074],[-0.11041666666666666,-0.024074074074074074],[-0.11041666666666666,-0.024074074074074074],[-0.11041666666666666,-0.024074074074074074]]","[[0.12572916666666673,-0.49666666666666665],[0.13416666666666663,-0.5311111111111111],[0.12843749999999995,-0.5700000000000001],[0.12989583333333338,-0.6081481481481481],[0.11062500000000004,-0.5848148148148148],[0.12479166666666662,-0.5396296296296296],[0.10656249999999995,-0.5787037037037037],[0.08885416666666662,-0.5603703703703704],[0.09229166666666658,-0.5309259259259259],[0.09552083333333337,-0.4955555555555556],[0.09239583333333339,-0.477962962962963],[0.08364583333333328,-0.4016666666666666],[0.08385416666666666,-0.3351851851851852],[0.09333333333333324,-0.26370370370370366],[0.1099999999999999,-0.21333333333333332],[0.10062499999999991,-0.1618518518518518],[0.10187499999999995,-0.13796296296296295],[0.10708333333333328,-0.12129629629629629],[0.13093750000000004,-0.10333333333333336],[0.12885416666666671,-0.05944444444444449],[0.1321875000000001,-0.05592592592592591],[0.11739583333333338,-0.08129629629629626],[0.10520833333333333,-0.09685185185185187],[0.05625,-0.10499999999999998],[0.03166666666666664,-0.14444444444444443],[0.008749999999999977,-0.12314814814814815],[-0.007083333333333286,-0.11944444444444445],[-0.04635416666666667,-0.09870370370370372],[-0.10760416666666663,-0.10333333333333336],[-0.11447916666666665,-0.13759259259259263],[-0.1373958333333333,-0.07185185185185188],[-0.14562499999999995,-0.05962962962962961],[-0.19031250000000005,-0.01722222222222214],[-0.19031250000000005,-0.01722222222222214],[-0.1829166666666667,-0.02814814814814823],[-0.20833333333333334,-0.05185185185185185],[-0.20833333333333334,-0.05185185185185185],[-0.25020833333333337,-0.11870370370370374],[-0.26114583333333335,-0.11481481481481481],[-0.23364583333333327,-0.10481481481481486],[-0.2179166666666667,-0.1301851851851852],[-0.2179166666666667,-0.1301851851851852],[-0.23041666666666671,-0.15777777777777777],[-0.2469791666666667,-0.21055555555555552],[-0.21437499999999995,-0.22962962962962963],[-0.14270833333333333,-0.27444444444444444],[-0.11187499999999997,-0.3022222222222222],[-0.07614583333333336,-0.290925925925926],[-0.051041666666666666,-0.3116666666666667],[-0.02354166666666669,-0.34685185185185186],[-0.02354166666666669,-0.34685185185185186],[0.006666666666666643,-0.3696296296296297],[0.04916666666666671,-0.34685185185185186],[0.09166666666666666,-0.32407407407407407],[0.12885416666666671,-0.27925925925925926],[0.1040625000000001,-0.2983333333333334],[0.06614583333333333,-0.34333333333333327],[0.008333333333333333,-0.3255555555555556],[-0.04593750000000003,-0.30277777777777776],[-0.07281249999999997,-0.26962962962962966],[-0.11770833333333333,-0.2512962962962963],[-0.23052083333333329,-0.2477777777777778],[-0.30822916666666667,-0.25092592592592594],[-0.3733333333333333,-0.262037037037037],[-0.4283333333333334,-0.29907407407407405],[-0.4704166666666667,-0.2675925925925926],[-0.4704166666666667,-0.2675925925925926],[-0.4864583333333333,-0.18518518518518517],[-0.4819791666666667,-0.13851851851851854],[-0.48114583333333333,-0.09796296296296292],[-0.4740625,-0.044444444444444446],[-0.46156250000000004,-0.05611111111111113],[-0.3851041666666667,-0.003333333333333249],[-0.32447916666666665,0.026481481481481398],[-0.25906250000000003,0.04314814814814806],[-0.25906250000000003,0.04314814814814806],[-0.1977083333333333,0.03259259259259263],[-0.14260416666666664,0.046296296296296294],[-0.10645833333333338,0.032777777777777864],[-0.0702083333333333,-0.0025925925925925505],[-0.030312500000000023,-0.03185185185185194],[0.005833333333333357,-0.052962962962963],[0.036562500000000026,-0.008888888888888804],[0.06989583333333324,-0.0868518518518518],[0.0875,-0.12370370370370372],[0.075,-0.11574074074074074],[0.0625,-0.10777777777777775],[0.05625,-0.12407407407407407],[0.028750000000000022,-0.10259259259259255],[0.009583333333333381,-0.06314814814814819],[-0.04718749999999995,-0.05092592592592592],[-0.10843750000000002,-0.055740740740740785],[-0.1560416666666666,-0.07851851851851847],[-0.22000000000000006,-0.06444444444444447],[-0.2720833333333334,-0.02814814814814823],[-0.2720833333333334,-0.02814814814814823],[-0.31145833333333334,-0.015555555555555513],[-0.3242708333333333,0.004444444444444402],[-0.33354166666666674,0.0016666666666666245],[-0.3155208333333333,-0.036666666666666584],[-0.3273958333333333,-0.09462962962962967],[-0.3016666666666667,-0.12537037037037035],[-0.2748958333333333,-0.09759259259259258],[-0.2504166666666666,-0.0787037037037037],[-0.22552083333333334,-0.06648148148148143],[-0.19968750000000005,-0.08907407407407411],[-0.15406249999999996,-0.06388888888888888],[-0.14562499999999995,-0.011296296296296339],[-0.16916666666666663,0.05],[-0.16572916666666668,0.04888888888888885],[-0.13239583333333335,0.06740740740740736],[-0.09906250000000003,0.08592592592592588],[-0.08427083333333331,0.0838888888888888],[-0.08427083333333331,0.0838888888888888],[-0.07354166666666669,0.0787037037037037],[-0.0829166666666667,0.10333333333333325],[-0.11291666666666664,0.11092592592592589],[-0.16270833333333337,0.07074074074074083],[-0.20906250000000004,-0.005000000000000084],[-0.23843749999999997,-0.08499999999999996],[-0.2991666666666667,-0.10444444444444441],[-0.35989583333333336,-0.12388888888888884],[-0.41385416666666663,-0.1440740740740741],[-0.45031249999999995,-0.2022222222222222],[-0.49604166666666666,-0.16722222222222224],[-0.5345833333333334,-0.16814814814814816],[-0.5653125,-0.13944444444444445],[-0.5930208333333333,-0.1270370370370371],[-0.6135416666666667,-0.11388888888888889],[-0.6135416666666667,-0.11388888888888889],[-0.5664583333333333,-0.10037037037037035],[-0.5039583333333334,-0.10055555555555558],[-0.4452083333333333,-0.09962962962962965],[-0.3701041666666666,-0.06222222222222226],[-0.29500000000000004,-0.024814814814814772],[-0.29500000000000004,-0.024814814814814772],[-0.22989583333333338,-0.08277777777777776],[-0.21135416666666665,-0.07407407407407407],[-0.0985416666666667,-0.12629629629629627],[0.011249999999999953,-0.16222222222222227],[0.011249999999999953,-0.16222222222222227],[0.09416666666666676,-0.21388888888888888],[0.11895833333333337,-0.26592592592592595],[0.13270833333333343,-0.3024074074074074],[0.14197916666666663,-0.2831481481481481],[0.14197916666666663,-0.2831481481481481],[0.11552083333333343,-0.2977777777777778],[0.06302083333333333,-0.272037037037037],[0.03583333333333331,-0.25166666666666665],[0.08458333333333339,-0.2683333333333333],[0.08458333333333339,-0.2683333333333333],[0.026250000000000048,-0.255],[-0.02677083333333338,-0.22999999999999998],[-0.05541666666666671,-0.15722222222222218],[-0.08833333333333329,-0.1479629629629629],[-0.0889583333333333,-0.20092592592592592],[-0.0889583333333333,-0.20092592592592592],[-0.09958333333333336,-0.29148148148148145],[-0.10604166666666662,-0.33925925925925926],[-0.10604166666666662,-0.33925925925925926],[-0.09697916666666669,-0.3857407407407408],[-0.0782291666666667,-0.3822222222222222],[-0.07687499999999996,-0.4022222222222222],[-0.04552083333333338,-0.3827777777777778],[-0.01072916666666662,-0.41703703703703704],[-0.011770833333333286,-0.39740740740740743],[0.024374999999999977,-0.4020370370370371],[0.028854166666666715,-0.34740740740740744],[0.043124999999999976,-0.3087037037037037],[0.05020833333333338,-0.30037037037037034],[0.11635416666666672,-0.3714814814814815],[0.13333333333333333,-0.42000000000000004],[0.15281250000000005,-0.44462962962962965],[0.15281250000000005,-0.44462962962962965],[0.1319791666666667,-0.49074074074074076],[0.10625,-0.4962962962962963],[0.13708333333333325,-0.5701851851851851],[0.10343749999999995,-0.5729629629629629],[0.07312500000000005,-0.5133333333333333],[0.059583333333333384,-0.4479629629629629],[0.06166666666666672,-0.3968518518518519],[-0.011770833333333286,-0.3290740740740741],[-0.044270833333333336,-0.30777777777777776],[-0.07875000000000003,-0.3037037037037037],[-0.060104166666666715,-0.25703703703703706],[-0.07541666666666665,-0.23333333333333334],[-0.10062500000000002,-0.22962962962962963],[-0.10062500000000002,-0.22962962962962963],[-0.10062500000000002,-0.18259259259259264],[-0.10062500000000002,-0.18259259259259264],[-0.07989583333333337,-0.18481481481481485],[-0.07989583333333337,-0.18481481481481485],[-0.09135416666666671,-0.19666666666666666],[-0.1063541666666667,-0.20907407407407402],[-0.058229166666666644,-0.21814814814814817],[-0.058229166666666644,-0.21814814814814817],[-0.06781250000000003,-0.17537037037037034],[-0.09885416666666665,-0.147037037037037],[-0.12864583333333332,-0.15333333333333335],[-0.14593750000000003,-0.10851851851851856],[-0.1710416666666667,-0.06462962962962959],[-0.1710416666666667,-0.06462962962962959],[-0.17458333333333337,-0.05277777777777778],[-0.20864583333333328,-0.060555555555555536],[-0.23333333333333334,-0.08907407407407411],[-0.2389583333333333,-0.08944444444444447],[-0.26927083333333335,-0.05851851851851856],[-0.27125,-0.07444444444444442],[-0.26375000000000004,-0.08277777777777776],[-0.26,-0.07074074074074072],[-0.26322916666666674,-0.14388888888888887],[-0.25906250000000003,-0.1757407407407407],[-0.2295833333333333,-0.18907407407407412],[-0.2029166666666666,-0.21814814814814817],[-0.15375000000000003,-0.22111111111111106],[-0.10770833333333331,-0.2492592592592593],[-0.10958333333333338,-0.30333333333333334],[-0.08729166666666661,-0.33666666666666667],[-0.043124999999999976,-0.3792592592592593],[-0.030624999999999975,-0.43],[0.024895833333333308,-0.4368518518518518],[0.07718749999999991,-0.48351851851851857],[0.057604166666666616,-0.5355555555555556]]","[[0.12572916666666673,-0.49666666666666665,0.00030000000447216735],[0.13416666666666663,-0.5311111111111111,0.019399999998512385],[0.12843749999999995,-0.5700000000000001,0.03310000000149671],[0.12989583333333338,-0.6081481481481481,0.05330000000446944],[0.11062500000000004,-0.5848148148148148,0.06850000000000023],[0.12479166666666662,-0.5396296296296296,0.08299999999999841],[0.10656249999999995,-0.5787037037037037,0.10300000000000864],[0.08885416666666662,-0.5603703703703704,0.11880000000446955],[0.09229166666666658,-0.5309259259259259,0.1357000000029842],[0.09552083333333337,-0.4955555555555556,0.15210000000149648],[0.09239583333333339,-0.477962962962963,0.16630000000446898],[0.08364583333333328,-0.4016666666666666,0.18300000000000693],[0.08385416666666666,-0.3351851851851852,0.19960000000149591],[0.09333333333333324,-0.26370370370370366,0.21630000000448035],[0.1099999999999999,-0.21333333333333332,0.2332000000029808],[0.10062499999999991,-0.1618518518518518,0.24960000000149307],[0.10187499999999995,-0.13796296296296295,0.26889999999851],[0.10708333333333328,-0.12129629629629629,0.2833000000044734],[0.13093750000000004,-0.10333333333333336,0.29960000000149023],[0.12885416666666671,-0.05944444444444449,0.31639999999850943],[0.1321875000000001,-0.05592592592592591,0.33289999999851716],[0.11739583333333338,-0.08129629629629626,0.3522000000029806],[0.10520833333333333,-0.09685185185185187,0.3663000000044718],[0.05625,-0.10499999999999998,0.3828999999985143],[0.03166666666666664,-0.14444444444444443,0.39970000000298],[0.008749999999999977,-0.12314814814814815,0.416300000004469],[-0.007083333333333286,-0.11944444444444445,0.4353999999985092],[-0.04635416666666667,-0.09870370370370372,0.45189999999851693],[-0.10760416666666663,-0.10333333333333336,0.4693999999985152],[-0.11447916666666665,-0.13759259259259263,0.4851000000014949],[-0.1373958333333333,-0.07185185185185188,0.49960000000149307],[-0.14562499999999995,-0.05962962962962961,0.5163000000044775],[-0.19031250000000005,-0.01722222222222214,0.5382000000029876],[-0.19031250000000005,-0.01722222222222214,0.5496000000014902],[-0.1829166666666667,-0.02814814814814823,0.5663000000044747],[-0.20833333333333334,-0.05185185185185185,0.5829999999999984],[-0.20833333333333334,-0.05185185185185185,0.5996000000014874],[-0.25020833333333337,-0.11870370370370374,0.6163000000044718],[-0.26114583333333335,-0.11481481481481481,0.6330000000000098],[-0.23364583333333327,-0.10481481481481486,0.6517000000029896],[-0.2179166666666667,-0.1301851851851852,0.666300000004469],[-0.2179166666666667,-0.1301851851851852,0.6830000000000069],[-0.23041666666666671,-0.15777777777777777,0.6996000000014959],[-0.2469791666666667,-0.21055555555555552,0.7162000000029849],[-0.21437499999999995,-0.22962962962962963,0.7330000000000041],[-0.14270833333333333,-0.27444444444444444,0.7530000000000001],[-0.11187499999999997,-0.3022222222222222,0.767399999998517],[-0.07614583333333336,-0.290925925925926,0.7830000000000013],[-0.051041666666666666,-0.3116666666666667,0.8026000000014903],[-0.02354166666666669,-0.34685185185185186,0.8192000000029793],[-0.02354166666666669,-0.34685185185185186,0.8328999999985172],[0.006666666666666643,-0.3696296296296297,0.8496000000014874],[0.04916666666666671,-0.34685185185185186,0.8671000000014999],[0.09166666666666666,-0.32407407407407407,0.8872000000029772],[0.12885416666666671,-0.27925925925925926,0.9012000000029872],[0.1040625000000001,-0.2983333333333334,0.9162000000029877],[0.06614583333333333,-0.34333333333333327,0.9328999999985115],[0.008333333333333333,-0.3255555555555556,0.9523000000044703],[-0.04593750000000003,-0.30277777777777776,0.9690000000000083],[-0.07281249999999997,-0.26962962962962966,0.9840000000000089],[-0.11770833333333333,-0.2512962962962963,0.9996000000014931],[-0.23052083333333329,-0.2477777777777778,1.017300000004468],[-0.30822916666666667,-0.25092592592592594,1.03289999999852],[-0.3733333333333333,-0.262037037037037,1.0497000000029857],[-0.4283333333333334,-0.29907407407407405,1.0666000000015003],[-0.4704166666666667,-0.2675925925925926,1.0828999999985172],[-0.4704166666666667,-0.2675925925925926,1.0996000000014874],[-0.4864583333333333,-0.18518518518518517,1.1163000000044718],[-0.4819791666666667,-0.13851851851851854,1.1330000000000098],[-0.48114583333333333,-0.09796296296296292,1.1517000000029896],[-0.4740625,-0.044444444444444446,1.166300000004469],[-0.46156250000000004,-0.05611111111111113,1.183000000000007],[-0.3851041666666667,-0.003333333333333249,1.199600000001496],[-0.32447916666666665,0.026481481481481398,1.216200000002985],[-0.25906250000000003,0.04314814814814806,1.2333000000044763],[-0.25906250000000003,0.04314814814814806,1.2497000000029885],[-0.1977083333333333,0.03259259259259263,1.266200000002982],[-0.14260416666666664,0.046296296296296294,1.28289999999852],[-0.10645833333333338,0.032777777777777864,1.2996000000014902],[-0.0702083333333333,-0.0025925925925925505,1.318399999998519],[-0.030312500000000023,-0.03185185185185194,1.3329999999999984],[0.005833333333333357,-0.052962962962963,1.3517000000029782],[0.036562500000000026,-0.008888888888888804,1.3662000000029906],[0.06989583333333324,-0.0868518518518518,1.3830000000000098],[0.0875,-0.12370370370370372,1.4006000000014893],[0.075,-0.11574074074074074,1.4162000000029877],[0.0625,-0.10777777777777775,1.4358000000044768],[0.05625,-0.12407407407407407,1.4546000000014914],[0.028750000000000022,-0.10259259259259255,1.4699999999999989],[0.009583333333333381,-0.06314814814814819,1.4840000000000089],[-0.04718749999999995,-0.05092592592592592,1.499600000001493],[-0.10843750000000002,-0.055740740740740785,1.5163000000044775],[-0.1560416666666666,-0.07851851851851847,1.53289999999852],[-0.22000000000000006,-0.06444444444444447,1.5542000000029788],[-0.2720833333333334,-0.02814814814814823,1.5685000000000002],[-0.2720833333333334,-0.02814814814814823,1.5829999999999984],[-0.31145833333333334,-0.015555555555555513,1.6020000000000039],[-0.3242708333333333,0.004444444444444402,1.616500000000002],[-0.33354166666666674,0.0016666666666666245,1.636700000002989],[-0.3155208333333333,-0.036666666666666584,1.6528000000044756],[-0.3273958333333333,-0.09462962962962967,1.668999999999997],[-0.3016666666666667,-0.12537037037037035,1.6848999999985068],[-0.2748958333333333,-0.09759259259259258,1.699600000001496],[-0.2504166666666666,-0.0787037037037037,1.7163000000044804],[-0.22552083333333334,-0.06648148148148143,1.7340000000000089],[-0.19968750000000005,-0.08907407407407411,1.75],[-0.15406249999999996,-0.06388888888888888,1.7681000000014961],[-0.14562499999999995,-0.011296296296296339,1.78289999999852],[-0.16916666666666663,0.05,1.7996000000014902],[-0.16572916666666668,0.04888888888888885,1.818399999998519],[-0.13239583333333335,0.06740740740740736,1.8328999999985172],[-0.09906250000000003,0.08592592592592588,1.8518000000044736],[-0.08427083333333331,0.0838888888888888,1.8718000000044697],[-0.08427083333333331,0.0838888888888888,1.8833999999985167],[-0.07354166666666669,0.0787037037037037,1.8996000000014988],[-0.0829166666666667,0.10333333333333325,1.916300000004469],[-0.11291666666666664,0.11092592592592589,1.9358999999985116],[-0.16270833333333337,0.07074074074074083,1.9546000000014914],[-0.20906250000000004,-0.005000000000000084,1.970300000004471],[-0.23843749999999997,-0.08499999999999996,1.9853000000044716],[-0.2991666666666667,-0.10444444444444441,1.999600000001493],[-0.35989583333333336,-0.12388888888888884,2.0167000000029844],[-0.41385416666666663,-0.1440740740740741,2.03289999999852],[-0.45031249999999995,-0.2022222222222222,2.053800000004472],[-0.49604166666666666,-0.16722222222222224,2.0697000000029817],[-0.5345833333333334,-0.16814814814814816,2.0866000000014964],[-0.5653125,-0.13944444444444445,2.1011000000014945],[-0.5930208333333333,-0.1270370370370371,2.1173000000044766],[-0.6135416666666667,-0.11388888888888889,2.1373999999985074],[-0.6135416666666667,-0.11388888888888889,2.152000000000001],[-0.5664583333333333,-0.10037037037037035,2.166300000004469],[-0.5039583333333334,-0.10055555555555558,2.183100000001488],[-0.4452083333333333,-0.09962962962962965,2.204700000002987],[-0.3701041666666666,-0.06222222222222226,2.219999999999999],[-0.29500000000000004,-0.024814814814814772,2.2352000000029904],[-0.29500000000000004,-0.024814814814814772,2.2524999999999977],[-0.22989583333333338,-0.08277777777777776,2.2665000000000077],[-0.21135416666666665,-0.07407407407407407,2.2831000000014967],[-0.0985416666666667,-0.12629629629629627,2.299800000004467],[0.011249999999999953,-0.16222222222222227,2.319500000000005],[0.011249999999999953,-0.16222222222222227,2.333100000001494],[0.09416666666666676,-0.21388888888888888,2.3498000000044783],[0.11895833333333337,-0.26592592592592595,2.366500000000002],[0.13270833333333343,-0.3024074074074074,2.3873999999985074],[0.14197916666666663,-0.2831481481481481,2.4021000000014965],[0.14197916666666663,-0.2831481481481481,2.416399999998518],[0.11552083333333343,-0.2977777777777778,2.433100000001488],[0.06302083333333333,-0.272037037037037,2.4517000000029867],[0.03583333333333331,-0.25166666666666665,2.4710000000000036],[0.08458333333333339,-0.2683333333333333,2.4865000000000066],[0.08458333333333339,-0.2683333333333333,2.503700000002979],[0.026250000000000048,-0.255,2.5165000000000077],[-0.02677083333333338,-0.22999999999999998,2.5331000000014967],[-0.05541666666666671,-0.15722222222222218,2.555300000004479],[-0.08833333333333329,-0.1479629629629629,2.569500000000005],[-0.0889583333333333,-0.20092592592592592,2.5843000000044754],[-0.0889583333333333,-0.20092592592592592,2.599700000002983],[-0.09958333333333336,-0.29148148148148145,2.6188999999985185],[-0.10604166666666662,-0.33925925925925926,2.636700000002989],[-0.10604166666666662,-0.33925925925925926,2.6496000000014988],[-0.09697916666666669,-0.3857407407407408,2.6662000000029877],[-0.0782291666666667,-0.3822222222222222,2.6828999999985115],[-0.07687499999999996,-0.4022222222222222,2.699600000001496],[-0.04552083333333338,-0.3827777777777778,2.7163000000044804],[-0.01072916666666662,-0.41703703703703704,2.734000000000009],[-0.011770833333333286,-0.39740740740740743,2.749600000001493],[0.024374999999999977,-0.4020370370370371,2.766200000002982],[0.028854166666666715,-0.34740740740740744,2.78289999999852],[0.043124999999999976,-0.3087037037037037,2.7997000000029857],[0.05020833333333338,-0.30037037037037034,2.816800000004477],[0.11635416666666672,-0.3714814814814815,2.832899999998517],[0.13333333333333333,-0.42000000000000004,2.8522000000029806],[0.15281250000000005,-0.44462962962962965,2.8714999999999975],[0.15281250000000005,-0.44462962962962965,2.8830000000000098],[0.1319791666666667,-0.49074074074074076,2.8996000000014988],[0.10625,-0.4962962962962963,2.916300000004469],[0.13708333333333325,-0.5701851851851851,2.9365000000000094],[0.10343749999999995,-0.5729629629629629,2.9555000000000007],[0.07312500000000005,-0.5133333333333333,2.9705000000000013],[0.059583333333333384,-0.4479629629629629,2.986000000000004],[0.06166666666666672,-0.3968518518518519,2.99980000000447],[-0.011770833333333286,-0.3290740740740741,3.0186000000014985],[-0.044270833333333336,-0.30777777777777776,3.0335000000000036],[-0.07875000000000003,-0.3037037037037037,3.0523999999985136],[-0.060104166666666715,-0.25703703703703706,3.069899999998512],[-0.07541666666666665,-0.23333333333333334,3.0858000000044683],[-0.10062500000000002,-0.22962962962962963,3.101600000001497],[-0.10062500000000002,-0.22962962962962963,3.135399999998512],[-0.10062500000000002,-0.18259259259259264,3.1441000000014867],[-0.10062500000000002,-0.18259259259259264,3.1514999999999986],[-0.07989583333333337,-0.18481481481481485,3.166399999998518],[-0.07989583333333337,-0.18481481481481485,3.1846000000014953],[-0.09135416666666671,-0.19666666666666666,3.1998999999985074],[-0.1063541666666667,-0.20907407407407402,3.219999999999999],[-0.058229166666666644,-0.21814814814814817,3.235800000004474],[-0.058229166666666644,-0.21814814814814817,3.24980000000447],[-0.06781250000000003,-0.17537037037037034,3.2665000000000077],[-0.09885416666666665,-0.147037037037037,3.2830000000000013],[-0.12864583333333332,-0.15333333333333335,3.3038999999985066],[-0.14593750000000003,-0.10851851851851856,3.3175000000000097],[-0.1710416666666667,-0.06462962962962959,3.333100000001494],[-0.1710416666666667,-0.06462962962962959,3.349700000002983],[-0.17458333333333337,-0.05277777777777778,3.3688000000044696],[-0.20864583333333328,-0.060555555555555536,3.386499999999998],[-0.23333333333333334,-0.08907407407407411,3.4003999999985126],[-0.2389583333333333,-0.08944444444444447,3.417899999998511],[-0.26927083333333335,-0.05851851851851856,3.433000000000007],[-0.27125,-0.07444444444444442,3.4498000000044726],[-0.26375000000000004,-0.08277777777777776,3.4697000000029874],[-0.26,-0.07074074074074072,3.4833000000044763],[-0.26322916666666674,-0.14388888888888887,3.499600000001493],[-0.25906250000000003,-0.1757407407407407,3.5187000000029798],[-0.2295833333333333,-0.18907407407407412,3.5330000000000013],[-0.2029166666666666,-0.21814814814814817,3.5497000000029857],[-0.15375000000000003,-0.22111111111111106,3.5663999999985094],[-0.10770833333333331,-0.2492592592592593,3.5829999999999984],[-0.10958333333333338,-0.30333333333333334,3.6021000000014993],[-0.08729166666666661,-0.33666666666666667,3.616300000004472],[-0.043124999999999976,-0.3792592592592593,3.6328999999985143],[-0.030624999999999975,-0.43,3.651800000004471],[0.024895833333333308,-0.4368518518518518,3.6662000000029877],[0.07718749999999991,-0.48351851851851857,3.6828999999985115],[0.057604166666666616,-0.5355555555555556,3.699600000001496]]","[0.00030000000447216735,0.019399999998512385,0.03310000000149671,0.05330000000446944,0.06850000000000023,0.08299999999999841,0.10300000000000864,0.11880000000446955,0.1357000000029842,0.15210000000149648,0.16630000000446898,0.18300000000000693,0.19960000000149591,0.21630000000448035,0.2332000000029808,0.24960000000149307,0.26889999999851,0.2833000000044734,0.29960000000149023,0.31639999999850943,0.33289999999851716,0.3522000000029806,0.3663000000044718,0.3828999999985143,0.39970000000298,0.416300000004469,0.4353999999985092,0.45189999999851693,0.4693999999985152,0.4851000000014949,0.49960000000149307,0.5163000000044775,0.5382000000029876,0.5496000000014902,0.5663000000044747,0.5829999999999984,0.5996000000014874,0.6163000000044718,0.6330000000000098,0.6517000000029896,0.666300000004469,0.6830000000000069,0.6996000000014959,0.7162000000029849,0.7330000000000041,0.7530000000000001,0.767399999998517,0.7830000000000013,0.8026000000014903,0.8192000000029793,0.8328999999985172,0.8496000000014874,0.8671000000014999,0.8872000000029772,0.9012000000029872,0.9162000000029877,0.9328999999985115,0.9523000000044703,0.9690000000000083,0.9840000000000089,0.9996000000014931,1.017300000004468,1.03289999999852,1.0497000000029857,1.0666000000015003,1.0828999999985172,1.0996000000014874,1.1163000000044718,1.1330000000000098,1.1517000000029896,1.166300000004469,1.183000000000007,1.199600000001496,1.216200000002985,1.2333000000044763,1.2497000000029885,1.266200000002982,1.28289999999852,1.2996000000014902,1.318399999998519,1.3329999999999984,1.3517000000029782,1.3662000000029906,1.3830000000000098,1.4006000000014893,1.4162000000029877,1.4358000000044768,1.4546000000014914,1.4699999999999989,1.4840000000000089,1.499600000001493,1.5163000000044775,1.53289999999852,1.5542000000029788,1.5685000000000002,1.5829999999999984,1.6020000000000039,1.616500000000002,1.636700000002989,1.6528000000044756,1.668999999999997,1.6848999999985068,1.699600000001496,1.7163000000044804,1.7340000000000089,1.75,1.7681000000014961,1.78289999999852,1.7996000000014902,1.818399999998519,1.8328999999985172,1.8518000000044736,1.8718000000044697,1.8833999999985167,1.8996000000014988,1.916300000004469,1.9358999999985116,1.9546000000014914,1.970300000004471,1.9853000000044716,1.999600000001493,2.0167000000029844,2.03289999999852,2.053800000004472,2.0697000000029817,2.0866000000014964,2.1011000000014945,2.1173000000044766,2.1373999999985074,2.152000000000001,2.166300000004469,2.183100000001488,2.204700000002987,2.219999999999999,2.2352000000029904,2.2524999999999977,2.2665000000000077,2.2831000000014967,2.299800000004467,2.319500000000005,2.333100000001494,2.3498000000044783,2.366500000000002,2.3873999999985074,2.4021000000014965,2.416399999998518,2.433100000001488,2.4517000000029867,2.4710000000000036,2.4865000000000066,2.503700000002979,2.5165000000000077,2.5331000000014967,2.555300000004479,2.569500000000005,2.5843000000044754,2.599700000002983,2.6188999999985185,2.636700000002989,2.6496000000014988,2.6662000000029877,2.6828999999985115,2.699600000001496,2.7163000000044804,2.734000000000009,2.749600000001493,2.766200000002982,2.78289999999852,2.7997000000029857,2.816800000004477,2.832899999998517,2.8522000000029806,2.8714999999999975,2.8830000000000098,2.8996000000014988,2.916300000004469,2.9365000000000094,2.9555000000000007,2.9705000000000013,2.986000000000004,2.99980000000447,3.0186000000014985,3.0335000000000036,3.0523999999985136,3.069899999998512,3.0858000000044683,3.101600000001497,3.135399999998512,3.1441000000014867,3.1514999999999986,3.166399999998518,3.1846000000014953,3.1998999999985074,3.219999999999999,3.235800000004474,3.24980000000447,3.2665000000000077,3.2830000000000013,3.3038999999985066,3.3175000000000097,3.333100000001494,3.349700000002983,3.3688000000044696,3.386499999999998,3.4003999999985126,3.417899999998511,3.433000000000007,3.4498000000044726,3.4697000000029874,3.4833000000044763,3.499600000001493,3.5187000000029798,3.5330000000000013,3.5497000000029857,3.5663999999985094,3.5829999999999984,3.6021000000014993,3.616300000004472,3.6328999999985143,3.651800000004471,3.6662000000029877,3.6828999999985115,3.699600000001496]","[1732593182455,1732593182472,1732593182486,1732593182506,1732593182521,1732593182536,1732593182556,1732593182572,1732593182589,1732593182605,1732593182619,1732593182636,1732593182652,1732593182669,1732593182686,1732593182702,1732593182722,1732593182736,1732593182753,1732593182769,1732593182786,1732593182805,1732593182819,1732593182836,1732593182853,1732593182869,1732593182888,1732593182905,1732593182922,1732593182938,1732593182952,1732593182969,1732593182991,1732593183003,1732593183019,1732593183036,1732593183052,1732593183069,1732593183086,1732593183105,1732593183119,1732593183136,1732593183152,1732593183169,1732593183186,1732593183206,1732593183220,1732593183236,1732593183255,1732593183272,1732593183286,1732593183303,1732593183320,1732593183340,1732593183354,1732593183369,1732593183386,1732593183405,1732593183422,1732593183437,1732593183453,1732593183470,1732593183486,1732593183502,1732593183519,1732593183536,1732593183552,1732593183569,1732593183586,1732593183605,1732593183619,1732593183636,1732593183652,1732593183669,1732593183686,1732593183702,1732593183719,1732593183736,1732593183752,1732593183771,1732593183786,1732593183805,1732593183819,1732593183836,1732593183853,1732593183869,1732593183889,1732593183907,1732593183923,1732593183937,1732593183952,1732593183969,1732593183986,1732593184007,1732593184021,1732593184036,1732593184055,1732593184069,1732593184090,1732593184106,1732593184122,1732593184138,1732593184152,1732593184169,1732593184187,1732593184203,1732593184221,1732593184236,1732593184252,1732593184271,1732593184286,1732593184305,1732593184325,1732593184336,1732593184352,1732593184369,1732593184389,1732593184407,1732593184423,1732593184438,1732593184452,1732593184470,1732593184486,1732593184507,1732593184523,1732593184539,1732593184554,1732593184570,1732593184590,1732593184605,1732593184619,1732593184636,1732593184658,1732593184673,1732593184688,1732593184705,1732593184719,1732593184736,1732593184753,1732593184772,1732593184786,1732593184803,1732593184819,1732593184840,1732593184855,1732593184869,1732593184886,1732593184905,1732593184924,1732593184939,1732593184957,1732593184969,1732593184986,1732593185008,1732593185022,1732593185037,1732593185053,1732593185072,1732593185090,1732593185102,1732593185119,1732593185136,1732593185152,1732593185169,1732593185187,1732593185202,1732593185219,1732593185236,1732593185252,1732593185270,1732593185286,1732593185305,1732593185324,1732593185336,1732593185352,1732593185369,1732593185389,1732593185408,1732593185423,1732593185439,1732593185453,1732593185472,1732593185486,1732593185505,1732593185523,1732593185539,1732593185554,1732593185588,1732593185597,1732593185604,1732593185619,1732593185637,1732593185653,1732593185673,1732593185689,1732593185703,1732593185719,1732593185736,1732593185757,1732593185770,1732593185786,1732593185803,1732593185822,1732593185839,1732593185853,1732593185871,1732593185886,1732593185903,1732593185923,1732593185936,1732593185952,1732593185972,1732593185986,1732593186003,1732593186019,1732593186036,1732593186055,1732593186069,1732593186086,1732593186105,1732593186119,1732593186136,1732593186152]","[[1080.7,271.8],[1088.8,253.2],[1083.3,232.2],[1084.7,211.6],[1066.2,224.2],[1079.8,248.6],[1062.3,227.5],[1045.3,237.4],[1048.6,253.3],[1051.7,272.4],[1048.7,281.9],[1040.3,323.1],[1040.5,359],[1049.6,397.6],[1065.6,424.8],[1056.6,452.6],[1057.8,465.5],[1062.8,474.5],[1085.7,484.2],[1083.7,507.9],[1086.9,509.8],[1072.7,496.1],[1061,487.7],[1014,483.3],[990.4,462],[968.4,473.5],[953.2,475.5],[915.5,486.7],[856.7,484.2],[850.1,465.7],[828.1,501.2],[820.2,507.8],[777.3,530.7],[777.3,530.7],[784.4,524.8],[760,512],[760,512],[719.8,475.9],[709.3,478],[735.7,483.4],[750.8,469.7],[750.8,469.7],[738.8,454.8],[722.9,426.3],[754.2,416],[823,391.8],[852.6,376.8],[886.9,382.9],[911,371.7],[937.4,352.7],[937.4,352.7],[966.4,340.4],[1007.2,352.7],[1048,365],[1083.7,389.2],[1059.9,378.9],[1023.5,354.6],[968,364.2],[915.9,376.5],[890.1,394.4],[847,404.3],[738.7,406.2],[664.1,404.5],[601.6,398.5],[548.8,378.5],[508.4,395.5],[508.4,395.5],[493,440],[497.3,465.2],[498.1,487.1],[504.9,516],[516.9,509.7],[590.3,538.2],[648.5,554.3],[711.3,563.3],[711.3,563.3],[770.2,557.6],[823.1,565],[857.8,557.7],[892.6,538.6],[930.9,522.8],[965.6,511.4],[995.1,535.2],[1027.1,493.1],[1044,473.2],[1032,477.5],[1020,481.8],[1014,473],[987.6,484.6],[969.2,505.9],[914.7,512.5],[855.9,509.9],[810.2,497.6],[748.8,505.2],[698.8,524.8],[698.8,524.8],[661,531.6],[648.7,542.4],[639.8,540.9],[657.1,520.2],[645.7,488.9],[670.4,472.3],[696.1,487.3],[719.6,497.5],[743.5,504.1],[768.3,491.9],[812.1,505.5],[820.2,533.9],[797.6,567],[800.9,566.4],[832.9,576.4],[864.9,586.4],[879.1,585.3],[879.1,585.3],[889.4,582.5],[880.4,595.8],[851.6,599.9],[803.8,578.2],[759.3,537.3],[731.1,494.1],[672.8,483.6],[614.5,473.1],[562.7,462.2],[527.7,430.8],[483.8,449.7],[446.8,449.2],[417.3,464.7],[390.7,471.4],[371,478.5],[371,478.5],[416.2,485.8],[476.2,485.7],[532.6,486.2],[604.7,506.4],[676.8,526.6],[676.8,526.6],[739.3,495.3],[757.1,500],[865.4,471.8],[970.8,452.4],[970.8,452.4],[1050.4,424.5],[1074.2,396.4],[1087.4,376.7],[1096.3,387.1],[1096.3,387.1],[1070.9,379.2],[1020.5,393.1],[994.4,404.1],[1041.2,395.1],[1041.2,395.1],[985.2,402.3],[934.3,415.8],[906.8,455.1],[875.2,460.1],[874.6,431.5],[874.6,431.5],[864.4,382.6],[858.2,356.8],[858.2,356.8],[866.9,331.7],[884.9,333.6],[886.2,322.8],[916.3,333.3],[949.7,314.8],[948.7,325.4],[983.4,322.9],[987.7,352.4],[1001.4,373.3],[1008.2,377.8],[1071.7,339.4],[1088,313.2],[1106.7,299.9],[1106.7,299.9],[1086.7,275],[1062,272],[1091.6,232.1],[1059.3,230.6],[1030.2,262.8],[1017.2,298.1],[1019.2,325.7],[948.7,362.3],[917.5,373.8],[884.4,376],[902.3,401.2],[887.6,414],[863.4,416],[863.4,416],[863.4,441.4],[863.4,441.4],[883.3,440.2],[883.3,440.2],[872.3,433.8],[857.9,427.1],[904.1,422.2],[904.1,422.2],[894.9,445.3],[865.1,460.6],[836.5,457.2],[819.9,481.4],[795.8,505.1],[795.8,505.1],[792.4,511.5],[759.7,507.3],[736,491.9],[730.6,491.7],[701.5,508.4],[699.6,499.8],[706.8,495.3],[710.4,501.8],[707.3,462.3],[711.3,445.1],[739.6,437.9],[765.2,422.2],[812.4,420.6],[856.6,405.4],[854.8,376.2],[876.2,358.2],[918.6,335.2],[930.6,307.8],[983.9,304.1],[1034.1,278.9],[1015.3,250.8]]","[-0.132282,0.39684600000000003]","[0.132282,0.39684600000000003]","[0.39684600000000003,0.39684600000000003]","[-0.39684600000000003,0.132282]","[-0.39684600000000003,-0.132282]","[-0.39684600000000003,-0.39684600000000003]","[-0.132282,0.132282]","[0.132282,0.132282]","[0.39684600000000003,0.132282]","[-0.132282,-0.132282]","[0.132282,-0.132282]","[0.39684600000000003,-0.132282]","[-0.132282,-0.39684600000000003]","[0.132282,-0.39684600000000003]","[0.39684600000000003,-0.39684600000000003]",0,1,1,1,1,4,Tablet,20,40,8,2,70,4,2,70,5
