inst1_resp.keys,inst1_resp.rt,calibrationMouse.x,calibrationMouse.y,calibrationMouse.leftButton,calibrationMouse.midButton,calibrationMouse.rightButton,calibrationClick.x,calibrationClick.y,calibrationClick.leftButton,calibrationClick.midButton,calibrationClick.rightButton,calibrationClick.clicked_name,trialsc.thisRepN,trialsc.thisTrialN,trialsc.thisN,trialsc.thisIndex,trialsc.ran,calibration_x,calibration_y,participant,session,date,expName,psychopyVersion,OS,frameRate,ScreenRes_pixels,Camera_pixels,mouse_2.x,mouse_2.y,mouse_2.leftButton,mouse_2.midButton,mouse_2.rightButton,mouse_2.time,mouse_2.clicked_name,mouse.x,mouse.y,mouse.leftButton,mouse.midButton,mouse.rightButton,mouse.time,mouse.clicked_name,Choice,Trial,TrialDuration,MOUSE_GAZE,ET_GAZE,ET_GAZE_x_T,time,unixTime,ET_GAZE_NF,Loc_Bus_label,Loc_Metro_label,Loc_RH_label,Loc_Cost_label,Loc_Travel_label,Loc_Comfort_label,Loc_Bus_cost,Loc_Metro_cost,Loc_RH_cost,Loc_Bus_travel,Loc_Metro_travel,Loc_RH_travel,Loc_Bus_comfort,Loc_Metro_comfort,Loc_RH_comfort,trials.thisRepN,trials.thisTrialN,trials.thisN,trials.thisIndex,trials.ran,Block,Device,RH_cost,RH_travel_time,RH_Comfort,metro_cost,metro_travel_time,metro_Comfort,Bus_cost,Bus_travel_time,Bus_Comfort
space,7.8563,-0.016666667,-0.061111111,1,0,0,-0.004166667,-0.674074074,1,0,0,calibration_square,0,0,0,9,1,0,-0.67,28,001,2024-11-27_15h22.07.908,Attention_exp_legacy,2023.1.0,Win32,59.88023952,,,,,,,,,,,,,,,,,,,,,,,,,,,,,,,,,,,,,,,,,,,,,,,,,,,,,,,,
,,,,,,,0.33125,-0.661111111,1,0,0,calibration_square,0,1,1,14,1,0.33,-0.67,28,001,2024-11-27_15h22.07.908,Attention_exp_legacy,2023.1.0,Win32,59.88023952,,,,,,,,,,,,,,,,,,,,,,,,,,,,,,,,,,,,,,,,,,,,,,,,,,,,,,,,
,,,,,,,0.005208333,-0.325925926,1,0,0,calibration_square,0,2,2,10,1,0,-0.33,28,001,2024-11-27_15h22.07.908,Attention_exp_legacy,2023.1.0,Win32,59.88023952,,,,,,,,,,,,,,,,,,,,,,,,,,,,,,,,,,,,,,,,,,,,,,,,,,,,,,,,
,,,,,,,0.666666667,0.683333333,1,0,0,,0,3,3,19,1,0.67,0.67,28,001,2024-11-27_15h22.07.908,Attention_exp_legacy,2023.1.0,Win32,59.88023952,,,,,,,,,,,,,,,,,,,,,,,,,,,,,,,,,,,,,,,,,,,,,,,,,,,,,,,,
,,,,,,,-0.666666667,0,1,0,0,calibration_square,0,4,4,2,1,-0.67,0,28,001,2024-11-27_15h22.07.908,Attention_exp_legacy,2023.1.0,Win32,59.88023952,,,,,,,,,,,,,,,,,,,,,,,,,,,,,,,,,,,,,,,,,,,,,,,,,,,,,,,,
,,,,,,,0.002083333,0.337037037,1,0,0,calibration_square,0,5,5,12,1,0,0.33,28,001,2024-11-27_15h22.07.908,Attention_exp_legacy,2023.1.0,Win32,59.88023952,,,,,,,,,,,,,,,,,,,,,,,,,,,,,,,,,,,,,,,,,,,,,,,,,,,,,,,,
,,,,,,,-0.00625,-0.007407407,1,0,0,calibration_square,0,6,6,11,1,0,0,28,001,2024-11-27_15h22.07.908,Attention_exp_legacy,2023.1.0,Win32,59.88023952,,,,,,,,,,,,,,,,,,,,,,,,,,,,,,,,,,,,,,,,,,,,,,,,,,,,,,,,
,,,,,,,0.334375,0.666666667,1,0,0,calibration_square,0,7,7,18,1,0.33,0.67,28,001,2024-11-27_15h22.07.908,Attention_exp_legacy,2023.1.0,Win32,59.88023952,,,,,,,,,,,,,,,,,,,,,,,,,,,,,,,,,,,,,,,,,,,,,,,,,,,,,,,,
,,,,,,,-0.33125,0.674074074,1,0,0,calibration_square,0,8,8,8,1,-0.33,0.67,28,001,2024-11-27_15h22.07.908,Attention_exp_legacy,2023.1.0,Win32,59.88023952,,,,,,,,,,,,,,,,,,,,,,,,,,,,,,,,,,,,,,,,,,,,,,,,,,,,,,,,
,,,,,,,0.330208333,-0.316666667,1,0,0,,0,9,9,15,1,0.33,-0.33,28,001,2024-11-27_15h22.07.908,Attention_exp_legacy,2023.1.0,Win32,59.88023952,,,,,,,,,,,,,,,,,,,,,,,,,,,,,,,,,,,,,,,,,,,,,,,,,,,,,,,,
,,,,,,,-0.663541667,-0.327777778,1,0,0,calibration_square,0,10,10,1,1,-0.67,-0.33,28,001,2024-11-27_15h22.07.908,Attention_exp_legacy,2023.1.0,Win32,59.88023952,,,,,,,,,,,,,,,,,,,,,,,,,,,,,,,,,,,,,,,,,,,,,,,,,,,,,,,,
,,,,,,,0.005208333,0.662962963,1,0,0,calibration_square,0,11,11,13,1,0,0.67,28,001,2024-11-27_15h22.07.908,Attention_exp_legacy,2023.1.0,Win32,59.88023952,,,,,,,,,,,,,,,,,,,,,,,,,,,,,,,,,,,,,,,,,,,,,,,,,,,,,,,,
,,,,,,,-0.689583333,0.32037037,1,0,0,,0,12,12,3,1,-0.67,0.33,28,001,2024-11-27_15h22.07.908,Attention_exp_legacy,2023.1.0,Win32,59.88023952,,,,,,,,,,,,,,,,,,,,,,,,,,,,,,,,,,,,,,,,,,,,,,,,,,,,,,,,
,,,,,,,-0.329166667,-0.318518519,1,0,0,,0,13,13,5,1,-0.33,-0.33,28,001,2024-11-27_15h22.07.908,Attention_exp_legacy,2023.1.0,Win32,59.88023952,,,,,,,,,,,,,,,,,,,,,,,,,,,,,,,,,,,,,,,,,,,,,,,,,,,,,,,,
,,,,,,,0.672916667,-0.65,1,0,0,,0,14,14,20,1,0.67,-0.67,28,001,2024-11-27_15h22.07.908,Attention_exp_legacy,2023.1.0,Win32,59.88023952,,,,,,,,,,,,,,,,,,,,,,,,,,,,,,,,,,,,,,,,,,,,,,,,,,,,,,,,
,,,,,,,0.33125,-0.018518519,1,0,0,,0,15,15,16,1,0.33,0,28,001,2024-11-27_15h22.07.908,Attention_exp_legacy,2023.1.0,Win32,59.88023952,,,,,,,,,,,,,,,,,,,,,,,,,,,,,,,,,,,,,,,,,,,,,,,,,,,,,,,,
,,,,,,,-0.682291667,-0.687037037,1,0,0,,0,16,16,0,1,-0.67,-0.67,28,001,2024-11-27_15h22.07.908,Attention_exp_legacy,2023.1.0,Win32,59.88023952,,,,,,,,,,,,,,,,,,,,,,,,,,,,,,,,,,,,,,,,,,,,,,,,,,,,,,,,
,,,,,,,-0.344791667,0.316666667,1,0,0,,0,17,17,7,1,-0.33,0.33,28,001,2024-11-27_15h22.07.908,Attention_exp_legacy,2023.1.0,Win32,59.88023952,,,,,,,,,,,,,,,,,,,,,,,,,,,,,,,,,,,,,,,,,,,,,,,,,,,,,,,,
,,,,,,,-0.319791667,0,1,0,0,,0,18,18,6,1,-0.33,0,28,001,2024-11-27_15h22.07.908,Attention_exp_legacy,2023.1.0,Win32,59.88023952,,,,,,,,,,,,,,,,,,,,,,,,,,,,,,,,,,,,,,,,,,,,,,,,,,,,,,,,
,,,,,,,-0.344791667,-0.655555556,1,0,0,,0,19,19,4,1,-0.33,-0.67,28,001,2024-11-27_15h22.07.908,Attention_exp_legacy,2023.1.0,Win32,59.88023952,,,,,,,,,,,,,,,,,,,,,,,,,,,,,,,,,,,,,,,,,,,,,,,,,,,,,,,,
,,,,,,,0.33125,0.338888889,1,0,0,calibration_square,0,20,20,17,1,0.33,0.33,28,001,2024-11-27_15h22.07.908,Attention_exp_legacy,2023.1.0,Win32,59.88023952,,,,,,,,,,,,,,,,,,,,,,,,,,,,,,,,,,,,,,,,,,,,,,,,,,,,,,,,
,,,,,,,,,,,,,,,,,,,,28,001,2024-11-27_15h22.07.908,Attention_exp_legacy,2023.1.0,Win32,59.88023952,"[1920,1080]","[640,480]",[0.026041666666666668],[-0.512962962962963],[1],[0],[0],[8.315400000005965],"[""StartButton""]",[0.16458333333333333],[0.4462962962962963],[1],[0],[0],[6.757300000011924],"[""Metro_label""]",Metro_label,1,7.7686,"[[0.017708333333333333,0.15925925925925927],[0.01875,0.15925925925925927],[0.01875,0.15925925925925927],[0.01875,0.15925925925925927],[0.01875,0.15925925925925927],[0.01875,0.15925925925925927],[0.01875,0.15925925925925927],[0.01875,0.15925925925925927],[0.01875,0.15925925925925927],[0.01875,0.15925925925925927],[0.01875,0.15925925925925927],[0.01875,0.15925925925925927],[0.01875,0.15925925925925927],[0.01875,0.15925925925925927],[0.01875,0.15925925925925927],[0.01875,0.15925925925925927],[0.01875,0.15925925925925927],[0.01875,0.15925925925925927],[0.01875,0.15925925925925927],[0.01875,0.15925925925925927],[0.01875,0.15925925925925927],[0.01875,0.15925925925925927],[0.01875,0.15925925925925927],[0.01875,0.15925925925925927],[0.01875,0.15925925925925927],[0.01875,0.15925925925925927],[0.01875,0.15925925925925927],[0.01875,0.15925925925925927],[0.01875,0.15925925925925927],[0.01875,0.15925925925925927],[0.01875,0.15925925925925927],[0.01875,0.16111111111111112],[0.01875,0.1648148148148148],[0.01875,0.1648148148148148],[0.017708333333333333,0.1648148148148148],[0.0125,0.1685185185185185],[0.010416666666666666,0.17222222222222222],[0.007291666666666667,0.17592592592592593],[0.003125,0.17962962962962964],[-0.0010416666666666667,0.18518518518518517],[-0.005208333333333333,0.1925925925925926],[-0.011458333333333333,0.2037037037037037],[-0.022916666666666665,0.21666666666666667],[-0.03854166666666667,0.23703703703703705],[-0.051041666666666666,0.24814814814814815],[-0.059375,0.2574074074074074],[-0.0625,0.25925925925925924],[-0.075,0.26851851851851855],[-0.08333333333333333,0.2722222222222222],[-0.08854166666666667,0.2740740740740741],[-0.096875,0.2740740740740741],[-0.10833333333333334,0.2740740740740741],[-0.12083333333333333,0.2740740740740741],[-0.13333333333333333,0.2740740740740741],[-0.14583333333333334,0.2740740740740741],[-0.165625,0.27037037037037037],[-0.184375,0.2574074074074074],[-0.21354166666666666,0.24444444444444444],[-0.22395833333333334,0.2388888888888889],[-0.24791666666666667,0.22592592592592592],[-0.2604166666666667,0.22037037037037038],[-0.2708333333333333,0.21296296296296297],[-0.2760416666666667,0.2111111111111111],[-0.278125,0.20925925925925926],[-0.28125,0.20555555555555555],[-0.28125,0.20555555555555555],[-0.28125,0.20555555555555555],[-0.28125,0.20555555555555555],[-0.28125,0.20555555555555555],[-0.28125,0.20555555555555555],[-0.28125,0.20555555555555555],[-0.28125,0.20555555555555555],[-0.27708333333333335,0.20555555555555555],[-0.2708333333333333,0.20555555555555555],[-0.259375,0.20185185185185187],[-0.24791666666666667,0.2],[-0.23541666666666666,0.1962962962962963],[-0.21875,0.19074074074074074],[-0.20416666666666666,0.18333333333333332],[-0.19375,0.17777777777777778],[-0.1875,0.17222222222222222],[-0.1875,0.17222222222222222],[-0.1875,0.17222222222222222],[-0.1875,0.17222222222222222],[-0.1875,0.17222222222222222],[-0.1875,0.17222222222222222],[-0.1875,0.17222222222222222],[-0.1875,0.17222222222222222],[-0.1875,0.17222222222222222],[-0.1875,0.17222222222222222],[-0.1875,0.17222222222222222],[-0.1875,0.17222222222222222],[-0.1875,0.17222222222222222],[-0.1875,0.17222222222222222],[-0.1875,0.17222222222222222],[-0.1875,0.17222222222222222],[-0.1875,0.17222222222222222],[-0.18645833333333334,0.17222222222222222],[-0.18333333333333332,0.17222222222222222],[-0.178125,0.17222222222222222],[-0.16979166666666667,0.17222222222222222],[-0.15208333333333332,0.17777777777777778],[-0.14791666666666667,0.17777777777777778],[-0.13541666666666666,0.17777777777777778],[-0.12604166666666666,0.17777777777777778],[-0.11875,0.17777777777777778],[-0.115625,0.17777777777777778],[-0.11458333333333333,0.17777777777777778],[-0.11458333333333333,0.17777777777777778],[-0.11458333333333333,0.17777777777777778],[-0.11458333333333333,0.17777777777777778],[-0.11458333333333333,0.17777777777777778],[-0.1125,0.17777777777777778],[-0.1125,0.17777777777777778],[-0.1125,0.17777777777777778],[-0.11041666666666666,0.1814814814814815],[-0.11041666666666666,0.1814814814814815],[-0.11041666666666666,0.1814814814814815],[-0.11041666666666666,0.1814814814814815],[-0.11041666666666666,0.1814814814814815],[-0.11041666666666666,0.1814814814814815],[-0.11041666666666666,0.1814814814814815],[-0.11041666666666666,0.1814814814814815],[-0.11041666666666666,0.1814814814814815],[-0.11041666666666666,0.1814814814814815],[-0.10833333333333334,0.18333333333333332],[-0.103125,0.19074074074074074],[-0.09895833333333333,0.19444444444444445],[-0.090625,0.19814814814814816],[-0.07083333333333333,0.2074074074074074],[-0.059375,0.21666666666666667],[-0.042708333333333334,0.22407407407407406],[-0.027083333333333334,0.23333333333333334],[-0.005208333333333333,0.2462962962962963],[0.01875,0.2574074074074074],[0.04583333333333333,0.27037037037037037],[0.07083333333333333,0.2851851851851852],[0.09270833333333334,0.3037037037037037],[0.13333333333333333,0.3333333333333333],[0.15833333333333333,0.3537037037037037],[0.17604166666666668,0.3685185185185185],[0.18333333333333332,0.37777777777777777],[0.19583333333333333,0.3888888888888889],[0.20520833333333333,0.4],[0.20520833333333333,0.4],[0.20520833333333333,0.4],[0.20520833333333333,0.4],[0.20520833333333333,0.4],[0.20520833333333333,0.4],[0.20520833333333333,0.40185185185185185],[0.20208333333333334,0.40370370370370373],[0.20104166666666667,0.40555555555555556],[0.19791666666666666,0.4074074074074074],[0.19583333333333333,0.4074074074074074],[0.19479166666666667,0.4074074074074074],[0.19270833333333334,0.40925925925925927],[0.19166666666666668,0.40925925925925927],[0.190625,0.4111111111111111],[0.190625,0.4111111111111111],[0.190625,0.4111111111111111],[0.190625,0.4111111111111111],[0.190625,0.4111111111111111],[0.190625,0.4111111111111111],[0.190625,0.4111111111111111],[0.190625,0.4111111111111111],[0.190625,0.4111111111111111],[0.190625,0.4111111111111111],[0.190625,0.4111111111111111],[0.190625,0.4111111111111111],[0.190625,0.4111111111111111],[0.190625,0.4111111111111111],[0.190625,0.4111111111111111],[0.190625,0.4111111111111111],[0.190625,0.4111111111111111],[0.190625,0.4111111111111111],[0.190625,0.4111111111111111],[0.190625,0.4111111111111111],[0.190625,0.4111111111111111],[0.190625,0.4111111111111111],[0.190625,0.4111111111111111],[0.190625,0.4111111111111111],[0.190625,0.4111111111111111],[0.190625,0.4111111111111111],[0.190625,0.4111111111111111],[0.190625,0.4111111111111111],[0.190625,0.4111111111111111],[0.190625,0.4111111111111111],[0.190625,0.4111111111111111],[0.190625,0.4111111111111111],[0.190625,0.4111111111111111],[0.190625,0.4111111111111111],[0.190625,0.4111111111111111],[0.190625,0.4111111111111111],[0.190625,0.4111111111111111],[0.190625,0.4111111111111111],[0.190625,0.4111111111111111],[0.190625,0.4111111111111111],[0.190625,0.4111111111111111],[0.190625,0.4111111111111111],[0.190625,0.4111111111111111],[0.190625,0.4111111111111111],[0.190625,0.4111111111111111],[0.190625,0.4111111111111111],[0.190625,0.4111111111111111],[0.190625,0.4111111111111111],[0.190625,0.4111111111111111],[0.190625,0.4111111111111111],[0.190625,0.4111111111111111],[0.190625,0.4111111111111111],[0.190625,0.4111111111111111],[0.190625,0.4111111111111111],[0.190625,0.4111111111111111],[0.190625,0.4111111111111111],[0.190625,0.4111111111111111],[0.190625,0.4111111111111111],[0.190625,0.4111111111111111],[0.1875,0.412962962962963],[0.1875,0.412962962962963],[0.1875,0.412962962962963],[0.1875,0.412962962962963],[0.1875,0.412962962962963],[0.1875,0.412962962962963],[0.1875,0.412962962962963],[0.1875,0.412962962962963],[0.1875,0.412962962962963],[0.1875,0.412962962962963],[0.1875,0.412962962962963],[0.1875,0.412962962962963],[0.1875,0.412962962962963],[0.1875,0.412962962962963],[0.1875,0.412962962962963],[0.1875,0.412962962962963],[0.1875,0.412962962962963],[0.1875,0.412962962962963],[0.1875,0.412962962962963],[0.1875,0.412962962962963],[0.1875,0.412962962962963],[0.1875,0.412962962962963],[0.1875,0.412962962962963],[0.1875,0.412962962962963],[0.1875,0.412962962962963],[0.1875,0.412962962962963],[0.1875,0.412962962962963],[0.1875,0.412962962962963],[0.1875,0.412962962962963],[0.1875,0.412962962962963],[0.1875,0.412962962962963],[0.1875,0.412962962962963],[0.1875,0.412962962962963],[0.1875,0.412962962962963],[0.1875,0.412962962962963],[0.1875,0.412962962962963],[0.1875,0.412962962962963],[0.1875,0.412962962962963],[0.1875,0.412962962962963],[0.1875,0.412962962962963],[0.1875,0.412962962962963],[0.1875,0.412962962962963],[0.1875,0.412962962962963],[0.1875,0.412962962962963],[0.1875,0.412962962962963],[0.1875,0.412962962962963],[0.1875,0.412962962962963],[0.1875,0.412962962962963],[0.1875,0.412962962962963],[0.1875,0.412962962962963],[0.1875,0.412962962962963],[0.1875,0.412962962962963],[0.1875,0.412962962962963],[0.1875,0.412962962962963],[0.1875,0.412962962962963],[0.1875,0.412962962962963],[0.1875,0.412962962962963],[0.1875,0.412962962962963],[0.1875,0.412962962962963],[0.1875,0.412962962962963],[0.1875,0.412962962962963],[0.1875,0.412962962962963],[0.1875,0.412962962962963],[0.1875,0.412962962962963],[0.1875,0.412962962962963],[0.1875,0.412962962962963],[0.1875,0.412962962962963],[0.1875,0.412962962962963],[0.1875,0.412962962962963],[0.1875,0.412962962962963],[0.1875,0.412962962962963],[0.1875,0.412962962962963],[0.1875,0.412962962962963],[0.1875,0.412962962962963],[0.1875,0.412962962962963],[0.1875,0.412962962962963],[0.1875,0.412962962962963],[0.1875,0.412962962962963],[0.1875,0.412962962962963],[0.1875,0.412962962962963],[0.1875,0.412962962962963],[0.1875,0.412962962962963],[0.1875,0.412962962962963],[0.1875,0.412962962962963],[0.1875,0.412962962962963],[0.1875,0.412962962962963],[0.1875,0.412962962962963],[0.1875,0.412962962962963],[0.1875,0.412962962962963],[0.1875,0.412962962962963],[0.1875,0.412962962962963],[0.1875,0.412962962962963],[0.1875,0.412962962962963],[0.1875,0.412962962962963],[0.1875,0.412962962962963],[0.1875,0.412962962962963],[0.1875,0.412962962962963],[0.1875,0.412962962962963],[0.1875,0.412962962962963],[0.1875,0.412962962962963],[0.1875,0.412962962962963],[0.1875,0.412962962962963],[0.1875,0.412962962962963],[0.1875,0.412962962962963],[0.18541666666666667,0.412962962962963],[0.18125,0.412962962962963],[0.17083333333333334,0.4148148148148148],[0.16145833333333334,0.4148148148148148],[0.14791666666666667,0.4185185185185185],[0.140625,0.4185185185185185],[0.13541666666666666,0.4185185185185185],[0.125,0.4185185185185185],[0.11354166666666667,0.4185185185185185],[0.10520833333333333,0.4185185185185185],[0.09791666666666667,0.4185185185185185],[0.09479166666666666,0.4185185185185185],[0.09166666666666666,0.4185185185185185],[0.090625,0.4185185185185185],[0.08958333333333333,0.4185185185185185],[0.08958333333333333,0.4185185185185185],[0.08958333333333333,0.4185185185185185],[0.08958333333333333,0.4185185185185185],[0.08958333333333333,0.4185185185185185],[0.08958333333333333,0.4185185185185185],[0.08958333333333333,0.4185185185185185],[0.08958333333333333,0.4185185185185185],[0.08958333333333333,0.4185185185185185],[0.08958333333333333,0.4185185185185185],[0.08958333333333333,0.4185185185185185],[0.08958333333333333,0.4185185185185185],[0.08958333333333333,0.4185185185185185],[0.08958333333333333,0.4185185185185185],[0.08958333333333333,0.4185185185185185],[0.08958333333333333,0.4185185185185185],[0.08958333333333333,0.4185185185185185],[0.08958333333333333,0.4185185185185185],[0.08958333333333333,0.4185185185185185],[0.08958333333333333,0.4185185185185185],[0.08958333333333333,0.4185185185185185],[0.08958333333333333,0.4185185185185185],[0.08958333333333333,0.4185185185185185],[0.08958333333333333,0.4185185185185185],[0.08958333333333333,0.4185185185185185],[0.08958333333333333,0.4185185185185185],[0.08958333333333333,0.4185185185185185],[0.08958333333333333,0.4185185185185185],[0.08958333333333333,0.4185185185185185],[0.08958333333333333,0.4185185185185185],[0.08958333333333333,0.4185185185185185],[0.08958333333333333,0.4185185185185185],[0.08958333333333333,0.4185185185185185],[0.08958333333333333,0.4185185185185185],[0.08958333333333333,0.4185185185185185],[0.08958333333333333,0.4185185185185185],[0.08958333333333333,0.4185185185185185],[0.08958333333333333,0.4185185185185185],[0.08958333333333333,0.4185185185185185],[0.08958333333333333,0.4185185185185185],[0.08958333333333333,0.4185185185185185],[0.08958333333333333,0.4185185185185185],[0.08958333333333333,0.4185185185185185],[0.08958333333333333,0.4185185185185185],[0.08958333333333333,0.4185185185185185],[0.10104166666666667,0.4222222222222222],[0.10520833333333333,0.4222222222222222],[0.11666666666666667,0.42407407407407405],[0.13333333333333333,0.42777777777777776],[0.140625,0.42962962962962964],[0.14583333333333334,0.43148148148148147],[0.15208333333333332,0.4351851851851852],[0.15729166666666666,0.4388888888888889],[0.16145833333333334,0.4425925925925926],[0.16354166666666667,0.4444444444444444],[0.16458333333333333,0.4462962962962963],[0.16458333333333333,0.4462962962962963],[0.16458333333333333,0.4462962962962963],[0.16458333333333333,0.4462962962962963],[0.16458333333333333,0.4462962962962963],[0.16458333333333333,0.4462962962962963],[0.16458333333333333,0.4462962962962963],[0.16458333333333333,0.4462962962962963],[0.16458333333333333,0.4462962962962963],[0.16458333333333333,0.4462962962962963],[0.16458333333333333,0.4462962962962963],[0.16458333333333333,0.4462962962962963],[0.16458333333333333,0.4462962962962963],[0.16458333333333333,0.4462962962962963],[0.16458333333333333,0.4462962962962963],[0.16458333333333333,0.4462962962962963],[0.16458333333333333,0.4462962962962963],[0.16458333333333333,0.4462962962962963],[0.16458333333333333,0.4462962962962963],[0.16458333333333333,0.4462962962962963],[0.16458333333333333,0.4462962962962963],[0.16458333333333333,0.4462962962962963],[0.16458333333333333,0.4462962962962963],[0.16458333333333333,0.4462962962962963],[0.16458333333333333,0.4462962962962963],[0.16458333333333333,0.4462962962962963],[0.16458333333333333,0.4462962962962963],[0.16458333333333333,0.4462962962962963],[0.16458333333333333,0.4462962962962963],[0.16458333333333333,0.4462962962962963],[0.16458333333333333,0.4462962962962963],[0.16458333333333333,0.4462962962962963],[0.16458333333333333,0.4462962962962963],[0.16458333333333333,0.4462962962962963],[0.16458333333333333,0.4462962962962963],[0.16354166666666667,0.4462962962962963],[0.16145833333333334,0.4462962962962963],[0.15833333333333333,0.4425925925925926],[0.15625,0.4351851851851852],[0.15520833333333334,0.42962962962962964],[0.153125,0.4166666666666667],[0.14895833333333333,0.40555555555555556],[0.146875,0.387037037037037],[0.14479166666666668,0.37592592592592594],[0.140625,0.35555555555555557],[0.13854166666666667,0.337037037037037],[0.13645833333333332,0.32037037037037036],[0.13125,0.29259259259259257],[0.13020833333333334,0.2814814814814815],[0.13020833333333334,0.2777777777777778],[0.12916666666666668,0.26851851851851855],[0.128125,0.26481481481481484],[0.12708333333333333,0.2611111111111111],[0.12708333333333333,0.25925925925925924],[0.12708333333333333,0.25925925925925924],[0.12604166666666666,0.2574074074074074],[0.12604166666666666,0.2574074074074074],[0.12604166666666666,0.2574074074074074],[0.12604166666666666,0.2574074074074074],[0.12604166666666666,0.2574074074074074],[0.12604166666666666,0.2574074074074074],[0.12604166666666666,0.2574074074074074],[0.12604166666666666,0.2574074074074074],[0.12604166666666666,0.2574074074074074],[0.12604166666666666,0.2574074074074074],[0.12604166666666666,0.2574074074074074],[0.12604166666666666,0.2574074074074074],[0.12604166666666666,0.2574074074074074],[0.12604166666666666,0.2574074074074074],[0.12604166666666666,0.2574074074074074],[0.12604166666666666,0.2574074074074074],[0.12604166666666666,0.2574074074074074],[0.12604166666666666,0.2574074074074074],[0.12604166666666666,0.2574074074074074],[0.12604166666666666,0.2574074074074074],[0.12604166666666666,0.2574074074074074]]","[[-0.07354166666666669,-0.1757407407407407],[-0.07354166666666669,-0.1757407407407407],[-0.06875,-0.17166666666666663],[-0.05010416666666669,-0.21740740740740735],[-0.05010416666666669,-0.21740740740740735],[-0.04354166666666662,-0.2564814814814815],[-0.035312499999999976,-0.23018518518518521],[-0.05604166666666662,-0.2518518518518518],[-0.08197916666666671,-0.2651851851851852],[-0.08020833333333334,-0.23648148148148146],[-0.07843749999999995,-0.20777777777777776],[-0.084375,-0.1566666666666667],[-0.09437500000000003,-0.11444444444444446],[-0.10343749999999995,-0.10240740740740743],[-0.1258333333333333,-0.05944444444444449],[-0.1452083333333333,-0.012407407407407492],[-0.1616666666666667,-0.0198148148148149],[-0.15,0.005740740740740783],[-0.13312499999999997,0.02296296296296292],[-0.13312499999999997,0.02296296296296292],[-0.14166666666666666,0.001851851851851852],[-0.15229166666666671,-0.000925925925925926],[-0.14718749999999994,0.0012962962962963806],[-0.134375,0.007592592592592635],[-0.13770833333333338,-0.005370370370370328],[-0.15375000000000003,-0.03888888888888889],[-0.15208333333333332,-0.06259259259259262],[-0.15208333333333332,-0.06259259259259262],[-0.165625,-0.09203703703703701],[-0.18312499999999995,-0.13055555555555556],[-0.18583333333333332,-0.15129629629629626],[-0.17687499999999995,-0.14074074074074075],[-0.17687499999999995,-0.14074074074074075],[-0.1648958333333333,-0.1507407407407407],[-0.16062500000000005,-0.2035185185185185],[-0.18093750000000006,-0.24518518518518514],[-0.1788541666666667,-0.2607407407407408],[-0.18562500000000004,-0.20999999999999996],[-0.18562500000000004,-0.20999999999999996],[-0.19406249999999994,-0.175],[-0.19333333333333336,-0.1507407407407407],[-0.19333333333333336,-0.1507407407407407],[-0.2189583333333334,-0.12333333333333338],[-0.2404166666666666,-0.13277777777777774],[-0.2625,-0.1398148148148148],[-0.2820833333333333,-0.15648148148148147],[-0.2820833333333333,-0.15648148148148147],[-0.27145833333333336,-0.14333333333333328],[-0.27145833333333336,-0.14333333333333328],[-0.2609375,-0.11203703703703703],[-0.23385416666666667,-0.13703703703703704],[-0.22562500000000002,-0.1661111111111111],[-0.23645833333333333,-0.1933333333333333],[-0.22489583333333332,-0.2192592592592592],[-0.1829166666666667,-0.2346296296296296],[-0.16312500000000002,-0.23444444444444448],[-0.1530208333333333,-0.2511111111111112],[-0.1421875,-0.25833333333333336],[-0.1421875,-0.25833333333333336],[-0.16458333333333333,-0.23203703703703707],[-0.15677083333333333,-0.25574074074074077],[-0.19260416666666663,-0.20574074074074078],[-0.2055208333333333,-0.17703703703703708],[-0.20697916666666671,-0.15796296296296297],[-0.2241666666666667,-0.13851851851851854],[-0.2361458333333334,-0.13092592592592592],[-0.24489583333333337,-0.11981481481481479],[-0.21916666666666665,-0.11074074074074076],[-0.21916666666666665,-0.11074074074074076],[-0.1716666666666666,-0.11018518518518519],[-0.13687499999999997,-0.1051851851851852],[-0.1282291666666667,-0.07611111111111116],[-0.11000000000000003,-0.07574074074074069],[-0.096875,-0.13499999999999995],[-0.09729166666666664,-0.21203703703703702],[-0.08822916666666672,-0.2607407407407408],[-0.08843749999999997,-0.31129629629629635],[-0.09197916666666663,-0.325],[-0.1094791666666667,-0.34222222222222226],[-0.15291666666666662,-0.3485185185185185],[-0.18156249999999996,-0.37481481481481477],[-0.16145833333333334,-0.4081481481481481],[-0.14135416666666673,-0.4414814814814814],[-0.12666666666666668,-0.4475925925925926],[-0.09104166666666665,-0.37],[-0.06020833333333329,-0.3331481481481481],[-0.041770833333333354,-0.29129629629629633],[-0.041770833333333354,-0.29129629629629633],[-0.013229166666666714,-0.29796296296296293],[0.02052083333333338,-0.28203703703703703],[0.057187499999999974,-0.2574074074074074],[0.09989583333333343,-0.23333333333333334],[0.10677083333333333,-0.2096296296296296],[0.11072916666666661,-0.1714814814814815],[0.13583333333333342,-0.1359259259259259],[0.13802083333333334,-0.14425925925925923],[0.13166666666666677,-0.11333333333333331],[0.11687500000000005,-0.11222222222222226],[0.11687500000000005,-0.11222222222222226],[0.09322916666666667,-0.102962962962963],[0.04874999999999995,-0.06814814814814817],[0.0013541666666666192,-0.04203703703703712],[0.0013541666666666192,-0.04203703703703712],[-0.043437500000000046,-0.06407407407407412],[-0.043437500000000046,-0.06407407407407412],[-0.10031249999999996,-0.0712962962962963],[-0.12510416666666668,-0.07740740740740742],[-0.15739583333333335,-0.07629629629629628],[-0.18562500000000004,-0.08759259259259261],[-0.18562500000000004,-0.08759259259259261],[-0.20593750000000005,-0.11555555555555551],[-0.2123958333333333,-0.12000000000000002],[-0.21677083333333336,-0.12092592592592595],[-0.21677083333333336,-0.12092592592592595],[-0.19916666666666671,-0.1527777777777778],[-0.19604166666666673,-0.18870370370370365],[-0.1929166666666667,-0.1809259259259259],[-0.1829166666666667,-0.16500000000000004],[-0.20208333333333334,-0.1646296296296296],[-0.20208333333333334,-0.1646296296296296],[-0.21124999999999997,-0.1655555555555555],[-0.18979166666666672,-0.17703703703703708],[-0.17302083333333335,-0.1838888888888889],[-0.14270833333333333,-0.21222222222222226],[-0.14270833333333333,-0.21222222222222226],[-0.11468750000000003,-0.21388888888888888],[-0.12281249999999998,-0.22611111111111115],[-0.12281249999999998,-0.22611111111111115],[-0.09729166666666664,-0.23259259259259263],[-0.08145833333333338,-0.24240740740740738],[-0.06041666666666667,-0.27518518518518525],[-0.06802083333333328,-0.30407407407407405],[-0.06802083333333328,-0.30407407407407405],[-0.04239583333333338,-0.31351851851851853],[-0.021458333333333357,-0.3151851851851852],[0.0010416666666666667,-0.33351851851851855],[0.0010416666666666667,-0.33351851851851855],[-0.008124999999999953,-0.3146296296296296],[-0.005833333333333357,-0.3229629629629629],[-0.0026041666666666665,-0.3296296296296296],[-0.022395833333333334,-0.3418518518518519],[-0.022395833333333334,-0.3418518518518519],[-0.01906249999999995,-0.3522222222222222],[-0.00458333333333331,-0.36814814814814817],[0.03781249999999995,-0.3827777777777778],[0.03791666666666664,-0.37333333333333335],[0.012083333333333357,-0.3611111111111111],[0.012083333333333357,-0.3611111111111111],[-0.00302083333333331,-0.3538888888888889],[0.003541666666666643,-0.3801851851851852],[0.014583333333333334,-0.3933333333333333],[0.014583333333333334,-0.3933333333333333],[0.053125,-0.37481481481481477],[0.09552083333333337,-0.35240740740740745],[0.09552083333333337,-0.35240740740740745],[0.11072916666666661,-0.35611111111111116],[0.08677083333333328,-0.33648148148148144],[0.08677083333333328,-0.33648148148148144],[0.12645833333333342,-0.3224074074074075],[0.12645833333333342,-0.3224074074074075],[0.15281250000000005,-0.3387037037037037],[0.20052083333333334,-0.3675925925925926],[0.2359375,-0.37481481481481477],[0.23239583333333325,-0.34944444444444445],[0.21520833333333325,-0.33666666666666667],[0.1709374999999999,-0.2855555555555555],[0.12666666666666657,-0.23444444444444448],[0.08937499999999995,-0.17833333333333334],[0.08010416666666677,-0.14000000000000004],[-0.00302083333333331,-0.09111111111111109],[-0.05552083333333328,-0.05018518518518523],[-0.1345833333333334,0.010740740740740657],[-0.21364583333333337,0.07166666666666675],[-0.2720833333333334,0.1270370370370371],[-0.2720833333333334,0.1270370370370371],[-0.33229166666666665,0.1772222222222223],[-0.3692708333333333,0.172037037037037],[-0.40625,0.1668518518518519],[-0.43333333333333335,0.13777777777777775],[-0.455625,0.16444444444444437],[-0.46958333333333335,0.1772222222222223],[-0.4842708333333333,0.18185185185185193],[-0.49375,0.17907407407407416],[-0.5203125,0.19000000000000003],[-0.5251041666666667,0.19296296296296306],[-0.5201041666666667,0.2124074074074075],[-0.5196875,0.23425925925925925],[-0.5223958333333333,0.23203703703703696],[-0.5282291666666666,0.2762962962962964],[-0.54375,0.2825925925925926],[-0.5566666666666666,0.29259259259259257],[-0.5621875000000001,0.30277777777777776],[-0.5677083333333334,0.3042592592592592],[-0.550625,0.2916666666666667],[-0.5335416666666667,0.27907407407407414],[-0.5346875,0.275],[-0.5335416666666667,0.26444444444444437],[-0.5217708333333333,0.3103703703703704],[-0.5207291666666667,0.3396296296296296],[-0.5019791666666666,0.38796296296296295],[-0.48000000000000004,0.4505555555555555],[-0.4703125,0.49296296296296305],[-0.46062500000000006,0.544074074074074],[-0.46062500000000006,0.544074074074074],[-0.4239583333333333,0.5505555555555555],[-0.38520833333333326,0.5735185185185186],[-0.3304166666666667,0.5766666666666667],[-0.3304166666666667,0.5766666666666667],[-0.2642708333333334,0.5674074074074074],[-0.2642708333333334,0.5674074074074074],[-0.20760416666666662,0.5272222222222223],[-0.14552083333333338,0.5275925925925925],[-0.09833333333333331,0.4770370370370371],[-0.04770833333333328,0.38629629629629636],[-0.04770833333333328,0.38629629629629636],[-0.00010416666666669035,0.32685185185185184],[0.052083333333333336,0.3001851851851852],[0.07520833333333338,0.2611111111111111],[0.07520833333333338,0.2611111111111111],[0.0962500000000001,0.20555555555555555],[0.12041666666666657,0.11888888888888897],[0.12989583333333338,0.04814814814814815],[0.13354166666666673,-0.03333333333333333],[0.14354166666666662,-0.12185185185185188],[0.1556250000000001,-0.1962962962962963],[0.1616666666666667,-0.259074074074074],[0.1724999999999999,-0.32148148148148153],[0.1724999999999999,-0.32148148148148153],[0.18302083333333338,-0.4057407407407408],[0.18302083333333338,-0.4057407407407408],[0.19135416666666671,-0.4335185185185186],[0.18875000000000006,-0.46814814814814815],[0.17718749999999991,-0.4716666666666666],[0.17916666666666667,-0.4638888888888889],[0.17916666666666667,-0.4638888888888889],[0.18895833333333342,-0.4468518518518519],[0.19479166666666667,-0.44648148148148153],[0.19541666666666657,-0.45629629629629626],[0.19541666666666657,-0.45185185185185184],[0.1943749999999999,-0.42666666666666664],[0.1890625,-0.4124074074074074],[0.17739583333333328,-0.40907407407407403],[0.16979166666666667,-0.4059259259259259],[0.16666666666666666,-0.40907407407407403],[0.15,-0.4235185185185185],[0.13333333333333333,-0.43796296296296294],[0.11770833333333333,-0.45092592592592595],[0.10197916666666676,-0.4316666666666667],[0.08624999999999995,-0.4124074074074074],[0.07833333333333338,-0.427962962962963],[0.07041666666666657,-0.44351851851851853],[0.0703125,-0.44814814814814813],[0.0703125,-0.44814814814814813],[0.07708333333333334,-0.4457407407407407],[0.07333333333333343,-0.44962962962962966],[0.0743750000000001,-0.4505555555555556],[0.07541666666666676,-0.4514814814814815],[0.06708333333333343,-0.4353703703703704],[0.0640625,-0.4412962962962963],[0.07041666666666657,-0.44962962962962966],[0.06895833333333339,-0.4507407407407407],[0.06281249999999995,-0.4196296296296297],[0.050416666666666644,-0.395],[0.050416666666666644,-0.395],[0.04739583333333333,-0.3618518518518518],[0.04208333333333331,-0.32407407407407407],[0.03197916666666671,-0.2892592592592592],[0.03197916666666671,-0.2892592592592592],[0.025625000000000023,-0.2542592592592593],[0.025625000000000023,-0.2542592592592593],[0.030520833333333285,-0.23796296296296296],[0.04885416666666664,-0.227962962962963],[0.051979166666666646,-0.23722222222222225],[0.04989583333333331,-0.1925925925925926],[0.04989583333333331,-0.1925925925925926],[0.05249999999999998,-0.1801851851851852],[0.059791666666666646,-0.15833333333333333],[0.017083333333333308,-0.11407407407407412],[0.017083333333333308,-0.11407407407407412],[-0.01729166666666669,-0.06185185185185181],[-0.043333333333333356,-0.014629629629629588],[-0.06937500000000002,0.03314814814814811],[-0.09541666666666669,0.08092592592592601],[-0.09541666666666669,0.08092592592592601],[-0.14791666666666667,0.13851851851851843],[-0.14791666666666667,0.13851851851851843],[-0.1953125,0.23074074074074077],[-0.22208333333333338,0.2537037037037037],[-0.24885416666666665,0.2766666666666666],[-0.2772916666666667,0.3025925925925925],[-0.26510416666666664,0.2975925925925927],[-0.2586458333333333,0.2861111111111111],[-0.26052083333333337,0.2796296296296296],[-0.26614583333333336,0.27240740740740743],[-0.2530208333333333,0.27462962962962956],[-0.2319791666666667,0.2801851851851851],[-0.2319791666666667,0.2801851851851851],[-0.21020833333333327,0.2727777777777777],[-0.19572916666666665,0.29685185185185176],[-0.19572916666666665,0.29685185185185176],[-0.18374999999999997,0.31055555555555564],[-0.1796875,0.3175925925925926],[-0.17562500000000003,0.32462962962962955],[-0.14916666666666673,0.3227777777777777],[-0.11468750000000003,0.3351851851851852],[-0.0921875,0.3442592592592592],[-0.0921875,0.3442592592592592],[-0.09750000000000002,0.35833333333333334],[-0.10656249999999995,0.34888888888888886],[-0.11260416666666669,0.33555555555555566],[-0.10760416666666663,0.3303703703703703],[-0.1092708333333333,0.3477777777777777],[-0.10249999999999998,0.3668518518518519],[-0.10187499999999995,0.36074074074074064],[-0.12302083333333336,0.3520370370370371],[-0.14708333333333337,0.3098148148148147],[-0.15916666666666662,0.27092592592592585],[-0.16218750000000004,0.2175925925925926],[-0.16354166666666667,0.1581481481481481],[-0.16791666666666671,0.10259259259259255],[-0.19927083333333329,0.04351851851851852],[-0.1658333333333334,-0.05648148148148148],[-0.13239583333333335,-0.15648148148148147],[-0.13114583333333332,-0.18277777777777776],[-0.08770833333333337,-0.19666666666666666],[-0.08718750000000004,-0.16870370370370374],[-0.08718750000000004,-0.16870370370370374],[-0.057500000000000044,-0.18703703703703703],[-0.057500000000000044,-0.18703703703703703],[-0.05531250000000002,-0.1705555555555556],[-0.058854166666666666,-0.12851851851851848],[-0.07291666666666667,-0.07537037037037035],[-0.078125,-0.03611111111111111],[-0.12427083333333329,0.02370370370370362],[-0.13729166666666662,0.027777777777777776],[-0.13020833333333334,0.004629629629629629],[-0.16052083333333336,-0.0001851851851852273],[-0.13677083333333329,-0.05537037037037033],[-0.1421875,-0.06425925925925924],[-0.12333333333333331,-0.10203703703703708],[-0.09156249999999998,-0.1425925925925926],[-0.06666666666666667,-0.17074074074074072],[-0.050937499999999976,-0.20759259259259263],[-0.04072916666666669,-0.24833333333333338],[-0.0967708333333333,-0.21537037037037038],[-0.11312500000000002,-0.19444444444444445],[-0.1234375,-0.20999999999999996],[-0.16739583333333338,-0.16518518518518516],[-0.21135416666666665,-0.12037037037037036],[-0.21833333333333335,-0.10907407407407403],[-0.22531249999999994,-0.0977777777777778],[-0.2328125,-0.12018518518518514],[-0.21531250000000005,-0.15259259259259256],[-0.22781250000000006,-0.15870370370370368],[-0.22781250000000006,-0.15870370370370368],[-0.21739583333333337,-0.1714814814814815],[-0.17895833333333327,-0.202962962962963],[-0.1727083333333333,-0.18314814814814812],[-0.14906250000000001,-0.19592592592592595],[-0.11322916666666671,-0.22148148148148153],[-0.11124999999999995,-0.20907407407407402],[-0.0967708333333333,-0.19444444444444445],[-0.06437499999999995,-0.16962962962962966],[-0.04135416666666671,-0.12685185185185185],[0.002499999999999976,-0.09833333333333337],[0.049479166666666664,-0.08333333333333333],[0.06635416666666671,-0.052037037037037076],[0.10510416666666676,-0.053148148148148125],[0.14385416666666656,-0.05425925925925928],[0.1759375000000001,-0.05018518518518523],[0.20812499999999995,-0.05648148148148148],[0.22885416666666672,-0.056666666666666705],[0.24958333333333324,-0.056851851851851834],[0.2587500000000001,-0.07611111111111116],[0.2561458333333334,-0.07074074074074072],[0.2820833333333333,-0.07574074074074069],[0.2741666666666667,-0.09388888888888887],[0.2741666666666667,-0.09388888888888887],[0.25812499999999994,-0.11296296296296296],[0.25197916666666675,-0.10629629629629625],[0.25197916666666675,-0.10629629629629625],[0.23020833333333332,-0.11796296296296294],[0.19968750000000005,-0.12314814814814815],[0.17020833333333343,-0.14462962962962966],[0.14333333333333323,-0.16777777777777783],[0.11947916666666672,-0.1824074074074074],[0.11624999999999991,-0.2270370370370371],[0.11624999999999991,-0.2270370370370371],[0.10604166666666662,-0.29685185185185187],[0.10604166666666662,-0.29685185185185187],[0.10020833333333339,-0.3272222222222222],[0.09468750000000009,-0.3490740740740741],[0.07291666666666667,-0.36629629629629634],[0.07291666666666667,-0.36629629629629634],[0.06791666666666671,-0.3690740740740741],[0.06458333333333334,-0.35907407407407405],[0.05916666666666662,-0.3411111111111111],[0.04052083333333331,-0.35259259259259257],[0.03843749999999998,-0.3327777777777778],[0.03843749999999998,-0.3327777777777778],[0.02833333333333338,-0.31555555555555553],[-0.011249999999999953,-0.23018518518518521],[-0.03250000000000005,-0.19296296296296295],[-0.035520833333333356,-0.18611111111111112],[-0.035520833333333356,-0.18611111111111112],[-0.025520833333333333,-0.17518518518518522],[-0.036249999999999956,-0.15018518518518523],[-0.019687499999999976,-0.1638888888888889],[-0.003125,-0.17759259259259255],[0.02041666666666669,-0.1492592592592593],[0.025,-0.1581481481481481],[0.02781250000000005,-0.15851851851851856],[0.05770833333333331,-0.20703703703703705],[0.07937500000000004,-0.24055555555555552],[0.10552083333333329,-0.23796296296296296],[0.125,-0.2698148148148148],[0.15177083333333338,-0.30333333333333334],[0.15833333333333333,-0.31740740740740736],[0.16541666666666663,-0.33425925925925926],[0.18218750000000009,-0.3655555555555555],[0.20343749999999997,-0.37962962962962965],[0.20979166666666677,-0.3933333333333333],[0.21864583333333343,-0.40796296296296297],[0.21395833333333342,-0.4398148148148148],[0.19895833333333332,-0.4801851851851852],[0.19739583333333333,-0.4890740740740741],[0.20260416666666667,-0.4988888888888888],[0.19489583333333324,-0.495],[0.19489583333333324,-0.495],[0.1788541666666667,-0.5096296296296297],[0.1632291666666667,-0.5070370370370371],[0.15041666666666675,-0.5312962962962963],[0.15041666666666675,-0.5312962962962963],[0.15437500000000004,-0.5296296296296297],[0.1368750000000001,-0.5157407407407407],[0.13020833333333334,-0.46592592592592597],[0.12354166666666658,-0.4161111111111111],[0.10520833333333333,-0.42481481481481476],[0.10520833333333333,-0.42481481481481476],[0.09302083333333329,-0.4081481481481481],[0.07468750000000005,-0.4074074074074074],[0.06416666666666669,-0.3853703703703704],[0.06875,-0.387037037037037],[0.06875,-0.387037037037037],[0.05020833333333338,-0.2983333333333334],[0.00010416666666669035,-0.20981481481481484],[0.00010416666666669035,-0.20981481481481484],[-0.02520833333333338,-0.11851851851851852],[-0.02520833333333338,-0.11851851851851852],[-0.06104166666666669,-0.0514814814814814],[-0.08354166666666671,0.032777777777777864],[-0.10031249999999996,0.09314814814814806],[-0.10375000000000002,0.10425925925925918],[-0.1092708333333333,0.13296296296296287],[-0.1092708333333333,0.13296296296296287],[-0.10510416666666664,0.13777777777777775],[-0.12510416666666668,0.17777777777777778],[-0.11604166666666664,0.13537037037037042],[-0.07635416666666663,0.06629629629629621],[-0.05593750000000005,0.019259259259259216],[-0.022291666666666644,-0.022222222222222223],[-0.001979166666666643,-0.0809259259259259],[0.0125,-0.09222222222222225],[0.0125,-0.09222222222222225],[0.02354166666666669,-0.125]]","[[-0.07354166666666669,-0.1757407407407407,0.0003000000119186552],[-0.07354166666666669,-0.1757407407407407,0.0589999999999975],[-0.06875,-0.17166666666666663,0.0685999999940492],[-0.05010416666666669,-0.21740740740740735,0.085800000011929],[-0.05010416666666669,-0.21740740740740735,0.10200000000000387],[-0.04354166666666662,-0.2564814814814815,0.11870000001788128],[-0.035312499999999976,-0.23018518518518521,0.13649999999999807],[-0.05604166666666662,-0.2518518518518518,0.15500000000000114],[-0.08197916666666671,-0.2651851851851852,0.17159999999404363],[-0.08020833333333334,-0.23648148148148146,0.18870000001788867],[-0.07843749999999995,-0.20777777777777776,0.2047000000178798],[-0.084375,-0.1566666666666667,0.22299999999999898],[-0.09437500000000003,-0.11444444444444446,0.23820000001788344],[-0.10343749999999995,-0.10240740740740743,0.2545000000000073],[-0.1258333333333333,-0.05944444444444449,0.2715000000000032],[-0.1452083333333333,-0.012407407407407492,0.2868000000119224],[-0.1616666666666667,-0.0198148148148149,0.3020000000000067],[-0.15,0.005740740740740783,0.32080000001192843],[-0.13312499999999997,0.02296296296296292,0.3354000000059614],[-0.13312499999999997,0.02296296296296292,0.35200000000000387],[-0.14166666666666666,0.001851851851851852,0.36859999999404636],[-0.15229166666666671,-0.000925925925925926,0.38540000000595853],[-0.14718749999999994,0.0012962962962963806,0.4048000000119316],[-0.134375,0.007592592592592635,0.4198000000119322],[-0.13770833333333338,-0.005370370370370328,0.43740000000596524],[-0.15375000000000003,-0.03888888888888889,0.4530999999940377],[-0.15208333333333332,-0.06259259259259262,0.4729000000059642],[-0.15208333333333332,-0.06259259259259262,0.4853000000119323],[-0.165625,-0.09203703703703701,0.5020999999940443],[-0.18312499999999995,-0.13055555555555556,0.5212000000178847],[-0.18583333333333332,-0.15129629629629626,0.53630000001192],[-0.17687499999999995,-0.14074074074074075,0.5577000000178884],[-0.17687499999999995,-0.14074074074074075,0.5688000000119189],[-0.1648958333333333,-0.1507407407407407,0.5852000000178919],[-0.16062500000000005,-0.2035185185185185,0.6023000000119225],[-0.18093750000000006,-0.24518518518518514,0.6219000000059651],[-0.1788541666666667,-0.2607407407407408,0.6402000000178845],[-0.18562500000000004,-0.20999999999999996,0.656800000011927],[-0.18562500000000004,-0.20999999999999996,0.6688000000119274],[-0.19406249999999994,-0.175,0.6887000000178887],[-0.19333333333333336,-0.1507407407407407,0.7050999999940473],[-0.19333333333333336,-0.1507407407407407,0.7189000000059593],[-0.2189583333333334,-0.12333333333333338,0.7384000000059672],[-0.2404166666666666,-0.13277777777777774,0.7563000000119189],[-0.2625,-0.1398148148148148,0.7722000000178895],[-0.2820833333333333,-0.15648148148148147,0.7927000000178879],[-0.2820833333333333,-0.15648148148148147,0.8023000000119254],[-0.27145833333333336,-0.14333333333333328,0.819500000000005],[-0.27145833333333336,-0.14333333333333328,0.8355000000000103],[-0.2609375,-0.11203703703703703,0.8553000000119226],[-0.23385416666666667,-0.13703703703703704,0.8699000000059698],[-0.22562500000000002,-0.1661111111111111,0.8854000000059585],[-0.23645833333333333,-0.1933333333333333,0.9047000000178826],[-0.22489583333333332,-0.2192592592592592,0.9189000000059622],[-0.1829166666666667,-0.2346296296296296,0.9355000000000047],[-0.16312500000000002,-0.23444444444444448,0.9522000000178821],[-0.1530208333333333,-0.2511111111111112,0.97380000001192],[-0.1421875,-0.25833333333333336,0.9890000000000043],[-0.1421875,-0.25833333333333336,1.0025999999940467],[-0.16458333333333333,-0.23203703703703707,1.0190999999940402],[-0.15677083333333333,-0.25574074074074077,1.037900000005962],[-0.19260416666666663,-0.20574074074074078,1.0565999999940487],[-0.2055208333333333,-0.17703703703703708,1.0722000000178866],[-0.20697916666666671,-0.15796296296296297,1.0892000000178825],[-0.2241666666666667,-0.13851851851851854,1.1047000000178855],[-0.2361458333333334,-0.13092592592592592,1.1185999999940464],[-0.24489583333333337,-0.11981481481481479,1.1353000000119238],[-0.21916666666666665,-0.11074074074074076,1.1545999999940477],[-0.21916666666666665,-0.11074074074074076,1.1685999999940435],[-0.1716666666666666,-0.11018518518518519,1.185300000011921],[-0.13687499999999997,-0.1051851851851852,1.2019000000059634],[-0.1282291666666667,-0.07611111111111116,1.218500000000006],[-0.11000000000000003,-0.07574074074074069,1.2383000000119324],[-0.096875,-0.13499999999999995,1.254800000011926],[-0.09729166666666664,-0.21203703703703702,1.2704000000059636],[-0.08822916666666672,-0.2607407407407408,1.2854000000059642],[-0.08843749999999997,-0.31129629629629635,1.3055000000000092],[-0.09197916666666663,-0.325,1.3209000000059632],[-0.1094791666666667,-0.34222222222222226,1.3359000000059638],[-0.15291666666666662,-0.3485185185185185,1.3553000000119226],[-0.18156249999999996,-0.37481481481481477,1.371300000011928],[-0.16145833333333334,-0.4081481481481481,1.3900000000000006],[-0.14135416666666673,-0.4414814814814814,1.4055000000000035],[-0.12666666666666668,-0.4475925925925926,1.419900000005967],[-0.09104166666666665,-0.37,1.4385000000000048],[-0.06020833333333329,-0.3331481481481481,1.453000000000003],[-0.041770833333333354,-0.29129629629629633,1.4690000000000083],[-0.041770833333333354,-0.29129629629629633,1.4853000000119323],[-0.013229166666666714,-0.29796296296296293,1.5020000000000095],[0.02052083333333338,-0.28203703703703703,1.5213000000119195],[0.057187499999999974,-0.2574074074074074,1.5365000000000038],[0.09989583333333343,-0.23333333333333334,1.551900000005972],[0.10677083333333333,-0.2096296296296296,1.5712000000178818],[0.11072916666666661,-0.1714814814814815,1.5853000000119266],[0.13583333333333342,-0.1359259259259259,1.6020999999940386],[0.13802083333333334,-0.14425925925925923,1.6184999999999974],[0.13166666666666677,-0.11333333333333331,1.6353000000119238],[0.11687500000000005,-0.11222222222222226,1.6567000000178922],[0.11687500000000005,-0.11222222222222226,1.6689000000059622],[0.09322916666666667,-0.102962962962963,1.68540000000597],[0.04874999999999995,-0.06814814814814817,1.702200000017882],[0.0013541666666666192,-0.04203703703703712,1.7244000000059714],[0.0013541666666666192,-0.04203703703703712,1.735400000005967],[-0.043437500000000046,-0.06407407407407412,1.7523000000119282],[-0.043437500000000046,-0.06407407407407412,1.7688000000119217],[-0.10031249999999996,-0.0712962962962963,1.7870000000000061],[-0.12510416666666668,-0.07740740740740742,1.8023000000119254],[-0.15739583333333335,-0.07629629629629628,1.820999999999998],[-0.18562500000000004,-0.08759259259259261,1.83570000001788],[-0.18562500000000004,-0.08759259259259261,1.8520000000000039],[-0.20593750000000005,-0.11555555555555551,1.8685999999940464],[-0.2123958333333333,-0.12000000000000002,1.8853000000119238],[-0.21677083333333336,-0.12092592592592595,1.9058000000119222],[-0.21677083333333336,-0.12092592592592595,1.9185999999940435],[-0.19916666666666671,-0.1527777777777778,1.935300000011921],[-0.19604166666666673,-0.18870370370370365,1.95359999999404],[-0.1929166666666667,-0.1809259259259259,1.9685999999940407],[-0.1829166666666667,-0.16500000000000004,1.98780000001193],[-0.20208333333333334,-0.1646296296296296,2.0035000000000025],[-0.20208333333333334,-0.1646296296296296,2.018700000017887],[-0.21124999999999997,-0.1655555555555555,2.0353000000119295],[-0.18979166666666672,-0.17703703703703708,2.0520000000000067],[-0.17302083333333335,-0.1838888888888889,2.071200000017882],[-0.14270833333333333,-0.21222222222222226,2.0863000000119314],[-0.14270833333333333,-0.21222222222222226,2.101900000005969],[-0.11468750000000003,-0.21388888888888888,2.1214000000059627],[-0.12281249999999998,-0.22611111111111115,2.1412000000178892],[-0.12281249999999998,-0.22611111111111115,2.152200000017885],[-0.09729166666666664,-0.23259259259259263,2.173000000000002],[-0.08145833333333338,-0.24240740740740738,2.188099999994037],[-0.06041666666666667,-0.27518518518518525,2.2039000000059588],[-0.06802083333333328,-0.30407407407407405,2.225400000005962],[-0.06802083333333328,-0.30407407407407405,2.235500000000002],[-0.04239583333333338,-0.31351851851851853,2.2522000000178792],[-0.021458333333333357,-0.3151851851851852,2.272400000005959],[0.0010416666666666667,-0.33351851851851855,2.291599999994048],[0.0010416666666666667,-0.33351851851851855,2.3020999999940415],[-0.008124999999999953,-0.3146296296296296,2.318900000005968],[-0.005833333333333357,-0.3229629629629629,2.3408000000119245],[-0.0026041666666666665,-0.3296296296296296,2.3562000000178926],[-0.022395833333333334,-0.3418518518518519,2.372],[-0.022395833333333334,-0.3418518518518519,2.3854000000059585],[-0.01906249999999995,-0.3522222222222222,2.4054000000059688],[-0.00458333333333331,-0.36814814814814817,2.4210999999940412],[0.03781249999999995,-0.3827777777777778,2.436800000011928],[0.03791666666666664,-0.37333333333333335,2.4540999999940425],[0.012083333333333357,-0.3611111111111111,2.473099999994048],[0.012083333333333357,-0.3611111111111111,2.4853000000119323],[-0.00302083333333331,-0.3538888888888889,2.5020000000000095],[0.003541666666666643,-0.3801851851851852,2.5238000000119314],[0.014583333333333334,-0.3933333333333333,2.541700000017883],[0.014583333333333334,-0.3933333333333333,2.5520999999940415],[0.053125,-0.37481481481481477,2.568800000011919],[0.09552083333333337,-0.35240740740740745,2.5875000000000057],[0.09552083333333337,-0.35240740740740745,2.6020999999940386],[0.11072916666666661,-0.35611111111111116,2.618900000005965],[0.08677083333333328,-0.33648148148148144,2.6409000000059706],[0.08677083333333328,-0.33648148148148144,2.652200000017885],[0.12645833333333342,-0.3224074074074075,2.6685999999940435],[0.12645833333333342,-0.3224074074074075,2.685200000017886],[0.15281250000000005,-0.3387037037037037,2.701999999999998],[0.20052083333333334,-0.3675925925925926,2.7185999999940407],[0.2359375,-0.37481481481481477,2.738400000005967],[0.23239583333333325,-0.34944444444444445,2.754599999994042],[0.21520833333333325,-0.33666666666666667,2.7710999999940498],[0.1709374999999999,-0.2855555555555555,2.7859000000059666],[0.12666666666666657,-0.23444444444444448,2.801900000005972],[0.08937499999999995,-0.17833333333333334,2.8208000000119284],[0.08010416666666677,-0.14000000000000004,2.8355000000000103],[-0.00302083333333331,-0.09111111111111109,2.8539000000059644],[-0.05552083333333328,-0.05018518518518523,2.8700000000000045],[-0.1345833333333334,0.010740740740740657,2.8855999999940423],[-0.21364583333333337,0.07166666666666675,2.904400000005964],[-0.2720833333333334,0.1270370370370371,2.9195999999940483],[-0.2720833333333334,0.1270370370370371,2.935300000011921],[-0.33229166666666665,0.1772222222222223,2.952099999994047],[-0.3692708333333333,0.172037037037037,2.9685999999940407],[-0.40625,0.1668518518518519,2.987599999994046],[-0.43333333333333335,0.13777777777777775,3.0059000000059655],[-0.455625,0.16444444444444437,3.021800000011922],[-0.46958333333333335,0.1772222222222223,3.0375000000000085],[-0.4842708333333333,0.18185185185185193,3.05330000001193],[-0.49375,0.17907407407407416,3.0720999999940375],[-0.5203125,0.19000000000000003,3.088200000017892],[-0.5251041666666667,0.19296296296296306,3.1048000000119202],[-0.5201041666666667,0.2124074074074075,3.1208000000119256],[-0.5196875,0.23425925925925925,3.136599999994047],[-0.5223958333333333,0.23203703703703696,3.155900000005971],[-0.5282291666666666,0.2762962962962964,3.1725999999940484],[-0.54375,0.2825925925925926,3.1887000000178887],[-0.5566666666666666,0.29259259259259257,3.2043000000119264],[-0.5621875000000001,0.30277777777777776,3.2197000000178804],[-0.5677083333333334,0.3042592592592592,3.2383000000119324],[-0.550625,0.2916666666666667,3.2543000000119235],[-0.5335416666666667,0.27907407407407414,3.272400000005959],[-0.5346875,0.275,3.2880999999940457],[-0.5335416666666667,0.26444444444444437,3.3060999999940464],[-0.5217708333333333,0.3103703703703704,3.3222000000178866],[-0.5207291666666667,0.3396296296296296,3.3399000000059686],[-0.5019791666666666,0.38796296296296295,3.3560999999940435],[-0.48000000000000004,0.4505555555555555,3.3715999999940465],[-0.4703125,0.49296296296296305,3.390700000017887],[-0.46062500000000006,0.544074074074074,3.405900000005971],[-0.46062500000000006,0.544074074074074,3.4187000000178926],[-0.4239583333333333,0.5505555555555555,3.43540000000597],[-0.38520833333333326,0.5735185185185186,3.4530999999940377],[-0.3304166666666667,0.5766666666666667,3.473099999994048],[-0.3304166666666667,0.5766666666666667,3.4853000000119323],[-0.2642708333333334,0.5674074074074074,3.5022000000178792],[-0.2642708333333334,0.5674074074074074,3.5188000000119217],[-0.20760416666666662,0.5272222222222223,3.5353000000119295],[-0.14552083333333338,0.5275925925925925,3.5522000000178906],[-0.09833333333333331,0.4770370370370371,3.570999999999998],[-0.04770833333333328,0.38629629629629636,3.586700000017885],[-0.04770833333333328,0.38629629629629636,3.601900000005969],[-0.00010416666666669035,0.32685185185185184,3.6187000000178813],[0.052083333333333336,0.3001851851851852,3.639800000011931],[0.07520833333333338,0.2611111111111111,3.6557000000178874],[0.07520833333333338,0.2611111111111111,3.6685999999940435],[0.0962500000000001,0.20555555555555555,3.685300000011921],[0.12041666666666657,0.11888888888888897,3.702200000017882],[0.12989583333333338,0.04814814814814815,3.7185999999940407],[0.13354166666666673,-0.03333333333333333,3.7379999999999995],[0.14354166666666662,-0.12185185185185188,3.7559000000059655],[0.1556250000000001,-0.1962962962962963,3.773099999994045],[0.1616666666666667,-0.259074074074074,3.7883000000119296],[0.1724999999999999,-0.32148148148148153,3.807800000011923],[0.1724999999999999,-0.32148148148148153,3.818599999994049],[0.18302083333333338,-0.4057407407407408,3.8353000000119266],[0.18302083333333338,-0.4057407407407408,3.8520999999940386],[0.19135416666666671,-0.4335185185185186,3.8687000000178813],[0.18875000000000006,-0.46814814814814815,3.885200000017889],[0.17718749999999991,-0.4716666666666666,3.90530000001192],[0.17916666666666667,-0.4638888888888889,3.920599999994039],[0.17916666666666667,-0.4638888888888889,3.935300000011921],[0.18895833333333342,-0.4468518518518519,3.9519000000059634],[0.19479166666666667,-0.44648148148148153,3.969999999999999],[0.19541666666666657,-0.45629629629629626,3.988599999994051],[0.19541666666666657,-0.45185185185185184,4.004599999994042],[0.1943749999999999,-0.42666666666666664,4.021000000000001],[0.1890625,-0.4124074074074074,4.0374000000059596],[0.17739583333333328,-0.40907407407407403,4.056599999994049],[0.16979166666666667,-0.4059259259259259,4.071900000005968],[0.16666666666666666,-0.40907407407407403,4.08680000001192],[0.15,-0.4235185185185185,4.102200000017888],[0.13333333333333333,-0.43796296296296294,4.118599999994046],[0.11770833333333333,-0.45092592592592595,4.139599999994047],[0.10197916666666676,-0.4316666666666667,4.15530000001192],[0.08624999999999995,-0.4124074074074074,4.172599999994048],[0.07833333333333338,-0.427962962962963,4.1885999999940395],[0.07041666666666657,-0.44351851851851853,4.205099999994047],[0.0703125,-0.44814814814814813,4.224400000005971],[0.0703125,-0.44814814814814813,4.235200000017883],[0.07708333333333334,-0.4457407407407407,4.252200000017879],[0.07333333333333343,-0.44962962962962966,4.27020000001788],[0.0743750000000001,-0.4505555555555556,4.287000000000006],[0.07541666666666676,-0.4514814814814815,4.3020999999940415],[0.06708333333333343,-0.4353703703703704,4.321099999994047],[0.0640625,-0.4412962962962963,4.338000000000008],[0.07041666666666657,-0.44962962962962966,4.355800000011925],[0.06895833333333339,-0.4507407407407407,4.371000000000009],[0.06281249999999995,-0.4196296296296297,4.389499999999998],[0.050416666666666644,-0.395,4.4055000000000035],[0.050416666666666644,-0.395,4.4185999999940435],[0.04739583333333333,-0.3618518518518518,4.435300000011921],[0.04208333333333331,-0.32407407407407407,4.4540999999940425],[0.03197916666666671,-0.2892592592592592,4.472900000005964],[0.03197916666666671,-0.2892592592592592,4.485599999994051],[0.025625000000000023,-0.2542592592592593,4.5020000000000095],[0.025625000000000023,-0.2542592592592593,4.518700000017887],[0.030520833333333285,-0.23796296296296296,4.5353000000119295],[0.04885416666666664,-0.227962962962963,4.552500000000009],[0.051979166666666646,-0.23722222222222225,4.572700000017889],[0.04989583333333331,-0.1925925925925926,4.588300000011927],[0.04989583333333331,-0.1925925925925926,4.601900000005969],[0.05249999999999998,-0.1801851851851852,4.618700000017881],[0.059791666666666646,-0.15833333333333333,4.636499999999998],[0.017083333333333308,-0.11407407407407412,4.6555000000000035],[0.017083333333333308,-0.11407407407407412,4.668500000000009],[-0.01729166666666669,-0.06185185185185181,4.685200000017886],[-0.043333333333333356,-0.014629629629629588,4.702500000000001],[-0.06937500000000002,0.03314814814814811,4.718599999994041],[-0.09541666666666669,0.08092592592592601,4.740300000011928],[-0.09541666666666669,0.08092592592592601,4.76009999999404],[-0.14791666666666667,0.13851851851851843,4.778800000011927],[-0.14791666666666667,0.13851851851851843,4.785499999999999],[-0.1953125,0.23074074074074077,4.8020999999940415],[-0.22208333333333338,0.2537037037037037,4.820800000011928],[-0.24885416666666665,0.2766666666666666,4.835200000017892],[-0.2772916666666667,0.3025925925925925,4.851900000005969],[-0.26510416666666664,0.2975925925925927,4.868700000017881],[-0.2586458333333333,0.2861111111111111,4.885200000017889],[-0.26052083333333337,0.2796296296296296,4.904300000011929],[-0.26614583333333336,0.27240740740740743,4.918500000000009],[-0.2530208333333333,0.27462962962962956,4.938500000000005],[-0.2319791666666667,0.2801851851851851,4.95470000001788],[-0.2319791666666667,0.2801851851851851,4.968800000011925],[-0.21020833333333327,0.2727777777777777,4.985400000005967],[-0.19572916666666665,0.29685185185185176,5.001900000005961],[-0.19572916666666665,0.29685185185185176,5.018599999994038],[-0.18374999999999997,0.31055555555555564,5.0353000000119295],[-0.1796875,0.3175925925925926,5.051900000005972],[-0.17562500000000003,0.32462962962962955,5.071300000011931],[-0.14916666666666673,0.3227777777777777,5.088099999994043],[-0.11468750000000003,0.3351851851851852,5.104599999994051],[-0.0921875,0.3442592592592592,5.121700000017881],[-0.0921875,0.3442592592592592,5.135300000011924],[-0.09750000000000002,0.35833333333333334,5.151900000005966],[-0.10656249999999995,0.34888888888888886,5.1718000000119275],[-0.11260416666666669,0.33555555555555566,5.185500000000005],[-0.10760416666666663,0.3303703703703703,5.201900000005963],[-0.1092708333333333,0.3477777777777777,5.218599999994041],[-0.10249999999999998,0.3668518518518519,5.237599999994046],[-0.10187499999999995,0.36074074074074064,5.2520000000000095],[-0.12302083333333336,0.3520370370370371,5.268599999994038],[-0.14708333333333337,0.3098148148148147,5.2852000000178805],[-0.15916666666666662,0.27092592592592585,5.302000000000007],[-0.16218750000000004,0.2175925925925926,5.320999999999998],[-0.16354166666666667,0.1581481481481481,5.335300000011927],[-0.16791666666666671,0.10259259259259255,5.351900000005969],[-0.19927083333333329,0.04351851851851852,5.370500000000007],[-0.1658333333333334,-0.05648148148148148,5.3854000000059585],[-0.13239583333333335,-0.15648148148148147,5.404099999994045],[-0.13114583333333332,-0.18277777777777776,5.421500000000009],[-0.08770833333333337,-0.19666666666666666,5.437700000017884],[-0.08718750000000004,-0.16870370370370374,5.454800000011929],[-0.08718750000000004,-0.16870370370370374,5.473500000000001],[-0.057500000000000044,-0.18703703703703703,5.485599999994051],[-0.057500000000000044,-0.18703703703703703,5.502200000017879],[-0.05531250000000002,-0.1705555555555556,5.518900000005971],[-0.058854166666666666,-0.12851851851851848,5.5374000000059596],[-0.07291666666666667,-0.07537037037037035,5.552200000017891],[-0.078125,-0.03611111111111111,5.570300000011926],[-0.12427083333333329,0.02370370370370362,5.587200000017887],[-0.13729166666666662,0.027777777777777776,5.604500000000002],[-0.13020833333333334,0.004629629629629629,5.620400000005958],[-0.16052083333333336,-0.0001851851851852273,5.635200000017889],[-0.13677083333333329,-0.05537037037037033,5.655200000017885],[-0.1421875,-0.06425925925925924,5.669800000011932],[-0.12333333333333331,-0.10203703703703708,5.685099999994037],[-0.09156249999999998,-0.1425925925925926,5.701900000005963],[-0.06666666666666667,-0.17074074074074072,5.718599999994041],[-0.050937499999999976,-0.20759259259259263,5.737700000017881],[-0.04072916666666669,-0.24833333333333338,5.754599999994042],[-0.0967708333333333,-0.21537037037037038,5.771500000000003],[-0.11312500000000002,-0.19444444444444445,5.7874000000059596],[-0.1234375,-0.20999999999999996,5.802000000000007],[-0.16739583333333338,-0.16518518518518516,5.821200000017882],[-0.21135416666666665,-0.12037037037037036,5.836300000011931],[-0.21833333333333335,-0.10907407407407403,5.853599999994046],[-0.22531249999999994,-0.0977777777777778,5.868599999994046],[-0.2328125,-0.12018518518518514,5.885200000017889],[-0.21531250000000005,-0.15259259259259256,5.904499999999999],[-0.22781250000000006,-0.15870370370370368,5.92030000001192],[-0.22781250000000006,-0.15870370370370368,5.935500000000005],[-0.21739583333333337,-0.1714814814814815,5.951999999999998],[-0.17895833333333327,-0.202962962962963,5.968599999994041],[-0.1727083333333333,-0.18314814814814812,5.987300000011928],[-0.14906250000000001,-0.19592592592592595,6.0020000000000095],[-0.11322916666666671,-0.22148148148148153,6.018700000017887],[-0.11124999999999995,-0.20907407407407402,6.0352000000178805],[-0.0967708333333333,-0.19444444444444445,6.052000000000007],[-0.06437499999999995,-0.16962962962962966,6.070900000005963],[-0.04135416666666671,-0.12685185185185185,6.085200000017892],[0.002499999999999976,-0.09833333333333337,6.102000000000004],[0.049479166666666664,-0.08333333333333333,6.118599999994046],[0.06635416666666671,-0.052037037037037076,6.135200000017889],[0.10510416666666676,-0.053148148148148125,6.154300000011929],[0.14385416666666656,-0.05425925925925928,6.169599999994048],[0.1759375000000001,-0.05018518518518523,6.186599999994044],[0.20812499999999995,-0.05648148148148148,6.201900000005963],[0.22885416666666672,-0.056666666666666705,6.218599999994041],[0.24958333333333324,-0.056851851851851834,6.237599999994046],[0.2587500000000001,-0.07611111111111116,6.253200000017884],[0.2561458333333334,-0.07074074074074072,6.271599999994038],[0.2820833333333333,-0.07574074074074069,6.286400000005969],[0.2741666666666667,-0.09388888888888887,6.301900000005972],[0.2741666666666667,-0.09388888888888887,6.3185],[0.25812499999999994,-0.11296296296296296,6.335300000011927],[0.25197916666666675,-0.10629629629629625,6.357700000017886],[0.25197916666666675,-0.10629629629629625,6.368599999994046],[0.23020833333333332,-0.11796296296296294,6.3854000000059585],[0.19968750000000005,-0.12314814814814815,6.404599999994048],[0.17020833333333343,-0.14462962962962966,6.42230000001193],[0.14333333333333323,-0.16777777777777783,6.43840000000597],[0.11947916666666672,-0.1824074074074074,6.454599999994045],[0.11624999999999991,-0.2270370370370371,6.4765999999940504],[0.11624999999999991,-0.2270370370370371,6.4867000000178905],[0.10604166666666662,-0.29685185185185187,6.502300000011928],[0.10604166666666662,-0.29685185185185187,6.518800000011922],[0.10020833333333339,-0.3272222222222222,6.5352000000178805],[0.09468750000000009,-0.3490740740740741,6.551900000005972],[0.07291666666666667,-0.36629629629629634,6.572700000017889],[0.07291666666666667,-0.36629629629629634,6.585200000017892],[0.06791666666666671,-0.3690740740740741,6.601900000005969],[0.06458333333333334,-0.35907407407407405,6.6200000000000045],[0.05916666666666662,-0.3411111111111111,6.6363000000119285],[0.04052083333333331,-0.35259259259259257,6.654900000005966],[0.03843749999999998,-0.3327777777777778,6.669900000005967],[0.03843749999999998,-0.3327777777777778,6.685200000017886],[0.02833333333333338,-0.31555555555555553,6.701900000005963],[-0.011249999999999953,-0.23018518518518521,6.71870000001789],[-0.03250000000000005,-0.19296296296296295,6.7380999999940485],[-0.035520833333333356,-0.18611111111111112,6.753300000011919],[-0.035520833333333356,-0.18611111111111112,6.768500000000003],[-0.025520833333333333,-0.17518518518518522,6.7853000000119295],[-0.036249999999999956,-0.15018518518518523,6.802200000017891],[-0.019687499999999976,-0.1638888888888889,6.821099999994047],[-0.003125,-0.17759259259259255,6.836200000017882],[0.02041666666666669,-0.1492592592592593,6.853400000005962],[0.025,-0.1581481481481481,6.869599999994037],[0.02781250000000005,-0.15851851851851856,6.885200000017889],[0.05770833333333331,-0.20703703703703705,6.905000000000001],[0.07937500000000004,-0.24055555555555552,6.920400000005969],[0.10552083333333329,-0.23796296296296296,6.936800000011928],[0.125,-0.2698148148148148,6.952300000011931],[0.15177083333333338,-0.30333333333333334,6.968599999994041],[0.15833333333333333,-0.31740740740740736,6.987599999994046],[0.16541666666666663,-0.33425925925925926,7.004599999994042],[0.18218750000000009,-0.3655555555555555,7.02000000000001],[0.20343749999999997,-0.37962962962962965,7.037099999994041],[0.20979166666666677,-0.3933333333333333,7.05240000000596],[0.21864583333333343,-0.40796296296296297,7.070900000005963],[0.21395833333333342,-0.4398148148148148,7.086200000017882],[0.19895833333333332,-0.4801851851851852,7.104900000005969],[0.19739583333333333,-0.4890740740740741,7.120200000017888],[0.20260416666666667,-0.4988888888888888,7.139300000011929],[0.19489583333333324,-0.495,7.157300000011929],[0.19489583333333324,-0.495,7.168700000017893],[0.1788541666666667,-0.5096296296296297,7.185300000011921],[0.1632291666666667,-0.5070370370370371,7.202300000011931],[0.15041666666666675,-0.5312962962962963,7.2240999999940385],[0.15041666666666675,-0.5312962962962963,7.235400000005967],[0.15437500000000004,-0.5296296296296297,7.252200000017879],[0.1368750000000001,-0.5157407407407407,7.27320000001788],[0.13020833333333334,-0.46592592592592597,7.288400000005964],[0.12354166666666658,-0.4161111111111111,7.307200000017886],[0.10520833333333333,-0.42481481481481476,7.324300000011931],[0.10520833333333333,-0.42481481481481476,7.335300000011927],[0.09302083333333329,-0.4081481481481481,7.352099999994039],[0.07468750000000005,-0.4074074074074074,7.369],[0.06416666666666669,-0.3853703703703704,7.3900999999940495],[0.06875,-0.387037037037037,7.406000000000006],[0.06875,-0.387037037037037,7.418500000000009],[0.05020833333333338,-0.2983333333333334,7.438900000005958],[0.00010416666666669035,-0.20981481481481484,7.455400000005966],[0.00010416666666669035,-0.20981481481481484,7.468599999994041],[-0.02520833333333338,-0.11851851851851852,7.485300000011932],[-0.02520833333333338,-0.11851851851851852,7.501900000005961],[-0.06104166666666669,-0.0514814814814814,7.518599999994038],[-0.08354166666666671,0.032777777777777864,7.535099999994046],[-0.10031249999999996,0.09314814814814806,7.551900000005972],[-0.10375000000000002,0.10425925925925918,7.571099999994047],[-0.1092708333333333,0.13296296296296287,7.587000000000003],[-0.1092708333333333,0.13296296296296287,7.602099999994039],[-0.10510416666666664,0.13777777777777775,7.618499999999997],[-0.12510416666666668,0.17777777777777778,7.635200000017889],[-0.11604166666666664,0.13537037037037042,7.655000000000001],[-0.07635416666666663,0.06629629629629621,7.671599999994044],[-0.05593750000000005,0.019259259259259216,7.688000000000002],[-0.022291666666666644,-0.022222222222222223,7.704800000011929],[-0.001979166666666643,-0.0809259259259259,7.7227000000178805],[0.0125,-0.09222222222222225,7.7395999999940415],[0.0125,-0.09222222222222225,7.752099999994044],[0.02354166666666669,-0.125,7.768599999994038]]","[0.0003000000119186552,0.0589999999999975,0.0685999999940492,0.085800000011929,0.10200000000000387,0.11870000001788128,0.13649999999999807,0.15500000000000114,0.17159999999404363,0.18870000001788867,0.2047000000178798,0.22299999999999898,0.23820000001788344,0.2545000000000073,0.2715000000000032,0.2868000000119224,0.3020000000000067,0.32080000001192843,0.3354000000059614,0.35200000000000387,0.36859999999404636,0.38540000000595853,0.4048000000119316,0.4198000000119322,0.43740000000596524,0.4530999999940377,0.4729000000059642,0.4853000000119323,0.5020999999940443,0.5212000000178847,0.53630000001192,0.5577000000178884,0.5688000000119189,0.5852000000178919,0.6023000000119225,0.6219000000059651,0.6402000000178845,0.656800000011927,0.6688000000119274,0.6887000000178887,0.7050999999940473,0.7189000000059593,0.7384000000059672,0.7563000000119189,0.7722000000178895,0.7927000000178879,0.8023000000119254,0.819500000000005,0.8355000000000103,0.8553000000119226,0.8699000000059698,0.8854000000059585,0.9047000000178826,0.9189000000059622,0.9355000000000047,0.9522000000178821,0.97380000001192,0.9890000000000043,1.0025999999940467,1.0190999999940402,1.037900000005962,1.0565999999940487,1.0722000000178866,1.0892000000178825,1.1047000000178855,1.1185999999940464,1.1353000000119238,1.1545999999940477,1.1685999999940435,1.185300000011921,1.2019000000059634,1.218500000000006,1.2383000000119324,1.254800000011926,1.2704000000059636,1.2854000000059642,1.3055000000000092,1.3209000000059632,1.3359000000059638,1.3553000000119226,1.371300000011928,1.3900000000000006,1.4055000000000035,1.419900000005967,1.4385000000000048,1.453000000000003,1.4690000000000083,1.4853000000119323,1.5020000000000095,1.5213000000119195,1.5365000000000038,1.551900000005972,1.5712000000178818,1.5853000000119266,1.6020999999940386,1.6184999999999974,1.6353000000119238,1.6567000000178922,1.6689000000059622,1.68540000000597,1.702200000017882,1.7244000000059714,1.735400000005967,1.7523000000119282,1.7688000000119217,1.7870000000000061,1.8023000000119254,1.820999999999998,1.83570000001788,1.8520000000000039,1.8685999999940464,1.8853000000119238,1.9058000000119222,1.9185999999940435,1.935300000011921,1.95359999999404,1.9685999999940407,1.98780000001193,2.0035000000000025,2.018700000017887,2.0353000000119295,2.0520000000000067,2.071200000017882,2.0863000000119314,2.101900000005969,2.1214000000059627,2.1412000000178892,2.152200000017885,2.173000000000002,2.188099999994037,2.2039000000059588,2.225400000005962,2.235500000000002,2.2522000000178792,2.272400000005959,2.291599999994048,2.3020999999940415,2.318900000005968,2.3408000000119245,2.3562000000178926,2.372,2.3854000000059585,2.4054000000059688,2.4210999999940412,2.436800000011928,2.4540999999940425,2.473099999994048,2.4853000000119323,2.5020000000000095,2.5238000000119314,2.541700000017883,2.5520999999940415,2.568800000011919,2.5875000000000057,2.6020999999940386,2.618900000005965,2.6409000000059706,2.652200000017885,2.6685999999940435,2.685200000017886,2.701999999999998,2.7185999999940407,2.738400000005967,2.754599999994042,2.7710999999940498,2.7859000000059666,2.801900000005972,2.8208000000119284,2.8355000000000103,2.8539000000059644,2.8700000000000045,2.8855999999940423,2.904400000005964,2.9195999999940483,2.935300000011921,2.952099999994047,2.9685999999940407,2.987599999994046,3.0059000000059655,3.021800000011922,3.0375000000000085,3.05330000001193,3.0720999999940375,3.088200000017892,3.1048000000119202,3.1208000000119256,3.136599999994047,3.155900000005971,3.1725999999940484,3.1887000000178887,3.2043000000119264,3.2197000000178804,3.2383000000119324,3.2543000000119235,3.272400000005959,3.2880999999940457,3.3060999999940464,3.3222000000178866,3.3399000000059686,3.3560999999940435,3.3715999999940465,3.390700000017887,3.405900000005971,3.4187000000178926,3.43540000000597,3.4530999999940377,3.473099999994048,3.4853000000119323,3.5022000000178792,3.5188000000119217,3.5353000000119295,3.5522000000178906,3.570999999999998,3.586700000017885,3.601900000005969,3.6187000000178813,3.639800000011931,3.6557000000178874,3.6685999999940435,3.685300000011921,3.702200000017882,3.7185999999940407,3.7379999999999995,3.7559000000059655,3.773099999994045,3.7883000000119296,3.807800000011923,3.818599999994049,3.8353000000119266,3.8520999999940386,3.8687000000178813,3.885200000017889,3.90530000001192,3.920599999994039,3.935300000011921,3.9519000000059634,3.969999999999999,3.988599999994051,4.004599999994042,4.021000000000001,4.0374000000059596,4.056599999994049,4.071900000005968,4.08680000001192,4.102200000017888,4.118599999994046,4.139599999994047,4.15530000001192,4.172599999994048,4.1885999999940395,4.205099999994047,4.224400000005971,4.235200000017883,4.252200000017879,4.27020000001788,4.287000000000006,4.3020999999940415,4.321099999994047,4.338000000000008,4.355800000011925,4.371000000000009,4.389499999999998,4.4055000000000035,4.4185999999940435,4.435300000011921,4.4540999999940425,4.472900000005964,4.485599999994051,4.5020000000000095,4.518700000017887,4.5353000000119295,4.552500000000009,4.572700000017889,4.588300000011927,4.601900000005969,4.618700000017881,4.636499999999998,4.6555000000000035,4.668500000000009,4.685200000017886,4.702500000000001,4.718599999994041,4.740300000011928,4.76009999999404,4.778800000011927,4.785499999999999,4.8020999999940415,4.820800000011928,4.835200000017892,4.851900000005969,4.868700000017881,4.885200000017889,4.904300000011929,4.918500000000009,4.938500000000005,4.95470000001788,4.968800000011925,4.985400000005967,5.001900000005961,5.018599999994038,5.0353000000119295,5.051900000005972,5.071300000011931,5.088099999994043,5.104599999994051,5.121700000017881,5.135300000011924,5.151900000005966,5.1718000000119275,5.185500000000005,5.201900000005963,5.218599999994041,5.237599999994046,5.2520000000000095,5.268599999994038,5.2852000000178805,5.302000000000007,5.320999999999998,5.335300000011927,5.351900000005969,5.370500000000007,5.3854000000059585,5.404099999994045,5.421500000000009,5.437700000017884,5.454800000011929,5.473500000000001,5.485599999994051,5.502200000017879,5.518900000005971,5.5374000000059596,5.552200000017891,5.570300000011926,5.587200000017887,5.604500000000002,5.620400000005958,5.635200000017889,5.655200000017885,5.669800000011932,5.685099999994037,5.701900000005963,5.718599999994041,5.737700000017881,5.754599999994042,5.771500000000003,5.7874000000059596,5.802000000000007,5.821200000017882,5.836300000011931,5.853599999994046,5.868599999994046,5.885200000017889,5.904499999999999,5.92030000001192,5.935500000000005,5.951999999999998,5.968599999994041,5.987300000011928,6.0020000000000095,6.018700000017887,6.0352000000178805,6.052000000000007,6.070900000005963,6.085200000017892,6.102000000000004,6.118599999994046,6.135200000017889,6.154300000011929,6.169599999994048,6.186599999994044,6.201900000005963,6.218599999994041,6.237599999994046,6.253200000017884,6.271599999994038,6.286400000005969,6.301900000005972,6.3185,6.335300000011927,6.357700000017886,6.368599999994046,6.3854000000059585,6.404599999994048,6.42230000001193,6.43840000000597,6.454599999994045,6.4765999999940504,6.4867000000178905,6.502300000011928,6.518800000011922,6.5352000000178805,6.551900000005972,6.572700000017889,6.585200000017892,6.601900000005969,6.6200000000000045,6.6363000000119285,6.654900000005966,6.669900000005967,6.685200000017886,6.701900000005963,6.71870000001789,6.7380999999940485,6.753300000011919,6.768500000000003,6.7853000000119295,6.802200000017891,6.821099999994047,6.836200000017882,6.853400000005962,6.869599999994037,6.885200000017889,6.905000000000001,6.920400000005969,6.936800000011928,6.952300000011931,6.968599999994041,6.987599999994046,7.004599999994042,7.02000000000001,7.037099999994041,7.05240000000596,7.070900000005963,7.086200000017882,7.104900000005969,7.120200000017888,7.139300000011929,7.157300000011929,7.168700000017893,7.185300000011921,7.202300000011931,7.2240999999940385,7.235400000005967,7.252200000017879,7.27320000001788,7.288400000005964,7.307200000017886,7.324300000011931,7.335300000011927,7.352099999994039,7.369,7.3900999999940495,7.406000000000006,7.418500000000009,7.438900000005958,7.455400000005966,7.468599999994041,7.485300000011932,7.501900000005961,7.518599999994038,7.535099999994046,7.551900000005972,7.571099999994047,7.587000000000003,7.602099999994039,7.618499999999997,7.635200000017889,7.655000000000001,7.671599999994044,7.688000000000002,7.704800000011929,7.7227000000178805,7.7395999999940415,7.752099999994044,7.768599999994038]","[1732692190546,1732692190594,1732692190604,1732692190621,1732692190637,1732692190654,1732692190672,1732692190690,1732692190706,1732692190723,1732692190739,1732692190758,1732692190773,1732692190789,1732692190806,1732692190822,1732692190837,1732692190856,1732692190870,1732692190887,1732692190903,1732692190920,1732692190940,1732692190955,1732692190972,1732692190988,1732692191008,1732692191020,1732692191037,1732692191056,1732692191071,1732692191093,1732692191104,1732692191120,1732692191137,1732692191157,1732692191175,1732692191192,1732692191204,1732692191223,1732692191240,1732692191254,1732692191273,1732692191291,1732692191307,1732692191327,1732692191337,1732692191354,1732692191370,1732692191390,1732692191405,1732692191420,1732692191440,1732692191454,1732692191470,1732692191487,1732692191509,1732692191524,1732692191537,1732692191554,1732692191573,1732692191591,1732692191607,1732692191624,1732692191639,1732692191653,1732692191670,1732692191689,1732692191703,1732692191720,1732692191737,1732692191753,1732692191773,1732692191790,1732692191805,1732692191820,1732692191840,1732692191856,1732692191871,1732692191890,1732692191906,1732692191925,1732692191940,1732692191955,1732692191973,1732692191988,1732692192004,1732692192020,1732692192037,1732692192056,1732692192071,1732692192087,1732692192106,1732692192120,1732692192137,1732692192153,1732692192170,1732692192191,1732692192204,1732692192220,1732692192237,1732692192259,1732692192270,1732692192287,1732692192304,1732692192322,1732692192337,1732692192356,1732692192371,1732692192387,1732692192403,1732692192420,1732692192441,1732692192453,1732692192470,1732692192488,1732692192503,1732692192523,1732692192538,1732692192554,1732692192570,1732692192587,1732692192606,1732692192621,1732692192637,1732692192656,1732692192676,1732692192687,1732692192708,1732692192723,1732692192739,1732692192760,1732692192770,1732692192787,1732692192807,1732692192826,1732692192837,1732692192854,1732692192876,1732692192891,1732692192907,1732692192920,1732692192940,1732692192956,1732692192972,1732692192989,1732692193008,1732692193020,1732692193037,1732692193059,1732692193077,1732692193087,1732692193104,1732692193122,1732692193137,1732692193154,1732692193176,1732692193187,1732692193203,1732692193220,1732692193237,1732692193253,1732692193273,1732692193289,1732692193306,1732692193321,1732692193337,1732692193356,1732692193370,1732692193389,1732692193405,1732692193420,1732692193439,1732692193454,1732692193470,1732692193487,1732692193503,1732692193522,1732692193541,1732692193557,1732692193572,1732692193588,1732692193607,1732692193623,1732692193640,1732692193656,1732692193671,1732692193691,1732692193707,1732692193724,1732692193739,1732692193755,1732692193773,1732692193789,1732692193807,1732692193823,1732692193841,1732692193857,1732692193875,1732692193891,1732692193906,1732692193926,1732692193941,1732692193953,1732692193970,1732692193988,1732692194008,1732692194020,1732692194037,1732692194054,1732692194070,1732692194087,1732692194106,1732692194121,1732692194137,1732692194154,1732692194175,1732692194190,1732692194203,1732692194220,1732692194237,1732692194253,1732692194273,1732692194291,1732692194308,1732692194323,1732692194343,1732692194353,1732692194370,1732692194387,1732692194403,1732692194420,1732692194440,1732692194455,1732692194470,1732692194487,1732692194505,1732692194523,1732692194539,1732692194556,1732692194572,1732692194591,1732692194607,1732692194622,1732692194637,1732692194653,1732692194674,1732692194690,1732692194707,1732692194723,1732692194740,1732692194759,1732692194770,1732692194787,1732692194805,1732692194822,1732692194837,1732692194856,1732692194873,1732692194891,1732692194906,1732692194924,1732692194940,1732692194953,1732692194970,1732692194989,1732692195008,1732692195020,1732692195037,1732692195053,1732692195070,1732692195087,1732692195107,1732692195123,1732692195137,1732692195153,1732692195171,1732692195190,1732692195203,1732692195220,1732692195237,1732692195253,1732692195275,1732692195295,1732692195314,1732692195320,1732692195337,1732692195356,1732692195370,1732692195387,1732692195403,1732692195420,1732692195439,1732692195453,1732692195473,1732692195489,1732692195504,1732692195520,1732692195537,1732692195553,1732692195570,1732692195587,1732692195606,1732692195623,1732692195639,1732692195656,1732692195670,1732692195687,1732692195707,1732692195720,1732692195737,1732692195753,1732692195772,1732692195787,1732692195803,1732692195820,1732692195837,1732692195856,1732692195870,1732692195887,1732692195905,1732692195920,1732692195939,1732692195956,1732692195972,1732692195990,1732692196008,1732692196020,1732692196037,1732692196054,1732692196072,1732692196087,1732692196105,1732692196122,1732692196139,1732692196155,1732692196170,1732692196190,1732692196205,1732692196220,1732692196237,1732692196253,1732692196273,1732692196289,1732692196306,1732692196322,1732692196337,1732692196356,1732692196371,1732692196388,1732692196403,1732692196420,1732692196439,1732692196455,1732692196470,1732692196487,1732692196503,1732692196522,1732692196537,1732692196553,1732692196570,1732692196587,1732692196606,1732692196620,1732692196637,1732692196653,1732692196670,1732692196689,1732692196704,1732692196721,1732692196737,1732692196753,1732692196772,1732692196788,1732692196806,1732692196821,1732692196837,1732692196853,1732692196870,1732692196892,1732692196903,1732692196920,1732692196939,1732692196957,1732692196973,1732692196989,1732692197011,1732692197022,1732692197037,1732692197054,1732692197070,1732692197087,1732692197108,1732692197120,1732692197137,1732692197155,1732692197171,1732692197190,1732692197205,1732692197220,1732692197237,1732692197253,1732692197273,1732692197288,1732692197304,1732692197320,1732692197337,1732692197356,1732692197371,1732692197388,1732692197405,1732692197420,1732692197440,1732692197455,1732692197472,1732692197487,1732692197503,1732692197522,1732692197539,1732692197555,1732692197572,1732692197587,1732692197606,1732692197621,1732692197640,1732692197655,1732692197674,1732692197692,1732692197703,1732692197720,1732692197737,1732692197759,1732692197770,1732692197787,1732692197808,1732692197823,1732692197842,1732692197859,1732692197870,1732692197887,1732692197904,1732692197925,1732692197941,1732692197953,1732692197974,1732692197990,1732692198003,1732692198020,1732692198037,1732692198053,1732692198070,1732692198087,1732692198106,1732692198122,1732692198137,1732692198153,1732692198170,1732692198190,1732692198206,1732692198223,1732692198240,1732692198257,1732692198274,1732692198287,1732692198303]","[[889.4,445.1],[889.4,445.1],[894,447.3],[911.9,422.6],[911.9,422.6],[918.2,401.5],[926.1,415.7],[906.2,404],[881.3,396.8],[883,412.3],[884.7,427.8],[879,455.4],[869.4,478.2],[860.7,484.7],[839.2,507.9],[820.6,533.3],[804.8,529.3],[816,543.1],[832.2,552.4],[832.2,552.4],[824,541],[813.8,539.5],[818.7,540.7],[831,544.1],[827.8,537.1],[812.4,519],[814,506.2],[814,506.2],[801,490.3],[784.2,469.5],[781.6,458.3],[790.2,464],[790.2,464],[801.7,458.6],[805.8,430.1],[786.3,407.6],[788.3,399.2],[781.8,426.6],[781.8,426.6],[773.7,445.5],[774.4,458.6],[774.4,458.6],[749.8,473.4],[729.2,468.3],[708,464.5],[689.2,455.5],[689.2,455.5],[699.4,462.6],[699.4,462.6],[709.5,479.5],[735.5,466],[743.4,450.3],[733,435.6],[744.1,421.6],[784.4,413.3],[803.4,413.4],[813.1,404.4],[823.5,400.5],[823.5,400.5],[802,414.7],[809.5,401.9],[775.1,428.9],[762.7,444.4],[761.3,454.7],[744.8,465.2],[733.3,469.3],[724.9,475.3],[749.6,480.2],[749.6,480.2],[795.2,480.5],[828.6,483.2],[836.9,498.9],[854.4,499.1],[867,467.1],[866.6,425.5],[875.3,399.2],[875.1,371.9],[871.7,364.5],[854.9,355.2],[813.2,351.8],[785.7,337.6],[805,319.6],[824.3,301.6],[838.4,298.3],[872.6,340.2],[902.2,360.1],[919.9,382.7],[919.9,382.7],[947.3,379.1],[979.7,387.7],[1014.9,401],[1055.9,414],[1062.5,426.8],[1066.3,447.4],[1090.4,466.6],[1092.5,462.1],[1086.4,478.8],[1072.2,479.4],[1072.2,479.4],[1049.5,484.4],[1006.8,503.2],[961.3,517.3],[961.3,517.3],[918.3,505.4],[918.3,505.4],[863.7,501.5],[839.9,498.2],[808.9,498.8],[781.8,492.7],[781.8,492.7],[762.3,477.6],[756.1,475.2],[751.9,474.7],[751.9,474.7],[768.8,457.5],[771.8,438.1],[774.8,442.3],[784.4,450.9],[766,451.1],[766,451.1],[757.2,450.6],[777.8,444.4],[793.9,440.7],[823,425.4],[823,425.4],[849.9,424.5],[842.1,417.9],[842.1,417.9],[866.6,414.4],[881.8,409.1],[902,391.4],[894.7,375.8],[894.7,375.8],[919.3,370.7],[939.4,369.8],[961,359.9],[961,359.9],[952.2,370.1],[954.4,365.6],[957.5,362],[938.5,355.4],[938.5,355.4],[941.7,349.8],[955.6,341.2],[996.3,333.3],[996.4,338.4],[971.6,345],[971.6,345],[957.1,348.9],[963.4,334.7],[974,327.6],[974,327.6],[1011,337.6],[1051.7,349.7],[1051.7,349.7],[1066.3,347.7],[1043.3,358.3],[1043.3,358.3],[1081.4,365.9],[1081.4,365.9],[1106.7,357.1],[1152.5,341.5],[1186.5,337.6],[1183.1,351.3],[1166.6,358.2],[1124.1,385.8],[1081.6,413.4],[1045.8,443.7],[1036.9,464.4],[957.1,490.8],[906.7,512.9],[830.8,545.8],[754.9,578.7],[698.8,608.6],[698.8,608.6],[641,635.7],[605.5,632.9],[570,630.1],[544,614.4],[522.6,628.8],[509.2,635.7],[495.1,638.2],[486,636.7],[460.5,642.6],[455.9,644.2],[460.7,654.7],[461.1,666.5],[458.5,665.3],[452.9,689.2],[438,692.6],[425.6,698],[420.3,703.5],[415,704.3],[431.4,697.5],[447.8,690.7],[446.7,688.5],[447.8,682.8],[459.1,707.6],[460.1,723.4],[478.1,749.5],[499.2,783.3],[508.5,806.2],[517.8,833.8],[517.8,833.8],[553,837.3],[590.2,849.7],[642.8,851.4],[642.8,851.4],[706.3,846.4],[706.3,846.4],[760.7,824.7],[820.3,824.9],[865.6,797.6],[914.2,748.6],[914.2,748.6],[959.9,716.5],[1010,702.1],[1032.2,681],[1032.2,681],[1052.4,651],[1075.6,604.2],[1084.7,566],[1088.2,522],[1097.8,474.2],[1109.4,434],[1115.2,400.1],[1125.6,366.4],[1125.6,366.4],[1135.7,320.9],[1135.7,320.9],[1143.7,305.9],[1141.2,287.2],[1130.1,285.3],[1132,289.5],[1132,289.5],[1141.4,298.7],[1147,298.9],[1147.6,293.6],[1147.6,296],[1146.6,309.6],[1141.5,317.3],[1130.3,319.1],[1123,320.8],[1120,319.1],[1104,311.3],[1088,303.5],[1073,296.5],[1057.9,306.9],[1042.8,317.3],[1035.2,308.9],[1027.6,300.5],[1027.5,298],[1027.5,298],[1034,299.3],[1030.4,297.2],[1031.4,296.7],[1032.4,296.2],[1024.4,304.9],[1021.5,301.7],[1027.6,297.2],[1026.2,296.6],[1020.3,313.4],[1008.4,326.7],[1008.4,326.7],[1005.5,344.6],[1000.4,365],[990.7,383.8],[990.7,383.8],[984.6,402.7],[984.6,402.7],[989.3,411.5],[1006.9,416.9],[1009.9,411.9],[1007.9,436],[1007.9,436],[1010.4,442.7],[1017.4,454.5],[976.4,478.4],[976.4,478.4],[943.4,506.6],[918.4,532.1],[893.4,557.9],[868.4,583.7],[868.4,583.7],[818,614.8],[818,614.8],[772.5,664.6],[746.8,677],[721.1,689.4],[693.8,703.4],[705.5,700.7],[711.7,694.5],[709.9,691],[704.5,687.1],[717.1,688.3],[737.3,691.3],[737.3,691.3],[758.2,687.3],[772.1,700.3],[772.1,700.3],[783.6,707.7],[787.5,711.5],[791.4,715.3],[816.8,714.3],[849.9,721],[871.5,725.9],[871.5,725.9],[866.4,733.5],[857.7,728.4],[851.9,721.2],[856.7,718.4],[855.1,727.8],[861.6,738.1],[862.2,734.8],[841.9,730.1],[818.8,707.3],[807.2,686.3],[804.3,657.5],[803,625.4],[798.8,595.4],[768.7,563.5],[800.8,509.5],[832.9,455.5],[834.1,441.3],[875.8,433.8],[876.3,448.9],[876.3,448.9],[904.8,439],[904.8,439],[906.9,447.9],[903.5,470.6],[890,499.3],[885,520.5],[840.7,552.8],[828.2,555],[835,542.5],[805.9,539.9],[828.7,510.1],[823.5,505.3],[841.6,484.9],[872.1,463],[896,447.8],[911.1,427.9],[920.9,405.9],[867.1,423.7],[851.4,435],[841.5,426.6],[799.3,450.8],[757.1,475],[750.4,481.1],[743.7,487.2],[736.5,475.1],[753.3,457.6],[741.3,454.3],[741.3,454.3],[751.3,447.4],[788.2,430.4],[794.2,441.1],[816.9,434.2],[851.3,420.4],[853.2,427.1],[867.1,435],[898.2,448.4],[920.3,471.5],[962.4,486.9],[1007.5,495],[1023.7,511.9],[1060.9,511.3],[1098.1,510.7],[1128.9,512.9],[1159.8,509.5],[1179.7,509.4],[1199.6,509.3],[1208.4,498.9],[1205.9,501.8],[1230.8,499.1],[1223.2,489.3],[1223.2,489.3],[1207.8,479],[1201.9,482.6],[1201.9,482.6],[1181,476.3],[1151.7,473.5],[1123.4,461.9],[1097.6,449.4],[1074.7,441.5],[1071.6,417.4],[1071.6,417.4],[1061.8,379.7],[1061.8,379.7],[1056.2,363.3],[1050.9,351.5],[1030,342.2],[1030,342.2],[1025.2,340.7],[1022,346.1],[1016.8,355.8],[998.9,349.6],[996.9,360.3],[996.9,360.3],[987.2,369.6],[949.2,415.7],[928.8,435.8],[925.9,439.5],[925.9,439.5],[935.5,445.4],[925.2,458.9],[941.1,451.5],[957,444.1],[979.6,459.4],[984,454.6],[986.7,454.4],[1015.4,428.2],[1036.2,410.1],[1061.3,411.5],[1080,394.3],[1105.7,376.2],[1112,368.6],[1118.8,359.5],[1134.9,342.6],[1155.3,335],[1161.4,327.6],[1169.9,319.7],[1165.4,302.5],[1151,280.7],[1149.5,275.9],[1154.5,270.6],[1147.1,272.7],[1147.1,272.7],[1131.7,264.8],[1116.7,266.2],[1104.4,253.1],[1104.4,253.1],[1108.2,254],[1091.4,261.5],[1085,288.4],[1078.6,315.3],[1061,310.6],[1061,310.6],[1049.3,319.6],[1031.7,320],[1021.6,331.9],[1026,331],[1026,331],[1008.2,378.9],[960.1,426.7],[960.1,426.7],[935.8,476],[935.8,476],[901.4,512.2],[879.8,557.7],[863.7,590.3],[860.4,596.3],[855.1,611.8],[855.1,611.8],[859.1,614.4],[839.9,636],[848.6,613.1],[886.7,575.8],[906.3,550.4],[938.6,528],[958.1,496.3],[972,490.2],[972,490.2],[982.6,472.5]]","[-0.142,0.42599999999999993]","[0.142,0.42599999999999993]","[0.42599999999999993,0.42599999999999993]","[-0.42599999999999993,0.142]","[-0.42599999999999993,-0.142]","[-0.42599999999999993,-0.42599999999999993]","[-0.142,0.142]","[0.142,0.142]","[0.42599999999999993,0.142]","[-0.142,-0.142]","[0.142,-0.142]","[0.42599999999999993,-0.142]","[-0.142,-0.42599999999999993]","[0.142,-0.42599999999999993]","[0.42599999999999993,-0.42599999999999993]",0,0,0,0,1,4,Laptop,25,20,8,1,60,4,1,60,3
