inst1_resp.keys,inst1_resp.rt,calibrationMouse.x,calibrationMouse.y,calibrationMouse.leftButton,calibrationMouse.midButton,calibrationMouse.rightButton,calibrationClick.x,calibrationClick.y,calibrationClick.leftButton,calibrationClick.midButton,calibrationClick.rightButton,trialsc.thisRepN,trialsc.thisTrialN,trialsc.thisN,trialsc.thisIndex,trialsc.ran,calibration_x,calibration_y,participant,session,date,expName,psychopyVersion,OS,frameRate,ScreenRes_pixels,Camera_pixels,mouse_2.x,mouse_2.y,mouse_2.leftButton,mouse_2.midButton,mouse_2.rightButton,mouse_2.time,mouse_2.clicked_name,mouse.x,mouse.y,mouse.leftButton,mouse.midButton,mouse.rightButton,mouse.time,mouse.clicked_name,Choice,Trial,TrialDuration,MOUSE_GAZE,ET_GAZE,ET_GAZE_x_T,time,unixTime,ET_GAZE_NF,Loc_Bus_label,Loc_Metro_label,Loc_RH_label,Loc_Cost_label,Loc_Travel_label,Loc_Comfort_label,Loc_Bus_cost,Loc_Metro_cost,Loc_RH_cost,Loc_Bus_travel,Loc_Metro_travel,Loc_RH_travel,Loc_Bus_comfort,Loc_Metro_comfort,Loc_RH_comfort,trials.thisRepN,trials.thisTrialN,trials.thisN,trials.thisIndex,trials.ran,Block,Device,RH_cost,RH_travel_time,RH_Comfort,metro_cost,metro_travel_time,metro_Comfort,Bus_cost,Bus_travel_time,Bus_Comfort
space,4.4532,0.313541667,0.374074074,1,0,0,0.313541667,0.374074074,0,0,0,0,0,0,4,1,-0.33,-0.67,26,001,2024-11-18_12h05.25.719,Attention_exp_legacy,2023.1.0,Win32,60.60606061,,,,,,,,,,,,,,,,,,,,,,,,,,,,,,,,,,,,,,,,,,,,,,,,,,,,,,,,
,,,,,,,0.29375,0.331481481,0,0,0,0,1,1,17,1,0.33,0.33,26,001,2024-11-18_12h05.25.719,Attention_exp_legacy,2023.1.0,Win32,60.60606061,,,,,,,,,,,,,,,,,,,,,,,,,,,,,,,,,,,,,,,,,,,,,,,,,,,,,,,,
,,,,,,,0.29375,0.331481481,0,0,0,0,2,2,14,1,0.33,-0.67,26,001,2024-11-18_12h05.25.719,Attention_exp_legacy,2023.1.0,Win32,60.60606061,,,,,,,,,,,,,,,,,,,,,,,,,,,,,,,,,,,,,,,,,,,,,,,,,,,,,,,,
,,,,,,,0.29375,0.331481481,0,0,0,0,3,3,3,1,-0.67,0.33,26,001,2024-11-18_12h05.25.719,Attention_exp_legacy,2023.1.0,Win32,60.60606061,,,,,,,,,,,,,,,,,,,,,,,,,,,,,,,,,,,,,,,,,,,,,,,,,,,,,,,,
,,,,,,,0.29375,0.331481481,0,0,0,0,4,4,12,1,0,0.33,26,001,2024-11-18_12h05.25.719,Attention_exp_legacy,2023.1.0,Win32,60.60606061,,,,,,,,,,,,,,,,,,,,,,,,,,,,,,,,,,,,,,,,,,,,,,,,,,,,,,,,
,,,,,,,0.29375,0.331481481,0,0,0,0,5,5,8,1,-0.33,0.67,26,001,2024-11-18_12h05.25.719,Attention_exp_legacy,2023.1.0,Win32,60.60606061,,,,,,,,,,,,,,,,,,,,,,,,,,,,,,,,,,,,,,,,,,,,,,,,,,,,,,,,
,,,,,,,0.29375,0.331481481,0,0,0,0,6,6,15,1,0.33,-0.33,26,001,2024-11-18_12h05.25.719,Attention_exp_legacy,2023.1.0,Win32,60.60606061,,,,,,,,,,,,,,,,,,,,,,,,,,,,,,,,,,,,,,,,,,,,,,,,,,,,,,,,
,,,,,,,0.29375,0.331481481,0,0,0,0,7,7,7,1,-0.33,0.33,26,001,2024-11-18_12h05.25.719,Attention_exp_legacy,2023.1.0,Win32,60.60606061,,,,,,,,,,,,,,,,,,,,,,,,,,,,,,,,,,,,,,,,,,,,,,,,,,,,,,,,
,,,,,,,0.29375,0.331481481,0,0,0,0,8,8,1,1,-0.67,-0.33,26,001,2024-11-18_12h05.25.719,Attention_exp_legacy,2023.1.0,Win32,60.60606061,,,,,,,,,,,,,,,,,,,,,,,,,,,,,,,,,,,,,,,,,,,,,,,,,,,,,,,,
,,,,,,,0.29375,0.331481481,0,0,0,0,9,9,13,1,0,0.67,26,001,2024-11-18_12h05.25.719,Attention_exp_legacy,2023.1.0,Win32,60.60606061,,,,,,,,,,,,,,,,,,,,,,,,,,,,,,,,,,,,,,,,,,,,,,,,,,,,,,,,
,,,,,,,0.29375,0.331481481,0,0,0,0,10,10,11,1,0,0,26,001,2024-11-18_12h05.25.719,Attention_exp_legacy,2023.1.0,Win32,60.60606061,,,,,,,,,,,,,,,,,,,,,,,,,,,,,,,,,,,,,,,,,,,,,,,,,,,,,,,,
,,,,,,,0.29375,0.331481481,0,0,0,0,11,11,18,1,0.33,0.67,26,001,2024-11-18_12h05.25.719,Attention_exp_legacy,2023.1.0,Win32,60.60606061,,,,,,,,,,,,,,,,,,,,,,,,,,,,,,,,,,,,,,,,,,,,,,,,,,,,,,,,
,,,,,,,0.29375,0.331481481,0,0,0,0,12,12,19,1,0.67,0.67,26,001,2024-11-18_12h05.25.719,Attention_exp_legacy,2023.1.0,Win32,60.60606061,,,,,,,,,,,,,,,,,,,,,,,,,,,,,,,,,,,,,,,,,,,,,,,,,,,,,,,,
,,,,,,,0.29375,0.331481481,0,0,0,0,13,13,9,1,0,-0.67,26,001,2024-11-18_12h05.25.719,Attention_exp_legacy,2023.1.0,Win32,60.60606061,,,,,,,,,,,,,,,,,,,,,,,,,,,,,,,,,,,,,,,,,,,,,,,,,,,,,,,,
,,,,,,,0.29375,0.331481481,0,0,0,0,14,14,6,1,-0.33,0,26,001,2024-11-18_12h05.25.719,Attention_exp_legacy,2023.1.0,Win32,60.60606061,,,,,,,,,,,,,,,,,,,,,,,,,,,,,,,,,,,,,,,,,,,,,,,,,,,,,,,,
,,,,,,,0.29375,0.331481481,0,0,0,0,15,15,5,1,-0.33,-0.33,26,001,2024-11-18_12h05.25.719,Attention_exp_legacy,2023.1.0,Win32,60.60606061,,,,,,,,,,,,,,,,,,,,,,,,,,,,,,,,,,,,,,,,,,,,,,,,,,,,,,,,
,,,,,,,0.29375,0.331481481,0,0,0,0,16,16,16,1,0.33,0,26,001,2024-11-18_12h05.25.719,Attention_exp_legacy,2023.1.0,Win32,60.60606061,,,,,,,,,,,,,,,,,,,,,,,,,,,,,,,,,,,,,,,,,,,,,,,,,,,,,,,,
,,,,,,,0.29375,0.331481481,0,0,0,0,17,17,2,1,-0.67,0,26,001,2024-11-18_12h05.25.719,Attention_exp_legacy,2023.1.0,Win32,60.60606061,,,,,,,,,,,,,,,,,,,,,,,,,,,,,,,,,,,,,,,,,,,,,,,,,,,,,,,,
,,,,,,,0.29375,0.331481481,0,0,0,0,18,18,20,1,0.67,-0.67,26,001,2024-11-18_12h05.25.719,Attention_exp_legacy,2023.1.0,Win32,60.60606061,,,,,,,,,,,,,,,,,,,,,,,,,,,,,,,,,,,,,,,,,,,,,,,,,,,,,,,,
,,,,,,,0.29375,0.331481481,0,0,0,0,19,19,0,1,-0.67,-0.67,26,001,2024-11-18_12h05.25.719,Attention_exp_legacy,2023.1.0,Win32,60.60606061,,,,,,,,,,,,,,,,,,,,,,,,,,,,,,,,,,,,,,,,,,,,,,,,,,,,,,,,
,,,,,,,0.29375,0.331481481,0,0,0,0,20,20,10,1,0,-0.33,26,001,2024-11-18_12h05.25.719,Attention_exp_legacy,2023.1.0,Win32,60.60606061,,,,,,,,,,,,,,,,,,,,,,,,,,,,,,,,,,,,,,,,,,,,,,,,,,,,,,,,
,,,,,,,,,,,,,,,,,,,26,001,2024-11-18_12h05.25.719,Attention_exp_legacy,2023.1.0,Win32,60.60606061,"[1920,1080]","[640,480]",[0.027083333333333334],[-0.47962962962962963],[1],[0],[0],[6.1832000002861065],"[""StartButton""]",[-0.09479166666666666],[0.4222222222222222],[1],[0],[0],[4.869799999713891],"[""Bus_label""]",Bus_label,1,5.8944,"[[-0.015625,-0.4759259259259259],[-0.015625,-0.4759259259259259],[-0.015625,-0.4759259259259259],[-0.015625,-0.4759259259259259],[-0.015625,-0.4759259259259259],[-0.015625,-0.4759259259259259],[-0.015625,-0.4759259259259259],[-0.015625,-0.4759259259259259],[-0.015625,-0.4759259259259259],[-0.015625,-0.4759259259259259],[-0.015625,-0.4759259259259259],[-0.015625,-0.4759259259259259],[-0.015625,-0.4759259259259259],[-0.015625,-0.4759259259259259],[-0.015625,-0.4759259259259259],[-0.015625,-0.4759259259259259],[-0.015625,-0.4759259259259259],[-0.015625,-0.4759259259259259],[-0.015625,-0.4759259259259259],[-0.015625,-0.4759259259259259],[-0.015625,-0.4759259259259259],[-0.015625,-0.4759259259259259],[-0.015625,-0.4759259259259259],[-0.015625,-0.4759259259259259],[-0.015625,-0.4759259259259259],[-0.015625,-0.4759259259259259],[-0.015625,-0.4759259259259259],[-0.015625,-0.4759259259259259],[-0.015625,-0.4759259259259259],[-0.015625,-0.4759259259259259],[-0.015625,-0.4759259259259259],[-0.015625,-0.4759259259259259],[-0.015625,-0.4759259259259259],[-0.015625,-0.4759259259259259],[-0.015625,-0.4759259259259259],[-0.015625,-0.4759259259259259],[-0.015625,-0.4759259259259259],[-0.015625,-0.4759259259259259],[-0.015625,-0.4759259259259259],[-0.015625,-0.4759259259259259],[-0.015625,-0.4759259259259259],[-0.015625,-0.4759259259259259],[-0.015625,-0.4759259259259259],[-0.015625,-0.4759259259259259],[-0.015625,-0.4759259259259259],[-0.015625,-0.4759259259259259],[-0.015625,-0.4759259259259259],[-0.015625,-0.4759259259259259],[-0.015625,-0.4759259259259259],[-0.015625,-0.4759259259259259],[-0.015625,-0.4759259259259259],[-0.015625,-0.4759259259259259],[-0.015625,-0.4759259259259259],[-0.015625,-0.4759259259259259],[-0.015625,-0.4759259259259259],[-0.015625,-0.4759259259259259],[-0.015625,-0.4759259259259259],[-0.01875,-0.4685185185185185],[-0.020833333333333332,-0.44074074074074077],[-0.026041666666666668,-0.40925925925925927],[-0.03125,-0.3814814814814815],[-0.035416666666666666,-0.3537037037037037],[-0.041666666666666664,-0.3148148148148148],[-0.04583333333333333,-0.28888888888888886],[-0.05,-0.26851851851851855],[-0.051041666666666666,-0.24814814814814815],[-0.05416666666666667,-0.22777777777777777],[-0.05520833333333333,-0.2111111111111111],[-0.05625,-0.1962962962962963],[-0.05625,-0.18333333333333332],[-0.05625,-0.17777777777777778],[-0.05625,-0.17592592592592593],[-0.05625,-0.16666666666666666],[-0.05625,-0.1574074074074074],[-0.05625,-0.15185185185185185],[-0.05625,-0.1388888888888889],[-0.05625,-0.12962962962962962],[-0.05520833333333333,-0.12407407407407407],[-0.05520833333333333,-0.11481481481481481],[-0.05416666666666667,-0.10925925925925926],[-0.053125,-0.1037037037037037],[-0.053125,-0.09814814814814815],[-0.052083333333333336,-0.0962962962962963],[-0.051041666666666666,-0.09259259259259259],[-0.051041666666666666,-0.09074074074074075],[-0.051041666666666666,-0.08703703703703704],[-0.051041666666666666,-0.08518518518518518],[-0.051041666666666666,-0.08148148148148149],[-0.051041666666666666,-0.07962962962962963],[-0.051041666666666666,-0.07407407407407407],[-0.05,-0.07037037037037037],[-0.04791666666666667,-0.06296296296296296],[-0.04791666666666667,-0.05925925925925926],[-0.046875,-0.05555555555555555],[-0.04583333333333333,-0.05],[-0.04583333333333333,-0.044444444444444446],[-0.04479166666666667,-0.03888888888888889],[-0.04375,-0.03518518518518519],[-0.04375,-0.03148148148148148],[-0.042708333333333334,-0.027777777777777776],[-0.042708333333333334,-0.025925925925925925],[-0.042708333333333334,-0.025925925925925925],[-0.042708333333333334,-0.025925925925925925],[-0.042708333333333334,-0.025925925925925925],[-0.042708333333333334,-0.025925925925925925],[-0.042708333333333334,-0.025925925925925925],[-0.042708333333333334,-0.025925925925925925],[-0.042708333333333334,-0.025925925925925925],[-0.042708333333333334,-0.025925925925925925],[-0.042708333333333334,-0.025925925925925925],[-0.042708333333333334,-0.025925925925925925],[-0.042708333333333334,-0.025925925925925925],[-0.042708333333333334,-0.025925925925925925],[-0.042708333333333334,-0.025925925925925925],[-0.042708333333333334,-0.025925925925925925],[-0.042708333333333334,-0.025925925925925925],[-0.042708333333333334,-0.025925925925925925],[-0.042708333333333334,-0.025925925925925925],[-0.042708333333333334,-0.025925925925925925],[-0.042708333333333334,-0.025925925925925925],[-0.042708333333333334,-0.025925925925925925],[-0.042708333333333334,-0.025925925925925925],[-0.042708333333333334,-0.025925925925925925],[-0.042708333333333334,-0.025925925925925925],[-0.042708333333333334,-0.025925925925925925],[-0.042708333333333334,-0.025925925925925925],[-0.042708333333333334,-0.025925925925925925],[-0.042708333333333334,-0.025925925925925925],[-0.042708333333333334,-0.025925925925925925],[-0.042708333333333334,-0.025925925925925925],[-0.042708333333333334,-0.025925925925925925],[-0.042708333333333334,-0.025925925925925925],[-0.042708333333333334,-0.025925925925925925],[-0.042708333333333334,-0.025925925925925925],[-0.042708333333333334,-0.025925925925925925],[-0.042708333333333334,-0.025925925925925925],[-0.042708333333333334,-0.025925925925925925],[-0.042708333333333334,-0.025925925925925925],[-0.042708333333333334,-0.025925925925925925],[-0.042708333333333334,-0.025925925925925925],[-0.042708333333333334,-0.025925925925925925],[-0.042708333333333334,-0.025925925925925925],[-0.042708333333333334,-0.025925925925925925],[-0.042708333333333334,-0.025925925925925925],[-0.042708333333333334,-0.025925925925925925],[-0.042708333333333334,-0.025925925925925925],[-0.042708333333333334,-0.025925925925925925],[-0.042708333333333334,-0.025925925925925925],[-0.042708333333333334,-0.025925925925925925],[-0.042708333333333334,-0.025925925925925925],[-0.042708333333333334,-0.025925925925925925],[-0.042708333333333334,-0.025925925925925925],[-0.042708333333333334,-0.025925925925925925],[-0.042708333333333334,-0.025925925925925925],[-0.042708333333333334,-0.025925925925925925],[-0.042708333333333334,-0.025925925925925925],[-0.042708333333333334,-0.025925925925925925],[-0.042708333333333334,-0.025925925925925925],[-0.042708333333333334,-0.025925925925925925],[-0.042708333333333334,-0.025925925925925925],[-0.042708333333333334,-0.025925925925925925],[-0.042708333333333334,-0.025925925925925925],[-0.042708333333333334,-0.025925925925925925],[-0.042708333333333334,-0.025925925925925925],[-0.042708333333333334,-0.025925925925925925],[-0.042708333333333334,-0.025925925925925925],[-0.042708333333333334,-0.025925925925925925],[-0.042708333333333334,-0.025925925925925925],[-0.042708333333333334,-0.025925925925925925],[-0.042708333333333334,-0.025925925925925925],[-0.042708333333333334,-0.025925925925925925],[-0.042708333333333334,-0.025925925925925925],[-0.042708333333333334,-0.025925925925925925],[-0.042708333333333334,-0.025925925925925925],[-0.042708333333333334,-0.025925925925925925],[-0.042708333333333334,-0.025925925925925925],[-0.041666666666666664,-0.024074074074074074],[-0.041666666666666664,-0.022222222222222223],[-0.041666666666666664,-0.020370370370370372],[-0.041666666666666664,-0.016666666666666666],[-0.041666666666666664,-0.012962962962962963],[-0.040625,-0.005555555555555556],[-0.040625,0],[-0.040625,0.009259259259259259],[-0.040625,0.016666666666666666],[-0.040625,0.03518518518518519],[-0.040625,0.05],[-0.040625,0.06111111111111111],[-0.041666666666666664,0.07592592592592592],[-0.042708333333333334,0.08333333333333333],[-0.04479166666666667,0.09074074074074075],[-0.04583333333333333,0.10185185185185185],[-0.04583333333333333,0.10555555555555556],[-0.04583333333333333,0.10925925925925926],[-0.04791666666666667,0.11666666666666667],[-0.04895833333333333,0.11851851851851852],[-0.05,0.12222222222222222],[-0.05,0.12407407407407407],[-0.051041666666666666,0.12777777777777777],[-0.051041666666666666,0.12962962962962962],[-0.051041666666666666,0.13148148148148148],[-0.052083333333333336,0.13148148148148148],[-0.052083333333333336,0.13148148148148148],[-0.052083333333333336,0.13333333333333333],[-0.052083333333333336,0.13703703703703704],[-0.052083333333333336,0.1388888888888889],[-0.052083333333333336,0.1425925925925926],[-0.053125,0.15],[-0.05520833333333333,0.15925925925925927],[-0.05520833333333333,0.1648148148148148],[-0.05520833333333333,0.17222222222222222],[-0.05520833333333333,0.1814814814814815],[-0.05520833333333333,0.19444444444444445],[-0.05625,0.2111111111111111],[-0.057291666666666664,0.22592592592592592],[-0.059375,0.24259259259259258],[-0.06041666666666667,0.25555555555555554],[-0.06145833333333333,0.26666666666666666],[-0.06145833333333333,0.2777777777777778],[-0.06458333333333334,0.28703703703703703],[-0.065625,0.3],[-0.06666666666666667,0.3055555555555556],[-0.06770833333333333,0.30925925925925923],[-0.06875,0.31296296296296294],[-0.07083333333333333,0.32037037037037036],[-0.071875,0.32407407407407407],[-0.07291666666666667,0.3296296296296296],[-0.075,0.337037037037037],[-0.07604166666666666,0.34444444444444444],[-0.07916666666666666,0.35555555555555557],[-0.08229166666666667,0.3685185185185185],[-0.08541666666666667,0.38333333333333336],[-0.08958333333333333,0.40370370370370373],[-0.09166666666666666,0.412962962962963],[-0.09270833333333334,0.4166666666666667],[-0.09375,0.4185185185185185],[-0.09479166666666666,0.4203703703703704],[-0.09479166666666666,0.4222222222222222],[-0.09479166666666666,0.4222222222222222],[-0.09479166666666666,0.4222222222222222],[-0.09479166666666666,0.4222222222222222],[-0.09479166666666666,0.4222222222222222],[-0.09479166666666666,0.4222222222222222],[-0.09479166666666666,0.4222222222222222],[-0.09479166666666666,0.4222222222222222],[-0.09479166666666666,0.4222222222222222],[-0.09479166666666666,0.4222222222222222],[-0.09479166666666666,0.4222222222222222],[-0.09479166666666666,0.4222222222222222],[-0.09479166666666666,0.4222222222222222],[-0.09479166666666666,0.4222222222222222],[-0.09479166666666666,0.4222222222222222],[-0.09479166666666666,0.4222222222222222],[-0.09479166666666666,0.4222222222222222],[-0.09479166666666666,0.4222222222222222],[-0.09479166666666666,0.4222222222222222],[-0.09479166666666666,0.4222222222222222],[-0.09479166666666666,0.4222222222222222],[-0.09479166666666666,0.4222222222222222],[-0.09479166666666666,0.4222222222222222],[-0.09479166666666666,0.4222222222222222],[-0.09479166666666666,0.4222222222222222],[-0.09479166666666666,0.4222222222222222],[-0.09479166666666666,0.4222222222222222],[-0.09479166666666666,0.4222222222222222],[-0.09479166666666666,0.4222222222222222],[-0.09479166666666666,0.4222222222222222],[-0.09479166666666666,0.4222222222222222],[-0.09479166666666666,0.4222222222222222],[-0.09479166666666666,0.4222222222222222],[-0.09479166666666666,0.4222222222222222],[-0.09479166666666666,0.4222222222222222],[-0.09479166666666666,0.4222222222222222],[-0.09479166666666666,0.4222222222222222],[-0.09479166666666666,0.4222222222222222],[-0.09479166666666666,0.4222222222222222],[-0.09479166666666666,0.4222222222222222],[-0.09479166666666666,0.4222222222222222],[-0.09479166666666666,0.4222222222222222],[-0.09479166666666666,0.4222222222222222],[-0.09479166666666666,0.4222222222222222],[-0.09479166666666666,0.4222222222222222],[-0.09479166666666666,0.4222222222222222],[-0.09479166666666666,0.4222222222222222],[-0.09479166666666666,0.4222222222222222],[-0.09479166666666666,0.4222222222222222],[-0.09479166666666666,0.4222222222222222],[-0.09479166666666666,0.4222222222222222],[-0.09479166666666666,0.4222222222222222],[-0.09479166666666666,0.4222222222222222],[-0.09479166666666666,0.4222222222222222],[-0.09479166666666666,0.4222222222222222],[-0.09479166666666666,0.4222222222222222],[-0.09479166666666666,0.4222222222222222],[-0.09479166666666666,0.4222222222222222],[-0.09479166666666666,0.4222222222222222],[-0.09479166666666666,0.4222222222222222],[-0.09479166666666666,0.4222222222222222],[-0.09479166666666666,0.4222222222222222],[-0.09479166666666666,0.4222222222222222],[-0.09479166666666666,0.4222222222222222],[-0.09479166666666666,0.4222222222222222],[-0.09479166666666666,0.4222222222222222],[-0.09479166666666666,0.4222222222222222],[-0.09479166666666666,0.4222222222222222],[-0.09479166666666666,0.4222222222222222],[-0.09479166666666666,0.4222222222222222],[-0.09479166666666666,0.4222222222222222],[-0.09479166666666666,0.4222222222222222],[-0.09479166666666666,0.4222222222222222],[-0.09479166666666666,0.4222222222222222],[-0.09479166666666666,0.4222222222222222],[-0.09479166666666666,0.4222222222222222],[-0.09479166666666666,0.4222222222222222],[-0.09479166666666666,0.4222222222222222],[-0.09479166666666666,0.4222222222222222],[-0.09479166666666666,0.4222222222222222],[-0.09479166666666666,0.4222222222222222],[-0.09479166666666666,0.4222222222222222],[-0.09479166666666666,0.4222222222222222],[-0.09479166666666666,0.4222222222222222],[-0.09479166666666666,0.4222222222222222],[-0.09479166666666666,0.4222222222222222],[-0.09479166666666666,0.4222222222222222],[-0.09479166666666666,0.4222222222222222],[-0.09479166666666666,0.4222222222222222],[-0.09479166666666666,0.4222222222222222],[-0.09479166666666666,0.4222222222222222],[-0.09479166666666666,0.4222222222222222],[-0.09479166666666666,0.4222222222222222],[-0.09479166666666666,0.4222222222222222],[-0.09479166666666666,0.4203703703703704],[-0.09479166666666666,0.4203703703703704],[-0.09479166666666666,0.4203703703703704],[-0.09479166666666666,0.4203703703703704],[-0.09479166666666666,0.4203703703703704],[-0.09375,0.4185185185185185],[-0.09375,0.4185185185185185],[-0.09375,0.4185185185185185],[-0.09375,0.4185185185185185],[-0.09375,0.4185185185185185],[-0.09375,0.4185185185185185],[-0.09375,0.4185185185185185],[-0.09375,0.4185185185185185],[-0.09375,0.4185185185185185],[-0.09375,0.4185185185185185],[-0.09375,0.4185185185185185],[-0.09375,0.4185185185185185],[-0.09375,0.4185185185185185],[-0.09375,0.4185185185185185],[-0.09375,0.4185185185185185],[-0.09375,0.4185185185185185],[-0.09375,0.4185185185185185]]","[[-0.030312500000000023,0.5081481481481481],[-0.030312500000000023,0.5081481481481481],[-0.02947916666666662,0.5105555555555557],[-0.03958333333333333,0.4987037037037036],[-0.04770833333333328,0.4722222222222222],[-0.053125,0.4420370370370371],[-0.06020833333333329,0.4770370370370371],[-0.06145833333333333,0.46296296296296297],[-0.058229166666666644,0.44888888888888884],[-0.043333333333333356,0.4014814814814814],[-0.03260416666666662,0.3648148148148148],[-0.018020833333333285,0.32259259259259265],[-0.018020833333333285,0.32259259259259265],[-0.00614583333333331,0.2875925925925925],[0.00625,0.2861111111111111],[0.019375000000000024,0.2777777777777778],[0.034687499999999954,0.2631481481481482],[0.04520833333333331,0.23870370370370367],[0.059791666666666646,0.21388888888888888],[0.06354166666666666,0.21129629629629634],[0.06270833333333338,0.2007407407407407],[0.07062499999999995,0.18888888888888888],[0.058749999999999976,0.18907407407407412],[0.05239583333333329,0.20055555555555546],[0.05322916666666669,0.16777777777777783],[0.05406249999999998,0.13499999999999995],[0.05562499999999997,0.12240740740740745],[0.05562499999999997,0.12240740740740745],[0.06760416666666676,0.11333333333333341],[0.06187499999999998,0.13481481481481472],[0.06416666666666669,0.14314814814814805],[0.07416666666666671,0.1574074074074074],[0.0678124999999999,0.17962962962962964],[0.08583333333333343,0.18296296296296288],[0.09479166666666666,0.1824074074074074],[0.09562499999999995,0.2198148148148149],[0.10072916666666672,0.2537037037037037],[0.10072916666666672,0.2537037037037037],[0.09593749999999991,0.280925925925926],[0.0884375000000001,0.2772222222222223],[0.09500000000000004,0.26222222222222225],[0.09645833333333324,0.2544444444444444],[0.08718750000000004,0.25500000000000006],[0.0900000000000001,0.23944444444444435],[0.08875000000000005,0.22777777777777777],[0.09031250000000005,0.2044444444444444],[0.09968750000000005,0.16277777777777774],[0.09895833333333333,0.1301851851851851],[0.09958333333333323,0.102962962962963],[0.09812500000000005,0.08481481481481473],[0.10479166666666657,0.052037037037037076],[0.11218750000000005,0.024814814814814772],[0.12020833333333343,0.002962962962963005],[0.12614583333333323,-0.02092592592592584],[0.12604166666666666,-0.03981481481481482],[0.12156250000000005,-0.04092592592592597],[0.1234375,-0.05055555555555547],[0.13510416666666672,-0.059999999999999956],[0.12208333333333338,-0.017592592592592594],[0.11375000000000005,0.03425925925925926],[0.08520833333333329,0.10870370370370379],[0.060000000000000026,0.16740740740740737],[0.04083333333333338,0.21722222222222215],[0.02374999999999995,0.26907407407407397],[0.0015625,0.3146296296296296],[-0.01229166666666662,0.3661111111111112],[-0.03822916666666672,0.39962962962962956],[-0.06812499999999998,0.42740740740740735],[-0.058229166666666644,0.37185185185185177],[-0.05572916666666667,0.36444444444444435],[-0.05572916666666667,0.36444444444444435],[-0.04572916666666664,0.31574074074074077],[-0.03197916666666671,0.2625925925925925],[-0.03291666666666669,0.21999999999999992],[-0.033854166666666664,0.17740740740740732],[-0.028645833333333332,0.1301851851851851],[-0.03354166666666671,0.09055555555555551],[-0.030208333333333334,0.08574074074074066],[-0.02687499999999995,0.08092592592592601],[-0.02687499999999995,0.08092592592592601],[-0.030208333333333334,0.09574074074074082],[-0.03604166666666669,0.06277777777777774],[-0.03885416666666662,0.06296296296296296],[-0.04041666666666662,0.05814814814814811],[-0.03333333333333333,0.051666666666666625],[-0.026250000000000048,0.04518518518518514],[-0.026041666666666668,0.06814814814814807],[-0.026145833333333358,0.06925925925925921],[-0.02822916666666669,0.10129629629629638],[-0.030312500000000023,0.13333333333333333],[-0.03604166666666669,0.13407407407407404],[-0.03781249999999995,0.14388888888888898],[-0.04739583333333333,0.16814814814814807],[-0.04739583333333333,0.16814814814814807],[-0.05291666666666662,0.17907407407407416],[-0.05291666666666662,0.17907407407407416],[-0.059895833333333336,0.2035185185185185],[-0.059895833333333336,0.2035185185185185],[-0.07281249999999997,0.2222222222222222],[-0.07281249999999997,0.2222222222222222],[-0.07447916666666667,0.21907407407407398],[-0.07447916666666667,0.21907407407407398],[-0.07468750000000005,0.22444444444444453],[-0.07468750000000005,0.22444444444444453],[-0.0765625,0.17981481481481484],[-0.0780208333333333,0.1338888888888888],[-0.07489583333333331,0.14518518518518514],[-0.0780208333333333,0.14055555555555552],[-0.07250000000000002,0.12296296296296293],[-0.07604166666666666,0.12814814814814823],[-0.07614583333333336,0.11611111111111119],[-0.07166666666666661,0.10870370370370379],[-0.07604166666666666,0.0977777777777777],[-0.07625000000000005,0.08277777777777787],[-0.06916666666666664,0.0868518518518518],[-0.06604166666666664,0.08629629629629634],[-0.07124999999999998,0.069074074074074],[-0.07124999999999998,0.069074074074074],[-0.0702083333333333,0.06777777777777783],[-0.06604166666666664,0.05925925925925926],[-0.06208333333333336,0.0588888888888888],[-0.060104166666666715,0.06222222222222226],[-0.05291666666666662,0.06314814814814819],[-0.04458333333333329,0.06796296296296304],[-0.03822916666666672,0.0705555555555556],[-0.03427083333333331,0.06629629629629621],[-0.02677083333333338,0.06796296296296304],[-0.017604166666666643,0.06555555555555552],[-0.008437500000000023,0.06314814814814819],[0,0.06740740740740736],[0.008645833333333287,0.06351851851851843],[0.007187499999999976,0.05722222222222218],[0.003958333333333286,0.05722222222222218],[0.0005208333333333333,0.04888888888888885],[-0.000833333333333286,0.03222222222222218],[-0.0032291666666666905,0.019999999999999917],[-0.0032291666666666905,0.019999999999999917],[-0.007291666666666667,0.001851851851851852],[-0.008437500000000023,-0.010370370370370412],[-0.00302083333333331,-0.02296296296296292],[0.004375000000000047,-0.047037037037036995],[0.011770833333333286,-0.07111111111111107],[0.029999999999999954,-0.09722222222222222],[0.029999999999999954,-0.09722222222222222],[0.029791666666666692,-0.10351851851851848],[0.04114583333333333,-0.12148148148148152],[0.03843749999999998,-0.11203703703703703],[0.03427083333333331,-0.10277777777777777],[0.035520833333333356,-0.08574074074074076],[0.04468749999999998,-0.08981481481481482],[0.03718750000000005,-0.09055555555555551],[0.033854166666666664,-0.09074074074074075],[0.030520833333333285,-0.09092592592592597],[0.025729166666666713,-0.08722222222222227],[0.03729166666666662,-0.10592592592592591],[0.03604166666666669,-0.09703703703703699],[0.04677083333333331,-0.10722222222222218],[0.0609375,-0.11314814814814819],[0.06916666666666677,-0.11685185185185189],[0.06916666666666677,-0.11685185185185189],[0.06812500000000009,-0.11351851851851855],[0.07718749999999991,-0.10407407407407405],[0.07677083333333339,-0.09037037037037039],[0.07635416666666663,-0.07666666666666662],[0.071875,-0.03851851851851843],[0.06739583333333338,-0.0005555555555554713],[0.058854166666666666,0.049074074074074076],[0.05302083333333331,0.08796296296296297],[0.044270833333333336,0.13129629629629624],[0.03447916666666669,0.18259259259259264],[0.02333333333333331,0.23981481481481481],[0.014583333333333334,0.2807407407407408],[0.005937500000000048,0.3274074074074073],[-0.002499999999999976,0.36666666666666664],[-0.00614583333333331,0.38203703703703695],[-0.005624999999999976,0.3987037037037036],[-0.008124999999999953,0.4075925925925926],[-0.008124999999999953,0.4075925925925926],[-0.003854166666666714,0.3772222222222223],[-0.005937500000000048,0.3301851851851851],[-0.004791666666666691,0.2711111111111111],[-0.004791666666666691,0.2711111111111111],[-0.005833333333333357,0.22240740740740744],[-0.00458333333333331,0.17518518518518522],[-0.00458333333333331,0.17518518518518522],[-0.008124999999999953,0.1368518518518518],[-0.0078125,0.11629629629629622],[-0.009791666666666643,0.07833333333333325],[-0.009791666666666643,0.07833333333333325],[-0.009375,0.047037037037036995],[-0.003541666666666643,0.005000000000000084],[-0.010416666666666666,0.012222222222222264],[-0.013125000000000024,0.016851851851851896],[-0.01583333333333338,0.021481481481481525],[-0.017708333333333333,0.02629629629629638],[-0.017708333333333333,0.02629629629629638],[-0.020624999999999952,0.0242592592592593],[-0.01895833333333338,0.02444444444444453],[-0.024583333333333356,0.015000000000000043],[-0.022812499999999975,0.00851851851851856],[-0.022604166666666713,-0.03333333333333333],[-0.02520833333333338,-0.07611111111111116],[-0.024583333333333356,-0.11814814814814817],[-0.022604166666666713,-0.1359259259259259],[-0.02312500000000005,-0.14481481481481479],[-0.022291666666666644,-0.16425925925925924],[-0.022500000000000023,-0.18129629629629626],[-0.02510416666666669,-0.20018518518518522],[-0.021041666666666715,-0.2183333333333333],[-0.02520833333333338,-0.2161111111111111],[-0.03239583333333336,-0.20203703703703707],[-0.03697916666666667,-0.18351851851851855],[-0.04083333333333338,-0.14870370370370373],[-0.04083333333333338,-0.14870370370370373],[-0.04375,-0.14740740740740746],[-0.04375,-0.14740740740740746],[-0.043229166666666666,-0.15111111111111114],[-0.043229166666666666,-0.15111111111111114],[-0.04125000000000002,-0.15555555555555556],[-0.04125000000000002,-0.15555555555555556],[-0.04239583333333338,-0.1557407407407408],[-0.04239583333333338,-0.1557407407407408],[-0.0359375,-0.1551851851851852],[-0.0359375,-0.1551851851851852],[-0.04802083333333336,-0.18333333333333332],[-0.050416666666666644,-0.19703703703703698],[-0.05562499999999997,-0.20462962962962963],[-0.06020833333333329,-0.2198148148148148],[-0.06052083333333336,-0.255],[-0.0625,-0.2675925925925926],[-0.06625000000000002,-0.29129629629629633],[-0.06625000000000002,-0.29129629629629633],[-0.06822916666666666,-0.2977777777777778],[-0.06927083333333334,-0.3198148148148148],[-0.07645833333333331,-0.3485185185185185],[-0.07062499999999995,-0.33722222222222226],[-0.07770833333333335,-0.32629629629629625],[-0.0860416666666667,-0.3164814814814814],[-0.08520833333333329,-0.32111111111111107],[-0.08770833333333337,-0.31592592592592594],[-0.08822916666666672,-0.3177777777777778],[-0.08718750000000004,-0.3014814814814815],[-0.08937499999999995,-0.30166666666666664],[-0.09177083333333336,-0.28833333333333333],[-0.09302083333333329,-0.2783333333333334],[-0.08875000000000005,-0.2655555555555555],[-0.078125,-0.2727777777777778],[-0.07062499999999995,-0.2892592592592592],[-0.0703125,-0.28888888888888886],[-0.0672916666666667,-0.27611111111111114],[-0.0672916666666667,-0.27611111111111114],[-0.06781250000000003,-0.27092592592592596],[-0.06781250000000003,-0.27092592592592596],[-0.06739583333333338,-0.2766666666666666],[-0.06187499999999998,-0.27444444444444444],[-0.05656249999999995,-0.26425925925925925],[-0.05604166666666662,-0.2611111111111111],[-0.058958333333333356,-0.2735185185185185],[-0.06270833333333338,-0.28296296296296297],[-0.06124999999999995,-0.26222222222222225],[-0.053125,-0.2561111111111111],[-0.050729166666666714,-0.2644444444444445],[-0.04541666666666669,-0.2681481481481482],[-0.041770833333333354,-0.2718518518518519],[-0.04468749999999998,-0.27907407407407403],[-0.04604166666666672,-0.2594444444444445],[-0.05,-0.259074074074074],[-0.05333333333333338,-0.2535185185185185],[-0.05583333333333336,-0.25092592592592594],[-0.058749999999999976,-0.25574074074074077],[-0.06833333333333336,-0.24592592592592594],[-0.07166666666666661,-0.2485185185185185],[-0.07593749999999998,-0.24592592592592594],[-0.078125,-0.23962962962962958],[-0.07885416666666671,-0.2375925925925926],[-0.07885416666666671,-0.2375925925925926],[-0.07885416666666671,-0.2609259259259259],[-0.07145833333333336,-0.2581481481481481],[-0.06489583333333329,-0.2588888888888889],[-0.058333333333333334,-0.2596296296296296],[-0.046875,-0.2770370370370371],[-0.035416666666666666,-0.29444444444444445],[-0.02374999999999995,-0.29203703703703704],[-0.01739583333333338,-0.2881481481481482],[-0.0125,-0.2838888888888889],[0.0014583333333333095,-0.2844444444444445],[0.0036458333333333334,-0.2985185185185185],[0.005833333333333357,-0.3124074074074074],[0.008541666666666715,-0.3148148148148148],[0.011249999999999953,-0.31722222222222224],[0.00458333333333331,-0.3025925925925925],[-0.0026041666666666665,-0.2862962962962963],[-0.014895833333333285,-0.2814814814814815],[-0.015312500000000047,-0.28407407407407403],[-0.021145833333333287,-0.285],[-0.026145833333333358,-0.2764814814814815],[-0.03135416666666669,-0.2675925925925926],[-0.029999999999999954,-0.23574074074074075],[-0.024687500000000046,-0.17611111111111116],[-0.019375000000000024,-0.11555555555555551],[-0.019375000000000024,-0.11555555555555551],[-0.00916666666666662,-0.058333333333333334],[-0.011041666666666691,-0.06518518518518517],[-0.011041666666666691,-0.06518518518518517],[-0.012916666666666642,-0.072037037037037],[-0.020729166666666642,-0.08796296296296297],[-0.018229166666666668,-0.09759259259259258],[-0.025625000000000023,-0.11203703703703703],[-0.025625000000000023,-0.11203703703703703],[-0.02520833333333338,-0.1294444444444444],[-0.03197916666666671,-0.16259259259259262],[-0.04229166666666669,-0.24296296296296294],[-0.05135416666666662,-0.3125925925925926],[-0.06156250000000003,-0.39000000000000007],[-0.058333333333333334,-0.4003703703703704],[-0.05427083333333336,-0.41888888888888887],[-0.04874999999999995,-0.42018518518518516],[-0.04833333333333331,-0.4316666666666667],[-0.05166666666666669,-0.4438888888888889],[-0.049270833333333285,-0.4477777777777778],[-0.04624999999999998,-0.4588888888888889],[-0.04489583333333336,-0.45851851851851855],[-0.04479166666666667,-0.4698148148148148],[-0.04135416666666671,-0.47092592592592597],[-0.03875000000000005,-0.4766666666666666],[-0.03697916666666667,-0.4742592592592593],[-0.035000000000000024,-0.46722222222222226],[-0.03343750000000002,-0.462037037037037],[-0.03343750000000002,-0.462037037037037],[-0.03125,-0.45481481481481484],[-0.030416666666666713,-0.4368518518518518],[-0.03333333333333333,-0.42851851851851847],[-0.033958333333333354,-0.42462962962962963],[-0.03187500000000002,-0.4116666666666667],[-0.033958333333333354,-0.4142592592592592],[-0.033958333333333354,-0.4142592592592592],[-0.035520833333333356,-0.41388888888888886],[-0.035520833333333356,-0.41388888888888886],[-0.03802083333333333,-0.41740740740740734],[-0.04208333333333331,-0.41759259259259257],[-0.04208333333333331,-0.41759259259259257],[-0.041458333333333285,-0.42407407407407405],[-0.049479166666666664,-0.4251851851851852],[-0.04906250000000002,-0.4390740740740741],[-0.04906250000000002,-0.4390740740740741],[-0.050625000000000024,-0.4431481481481482],[-0.05572916666666667,-0.43425925925925923],[-0.06604166666666664,-0.4366666666666667],[-0.06895833333333339,-0.41814814814814816],[-0.07239583333333334,-0.40259259259259256],[-0.07989583333333337,-0.39240740740740737],[-0.08947916666666664,-0.392037037037037],[-0.10010416666666669,-0.38499999999999995]]","[[-0.030312500000000023,0.5081481481481481,0.0003000001907338401],[-0.030312500000000023,0.5081481481481481,0.051400000095370046],[-0.02947916666666662,0.5105555555555557,0.06290000009536811],[-0.03958333333333333,0.4987037037037036,0.07880000019073918],[-0.04770833333333328,0.4722222222222222,0.09380000019072554],[-0.053125,0.4420370370370371,0.11060000038146711],[-0.06020833333333329,0.4770370370370371,0.1272000002860949],[-0.06145833333333333,0.46296296296296297,0.1438000001907369],[-0.058229166666666644,0.44888888888888884,0.1634999999999991],[-0.043333333333333356,0.4014814814814814,0.17749999999999488],[-0.03260416666666662,0.3648148148148148,0.1937000002860998],[-0.018020833333333285,0.32259259259259265,0.21040000009536186],[-0.018020833333333285,0.32259259259259265,0.22710000038146916],[-0.00614583333333331,0.2875925925925925,0.24370000028609695],[0.00625,0.2861111111111111,0.260400000095359],[0.019375000000000024,0.2777777777777778,0.277000000000001],[0.034687499999999954,0.2631481481481482,0.2938000001907284],[0.04520833333333331,0.23870370370370367,0.3104000000953704],[0.059791666666666646,0.21388888888888888,0.3271000003814635],[0.06354166666666666,0.21129629629629634,0.3441000003814736],[0.06270833333333338,0.2007407407407407,0.36040000009536755],[0.07062499999999995,0.18888888888888888,0.37710000038146063],[0.058749999999999976,0.18907407407407412,0.3938000001907369],[0.05239583333333329,0.20055555555555546,0.41030000019073043],[0.05322916666666669,0.16777777777777783,0.427100000381472],[0.05406249999999998,0.13499999999999995,0.44380000019073407],[0.05562499999999997,0.12240740740740745,0.46080000019073],[0.05562499999999997,0.12240740740740745,0.47710000038146916],[0.06760416666666676,0.11333333333333341,0.4938000001907312],[0.06187499999999998,0.13481481481481472,0.510400000095359],[0.06416666666666669,0.14314814814814805,0.5271000003814663],[0.07416666666666671,0.1574074074074074,0.5438000001907284],[0.0678124999999999,0.17962962962962964,0.5624000000953657],[0.08583333333333343,0.18296296296296288,0.5771000003814635],[0.09479166666666666,0.1824074074074074,0.5937000002861055],[0.09562499999999995,0.2198148148148149,0.6104000000953675],[0.10072916666666672,0.2537037037037037,0.6271000003814606],[0.10072916666666672,0.2537037037037037,0.6438000001907369],[0.09593749999999991,0.280925925925926,0.6607000002860985],[0.0884375000000001,0.2772222222222223,0.6787000002860992],[0.09500000000000004,0.26222222222222225,0.6937000002860998],[0.09645833333333324,0.2544444444444444,0.7104000000953619],[0.08718750000000004,0.25500000000000006,0.7270000000000039],[0.0900000000000001,0.23944444444444435,0.7438000001907312],[0.08875000000000005,0.22777777777777777,0.7604999999999933],[0.09031250000000005,0.2044444444444444,0.7771000003814663],[0.09968750000000005,0.16277777777777774,0.7976000003814647],[0.09895833333333333,0.1301851851851851,0.8128000001907338],[0.09958333333333323,0.102962962962963,0.8276000003814659],[0.09812500000000005,0.08481481481481473,0.8439999999999941],[0.10479166666666657,0.052037037037037076,0.86390000009537],[0.11218750000000005,0.024814814814814772,0.8804000000953636],[0.12020833333333343,0.002962962962963005,0.8979999999999961],[0.12614583333333323,-0.02092592592592584,0.9134000000953648],[0.12604166666666666,-0.03981481481481482,0.9298000001907383],[0.12156250000000005,-0.04092592592592597,0.945200000286107],[0.1234375,-0.05055555555555547,0.9618000001907347],[0.13510416666666672,-0.059999999999999956,0.980000000000004],[0.12208333333333338,-0.017592592592592594,0.9964000000953632],[0.11375000000000005,0.03425925925925926,1.0104999999999933],[0.08520833333333329,0.10870370370370379,1.0273000001907349],[0.060000000000000026,0.16740740740740737,1.046200000286106],[0.04083333333333338,0.21722222222222215,1.0639000000953587],[0.02374999999999995,0.26907407407407397,1.079200000286093],[0.0015625,0.3146296296296296,1.0939000000953598],[-0.01229166666666662,0.3661111111111112,1.1129000000953653],[-0.03822916666666672,0.39962962962962956,1.1293000001907387],[-0.06812499999999998,0.42740740740740735,1.144200000286105],[-0.058229166666666644,0.37185185185185177,1.1644000000953696],[-0.05572916666666667,0.36444444444444435,1.1831000003814722],[-0.05572916666666667,0.36444444444444435,1.2000000000000028],[-0.04572916666666664,0.31574074074074077,1.2106000003814614],[-0.03197916666666671,0.2625925925925925,1.2296000003814669],[-0.03291666666666669,0.21999999999999992,1.2454999999999927],[-0.033854166666666664,0.17740740740740732,1.2608000001907271],[-0.028645833333333332,0.1301851851851851,1.2802000002861007],[-0.03354166666666671,0.09055555555555551,1.2943000001907308],[-0.030208333333333334,0.08574074074074066,1.3130000000000024],[-0.02687499999999995,0.08092592592592601,1.333200000286098],[-0.02687499999999995,0.08092592592592601,1.343999999999994],[-0.030208333333333334,0.09574074074074082,1.3607000002861014],[-0.03604166666666669,0.06277777777777774,1.3789000000953706],[-0.03885416666666662,0.06296296296296296,1.3974000000953595],[-0.04041666666666662,0.05814814814814811,1.4129999999999967],[-0.03333333333333333,0.051666666666666625,1.4272000002861063],[-0.026250000000000048,0.04518518518518514,1.4439000000953683],[-0.026041666666666668,0.06814814814814807,1.4642000002860982],[-0.026145833333333358,0.06925925925925921,1.4796000003814669],[-0.02822916666666669,0.10129629629629638,1.4938000001907312],[-0.030312500000000023,0.13333333333333333,1.5132000002861048],[-0.03604166666666669,0.13407407407407404,1.529200000286096],[-0.03781249999999995,0.14388888888888898,1.5438000001907284],[-0.04739583333333333,0.16814814814814807,1.5607000002861042],[-0.04739583333333333,0.16814814814814807,1.5814000000953712],[-0.05291666666666662,0.17907407407407416,1.593999999999994],[-0.05291666666666662,0.17907407407407416,1.6105000000000018],[-0.059895833333333336,0.2035185185185185,1.634600000381468],[-0.059895833333333336,0.2035185185185185,1.6439999999999912],[-0.07281249999999997,0.2222222222222222,1.660900000095367],[-0.07281249999999997,0.2222222222222222,1.6811000003814627],[-0.07447916666666667,0.21907407407407398,1.694100000381468],[-0.07447916666666667,0.21907407407407398,1.7103000001907276],[-0.07468750000000005,0.22444444444444453,1.7271000003814692],[-0.07468750000000005,0.22444444444444453,1.743700000286097],[-0.0765625,0.17981481481481484,1.7604999999999933],[-0.0780208333333333,0.1338888888888888,1.778900000095362],[-0.07489583333333331,0.14518518518518514,1.793700000286094],[-0.0780208333333333,0.14055555555555552,1.8104000000953704],[-0.07250000000000002,0.12296296296296293,1.8296000003814612],[-0.07604166666666666,0.12814814814814823,1.8437000002861055],[-0.07614583333333336,0.11611111111111119,1.8618000001907262],[-0.07166666666666661,0.10870370370370379,1.877200000286095],[-0.07604166666666666,0.0977777777777777,1.895700000286098],[-0.07625000000000005,0.08277777777777787,1.9103000001907304],[-0.06916666666666664,0.0868518518518518,1.9273000001907263],[-0.06604166666666664,0.08629629629629634,1.9444000000953707],[-0.07124999999999998,0.069074074074074,1.9604000000953619],[-0.07124999999999998,0.069074074074074,1.9771000003814692],[-0.0702083333333333,0.06777777777777783,1.9938000001907312],[-0.06604166666666664,0.05925925925925926,2.0120000000000005],[-0.06208333333333336,0.0588888888888888,2.0271000003814663],[-0.060104166666666715,0.06222222222222226,2.0438000001907284],[-0.05291666666666662,0.06314814814814819,2.0637000002861043],[-0.04458333333333329,0.06796296296296304,2.078499999999991],[-0.03822916666666672,0.0705555555555556,2.0956000003814665],[-0.03427083333333331,0.06629629629629621,2.1103000001907333],[-0.02677083333333338,0.06796296296296304,2.1271000003814606],[-0.017604166666666643,0.06555555555555552,2.145700000286098],[-0.008437500000000023,0.06314814814814819,2.1604000000953647],[0,0.06740740740740736,2.177100000381472],[0.008645833333333287,0.06351851851851843,2.1937000002861],[0.007187499999999976,0.05722222222222218,2.210400000095362],[0.003958333333333286,0.05722222222222218,2.227100000381469],[0.0005208333333333333,0.04888888888888885,2.2438000001907312],[-0.000833333333333286,0.03222222222222218,2.261900000095366],[-0.0032291666666666905,0.019999999999999917,2.2787000002860935],[-0.0032291666666666905,0.019999999999999917,2.293700000286094],[-0.007291666666666667,0.001851851851851852,2.3104000000953704],[-0.008437500000000023,-0.010370370370370412,2.326999999999998],[-0.00302083333333331,-0.02296296296296292,2.3437000002861055],[0.004375000000000047,-0.047037037037036995,2.3633000001907334],[0.011770833333333286,-0.07111111111111107,2.3785000000000025],[0.029999999999999954,-0.09722222222222222,2.3951000003814613],[0.029999999999999954,-0.09722222222222222,2.410900000095367],[0.029791666666666692,-0.10351851851851848,2.427100000381472],[0.04114583333333333,-0.12148148148148152,2.4436000003814655],[0.03843749999999998,-0.11203703703703703,2.460499999999996],[0.03427083333333331,-0.10277777777777777,2.4799000000953697],[0.035520833333333356,-0.08574074074074076,2.495999999999995],[0.04468749999999998,-0.08981481481481482,2.511800000190732],[0.03718750000000005,-0.09055555555555551,2.52930000019073],[0.033854166666666664,-0.09074074074074075,2.543700000286094],[0.030520833333333285,-0.09092592592592597,2.5608000001907385],[0.025729166666666713,-0.08722222222222227,2.578800000190739],[0.03729166666666662,-0.10592592592592591,2.5937000002861055],[0.03604166666666669,-0.09703703703703699,2.6104000000953675],[0.04677083333333331,-0.10722222222222218,2.627300000190729],[0.0609375,-0.11314814814814819,2.6436000003814684],[0.06916666666666677,-0.11685185185185189,2.6622000002861057],[0.06916666666666677,-0.11685185185185189,2.6769999999999925],[0.06812500000000009,-0.11351851851851855,2.6937000002861],[0.07718749999999991,-0.10407407407407405,2.7107000002860957],[0.07677083333333339,-0.09037037037037039,2.727100000381469],[0.07635416666666663,-0.07666666666666662,2.743700000286097],[0.071875,-0.03851851851851843,2.7609000000953614],[0.06739583333333338,-0.0005555555555554713,2.7779000000953715],[0.058854166666666666,0.049074074074074076,2.7957000002861037],[0.05302083333333331,0.08796296296296297,2.8104000000953704],[0.044270833333333336,0.13129629629629624,2.826999999999998],[0.03447916666666669,0.18259259259259264,2.8468000001907257],[0.02333333333333331,0.23981481481481481,2.8634000000953677],[0.014583333333333334,0.2807407407407408,2.87910000038147],[0.005937500000000048,0.3274074074074073,2.896800000190737],[-0.002499999999999976,0.36666666666666664,2.9122000002861057],[-0.00614583333333331,0.38203703703703695,2.927100000381472],[-0.005624999999999976,0.3987037037037036,2.9454999999999956],[-0.008124999999999953,0.4075925925925926,2.9664999999999964],[-0.008124999999999953,0.4075925925925926,2.9772000002861034],[-0.003854166666666714,0.3772222222222223,2.9939000000953655],[-0.005937500000000048,0.3301851851851851,3.010800000190727],[-0.004791666666666691,0.2711111111111111,3.029600000381464],[-0.004791666666666691,0.2711111111111111,3.0439000000953627],[-0.005833333333333357,0.22240740740740744,3.0607000002861042],[-0.00458333333333331,0.17518518518518522,3.080900000095369],[-0.00458333333333331,0.17518518518518522,3.09390000009536],[-0.008124999999999953,0.1368518518518518,3.110600000381467],[-0.0078125,0.11629629629629622,3.127200000286095],[-0.009791666666666643,0.07833333333333325,3.1477000002860933],[-0.009791666666666643,0.07833333333333325,3.1606000003814643],[-0.009375,0.047037037037036995,3.1773000001907263],[-0.003541666666666643,0.005000000000000084,3.196800000190734],[-0.010416666666666666,0.012222222222222264,3.214900000095369],[-0.013125000000000024,0.016851851851851896,3.228999999999999],[-0.01583333333333338,0.021481481481481525,3.2438000001907312],[-0.017708333333333333,0.02629629629629638,3.2689999999999912],[-0.017708333333333333,0.02629629629629638,3.2849000000953623],[-0.020624999999999952,0.0242592592592593,3.2957000002861037],[-0.01895833333333338,0.02444444444444453,3.3126000003814653],[-0.024583333333333356,0.015000000000000043,3.329600000381461],[-0.022812499999999975,0.00851851851851856,3.34390000009536],[-0.022604166666666713,-0.03333333333333333,3.360600000381467],[-0.02520833333333338,-0.07611111111111116,3.377300000190729],[-0.024583333333333356,-0.11814814814814817,3.395400000095364],[-0.022604166666666713,-0.1359259259259259,3.4121000003814714],[-0.02312500000000005,-0.14481481481481479,3.430499999999995],[-0.022291666666666644,-0.16425925925925924,3.445600000381461],[-0.022500000000000023,-0.18129629629629626,3.4632000002860934],[-0.02510416666666669,-0.20018518518518522,3.4772000002861034],[-0.021041666666666715,-0.2183333333333333,3.4939000000953655],[-0.02520833333333338,-0.2161111111111111,3.5104999999999933],[-0.03239583333333336,-0.20203703703703707,3.5301000003814664],[-0.03697916666666667,-0.18351851851851855,3.543999999999997],[-0.04083333333333338,-0.14870370370370373,3.560999999999993],[-0.04083333333333338,-0.14870370370370373,3.581000000000003],[-0.04375,-0.14740740740740746,3.59390000009536],[-0.04375,-0.14740740740740746,3.610600000381467],[-0.043229166666666666,-0.15111111111111114,3.6318000001907365],[-0.043229166666666666,-0.15111111111111114,3.643900000095371],[-0.04125000000000002,-0.15555555555555556,3.6606000003814643],[-0.04125000000000002,-0.15555555555555556,3.6807000002860946],[-0.04239583333333338,-0.1557407407407408,3.6940000000000026],[-0.04239583333333338,-0.1557407407407408,3.7106000003814614],[-0.0359375,-0.1551851851851852,3.7272000002861034],[-0.0359375,-0.1551851851851852,3.7483000001907385],[-0.04802083333333336,-0.18333333333333332,3.760600000381473],[-0.050416666666666644,-0.19703703703703698,3.7772000002861006],[-0.05562499999999997,-0.20462962962962963,3.793999999999997],[-0.06020833333333329,-0.2198148148148148,3.8124000000953657],[-0.06052083333333336,-0.255,3.8272000002860977],[-0.0625,-0.2675925925925926,3.8438000001907255],[-0.06625000000000002,-0.29129629629629633,3.8651000003814744],[-0.06625000000000002,-0.29129629629629633,3.8771000003814606],[-0.06822916666666666,-0.2977777777777778,3.893900000095371],[-0.06927083333333334,-0.3198148148148148,3.910499999999999],[-0.07645833333333331,-0.3485185185185185,3.9303000001907265],[-0.07062499999999995,-0.33722222222222226,3.9439000000953683],[-0.07770833333333335,-0.32629629629629625,3.9607000002860957],[-0.0860416666666667,-0.3164814814814814,3.9791000003814645],[-0.08520833333333329,-0.32111111111111107,3.993700000286097],[-0.08770833333333337,-0.31592592592592594,4.010300000190739],[-0.08822916666666672,-0.3177777777777778,4.027000000000001],[-0.08718750000000004,-0.3014814814814815,4.045999999999992],[-0.08937499999999995,-0.30166666666666664,4.061800000190729],[-0.09177083333333336,-0.28833333333333333,4.076999999999998],[-0.09302083333333329,-0.2783333333333334,4.097499999999997],[-0.08875000000000005,-0.2655555555555555,4.112100000381474],[-0.078125,-0.2727777777777778,4.126999999999995],[-0.07062499999999995,-0.2892592592592592,4.143700000286103],[-0.0703125,-0.28888888888888886,4.161300000190735],[-0.0672916666666667,-0.27611111111111114,4.178400000095365],[-0.0672916666666667,-0.27611111111111114,4.1937000002861],[-0.06781250000000003,-0.27092592592592596,4.210400000095362],[-0.06781250000000003,-0.27092592592592596,4.227100000381469],[-0.06739583333333338,-0.2766666666666666,4.243700000286097],[-0.06187499999999998,-0.27444444444444444,4.260700000286107],[-0.05656249999999995,-0.26425925925925925,4.277000000000001],[-0.05604166666666662,-0.2611111111111111,4.294100000381462],[-0.058958333333333356,-0.2735185185185185,4.31040000009537],[-0.06270833333333338,-0.28296296296296297,4.326999999999998],[-0.06124999999999995,-0.26222222222222225,4.3437000002861055],[-0.053125,-0.2561111111111111,4.36390000009537],[-0.050729166666666714,-0.2644444444444445,4.378900000095371],[-0.04541666666666669,-0.2681481481481482,4.394200000286105],[-0.041770833333333354,-0.2718518518518519,4.41030000019073],[-0.04468749999999998,-0.27907407407407403,4.4288000001907335],[-0.04604166666666672,-0.2594444444444445,4.4436000003814655],[-0.05,-0.259074074074074,4.460499999999996],[-0.05333333333333338,-0.2535185185185185,4.478499999999997],[-0.05583333333333336,-0.25092592592592594,4.493700000286097],[-0.058749999999999976,-0.25574074074074077,4.511900000095366],[-0.06833333333333336,-0.24592592592592594,4.52840000009536],[-0.07166666666666661,-0.2485185185185185,4.543600000381474],[-0.07593749999999998,-0.24592592592592594,4.561200000286107],[-0.078125,-0.23962962962962958,4.5777000002861],[-0.07885416666666671,-0.2375925925925926,4.5937000002861055],[-0.07885416666666671,-0.2375925925925926,4.610300000190733],[-0.07885416666666671,-0.2609259259259259,4.626999999999995],[-0.07145833333333336,-0.2581481481481481,4.643600000381468],[-0.06489583333333329,-0.2588888888888889,4.662200000286106],[-0.058333333333333334,-0.2596296296296296,4.6769999999999925],[-0.046875,-0.2770370370370371,4.6937000002861],[-0.035416666666666666,-0.29444444444444445,4.712400000095371],[-0.02374999999999995,-0.29203703703703704,4.727300000190738],[-0.01739583333333338,-0.2881481481481482,4.743700000286097],[-0.0125,-0.2838888888888889,4.763800000190727],[0.0014583333333333095,-0.2844444444444445,4.777600000381469],[0.0036458333333333334,-0.2985185185185185,4.793999999999997],[0.005833333333333357,-0.3124074074074074,4.81040000009537],[0.008541666666666715,-0.3148148148148148,4.827400000095366],[0.011249999999999953,-0.31722222222222224,4.8437000002861055],[0.00458333333333331,-0.3025925925925925,4.8629999999999995],[-0.0026041666666666665,-0.2862962962962963,4.8792000002861045],[-0.014895833333333285,-0.2814814814814815,4.893700000286103],[-0.015312500000000047,-0.28407407407407403,4.912100000381471],[-0.021145833333333287,-0.285,4.927499999999995],[-0.026145833333333358,-0.2764814814814815,4.9437000002861],[-0.03135416666666669,-0.2675925925925926,4.963300000190728],[-0.029999999999999954,-0.23574074074074075,4.977000000000004],[-0.024687500000000046,-0.17611111111111116,4.993600000381463],[-0.019375000000000024,-0.11555555555555551,5.0146000003814635],[-0.019375000000000024,-0.11555555555555551,5.029200000286096],[-0.00916666666666662,-0.058333333333333334,5.043800000190728],[-0.011041666666666691,-0.06518518518518517,5.06040000009537],[-0.011041666666666691,-0.06518518518518517,5.076999999999998],[-0.012916666666666642,-0.072037037037037,5.0938000001907255],[-0.020729166666666642,-0.08796296296296297,5.110300000190733],[-0.018229166666666668,-0.09759259259259258,5.128800000190736],[-0.025625000000000023,-0.11203703703703703,5.143700000286103],[-0.025625000000000023,-0.11203703703703703,5.160499999999999],[-0.02520833333333338,-0.1294444444444444,5.177100000381472],[-0.03197916666666671,-0.16259259259259262,5.1936000003814655],[-0.04229166666666669,-0.24296296296296294,5.210300000190728],[-0.05135416666666662,-0.3125925925925926,5.227100000381469],[-0.06156250000000003,-0.39000000000000007,5.244100000381465],[-0.058333333333333334,-0.4003703703703704,5.260300000190739],[-0.05427083333333336,-0.41888888888888887,5.27830000019074],[-0.04874999999999995,-0.42018518518518516,5.293700000286094],[-0.04833333333333331,-0.4316666666666667,5.310300000190736],[-0.05166666666666669,-0.4438888888888889,5.326900000095364],[-0.049270833333333285,-0.4477777777777778,5.3437000002861055],[-0.04624999999999998,-0.4588888888888889,5.360300000190733],[-0.04489583333333336,-0.45851851851851855,5.376999999999995],[-0.04479166666666667,-0.4698148148148148,5.393800000190737],[-0.04135416666666671,-0.47092592592592597,5.41030000019073],[-0.03875000000000005,-0.4766666666666666,5.4269999999999925],[-0.03697916666666667,-0.4742592592592593,5.4437000002861],[-0.035000000000000024,-0.46722222222222226,5.460400000095362],[-0.03343750000000002,-0.462037037037037,5.479400000095367],[-0.03343750000000002,-0.462037037037037,5.493700000286097],[-0.03125,-0.45481481481481484,5.510400000095359],[-0.030416666666666713,-0.4368518518518518,5.52840000009536],[-0.03333333333333333,-0.42851851851851847,5.545900000095372],[-0.033958333333333354,-0.42462962962962963,5.56040000009537],[-0.03187500000000002,-0.4116666666666667,5.581400000095371],[-0.033958333333333354,-0.4142592592592592,5.600600000381462],[-0.033958333333333354,-0.4142592592592592,5.610300000190733],[-0.035520833333333356,-0.41388888888888886,5.6311000003814655],[-0.035520833333333356,-0.41388888888888886,5.643700000286103],[-0.03802083333333333,-0.41740740740740734,5.660499999999999],[-0.04208333333333331,-0.41759259259259257,5.682000000000002],[-0.04208333333333331,-0.41759259259259257,5.6937000002861],[-0.041458333333333285,-0.42407407407407405,5.710300000190728],[-0.049479166666666664,-0.4251851851851852,5.73090000009536],[-0.04906250000000002,-0.4390740740740741,5.749200000286095],[-0.04906250000000002,-0.4390740740740741,5.760300000190739],[-0.050625000000000024,-0.4431481481481482,5.777000000000001],[-0.05572916666666667,-0.43425925925925923,5.793600000381474],[-0.06604166666666664,-0.4366666666666667,5.810200000286102],[-0.06895833333333339,-0.41814814814814816,5.826999999999998],[-0.07239583333333334,-0.40259259259259256,5.843600000381471],[-0.07989583333333337,-0.39240740740740737,5.8604000000953675],[-0.08947916666666664,-0.392037037037037,5.876999999999995],[-0.10010416666666669,-0.38499999999999995,5.894400000095359]]","[0.0003000001907338401,0.051400000095370046,0.06290000009536811,0.07880000019073918,0.09380000019072554,0.11060000038146711,0.1272000002860949,0.1438000001907369,0.1634999999999991,0.17749999999999488,0.1937000002860998,0.21040000009536186,0.22710000038146916,0.24370000028609695,0.260400000095359,0.277000000000001,0.2938000001907284,0.3104000000953704,0.3271000003814635,0.3441000003814736,0.36040000009536755,0.37710000038146063,0.3938000001907369,0.41030000019073043,0.427100000381472,0.44380000019073407,0.46080000019073,0.47710000038146916,0.4938000001907312,0.510400000095359,0.5271000003814663,0.5438000001907284,0.5624000000953657,0.5771000003814635,0.5937000002861055,0.6104000000953675,0.6271000003814606,0.6438000001907369,0.6607000002860985,0.6787000002860992,0.6937000002860998,0.7104000000953619,0.7270000000000039,0.7438000001907312,0.7604999999999933,0.7771000003814663,0.7976000003814647,0.8128000001907338,0.8276000003814659,0.8439999999999941,0.86390000009537,0.8804000000953636,0.8979999999999961,0.9134000000953648,0.9298000001907383,0.945200000286107,0.9618000001907347,0.980000000000004,0.9964000000953632,1.0104999999999933,1.0273000001907349,1.046200000286106,1.0639000000953587,1.079200000286093,1.0939000000953598,1.1129000000953653,1.1293000001907387,1.144200000286105,1.1644000000953696,1.1831000003814722,1.2000000000000028,1.2106000003814614,1.2296000003814669,1.2454999999999927,1.2608000001907271,1.2802000002861007,1.2943000001907308,1.3130000000000024,1.333200000286098,1.343999999999994,1.3607000002861014,1.3789000000953706,1.3974000000953595,1.4129999999999967,1.4272000002861063,1.4439000000953683,1.4642000002860982,1.4796000003814669,1.4938000001907312,1.5132000002861048,1.529200000286096,1.5438000001907284,1.5607000002861042,1.5814000000953712,1.593999999999994,1.6105000000000018,1.634600000381468,1.6439999999999912,1.660900000095367,1.6811000003814627,1.694100000381468,1.7103000001907276,1.7271000003814692,1.743700000286097,1.7604999999999933,1.778900000095362,1.793700000286094,1.8104000000953704,1.8296000003814612,1.8437000002861055,1.8618000001907262,1.877200000286095,1.895700000286098,1.9103000001907304,1.9273000001907263,1.9444000000953707,1.9604000000953619,1.9771000003814692,1.9938000001907312,2.0120000000000005,2.0271000003814663,2.0438000001907284,2.0637000002861043,2.078499999999991,2.0956000003814665,2.1103000001907333,2.1271000003814606,2.145700000286098,2.1604000000953647,2.177100000381472,2.1937000002861,2.210400000095362,2.227100000381469,2.2438000001907312,2.261900000095366,2.2787000002860935,2.293700000286094,2.3104000000953704,2.326999999999998,2.3437000002861055,2.3633000001907334,2.3785000000000025,2.3951000003814613,2.410900000095367,2.427100000381472,2.4436000003814655,2.460499999999996,2.4799000000953697,2.495999999999995,2.511800000190732,2.52930000019073,2.543700000286094,2.5608000001907385,2.578800000190739,2.5937000002861055,2.6104000000953675,2.627300000190729,2.6436000003814684,2.6622000002861057,2.6769999999999925,2.6937000002861,2.7107000002860957,2.727100000381469,2.743700000286097,2.7609000000953614,2.7779000000953715,2.7957000002861037,2.8104000000953704,2.826999999999998,2.8468000001907257,2.8634000000953677,2.87910000038147,2.896800000190737,2.9122000002861057,2.927100000381472,2.9454999999999956,2.9664999999999964,2.9772000002861034,2.9939000000953655,3.010800000190727,3.029600000381464,3.0439000000953627,3.0607000002861042,3.080900000095369,3.09390000009536,3.110600000381467,3.127200000286095,3.1477000002860933,3.1606000003814643,3.1773000001907263,3.196800000190734,3.214900000095369,3.228999999999999,3.2438000001907312,3.2689999999999912,3.2849000000953623,3.2957000002861037,3.3126000003814653,3.329600000381461,3.34390000009536,3.360600000381467,3.377300000190729,3.395400000095364,3.4121000003814714,3.430499999999995,3.445600000381461,3.4632000002860934,3.4772000002861034,3.4939000000953655,3.5104999999999933,3.5301000003814664,3.543999999999997,3.560999999999993,3.581000000000003,3.59390000009536,3.610600000381467,3.6318000001907365,3.643900000095371,3.6606000003814643,3.6807000002860946,3.6940000000000026,3.7106000003814614,3.7272000002861034,3.7483000001907385,3.760600000381473,3.7772000002861006,3.793999999999997,3.8124000000953657,3.8272000002860977,3.8438000001907255,3.8651000003814744,3.8771000003814606,3.893900000095371,3.910499999999999,3.9303000001907265,3.9439000000953683,3.9607000002860957,3.9791000003814645,3.993700000286097,4.010300000190739,4.027000000000001,4.045999999999992,4.061800000190729,4.076999999999998,4.097499999999997,4.112100000381474,4.126999999999995,4.143700000286103,4.161300000190735,4.178400000095365,4.1937000002861,4.210400000095362,4.227100000381469,4.243700000286097,4.260700000286107,4.277000000000001,4.294100000381462,4.31040000009537,4.326999999999998,4.3437000002861055,4.36390000009537,4.378900000095371,4.394200000286105,4.41030000019073,4.4288000001907335,4.4436000003814655,4.460499999999996,4.478499999999997,4.493700000286097,4.511900000095366,4.52840000009536,4.543600000381474,4.561200000286107,4.5777000002861,4.5937000002861055,4.610300000190733,4.626999999999995,4.643600000381468,4.662200000286106,4.6769999999999925,4.6937000002861,4.712400000095371,4.727300000190738,4.743700000286097,4.763800000190727,4.777600000381469,4.793999999999997,4.81040000009537,4.827400000095366,4.8437000002861055,4.8629999999999995,4.8792000002861045,4.893700000286103,4.912100000381471,4.927499999999995,4.9437000002861,4.963300000190728,4.977000000000004,4.993600000381463,5.0146000003814635,5.029200000286096,5.043800000190728,5.06040000009537,5.076999999999998,5.0938000001907255,5.110300000190733,5.128800000190736,5.143700000286103,5.160499999999999,5.177100000381472,5.1936000003814655,5.210300000190728,5.227100000381469,5.244100000381465,5.260300000190739,5.27830000019074,5.293700000286094,5.310300000190736,5.326900000095364,5.3437000002861055,5.360300000190733,5.376999999999995,5.393800000190737,5.41030000019073,5.4269999999999925,5.4437000002861,5.460400000095362,5.479400000095367,5.493700000286097,5.510400000095359,5.52840000009536,5.545900000095372,5.56040000009537,5.581400000095371,5.600600000381462,5.610300000190733,5.6311000003814655,5.643700000286103,5.660499999999999,5.682000000000002,5.6937000002861,5.710300000190728,5.73090000009536,5.749200000286095,5.760300000190739,5.777000000000001,5.793600000381474,5.810200000286102,5.826999999999998,5.843600000381471,5.8604000000953675,5.876999999999995,5.894400000095359]","[1731902817049,1731902817091,1731902817102,1731902817118,1731902817133,1731902817150,1731902817167,1731902817183,1731902817203,1731902817217,1731902817233,1731902817250,1731902817267,1731902817283,1731902817300,1731902817316,1731902817333,1731902817350,1731902817366,1731902817383,1731902817400,1731902817416,1731902817433,1731902817450,1731902817466,1731902817483,1731902817500,1731902817516,1731902817533,1731902817550,1731902817567,1731902817583,1731902817602,1731902817616,1731902817633,1731902817650,1731902817666,1731902817683,1731902817700,1731902817718,1731902817733,1731902817750,1731902817766,1731902817783,1731902817800,1731902817816,1731902817837,1731902817852,1731902817867,1731902817883,1731902817903,1731902817920,1731902817937,1731902817953,1731902817969,1731902817985,1731902818001,1731902818019,1731902818036,1731902818050,1731902818067,1731902818086,1731902818103,1731902818119,1731902818133,1731902818152,1731902818169,1731902818184,1731902818204,1731902818222,1731902818239,1731902818250,1731902818269,1731902818285,1731902818300,1731902818320,1731902818334,1731902818352,1731902818373,1731902818383,1731902818400,1731902818418,1731902818437,1731902818452,1731902818467,1731902818483,1731902818504,1731902818519,1731902818533,1731902818553,1731902818569,1731902818583,1731902818600,1731902818621,1731902818633,1731902818650,1731902818674,1731902818683,1731902818700,1731902818720,1731902818733,1731902818750,1731902818766,1731902818783,1731902818800,1731902818818,1731902818833,1731902818850,1731902818869,1731902818883,1731902818901,1731902818917,1731902818935,1731902818950,1731902818967,1731902818984,1731902819000,1731902819016,1731902819033,1731902819051,1731902819066,1731902819083,1731902819103,1731902819118,1731902819135,1731902819150,1731902819166,1731902819185,1731902819200,1731902819216,1731902819233,1731902819250,1731902819266,1731902819283,1731902819301,1731902819318,1731902819333,1731902819350,1731902819366,1731902819383,1731902819403,1731902819418,1731902819434,1731902819450,1731902819466,1731902819483,1731902819500,1731902819519,1731902819535,1731902819551,1731902819569,1731902819583,1731902819600,1731902819618,1731902819633,1731902819650,1731902819667,1731902819683,1731902819702,1731902819716,1731902819733,1731902819750,1731902819766,1731902819783,1731902819800,1731902819817,1731902819835,1731902819850,1731902819866,1731902819886,1731902819903,1731902819918,1731902819936,1731902819952,1731902819966,1731902819985,1731902820006,1731902820017,1731902820033,1731902820050,1731902820069,1731902820083,1731902820100,1731902820120,1731902820133,1731902820150,1731902820167,1731902820187,1731902820200,1731902820217,1731902820236,1731902820254,1731902820268,1731902820283,1731902820308,1731902820324,1731902820335,1731902820352,1731902820369,1731902820383,1731902820400,1731902820417,1731902820435,1731902820451,1731902820470,1731902820485,1731902820503,1731902820517,1731902820533,1731902820550,1731902820570,1731902820583,1731902820600,1731902820621,1731902820633,1731902820650,1731902820671,1731902820683,1731902820700,1731902820720,1731902820733,1731902820750,1731902820767,1731902820788,1731902820800,1731902820817,1731902820833,1731902820852,1731902820867,1731902820883,1731902820904,1731902820917,1731902820933,1731902820950,1731902820970,1731902820983,1731902821000,1731902821018,1731902821033,1731902821050,1731902821066,1731902821085,1731902821101,1731902821116,1731902821137,1731902821151,1731902821166,1731902821183,1731902821201,1731902821218,1731902821233,1731902821250,1731902821266,1731902821283,1731902821300,1731902821316,1731902821334,1731902821350,1731902821366,1731902821383,1731902821403,1731902821418,1731902821434,1731902821450,1731902821468,1731902821483,1731902821500,1731902821518,1731902821533,1731902821551,1731902821568,1731902821583,1731902821601,1731902821617,1731902821633,1731902821650,1731902821666,1731902821683,1731902821702,1731902821716,1731902821733,1731902821752,1731902821767,1731902821783,1731902821803,1731902821817,1731902821833,1731902821850,1731902821867,1731902821883,1731902821902,1731902821919,1731902821933,1731902821952,1731902821967,1731902821983,1731902822003,1731902822016,1731902822033,1731902822054,1731902822069,1731902822083,1731902822100,1731902822116,1731902822133,1731902822150,1731902822168,1731902822183,1731902822200,1731902822216,1731902822233,1731902822250,1731902822266,1731902822283,1731902822300,1731902822318,1731902822333,1731902822350,1731902822366,1731902822383,1731902822400,1731902822416,1731902822433,1731902822450,1731902822466,1731902822483,1731902822500,1731902822519,1731902822533,1731902822550,1731902822568,1731902822585,1731902822600,1731902822621,1731902822640,1731902822650,1731902822670,1731902822683,1731902822700,1731902822721,1731902822733,1731902822750,1731902822770,1731902822789,1731902822800,1731902822816,1731902822833,1731902822850,1731902822866,1731902822883,1731902822900,1731902822916,1731902822934]","[[930.9,814.4],[930.9,814.4],[931.7,815.7],[922,809.3],[914.2,795],[909,778.7],[902.2,797.6],[901,790],[904.1,782.4],[918.4,756.8],[928.7,737],[942.7,714.2],[942.7,714.2],[954.1,695.3],[966,694.5],[978.6,690],[993.3,682.1],[1003.4,668.9],[1017.4,655.5],[1021,654.1],[1020.2,648.4],[1027.8,642],[1016.4,642.1],[1010.3,648.3],[1011.1,630.6],[1011.9,612.9],[1013.4,606.1],[1013.4,606.1],[1024.9,601.2],[1019.4,612.8],[1021.6,617.3],[1031.2,625],[1025.1,637],[1042.4,638.8],[1051,638.5],[1051.8,658.7],[1056.7,677],[1056.7,677],[1052.1,691.7],[1044.9,689.7],[1051.2,681.6],[1052.6,677.4],[1043.7,677.7],[1046.4,669.3],[1045.2,663],[1046.7,650.4],[1055.7,627.9],[1055,610.3],[1055.6,595.6],[1054.2,585.8],[1060.6,568.1],[1067.7,553.4],[1075.4,541.6],[1081.1,528.7],[1081,518.5],[1076.7,517.9],[1078.5,512.7],[1089.7,507.6],[1077.2,530.5],[1069.2,558.5],[1041.8,598.7],[1017.6,630.4],[999.2,657.3],[982.8,685.3],[961.5,709.9],[948.2,737.7],[923.3,755.8],[894.6,770.8],[904.1,740.8],[906.5,736.8],[906.5,736.8],[916.1,710.5],[929.3,681.8],[928.4,658.8],[927.5,635.8],[932.5,610.3],[927.8,588.9],[931,586.3],[934.2,583.7],[934.2,583.7],[931,591.7],[925.4,573.9],[922.7,574],[921.2,571.4],[928,567.9],[934.8,564.4],[935,576.8],[934.9,577.4],[932.9,594.7],[930.9,612],[925.4,612.4],[923.7,617.7],[914.5,630.8],[914.5,630.8],[909.2,636.7],[909.2,636.7],[902.5,649.9],[902.5,649.9],[890.1,660],[890.1,660],[888.5,658.3],[888.5,658.3],[888.3,661.2],[888.3,661.2],[886.5,637.1],[885.1,612.3],[888.1,618.4],[885.1,615.9],[890.4,606.4],[887,609.2],[886.9,602.7],[891.2,598.7],[887,592.8],[886.8,584.7],[893.6,586.9],[896.6,586.6],[891.6,577.3],[891.6,577.3],[892.6,576.6],[896.6,572],[900.4,571.8],[902.3,573.6],[909.2,574.1],[917.2,576.7],[923.3,578.1],[927.1,575.8],[934.3,576.7],[943.1,575.4],[951.9,574.1],[960,576.4],[968.3,574.3],[966.9,570.9],[963.8,570.9],[960.5,566.4],[959.2,557.4],[956.9,550.8],[956.9,550.8],[953,541],[951.9,534.4],[957.1,527.6],[964.2,514.6],[971.3,501.6],[988.8,487.5],[988.8,487.5],[988.6,484.1],[999.5,474.4],[996.9,479.5],[992.9,484.5],[994.1,493.7],[1002.9,491.5],[995.7,491.1],[992.5,491],[989.3,490.9],[984.7,492.9],[995.8,482.8],[994.6,487.6],[1004.9,482.1],[1018.5,478.9],[1026.4,476.9],[1026.4,476.9],[1025.4,478.7],[1034.1,483.8],[1033.7,491.2],[1033.3,498.6],[1029,519.2],[1024.7,539.7],[1016.5,566.5],[1010.9,587.5],[1002.5,610.9],[993.1,638.6],[982.4,669.5],[974,691.6],[965.7,716.8],[957.6,738],[954.1,746.3],[954.6,755.3],[952.2,760.1],[952.2,760.1],[956.3,743.7],[954.3,718.3],[955.4,686.4],[955.4,686.4],[954.4,660.1],[955.6,634.6],[955.6,634.6],[952.2,613.9],[952.5,602.8],[950.6,582.3],[950.6,582.3],[951,565.4],[956.6,542.7],[950,546.6],[947.4,549.1],[944.8,551.6],[943,554.2],[943,554.2],[940.2,553.1],[941.8,553.2],[936.4,548.1],[938.1,544.6],[938.3,522],[935.8,498.9],[936.4,476.2],[938.3,466.6],[937.8,461.8],[938.6,451.3],[938.4,442.1],[935.9,431.9],[939.8,422.1],[935.8,423.3],[928.9,430.9],[924.5,440.9],[920.8,459.7],[920.8,459.7],[918,460.4],[918,460.4],[918.5,458.4],[918.5,458.4],[920.4,456],[920.4,456],[919.3,455.9],[919.3,455.9],[925.5,456.2],[925.5,456.2],[913.9,441],[911.6,433.6],[906.6,429.5],[902.2,421.3],[901.9,402.3],[900,395.5],[896.4,382.7],[896.4,382.7],[894.5,379.2],[893.5,367.3],[886.6,351.8],[892.2,357.9],[885.4,363.8],[877.4,369.1],[878.2,366.6],[875.8,369.4],[875.3,368.4],[876.3,377.2],[874.2,377.1],[871.9,384.3],[870.7,389.7],[874.8,396.6],[885,392.7],[892.2,383.8],[892.5,384],[895.4,390.9],[895.4,390.9],[894.9,393.7],[894.9,393.7],[895.3,390.6],[900.6,391.8],[905.7,397.3],[906.2,399],[903.4,392.3],[899.8,387.2],[901.2,398.4],[909,401.7],[911.3,397.2],[916.4,395.2],[919.9,393.2],[917.1,389.3],[915.8,399.9],[912,400.1],[908.8,403.1],[906.4,404.5],[903.6,401.9],[894.4,407.2],[891.2,405.8],[887.1,407.2],[885,410.6],[884.3,411.7],[884.3,411.7],[884.3,399.1],[891.4,400.6],[897.7,400.2],[904,399.8],[915,390.4],[926,381],[937.2,382.3],[943.3,384.4],[948,386.7],[961.4,386.4],[963.5,378.8],[965.6,371.3],[968.2,370],[970.8,368.7],[964.4,376.6],[957.5,385.4],[945.7,388],[945.3,386.6],[939.7,386.1],[934.9,390.7],[929.9,395.5],[931.2,412.7],[936.3,444.9],[941.4,477.6],[941.4,477.6],[951.2,508.5],[949.4,504.8],[949.4,504.8],[947.6,501.1],[940.1,492.5],[942.5,487.3],[935.4,479.5],[935.4,479.5],[935.8,470.1],[929.3,452.2],[919.4,408.8],[910.7,371.2],[900.9,329.4],[904,323.8],[907.9,313.8],[913.2,313.1],[913.6,306.9],[910.4,300.3],[912.7,298.2],[915.6,292.2],[916.9,292.4],[917,286.3],[920.3,285.7],[922.8,282.6],[924.5,283.9],[926.4,287.7],[927.9,290.5],[927.9,290.5],[930,294.4],[930.8,304.1],[928,308.6],[927.4,310.7],[929.4,317.7],[927.4,316.3],[927.4,316.3],[925.9,316.5],[925.9,316.5],[923.5,314.6],[919.6,314.5],[919.6,314.5],[920.2,311],[912.5,310.4],[912.9,302.9],[912.9,302.9],[911.4,300.7],[906.5,305.5],[896.6,304.2],[893.8,314.2],[890.5,322.6],[883.3,328.1],[874.1,328.3],[863.9,332.1]]","[-0.142,0.42599999999999993]","[0.142,0.42599999999999993]","[0.42599999999999993,0.42599999999999993]","[-0.42599999999999993,0.142]","[-0.42599999999999993,-0.142]","[-0.42599999999999993,-0.42599999999999993]","[-0.142,0.142]","[0.142,0.142]","[0.42599999999999993,0.142]","[-0.142,-0.142]","[0.142,-0.142]","[0.42599999999999993,-0.142]","[-0.142,-0.42599999999999993]","[0.142,-0.42599999999999993]","[0.42599999999999993,-0.42599999999999993]",0,0,0,0,1,1,Laptop,20,20,7,2,70,4,2,70,4
