inst1_resp.keys,inst1_resp.rt,calibrationMouse.x,calibrationMouse.y,calibrationMouse.leftButton,calibrationMouse.midButton,calibrationMouse.rightButton,calibrationClick.x,calibrationClick.y,calibrationClick.leftButton,calibrationClick.midButton,calibrationClick.rightButton,calibrationClick.clicked_name,trialsc.thisRepN,trialsc.thisTrialN,trialsc.thisN,trialsc.thisIndex,trialsc.ran,calibration_x,calibration_y,participant,session,date,expName,psychopyVersion,OS,frameRate,ScreenRes_pixels,Camera_pixels,mouse_2.x,mouse_2.y,mouse_2.leftButton,mouse_2.midButton,mouse_2.rightButton,mouse_2.time,mouse_2.clicked_name,mouse.x,mouse.y,mouse.leftButton,mouse.midButton,mouse.rightButton,mouse.time,mouse.clicked_name,Choice,Trial,TrialDuration,MOUSE_GAZE,ET_GAZE,ET_GAZE_x_T,time,unixTime,ET_GAZE_NF,Loc_Bus_label,Loc_Metro_label,Loc_RH_label,Loc_Cost_label,Loc_Travel_label,Loc_Comfort_label,Loc_Bus_cost,Loc_Metro_cost,Loc_RH_cost,Loc_Bus_travel,Loc_Metro_travel,Loc_RH_travel,Loc_Bus_comfort,Loc_Metro_comfort,Loc_RH_comfort,trials.thisRepN,trials.thisTrialN,trials.thisN,trials.thisIndex,trials.ran,Block,Device,RH_cost,RH_travel_time,RH_Comfort,metro_cost,metro_travel_time,metro_Comfort,Bus_cost,Bus_travel_time,Bus_Comfort
space,7.3241,0.25,-0.081481481,1,0,0,-0.004166667,0.003703704,1,0,0,calibration_square,0,0,0,11,1,0,0,23,001,2024-11-26_16h04.08.742,Attention_exp_legacy,2023.1.0,Win32,59.88023952,,,,,,,,,,,,,,,,,,,,,,,,,,,,,,,,,,,,,,,,,,,,,,,,,,,,,,,,
,,,,,,,0.34375,0.005555556,1,0,0,,0,1,1,16,1,0.33,0,23,001,2024-11-26_16h04.08.742,Attention_exp_legacy,2023.1.0,Win32,59.88023952,,,,,,,,,,,,,,,,,,,,,,,,,,,,,,,,,,,,,,,,,,,,,,,,,,,,,,,,
,,,,,,,-0.667708333,-0.003703704,1,0,0,calibration_square,0,2,2,2,1,-0.67,0,23,001,2024-11-26_16h04.08.742,Attention_exp_legacy,2023.1.0,Win32,59.88023952,,,,,,,,,,,,,,,,,,,,,,,,,,,,,,,,,,,,,,,,,,,,,,,,,,,,,,,,
,,,,,,,-0.325,-0.340740741,1,0,0,,0,3,3,5,1,-0.33,-0.33,23,001,2024-11-26_16h04.08.742,Attention_exp_legacy,2023.1.0,Win32,59.88023952,,,,,,,,,,,,,,,,,,,,,,,,,,,,,,,,,,,,,,,,,,,,,,,,,,,,,,,,
,,,,,,,-0.3375,0.681481481,1,0,0,,0,4,4,8,1,-0.33,0.67,23,001,2024-11-26_16h04.08.742,Attention_exp_legacy,2023.1.0,Win32,59.88023952,,,,,,,,,,,,,,,,,,,,,,,,,,,,,,,,,,,,,,,,,,,,,,,,,,,,,,,,
,,,,,,,-0.677083333,-0.664814815,1,0,0,calibration_square,0,5,5,0,1,-0.67,-0.67,23,001,2024-11-26_16h04.08.742,Attention_exp_legacy,2023.1.0,Win32,59.88023952,,,,,,,,,,,,,,,,,,,,,,,,,,,,,,,,,,,,,,,,,,,,,,,,,,,,,,,,
,,,,,,,0.329166667,-0.338888889,1,0,0,calibration_square,0,6,6,15,1,0.33,-0.33,23,001,2024-11-26_16h04.08.742,Attention_exp_legacy,2023.1.0,Win32,59.88023952,,,,,,,,,,,,,,,,,,,,,,,,,,,,,,,,,,,,,,,,,,,,,,,,,,,,,,,,
,,,,,,,-0.335416667,-0.672222222,1,0,0,calibration_square,0,7,7,4,1,-0.33,-0.67,23,001,2024-11-26_16h04.08.742,Attention_exp_legacy,2023.1.0,Win32,59.88023952,,,,,,,,,,,,,,,,,,,,,,,,,,,,,,,,,,,,,,,,,,,,,,,,,,,,,,,,
,,,,,,,-0.665625,-0.335185185,1,0,0,calibration_square,0,8,8,1,1,-0.67,-0.33,23,001,2024-11-26_16h04.08.742,Attention_exp_legacy,2023.1.0,Win32,59.88023952,,,,,,,,,,,,,,,,,,,,,,,,,,,,,,,,,,,,,,,,,,,,,,,,,,,,,,,,
,,,,,,,-0.33125,0.325925926,1,0,0,calibration_square,0,9,9,7,1,-0.33,0.33,23,001,2024-11-26_16h04.08.742,Attention_exp_legacy,2023.1.0,Win32,59.88023952,,,,,,,,,,,,,,,,,,,,,,,,,,,,,,,,,,,,,,,,,,,,,,,,,,,,,,,,
,,,,,,,-0.660416667,0.325925926,1,0,0,calibration_square,0,10,10,3,1,-0.67,0.33,23,001,2024-11-26_16h04.08.742,Attention_exp_legacy,2023.1.0,Win32,59.88023952,,,,,,,,,,,,,,,,,,,,,,,,,,,,,,,,,,,,,,,,,,,,,,,,,,,,,,,,
,,,,,,,-0.338541667,0.011111111,1,0,0,,0,11,11,6,1,-0.33,0,23,001,2024-11-26_16h04.08.742,Attention_exp_legacy,2023.1.0,Win32,59.88023952,,,,,,,,,,,,,,,,,,,,,,,,,,,,,,,,,,,,,,,,,,,,,,,,,,,,,,,,
,,,,,,,0.676041667,0.675925926,1,0,0,calibration_square,0,12,12,19,1,0.67,0.67,23,001,2024-11-26_16h04.08.742,Attention_exp_legacy,2023.1.0,Win32,59.88023952,,,,,,,,,,,,,,,,,,,,,,,,,,,,,,,,,,,,,,,,,,,,,,,,,,,,,,,,
,,,,,,,-0.005208333,0.666666667,1,0,0,calibration_square,0,13,13,13,1,0,0.67,23,001,2024-11-26_16h04.08.742,Attention_exp_legacy,2023.1.0,Win32,59.88023952,,,,,,,,,,,,,,,,,,,,,,,,,,,,,,,,,,,,,,,,,,,,,,,,,,,,,,,,
,,,,,,,-0.007291667,-0.338888889,1,0,0,calibration_square,0,14,14,10,1,0,-0.33,23,001,2024-11-26_16h04.08.742,Attention_exp_legacy,2023.1.0,Win32,59.88023952,,,,,,,,,,,,,,,,,,,,,,,,,,,,,,,,,,,,,,,,,,,,,,,,,,,,,,,,
,,,,,,,0.329166667,-0.674074074,1,0,0,calibration_square,0,15,15,14,1,0.33,-0.67,23,001,2024-11-26_16h04.08.742,Attention_exp_legacy,2023.1.0,Win32,59.88023952,,,,,,,,,,,,,,,,,,,,,,,,,,,,,,,,,,,,,,,,,,,,,,,,,,,,,,,,
,,,,,,,0.329166667,0.674074074,1,0,0,calibration_square,0,16,16,18,1,0.33,0.67,23,001,2024-11-26_16h04.08.742,Attention_exp_legacy,2023.1.0,Win32,59.88023952,,,,,,,,,,,,,,,,,,,,,,,,,,,,,,,,,,,,,,,,,,,,,,,,,,,,,,,,
,,,,,,,0.664583333,-0.681481481,1,0,0,,0,17,17,20,1,0.67,-0.67,23,001,2024-11-26_16h04.08.742,Attention_exp_legacy,2023.1.0,Win32,59.88023952,,,,,,,,,,,,,,,,,,,,,,,,,,,,,,,,,,,,,,,,,,,,,,,,,,,,,,,,
,,,,,,,-0.001041667,0.32037037,1,0,0,calibration_square,0,18,18,12,1,0,0.33,23,001,2024-11-26_16h04.08.742,Attention_exp_legacy,2023.1.0,Win32,59.88023952,,,,,,,,,,,,,,,,,,,,,,,,,,,,,,,,,,,,,,,,,,,,,,,,,,,,,,,,
,,,,,,,0.321875,0.324074074,1,0,0,calibration_square,0,19,19,17,1,0.33,0.33,23,001,2024-11-26_16h04.08.742,Attention_exp_legacy,2023.1.0,Win32,59.88023952,,,,,,,,,,,,,,,,,,,,,,,,,,,,,,,,,,,,,,,,,,,,,,,,,,,,,,,,
,,,,,,,-0.001041667,-0.672222222,1,0,0,calibration_square,0,20,20,9,1,0,-0.67,23,001,2024-11-26_16h04.08.742,Attention_exp_legacy,2023.1.0,Win32,59.88023952,,,,,,,,,,,,,,,,,,,,,,,,,,,,,,,,,,,,,,,,,,,,,,,,,,,,,,,,
,,,,,,,,,,,,,,,,,,,,23,001,2024-11-26_16h04.08.742,Attention_exp_legacy,2023.1.0,Win32,59.88023952,"[1920,1080]","[640,480]",[0.042708333333333334],[-0.512962962962963],[1],[0],[0],[10.011800000011917],"[""StartButton""]",[0.22604166666666667],[0.6259259259259259],[1],[0],[0],[8.53370000000298],"[""Metro_label""]",Metro_label,1,9.5432,"[[0.27708333333333335,-0.05555555555555555],[0.27708333333333335,-0.05555555555555555],[0.27708333333333335,-0.05555555555555555],[0.27708333333333335,-0.05555555555555555],[0.27708333333333335,-0.05555555555555555],[0.27708333333333335,-0.05555555555555555],[0.27708333333333335,-0.05555555555555555],[0.27708333333333335,-0.05555555555555555],[0.27708333333333335,-0.05555555555555555],[0.27708333333333335,-0.05555555555555555],[0.27708333333333335,-0.05555555555555555],[0.27708333333333335,-0.05555555555555555],[0.27708333333333335,-0.05555555555555555],[0.27708333333333335,-0.05555555555555555],[0.27708333333333335,-0.05555555555555555],[0.27708333333333335,-0.05555555555555555],[0.27708333333333335,-0.05555555555555555],[0.27708333333333335,-0.05555555555555555],[0.27708333333333335,-0.05555555555555555],[0.27708333333333335,-0.05555555555555555],[0.27708333333333335,-0.05555555555555555],[0.27708333333333335,-0.05555555555555555],[0.27708333333333335,-0.05555555555555555],[0.27708333333333335,-0.05555555555555555],[0.27708333333333335,-0.05555555555555555],[0.27708333333333335,-0.05555555555555555],[0.27708333333333335,-0.05555555555555555],[0.27708333333333335,-0.05555555555555555],[0.27708333333333335,-0.05555555555555555],[0.27708333333333335,-0.05555555555555555],[0.27708333333333335,-0.05555555555555555],[0.27708333333333335,-0.05555555555555555],[0.27708333333333335,-0.05555555555555555],[0.27708333333333335,-0.05555555555555555],[0.27708333333333335,-0.05555555555555555],[0.27708333333333335,-0.05555555555555555],[0.27708333333333335,-0.05555555555555555],[0.27708333333333335,-0.05555555555555555],[0.27708333333333335,-0.05555555555555555],[0.27708333333333335,-0.05555555555555555],[0.27708333333333335,-0.05555555555555555],[0.27708333333333335,-0.05555555555555555],[0.27708333333333335,-0.05555555555555555],[0.27708333333333335,-0.05555555555555555],[0.27708333333333335,-0.05555555555555555],[0.27708333333333335,-0.05555555555555555],[0.27708333333333335,-0.05555555555555555],[0.27708333333333335,-0.05555555555555555],[0.27708333333333335,-0.05555555555555555],[0.27708333333333335,-0.05555555555555555],[0.27708333333333335,-0.05555555555555555],[0.27708333333333335,-0.05555555555555555],[0.27708333333333335,-0.05555555555555555],[0.27708333333333335,-0.05555555555555555],[0.27708333333333335,-0.05555555555555555],[0.27708333333333335,-0.05555555555555555],[0.27708333333333335,-0.05555555555555555],[0.27708333333333335,-0.05555555555555555],[0.27708333333333335,-0.05555555555555555],[0.27708333333333335,-0.05555555555555555],[0.27708333333333335,-0.05555555555555555],[0.27708333333333335,-0.05555555555555555],[0.27708333333333335,-0.05555555555555555],[0.27708333333333335,-0.05555555555555555],[0.27708333333333335,-0.05555555555555555],[0.27708333333333335,-0.05555555555555555],[0.27708333333333335,-0.05555555555555555],[0.27708333333333335,-0.05555555555555555],[0.27708333333333335,-0.05555555555555555],[0.27708333333333335,-0.05555555555555555],[0.27708333333333335,-0.05555555555555555],[0.27708333333333335,-0.05555555555555555],[0.27708333333333335,-0.05555555555555555],[0.27708333333333335,-0.05555555555555555],[0.27708333333333335,-0.05555555555555555],[0.27708333333333335,-0.05555555555555555],[0.27708333333333335,-0.05555555555555555],[0.27708333333333335,-0.05555555555555555],[0.27708333333333335,-0.05555555555555555],[0.27708333333333335,-0.05555555555555555],[0.27708333333333335,-0.05555555555555555],[0.27708333333333335,-0.05555555555555555],[0.27708333333333335,-0.05555555555555555],[0.27708333333333335,-0.05555555555555555],[0.27708333333333335,-0.05555555555555555],[0.27708333333333335,-0.05555555555555555],[0.27708333333333335,-0.05555555555555555],[0.27708333333333335,-0.05555555555555555],[0.27708333333333335,-0.05555555555555555],[0.27708333333333335,-0.05555555555555555],[0.27708333333333335,-0.05555555555555555],[0.27708333333333335,-0.05555555555555555],[0.27708333333333335,-0.05555555555555555],[0.27708333333333335,-0.05555555555555555],[0.27708333333333335,-0.05555555555555555],[0.27708333333333335,-0.05555555555555555],[0.27708333333333335,-0.05555555555555555],[0.27708333333333335,-0.05555555555555555],[0.27708333333333335,-0.05555555555555555],[0.27708333333333335,-0.05555555555555555],[0.27708333333333335,-0.05555555555555555],[0.27708333333333335,-0.05555555555555555],[0.27708333333333335,-0.05555555555555555],[0.27708333333333335,-0.05555555555555555],[0.27708333333333335,-0.05555555555555555],[0.27708333333333335,-0.05555555555555555],[0.27708333333333335,-0.05555555555555555],[0.27708333333333335,-0.05555555555555555],[0.27708333333333335,-0.05555555555555555],[0.27708333333333335,-0.05555555555555555],[0.27708333333333335,-0.05555555555555555],[0.27708333333333335,-0.05555555555555555],[0.27708333333333335,-0.05555555555555555],[0.27708333333333335,-0.05555555555555555],[0.27708333333333335,-0.05555555555555555],[0.27708333333333335,-0.05555555555555555],[0.27708333333333335,-0.05555555555555555],[0.27708333333333335,-0.05555555555555555],[0.27708333333333335,-0.05555555555555555],[0.27708333333333335,-0.05555555555555555],[0.27708333333333335,-0.05555555555555555],[0.27708333333333335,-0.05555555555555555],[0.27708333333333335,-0.05555555555555555],[0.27708333333333335,-0.05555555555555555],[0.27708333333333335,-0.05555555555555555],[0.27708333333333335,-0.05555555555555555],[0.27708333333333335,-0.05555555555555555],[0.27708333333333335,-0.05555555555555555],[0.27708333333333335,-0.05555555555555555],[0.27708333333333335,-0.05555555555555555],[0.27708333333333335,-0.05555555555555555],[0.27708333333333335,-0.05555555555555555],[0.27708333333333335,-0.05555555555555555],[0.27708333333333335,-0.05555555555555555],[0.27708333333333335,-0.05555555555555555],[0.27708333333333335,-0.05555555555555555],[0.27708333333333335,-0.05555555555555555],[0.27708333333333335,-0.05555555555555555],[0.27708333333333335,-0.05555555555555555],[0.27708333333333335,-0.05555555555555555],[0.27708333333333335,-0.05555555555555555],[0.27708333333333335,-0.05555555555555555],[0.27708333333333335,-0.05555555555555555],[0.27708333333333335,-0.05555555555555555],[0.27708333333333335,-0.05555555555555555],[0.27708333333333335,-0.05555555555555555],[0.27708333333333335,-0.05555555555555555],[0.27708333333333335,-0.05555555555555555],[0.27708333333333335,-0.05555555555555555],[0.27708333333333335,-0.05555555555555555],[0.27708333333333335,-0.05555555555555555],[0.27708333333333335,-0.05555555555555555],[0.27708333333333335,-0.05555555555555555],[0.27708333333333335,-0.05555555555555555],[0.27708333333333335,-0.05555555555555555],[0.27708333333333335,-0.05555555555555555],[0.27708333333333335,-0.05555555555555555],[0.27708333333333335,-0.05555555555555555],[0.27708333333333335,-0.05555555555555555],[0.27708333333333335,-0.05555555555555555],[0.27708333333333335,-0.05555555555555555],[0.27708333333333335,-0.05555555555555555],[0.27708333333333335,-0.05555555555555555],[0.27708333333333335,-0.05555555555555555],[0.27708333333333335,-0.05555555555555555],[0.27708333333333335,-0.05555555555555555],[0.27708333333333335,-0.05555555555555555],[0.27708333333333335,-0.05555555555555555],[0.27708333333333335,-0.05555555555555555],[0.27708333333333335,-0.05555555555555555],[0.27708333333333335,-0.05555555555555555],[0.27708333333333335,-0.05555555555555555],[0.27708333333333335,-0.05555555555555555],[0.27708333333333335,-0.05555555555555555],[0.27708333333333335,-0.05555555555555555],[0.27708333333333335,-0.05555555555555555],[0.27708333333333335,-0.05555555555555555],[0.27708333333333335,-0.05555555555555555],[0.27708333333333335,-0.05555555555555555],[0.27708333333333335,-0.05555555555555555],[0.27708333333333335,-0.05555555555555555],[0.27708333333333335,-0.05555555555555555],[0.27708333333333335,-0.05555555555555555],[0.27708333333333335,-0.05555555555555555],[0.27708333333333335,-0.05555555555555555],[0.27708333333333335,-0.05555555555555555],[0.27708333333333335,-0.05555555555555555],[0.27708333333333335,-0.05555555555555555],[0.27708333333333335,-0.05555555555555555],[0.27708333333333335,-0.05555555555555555],[0.27708333333333335,-0.05555555555555555],[0.27708333333333335,-0.05555555555555555],[0.27708333333333335,-0.05555555555555555],[0.27708333333333335,-0.05555555555555555],[0.27708333333333335,-0.05555555555555555],[0.27708333333333335,-0.05555555555555555],[0.27708333333333335,-0.05555555555555555],[0.27708333333333335,-0.05555555555555555],[0.27708333333333335,-0.05555555555555555],[0.27708333333333335,-0.05555555555555555],[0.27708333333333335,-0.05555555555555555],[0.27708333333333335,-0.05555555555555555],[0.27708333333333335,-0.05555555555555555],[0.27708333333333335,-0.05555555555555555],[0.27708333333333335,-0.05555555555555555],[0.27708333333333335,-0.05555555555555555],[0.27708333333333335,-0.05555555555555555],[0.27708333333333335,-0.05555555555555555],[0.27708333333333335,-0.05555555555555555],[0.27708333333333335,-0.05555555555555555],[0.27708333333333335,-0.05555555555555555],[0.27708333333333335,-0.05555555555555555],[0.27708333333333335,-0.05555555555555555],[0.27708333333333335,-0.05555555555555555],[0.27708333333333335,-0.05555555555555555],[0.27708333333333335,-0.05555555555555555],[0.27708333333333335,-0.05555555555555555],[0.27708333333333335,-0.05555555555555555],[0.27708333333333335,-0.05555555555555555],[0.27708333333333335,-0.05555555555555555],[0.27708333333333335,-0.05555555555555555],[0.27708333333333335,-0.05555555555555555],[0.27708333333333335,-0.05555555555555555],[0.27708333333333335,-0.05555555555555555],[0.27708333333333335,-0.05555555555555555],[0.27708333333333335,-0.05555555555555555],[0.27708333333333335,-0.05555555555555555],[0.27708333333333335,-0.05555555555555555],[0.27708333333333335,-0.05555555555555555],[0.27708333333333335,-0.05555555555555555],[0.27708333333333335,-0.05555555555555555],[0.27708333333333335,-0.05555555555555555],[0.27708333333333335,-0.05555555555555555],[0.27708333333333335,-0.05555555555555555],[0.27708333333333335,-0.05555555555555555],[0.27708333333333335,-0.05555555555555555],[0.27708333333333335,-0.05555555555555555],[0.27708333333333335,-0.05555555555555555],[0.27708333333333335,-0.05555555555555555],[0.27708333333333335,-0.05555555555555555],[0.27708333333333335,-0.05555555555555555],[0.27708333333333335,-0.05555555555555555],[0.27708333333333335,-0.05555555555555555],[0.27708333333333335,-0.05555555555555555],[0.27708333333333335,-0.05555555555555555],[0.27708333333333335,-0.05555555555555555],[0.27708333333333335,-0.05555555555555555],[0.27708333333333335,-0.05555555555555555],[0.27708333333333335,-0.05555555555555555],[0.27708333333333335,-0.05555555555555555],[0.27708333333333335,-0.05555555555555555],[0.27708333333333335,-0.05555555555555555],[0.27708333333333335,-0.05555555555555555],[0.27708333333333335,-0.05555555555555555],[0.27708333333333335,-0.05555555555555555],[0.27708333333333335,-0.05555555555555555],[0.27708333333333335,-0.05555555555555555],[0.27708333333333335,-0.05555555555555555],[0.27708333333333335,-0.05555555555555555],[0.27708333333333335,-0.05555555555555555],[0.27708333333333335,-0.05555555555555555],[0.27708333333333335,-0.05555555555555555],[0.27708333333333335,-0.05555555555555555],[0.27708333333333335,-0.05555555555555555],[0.27708333333333335,-0.05555555555555555],[0.27708333333333335,-0.05555555555555555],[0.27708333333333335,-0.05555555555555555],[0.27708333333333335,-0.05555555555555555],[0.27708333333333335,-0.05555555555555555],[0.27708333333333335,-0.05555555555555555],[0.27708333333333335,-0.05555555555555555],[0.27708333333333335,-0.05555555555555555],[0.27708333333333335,-0.05555555555555555],[0.27708333333333335,-0.05555555555555555],[0.27708333333333335,-0.05555555555555555],[0.27708333333333335,-0.05555555555555555],[0.27708333333333335,-0.05555555555555555],[0.27708333333333335,-0.05555555555555555],[0.27708333333333335,-0.05555555555555555],[0.27708333333333335,-0.05555555555555555],[0.27708333333333335,-0.05555555555555555],[0.27708333333333335,-0.05555555555555555],[0.27708333333333335,-0.05555555555555555],[0.27708333333333335,-0.05555555555555555],[0.27708333333333335,-0.05555555555555555],[0.27708333333333335,-0.05555555555555555],[0.27708333333333335,-0.05555555555555555],[0.27708333333333335,-0.05555555555555555],[0.27708333333333335,-0.05555555555555555],[0.27708333333333335,-0.05555555555555555],[0.27708333333333335,-0.05555555555555555],[0.27708333333333335,-0.05555555555555555],[0.27708333333333335,-0.05555555555555555],[0.27708333333333335,-0.05555555555555555],[0.27708333333333335,-0.05555555555555555],[0.27708333333333335,-0.05555555555555555],[0.27708333333333335,-0.05555555555555555],[0.27708333333333335,-0.05555555555555555],[0.27708333333333335,-0.05555555555555555],[0.27708333333333335,-0.05555555555555555],[0.27708333333333335,-0.05555555555555555],[0.27708333333333335,-0.05555555555555555],[0.27708333333333335,-0.05555555555555555],[0.27708333333333335,-0.05555555555555555],[0.27708333333333335,-0.05555555555555555],[0.27708333333333335,-0.05555555555555555],[0.27708333333333335,-0.05555555555555555],[0.27708333333333335,-0.05555555555555555],[0.27708333333333335,-0.05555555555555555],[0.27708333333333335,-0.05555555555555555],[0.27708333333333335,-0.05555555555555555],[0.27708333333333335,-0.05555555555555555],[0.27708333333333335,-0.05555555555555555],[0.27708333333333335,-0.05555555555555555],[0.27708333333333335,-0.05555555555555555],[0.27708333333333335,-0.05555555555555555],[0.27708333333333335,-0.05555555555555555],[0.27708333333333335,-0.05555555555555555],[0.27708333333333335,-0.05555555555555555],[0.27708333333333335,-0.05555555555555555],[0.27708333333333335,-0.05555555555555555],[0.27708333333333335,-0.05555555555555555],[0.27708333333333335,-0.05555555555555555],[0.27708333333333335,-0.05555555555555555],[0.27708333333333335,-0.05555555555555555],[0.27708333333333335,-0.05555555555555555],[0.27708333333333335,-0.05555555555555555],[0.27708333333333335,-0.05555555555555555],[0.27708333333333335,-0.05555555555555555],[0.27708333333333335,-0.05555555555555555],[0.27708333333333335,-0.05555555555555555],[0.27708333333333335,-0.05555555555555555],[0.27708333333333335,-0.05555555555555555],[0.27708333333333335,-0.05555555555555555],[0.27708333333333335,-0.05555555555555555],[0.27708333333333335,-0.05555555555555555],[0.27708333333333335,-0.05555555555555555],[0.27708333333333335,-0.05555555555555555],[0.27708333333333335,-0.05555555555555555],[0.27708333333333335,-0.05555555555555555],[0.27708333333333335,-0.05555555555555555],[0.27708333333333335,-0.05555555555555555],[0.27708333333333335,-0.05555555555555555],[0.27708333333333335,-0.05555555555555555],[0.27708333333333335,-0.05555555555555555],[0.27708333333333335,-0.05555555555555555],[0.27708333333333335,-0.05555555555555555],[0.27708333333333335,-0.05555555555555555],[0.27708333333333335,-0.05555555555555555],[0.27708333333333335,-0.05555555555555555],[0.27708333333333335,-0.05555555555555555],[0.27708333333333335,-0.05555555555555555],[0.27708333333333335,-0.05555555555555555],[0.27708333333333335,-0.05555555555555555],[0.27708333333333335,-0.05555555555555555],[0.27708333333333335,-0.05555555555555555],[0.27708333333333335,-0.05555555555555555],[0.27708333333333335,-0.05555555555555555],[0.27708333333333335,-0.05555555555555555],[0.27708333333333335,-0.05555555555555555],[0.27708333333333335,-0.05555555555555555],[0.27708333333333335,-0.05555555555555555],[0.27708333333333335,-0.05555555555555555],[0.27708333333333335,-0.05555555555555555],[0.27708333333333335,-0.05555555555555555],[0.27708333333333335,-0.05555555555555555],[0.27708333333333335,-0.05555555555555555],[0.27708333333333335,-0.05555555555555555],[0.27708333333333335,-0.05555555555555555],[0.27708333333333335,-0.05555555555555555],[0.27708333333333335,-0.05555555555555555],[0.27708333333333335,-0.05555555555555555],[0.27708333333333335,-0.05555555555555555],[0.27708333333333335,-0.05555555555555555],[0.27708333333333335,-0.05555555555555555],[0.27708333333333335,-0.05555555555555555],[0.27708333333333335,-0.05555555555555555],[0.27708333333333335,-0.05555555555555555],[0.27708333333333335,-0.05555555555555555],[0.27708333333333335,-0.05555555555555555],[0.27708333333333335,-0.05555555555555555],[0.27708333333333335,-0.05555555555555555],[0.27708333333333335,-0.05555555555555555],[0.27708333333333335,-0.05555555555555555],[0.27708333333333335,-0.05555555555555555],[0.27708333333333335,-0.05555555555555555],[0.27708333333333335,-0.05555555555555555],[0.27708333333333335,-0.05555555555555555],[0.27708333333333335,-0.05555555555555555],[0.27708333333333335,-0.05555555555555555],[0.27708333333333335,-0.05555555555555555],[0.27708333333333335,-0.05555555555555555],[0.27708333333333335,-0.05555555555555555],[0.27708333333333335,-0.05555555555555555],[0.27708333333333335,-0.05555555555555555],[0.27708333333333335,-0.05555555555555555],[0.27708333333333335,-0.05555555555555555],[0.2760416666666667,-0.05555555555555555],[0.2760416666666667,-0.05555555555555555],[0.2760416666666667,-0.05555555555555555],[0.2760416666666667,-0.05555555555555555],[0.275,-0.05555555555555555],[0.27395833333333336,-0.05555555555555555],[0.27395833333333336,-0.05555555555555555],[0.27395833333333336,-0.05555555555555555],[0.27291666666666664,-0.05555555555555555],[0.271875,-0.053703703703703705],[0.271875,-0.05185185185185185],[0.26875,-0.05],[0.265625,-0.046296296296296294],[0.2625,-0.04259259259259259],[0.25833333333333336,-0.037037037037037035],[0.25104166666666666,-0.027777777777777776],[0.24166666666666667,-0.014814814814814815],[0.22916666666666666,-0.003703703703703704],[0.22083333333333333,0.005555555555555556],[0.2125,0.011111111111111112],[0.20416666666666666,0.020370370370370372],[0.19895833333333332,0.025925925925925925],[0.190625,0.03518518518518519],[0.18020833333333333,0.046296296296296294],[0.16770833333333332,0.06111111111111111],[0.14583333333333334,0.08148148148148149],[0.12395833333333334,0.10185185185185185],[0.10416666666666667,0.12222222222222222],[0.084375,0.1425925925925926],[0.06666666666666667,0.15925925925925927],[0.04791666666666667,0.1814814814814815],[0.028125,0.2037037037037037],[0.007291666666666667,0.22592592592592592],[-0.022916666666666665,0.2611111111111111],[-0.041666666666666664,0.2851851851851852],[-0.058333333333333334,0.3074074074074074],[-0.075,0.32592592592592595],[-0.0875,0.34444444444444444],[-0.09791666666666667,0.3592592592592593],[-0.10729166666666666,0.37962962962962965],[-0.11458333333333333,0.3962962962962963],[-0.12291666666666666,0.4111111111111111],[-0.13229166666666667,0.42777777777777776],[-0.134375,0.43148148148148147],[-0.13645833333333332,0.4388888888888889],[-0.1375,0.44814814814814813],[-0.14166666666666666,0.46111111111111114],[-0.14583333333333334,0.4740740740740741],[-0.15,0.4888888888888889],[-0.15416666666666667,0.5018518518518519],[-0.15729166666666666,0.5111111111111111],[-0.1625,0.5277777777777778],[-0.16666666666666666,0.5425925925925926],[-0.16979166666666667,0.5555555555555556],[-0.17083333333333334,0.5648148148148148],[-0.17291666666666666,0.5740740740740741],[-0.17395833333333333,0.5777777777777777],[-0.17395833333333333,0.5814814814814815],[-0.17395833333333333,0.5833333333333334],[-0.17395833333333333,0.5833333333333334],[-0.17395833333333333,0.5833333333333334],[-0.17395833333333333,0.5833333333333334],[-0.17395833333333333,0.5833333333333334],[-0.17395833333333333,0.5833333333333334],[-0.17395833333333333,0.5833333333333334],[-0.17395833333333333,0.5833333333333334],[-0.17395833333333333,0.5833333333333334],[-0.17395833333333333,0.5833333333333334],[-0.17395833333333333,0.5833333333333334],[-0.17395833333333333,0.5833333333333334],[-0.17395833333333333,0.5833333333333334],[-0.17395833333333333,0.5833333333333334],[-0.17395833333333333,0.5833333333333334],[-0.17395833333333333,0.5833333333333334],[-0.17395833333333333,0.5833333333333334],[-0.17395833333333333,0.5833333333333334],[-0.17395833333333333,0.5833333333333334],[-0.17395833333333333,0.5833333333333334],[-0.17395833333333333,0.5833333333333334],[-0.17395833333333333,0.5833333333333334],[-0.17395833333333333,0.5833333333333334],[-0.17291666666666666,0.5851851851851851],[-0.14270833333333333,0.5962962962962963],[-0.11770833333333333,0.6055555555555555],[-0.08645833333333333,0.6148148148148148],[-0.04895833333333333,0.6240740740740741],[-0.013541666666666667,0.6351851851851852],[0.023958333333333335,0.6462962962962963],[0.05416666666666667,0.6518518518518519],[0.07708333333333334,0.6592592592592592],[0.096875,0.6648148148148149],[0.11354166666666667,0.6685185185185185],[0.12708333333333333,0.6703703703703704],[0.140625,0.6759259259259259],[0.14791666666666667,0.6759259259259259],[0.15208333333333332,0.6759259259259259],[0.15416666666666667,0.6777777777777778],[0.15416666666666667,0.6777777777777778],[0.15416666666666667,0.6777777777777778],[0.15416666666666667,0.6777777777777778],[0.15833333333333333,0.6759259259259259],[0.175,0.6666666666666666],[0.18229166666666666,0.662962962962963],[0.190625,0.6592592592592592],[0.19479166666666667,0.6574074074074074],[0.19895833333333332,0.6537037037037037],[0.20625,0.6481481481481481],[0.2125,0.6407407407407407],[0.21666666666666667,0.6351851851851852],[0.22083333333333333,0.6296296296296297],[0.22395833333333334,0.6277777777777778],[0.22604166666666667,0.6259259259259259],[0.22604166666666667,0.6259259259259259],[0.22604166666666667,0.6259259259259259],[0.22604166666666667,0.6259259259259259],[0.22604166666666667,0.6259259259259259],[0.22604166666666667,0.6259259259259259],[0.22604166666666667,0.6259259259259259],[0.22604166666666667,0.6259259259259259],[0.22604166666666667,0.6259259259259259],[0.22604166666666667,0.6259259259259259],[0.22604166666666667,0.6259259259259259],[0.22604166666666667,0.6259259259259259],[0.22604166666666667,0.6259259259259259],[0.22604166666666667,0.6259259259259259],[0.22604166666666667,0.6259259259259259],[0.22604166666666667,0.6259259259259259],[0.22604166666666667,0.6259259259259259],[0.22604166666666667,0.6259259259259259],[0.22604166666666667,0.6259259259259259],[0.22604166666666667,0.6259259259259259],[0.22604166666666667,0.6259259259259259],[0.22604166666666667,0.6259259259259259],[0.22604166666666667,0.6259259259259259],[0.22604166666666667,0.6259259259259259],[0.22604166666666667,0.6259259259259259],[0.22604166666666667,0.6259259259259259],[0.22604166666666667,0.6259259259259259],[0.22604166666666667,0.6259259259259259],[0.22604166666666667,0.6259259259259259],[0.22604166666666667,0.6259259259259259],[0.22604166666666667,0.6259259259259259],[0.22604166666666667,0.6259259259259259],[0.22604166666666667,0.6259259259259259],[0.22604166666666667,0.6259259259259259],[0.22604166666666667,0.6259259259259259],[0.22604166666666667,0.6259259259259259],[0.22604166666666667,0.6259259259259259],[0.22604166666666667,0.6259259259259259],[0.22604166666666667,0.6259259259259259],[0.22604166666666667,0.6259259259259259],[0.22604166666666667,0.6259259259259259],[0.22604166666666667,0.6259259259259259],[0.22604166666666667,0.6259259259259259],[0.22604166666666667,0.6259259259259259],[0.22604166666666667,0.6259259259259259],[0.22604166666666667,0.6259259259259259],[0.22604166666666667,0.6259259259259259],[0.22604166666666667,0.6259259259259259],[0.22604166666666667,0.6259259259259259],[0.22604166666666667,0.6259259259259259],[0.22604166666666667,0.6259259259259259],[0.22604166666666667,0.6259259259259259],[0.22604166666666667,0.6259259259259259],[0.22604166666666667,0.6259259259259259],[0.22604166666666667,0.6259259259259259],[0.22604166666666667,0.6259259259259259],[0.22604166666666667,0.6259259259259259],[0.22604166666666667,0.6259259259259259],[0.22604166666666667,0.6259259259259259],[0.22604166666666667,0.6259259259259259],[0.22604166666666667,0.6259259259259259],[0.225,0.6222222222222222],[0.22395833333333334,0.6129629629629629],[0.22083333333333333,0.5944444444444444]]","[[0.08614583333333338,-0.2661111111111111],[0.08614583333333338,-0.2661111111111111],[0.08250000000000005,-0.2733333333333334],[0.0743750000000001,-0.28425925925925927],[0.07010416666666662,-0.28944444444444445],[0.07583333333333328,-0.28648148148148145],[0.06343749999999998,-0.26796296296296296],[0.06906249999999996,-0.2607407407407408],[0.07000000000000005,-0.2603703703703704],[0.07833333333333338,-0.2657407407407407],[0.07833333333333338,-0.2657407407407407],[0.08093750000000005,-0.28296296296296297],[0.07520833333333338,-0.30407407407407405],[0.06104166666666669,-0.3109259259259259],[0.05135416666666662,-0.3140740740740741],[0.06531250000000005,-0.3153703703703704],[0.06927083333333334,-0.3248148148148148],[0.06281249999999995,-0.3642592592592592],[0.035520833333333356,-0.38555555555555554],[0.012916666666666642,-0.4],[-0.0078125,-0.41333333333333333],[-0.013437499999999976,-0.4244444444444444],[-0.013437499999999976,-0.4244444444444444],[-0.01072916666666662,-0.4316666666666667],[-0.01072916666666662,-0.4316666666666667],[-0.013854166666666619,-0.4427777777777778],[-0.013854166666666619,-0.4427777777777778],[-0.009791666666666643,-0.45203703703703707],[-0.009791666666666643,-0.45203703703703707],[-0.07354166666666669,-0.4711111111111111],[-0.12927083333333336,-0.4740740740740741],[-0.16416666666666668,-0.4462962962962963],[-0.16416666666666668,-0.4462962962962963],[-0.19624999999999998,-0.42537037037037034],[-0.2185416666666666,-0.3888888888888889],[-0.2569791666666667,-0.36148148148148146],[-0.31052083333333336,-0.3362962962962963],[-0.31052083333333336,-0.3362962962962963],[-0.36739583333333337,-0.3140740740740741],[-0.4077083333333333,-0.2948148148148148],[-0.425,-0.2890740740740741],[-0.39812500000000006,-0.2753703703703704],[-0.37927083333333333,-0.2777777777777778],[-0.33864583333333337,-0.2801851851851852],[-0.29750000000000004,-0.2959259259259259],[-0.26458333333333334,-0.33555555555555555],[-0.26458333333333334,-0.33555555555555555],[-0.2155208333333333,-0.3661111111111111],[-0.17770833333333336,-0.39518518518518514],[-0.13770833333333338,-0.4172222222222222],[-0.13770833333333338,-0.4172222222222222],[-0.0985416666666667,-0.43555555555555553],[-0.0985416666666667,-0.43555555555555553],[-0.08458333333333339,-0.4479629629629629],[-0.08354166666666671,-0.47444444444444445],[-0.06937500000000002,-0.5005555555555555],[-0.06937500000000002,-0.5005555555555555],[-0.06875,-0.5303703703703704],[-0.07572916666666671,-0.5353703703703704],[-0.07572916666666671,-0.5353703703703704],[-0.08406250000000005,-0.5335185185185186],[-0.09239583333333339,-0.5401851851851852],[-0.07239583333333334,-0.5674074074074074],[-0.04635416666666667,-0.5638888888888889],[-0.019166666666666644,-0.5612962962962963],[0.002812500000000047,-0.552962962962963],[0.002812500000000047,-0.552962962962963],[0.03229166666666667,-0.5322222222222222],[0.04864583333333338,-0.5118518518518518],[0.05281250000000005,-0.5074074074074074],[0.0640625,-0.5144444444444445],[0.0943749999999999,-0.4888888888888889],[0.12468750000000005,-0.45481481481481484],[0.12479166666666662,-0.4294444444444444],[0.12000000000000005,-0.4388888888888889],[0.10989583333333333,-0.44092592592592594],[0.10989583333333333,-0.44092592592592594],[0.1134375000000001,-0.4457407407407407],[0.14208333333333342,-0.4492592592592593],[0.14208333333333342,-0.4492592592592593],[0.20885416666666667,-0.4475925925925926],[0.27281250000000007,-0.4101851851851852],[0.3367708333333333,-0.3727777777777778],[0.3836458333333333,-0.3677777777777778],[0.4305208333333333,-0.36277777777777775],[0.49072916666666655,-0.35111111111111115],[0.5483333333333335,-0.32888888888888895],[0.6135416666666667,-0.31870370370370377],[0.6135416666666667,-0.31870370370370377],[0.6653125000000001,-0.30574074074074076],[0.6653125000000001,-0.30574074074074076],[0.6634375000000001,-0.3085185185185186],[0.6634375000000001,-0.3085185185185186],[0.5339583333333332,-0.3242592592592593],[0.41947916666666674,-0.3387037037037037],[0.3056250000000001,-0.3472222222222222],[0.18958333333333333,-0.3544444444444444],[0.06499999999999997,-0.3696296296296297],[-0.052291666666666715,-0.3587037037037037],[-0.16531250000000006,-0.3368518518518518],[-0.2778125000000001,-0.33129629629629626],[-0.39958333333333335,-0.33185185185185184],[-0.4940625,-0.29740740740740745],[-0.4942708333333333,-0.2675925925925926],[-0.5002083333333334,-0.2646296296296296],[-0.49864583333333334,-0.272037037037037],[-0.4970833333333333,-0.2794444444444444],[-0.4925,-0.27981481481481485],[-0.49541666666666667,-0.2851851851851852],[-0.5058333333333334,-0.30925925925925923],[-0.5207291666666667,-0.3338888888888889],[-0.5172916666666667,-0.3290740740740741],[-0.505,-0.33666666666666667],[-0.5083333333333333,-0.3396296296296296],[-0.5116666666666666,-0.3425925925925926],[-0.5235416666666667,-0.34148148148148144],[-0.5354166666666667,-0.3403703703703704],[-0.5354166666666667,-0.3403703703703704],[-0.5184375,-0.334074074074074],[-0.4502083333333334,-0.31574074074074077],[-0.37520833333333337,-0.2929629629629629],[-0.3063541666666667,-0.2564814814814815],[-0.24656250000000005,-0.2433333333333333],[-0.1798958333333334,-0.25333333333333335],[-0.10447916666666662,-0.24814814814814815],[-0.04645833333333336,-0.24129629629629631],[0.011979166666666667,-0.23407407407407405],[0.08250000000000005,-0.24388888888888888],[0.1296875,-0.257962962962963],[0.1209374999999999,-0.2862962962962963],[0.11124999999999995,-0.3218518518518519],[0.11916666666666677,-0.34444444444444444],[0.11916666666666677,-0.34444444444444444],[0.12708333333333333,-0.367037037037037],[0.171875,-0.3594444444444445],[0.23166666666666677,-0.37962962962962965],[0.30354166666666677,-0.4064814814814815],[0.3754166666666668,-0.43333333333333335],[0.4352083333333333,-0.4431481481481482],[0.4986458333333334,-0.4588888888888889],[0.5667708333333332,-0.47240740740740744],[0.6263541666666667,-0.4792592592592593],[0.675,-0.4903703703703704],[0.7363541666666668,-0.5038888888888889],[0.7517708333333334,-0.5309259259259259],[0.7527083333333332,-0.5381481481481482],[0.7527083333333332,-0.5381481481481482],[0.7589583333333333,-0.5403703703703704],[0.7693749999999999,-0.5398148148148149],[0.7818749999999999,-0.5387037037037037],[0.7867708333333333,-0.5383333333333333],[0.8086458333333333,-0.5242592592592593],[0.8390625,-0.5168518518518519],[0.8188541666666665,-0.522037037037037],[0.7859375,-0.5248148148148147],[0.6922916666666665,-0.49000000000000005],[0.6002083333333333,-0.4546296296296296],[0.5044791666666666,-0.4225925925925926],[0.5044791666666666,-0.4225925925925926],[0.4132291666666667,-0.39166666666666666],[0.3198958333333332,-0.36129629629629634],[0.2275000000000001,-0.3362962962962963],[0.2275000000000001,-0.3362962962962963],[0.11812500000000009,-0.325],[0.010520833333333358,-0.3],[-0.05354166666666664,-0.2609259259259259],[-0.11760416666666665,-0.22185185185185188],[-0.11385416666666662,-0.22481481481481477],[-0.10208333333333333,-0.23129629629629625],[-0.13447916666666668,-0.21185185185185182],[-0.13447916666666668,-0.21185185185185182],[-0.17895833333333327,-0.20833333333333334],[-0.17895833333333327,-0.20833333333333334],[-0.21781250000000002,-0.21518518518518517],[-0.26052083333333337,-0.1992592592592593],[-0.3032291666666667,-0.1685185185185185],[-0.3032291666666667,-0.1685185185185185],[-0.3477083333333333,-0.1514814814814815],[-0.3802083333333333,-0.147037037037037],[-0.4147916666666667,-0.15759259259259265],[-0.45645833333333335,-0.16370370370370366],[-0.5021875,-0.14481481481481479],[-0.5001041666666667,-0.1485185185185185],[-0.4445833333333333,-0.14537037037037037],[-0.39468749999999997,-0.13185185185185183],[-0.32312500000000005,-0.10888888888888891],[-0.24427083333333333,-0.10203703703703708],[-0.16541666666666663,-0.09518518518518514],[-0.09145833333333328,-0.0772222222222222],[-0.019375000000000024,-0.05388888888888893],[0.05270833333333336,-0.030555555555555555],[0.10583333333333324,-0.03740740740740749],[0.15895833333333323,-0.04425925925925922],[0.18385416666666668,-0.03222222222222218],[0.2087500000000001,-0.020185185185185143],[0.2209374999999999,-0.027222222222222307],[0.22583333333333327,-0.03296296296296288],[0.22312500000000005,-0.04148148148148144],[0.22041666666666657,-0.05],[0.225,-0.0514814814814814],[0.22958333333333342,-0.052962962962963],[0.2491666666666667,-0.041666666666666664],[0.2491666666666667,-0.041666666666666664],[0.26875,-0.03037037037037033],[0.2978125000000001,-0.031111111111111027],[0.3359375,-0.026481481481481398],[0.3610416666666666,-0.02388888888888885],[0.3610416666666666,-0.02388888888888885],[0.3797916666666666,-0.025370370370370456],[0.42177083333333343,-0.028888888888888933],[0.46375000000000005,-0.032407407407407406],[0.4982291666666666,-0.026111111111111154],[0.4982291666666666,-0.026111111111111154],[0.5327083333333335,-0.0198148148148149],[0.566875,-0.011296296296296339],[0.6036458333333333,-0.018703703703703747],[0.6088541666666667,-0.012407407407407492],[0.6088541666666667,-0.012407407407407492],[0.6036458333333333,-0.025925925925925925],[0.6079166666666665,-0.04407407407407399],[0.6185416666666667,-0.05814814814814811],[0.6064583333333334,-0.05129629629629638],[0.6064583333333334,-0.05129629629629638],[0.5943749999999999,-0.044444444444444446],[0.5858333333333334,-0.05018518518518523],[0.5387500000000001,-0.06296296296296296],[0.5016666666666666,-0.06796296296296295],[0.45437500000000003,-0.050370370370370454],[0.40739583333333323,-0.04592592592592584],[0.3702083333333334,-0.0235185185185186],[0.3702083333333334,-0.0235185185185186],[0.34562499999999996,-0.010185185185185186],[0.3210416666666667,0.0031481481481482323],[0.29375,-0.010925925925925884],[0.2664583333333333,-0.025],[0.23208333333333328,-0.010740740740740657],[0.23208333333333328,-0.010740740740740657],[0.23624999999999996,0.01055555555555564],[0.2171875,0.027962962962963005],[0.20833333333333334,0.03166666666666671],[0.20989583333333334,0.06222222222222226],[0.20010416666666658,0.09518518518518514],[0.18083333333333323,0.13481481481481472],[0.16124999999999995,0.14037037037037028],[0.14364583333333342,0.17222222222222222],[0.14364583333333342,0.17222222222222222],[0.11875,0.20629629629629626],[0.11875,0.20629629629629626],[0.08833333333333329,0.2388888888888889],[0.051979166666666646,0.2596296296296297],[0.02958333333333331,0.2572222222222222],[0.017499999999999953,0.2764814814814814],[-0.004999999999999952,0.26888888888888896],[-0.024374999999999977,0.25462962962962965],[-0.041666666666666664,0.23833333333333342],[-0.08916666666666669,0.2514814814814814],[-0.12885416666666671,0.24962962962962953],[-0.12885416666666671,0.24962962962962953],[-0.17177083333333332,0.2403703703703703],[-0.20843750000000003,0.2205555555555556],[-0.21187499999999998,0.21277777777777773],[-0.2390625,0.20203703703703707],[-0.2390625,0.20203703703703707],[-0.2791666666666667,0.1766666666666666],[-0.3223958333333333,0.16314814814814818],[-0.37312500000000004,0.14444444444444443],[-0.37312500000000004,0.14444444444444443],[-0.4366666666666667,0.13925925925925933],[-0.4366666666666667,0.13925925925925933],[-0.42916666666666664,0.147037037037037],[-0.4310416666666666,0.14944444444444452],[-0.42999999999999994,0.1603703703703704],[-0.42999999999999994,0.1603703703703704],[-0.4139583333333333,0.16407407407407412],[-0.4023958333333333,0.18777777777777774],[-0.34406249999999994,0.20092592592592592],[-0.2685416666666666,0.2390740740740741],[-0.17260416666666673,0.2598148148148147],[-0.06937500000000002,0.28648148148148156],[0.03177083333333333,0.31055555555555564],[0.09239583333333339,0.32629629629629636],[0.09239583333333339,0.32629629629629636],[0.14833333333333343,0.35111111111111115],[0.2228125000000001,0.38259259259259265],[0.28927083333333337,0.4103703703703704],[0.32364583333333335,0.4020370370370371],[0.3345833333333334,0.42018518518518516],[0.32958333333333345,0.4166666666666667],[0.3072916666666667,0.41870370370370374],[0.2829166666666666,0.42055555555555557],[0.2696875000000001,0.4214814814814815],[0.25906250000000003,0.4270370370370371],[0.2625,0.42888888888888893],[0.26760416666666675,0.4024074074074073],[0.2727083333333333,0.37592592592592594],[0.29447916666666674,0.3822222222222222],[0.3162499999999999,0.38851851851851843],[0.3242708333333333,0.39518518518518514],[0.33229166666666665,0.40185185185185185],[0.34656250000000005,0.40185185185185185],[0.36083333333333345,0.40185185185185185],[0.3807291666666667,0.38944444444444437],[0.4006249999999999,0.37703703703703706],[0.4,0.38129629629629624],[0.3993750000000001,0.38555555555555565],[0.37947916666666665,0.34148148148148144],[0.35958333333333337,0.29740740740740745],[0.3071875000000001,0.18407407407407403],[0.2700000000000001,0.06111111111111111],[0.23104166666666662,-0.05907407407407403],[0.19135416666666671,-0.1809259259259259],[0.1560416666666666,-0.2903703703703704],[0.11635416666666672,-0.4044444444444444],[0.06625000000000002,-0.49740740740740746],[0.016145833333333335,-0.5903703703703704],[-0.009062500000000048,-0.6633333333333333],[-0.03427083333333331,-0.7362962962962963],[-0.028437499999999952,-0.7462962962962963],[-0.03781249999999995,-0.7466666666666667],[-0.03583333333333331,-0.7331481481481481],[-0.03312499999999995,-0.7179629629629629],[-0.04041666666666662,-0.7201851851851852],[-0.03708333333333336,-0.732962962962963],[-0.01114583333333338,-0.7461111111111111],[0.03260416666666662,-0.7538888888888889],[0.05562499999999997,-0.7698148148148148],[0.08937499999999995,-0.7792592592592593],[0.08937499999999995,-0.7792592592592593],[0.1466666666666666,-0.7874074074074073],[0.1834374999999999,-0.7807407407407407],[0.1943749999999999,-0.7609259259259259],[0.2039583333333333,-0.7374074074074074],[0.2039583333333333,-0.7374074074074074],[0.209375,-0.7179629629629629],[0.20979166666666677,-0.6888888888888889],[0.20583333333333323,-0.6094444444444445],[0.18406250000000005,-0.5353703703703704],[0.16302083333333334,-0.4401851851851852],[0.13125,-0.3514814814814815],[0.08989583333333329,-0.255],[0.06906249999999996,-0.17333333333333337],[0.06614583333333333,-0.1205555555555556],[0.06458333333333334,-0.07148148148148152],[0.06333333333333328,-0.012037037037037037],[0.06083333333333331,0.052962962962963],[0.058749999999999976,0.036481481481481566],[0.06177083333333329,0.018703703703703747],[0.06499999999999997,-0.007962962962962878],[0.06822916666666666,-0.03462962962962971],[0.05291666666666662,-0.07444444444444442],[0.03760416666666669,-0.11425925925925924],[0.029999999999999954,-0.13148148148148148],[0.029999999999999954,-0.13148148148148148],[0.022395833333333334,-0.14870370370370373],[0.0026041666666666665,-0.16833333333333328],[-0.006458333333333381,-0.17518518518518522],[-0.024687500000000046,-0.18203703703703705],[-0.024687500000000046,-0.18203703703703705],[-0.044062499999999956,-0.18722222222222226],[-0.05489583333333338,-0.17981481481481484],[-0.06572916666666669,-0.17240740740740745],[-0.04468749999999998,-0.18499999999999997],[-0.02374999999999995,-0.19462962962962968],[-0.017499999999999953,-0.22314814814814815],[-0.011249999999999953,-0.25166666666666665],[-0.003333333333333381,-0.27018518518518514],[-0.00614583333333331,-0.3014814814814815],[0.011458333333333333,-0.31555555555555553],[0.02510416666666669,-0.32999999999999996],[0.02510416666666669,-0.32999999999999996],[0.033749999999999974,-0.34629629629629627],[0.05281250000000005,-0.3794444444444444],[0.058541666666666714,-0.3859259259259259],[0.07645833333333343,-0.3853703703703704],[0.09552083333333337,-0.38259259259259265],[0.1140625,-0.38555555555555554],[0.14572916666666677,-0.3853703703703704],[0.17739583333333328,-0.3851851851851852],[0.1974999999999999,-0.38499999999999995],[0.21760416666666677,-0.38481481481481483],[0.24093749999999994,-0.38796296296296295],[0.2525000000000001,-0.35722222222222216],[0.2640625,-0.3264814814814815],[0.27218749999999997,-0.3037037037037037],[0.2803124999999999,-0.2809259259259259],[0.27885416666666674,-0.24000000000000005],[0.2760416666666667,-0.20333333333333337],[0.27156250000000004,-0.1690740740740741],[0.26708333333333345,-0.14000000000000004],[0.27583333333333326,-0.11574074074074074],[0.28458333333333335,-0.09148148148148144],[0.2682291666666667,-0.07462962962962966],[0.25187499999999996,-0.057777777777777754],[0.2334374999999999,-0.06092592592592588],[0.2150000000000001,-0.06407407407407412],[0.2273958333333333,-0.07925925925925928],[0.2397916666666667,-0.09444444444444444],[0.24489583333333323,-0.11203703703703703],[0.24489583333333323,-0.11203703703703703],[0.25,-0.10240740740740743],[0.2412499999999999,-0.07666666666666662],[0.23583333333333342,-0.05092592592592592],[0.2543750000000001,-0.049074074074074076],[0.26802083333333326,-0.0448148148148149],[0.2751041666666666,-0.022592592592592678],[0.29052083333333345,0.020740740740740823],[0.28125,0.04333333333333329],[0.28125,0.04333333333333329],[0.2642708333333334,0.06629629629629621],[0.26416666666666655,0.09462962962962967],[0.26416666666666655,0.09462962962962967],[0.2631249999999999,0.09388888888888898],[0.2381249999999999,0.07555555555555547],[0.2381249999999999,0.07555555555555547],[0.15364583333333334,0.05314814814814823],[0.08114583333333343,0.05648148148148148],[0.013541666666666667,0.05740740740740741],[-0.00458333333333331,0.05092592592592592],[-0.03104166666666662,0.023333333333333376],[-0.03104166666666662,0.023333333333333376],[-0.07166666666666661,0.015000000000000043],[-0.06781250000000003,0.012407407407407492],[-0.071875,0.009259259259259259],[-0.07479166666666662,0.006666666666666709],[-0.07479166666666662,0.006666666666666709],[-0.03322916666666664,-0.018518518518518517],[0.05666666666666664,-0.032037037037036954],[0.11604166666666677,-0.07518518518518523],[0.11604166666666677,-0.07518518518518523],[0.1805208333333333,-0.11092592592592589],[0.16760416666666675,-0.15111111111111114],[0.16760416666666675,-0.15111111111111114],[0.16677083333333323,-0.18796296296296297],[0.17822916666666658,-0.22481481481481477],[0.15291666666666662,-0.26777777777777784],[0.15291666666666662,-0.26777777777777784],[0.11958333333333329,-0.29500000000000004],[0.11958333333333329,-0.29500000000000004],[0.08875000000000005,-0.31925925925925924],[0.041562499999999974,-0.3538888888888889],[0.041562499999999974,-0.3538888888888889],[0.0021875000000000236,-0.3961111111111111],[-0.020729166666666642,-0.39518518518518514],[-0.06312500000000003,-0.39944444444444444],[-0.07760416666666667,-0.3918518518518519],[-0.11468750000000003,-0.3983333333333334],[-0.11468750000000003,-0.3983333333333334],[-0.140625,-0.40055555555555555],[-0.16656249999999997,-0.4027777777777778],[-0.17541666666666664,-0.42240740740740745],[-0.17541666666666664,-0.42240740740740745],[-0.1851041666666667,-0.44370370370370377],[-0.1851041666666667,-0.44370370370370377],[-0.19885416666666664,-0.4396296296296296],[-0.2085416666666667,-0.4192592592592592],[-0.2123958333333333,-0.4305555555555556],[-0.2123958333333333,-0.4305555555555556],[-0.20718749999999997,-0.4546296296296296],[-0.18979166666666672,-0.48703703703703705],[-0.15791666666666668,-0.49370370370370376],[-0.1313541666666667,-0.5035185185185185],[-0.08479166666666664,-0.48703703703703705],[-0.04729166666666664,-0.46888888888888886],[-0.011666666666666714,-0.4311111111111111],[0.025416666666666643,-0.3731481481481482],[0.057604166666666616,-0.33259259259259266],[0.08854166666666667,-0.2853703703703704],[0.13791666666666677,-0.22518518518518524],[0.16458333333333333,-0.14981481481481476],[0.2029166666666666,-0.09888888888888885],[0.2029166666666666,-0.09888888888888885],[0.2367708333333333,-0.05277777777777778],[0.25062499999999993,-0.03296296296296288],[0.29104166666666675,-0.009259259259259259],[0.33145833333333335,-0.005185185185185101],[0.3719791666666666,-0.009444444444444486],[0.4133333333333333,-0.012592592592592508],[0.4133333333333333,-0.012592592592592508],[0.46041666666666664,-0.02444444444444453],[0.42208333333333337,-0.06648148148148143],[0.3866666666666667,-0.1161111111111111],[0.34708333333333335,-0.14537037037037037],[0.34708333333333335,-0.14537037037037037],[0.30364583333333334,-0.18888888888888888],[0.2564583333333334,-0.23777777777777773],[0.19864583333333338,-0.27814814814814814],[0.19864583333333338,-0.27814814814814814],[0.12979166666666658,-0.3383333333333333],[0.04375,-0.37537037037037035],[-0.016458333333333287,-0.43870370370370365],[-0.06979166666666667,-0.4935185185185185],[-0.05697916666666671,-0.5257407407407407],[-0.05697916666666671,-0.5257407407407407],[-0.02791666666666662,-0.5525925925925925],[-0.02791666666666662,-0.5525925925925925],[-0.027187500000000024,-0.5505555555555556],[-0.015104166666666667,-0.528888888888889],[0.01864583333333331,-0.5138888888888888],[0.03718750000000005,-0.5364814814814814],[0.06677083333333324,-0.5392592592592592],[0.06677083333333324,-0.5392592592592592],[0.11114583333333337,-0.5462962962962963],[0.11989583333333324,-0.5653703703703704],[0.12958333333333344,-0.5770370370370371],[0.13958333333333334,-0.5818518518518518],[0.13666666666666671,-0.58],[0.1632291666666667,-0.6044444444444445],[0.18427083333333344,-0.6507407407407407],[0.18739583333333343,-0.6742592592592593],[0.19052083333333342,-0.6581481481481481],[0.19364583333333343,-0.642037037037037],[0.1881249999999999,-0.6631481481481482],[0.19239583333333338,-0.6459259259259259],[0.19739583333333333,-0.6092592592592593],[0.20822916666666677,-0.5742592592592592],[0.22218749999999995,-0.542037037037037],[0.22218749999999995,-0.5264814814814816],[0.20520833333333333,-0.4633333333333333],[0.18822916666666673,-0.41092592592592586],[0.19145833333333329,-0.37222222222222223],[0.19104166666666675,-0.38629629629629636],[0.2127083333333334,-0.357962962962963],[0.234375,-0.3296296296296296],[0.22427083333333328,-0.33240740740740743],[0.21416666666666656,-0.3351851851851852],[0.2103125000000001,-0.3477777777777778],[0.2078125,-0.35722222222222216],[0.2165625000000001,-0.39759259259259255],[0.22531249999999994,-0.43796296296296294],[0.20343749999999997,-0.46166666666666667],[0.18520833333333328,-0.43259259259259264],[0.1273958333333333,-0.4361111111111111],[0.0865624999999999,-0.4418518518518519],[0.035312499999999976,-0.4433333333333333],[0.009375,-0.4359259259259259],[-0.024062500000000025,-0.4316666666666667],[-0.09093749999999995,-0.4275925925925925],[-0.12416666666666672,-0.4064814814814815],[-0.12416666666666672,-0.4064814814814815],[-0.15739583333333335,-0.3853703703703704],[-0.1779166666666666,-0.4064814814814815],[-0.1866666666666667,-0.4275925925925925],[-0.1686458333333333,-0.43648148148148147],[-0.1580208333333334,-0.4662962962962963],[-0.1014583333333333,-0.5181481481481481],[-0.08552083333333335,-0.5590740740740741],[-0.06354166666666666,-0.6088888888888889],[-0.008124999999999953,-0.6585185185185186],[0.021875,-0.7205555555555556],[0.07479166666666662,-0.7577777777777778],[0.10656249999999995,-0.8046296296296296],[0.13354166666666673,-0.835],[0.18093750000000006,-0.8866666666666667],[0.18364583333333329,-0.8733333333333334],[0.1678124999999999,-0.837037037037037],[0.1759375000000001,-0.8],[0.1756249999999999,-0.7374074074074074],[0.1756249999999999,-0.7374074074074074],[0.18104166666666663,-0.7246296296296296],[0.17927083333333324,-0.6950000000000001],[0.15770833333333342,-0.6922222222222223],[0.1728125000000001,-0.6572222222222222],[0.17020833333333343,-0.6287037037037037],[0.14395833333333338,-0.5679629629629629],[0.18583333333333343,-0.5472222222222223],[0.18239583333333323,-0.5731481481481482],[0.17552083333333332,-0.6157407407407407],[0.15354166666666677,-0.6935185185185185],[0.15354166666666677,-0.6935185185185185],[0.12760416666666666,-0.7225925925925926],[0.12760416666666666,-0.7225925925925926],[0.13177083333333334,-0.7437037037037038]]","[[0.08614583333333338,-0.2661111111111111,0.0002999999970256795],[0.08614583333333338,-0.2661111111111111,0.0492000000029833],[0.08250000000000005,-0.2733333333333334,0.059700000002976594],[0.0743750000000001,-0.28425925925925927,0.07639999999106806],[0.07010416666666662,-0.28944444444444445,0.09300000000000352],[0.07583333333333328,-0.28648148148148145,0.11239999999105521],[0.06343749999999998,-0.26796296296296296,0.12659999999404192],[0.06906249999999996,-0.2607407407407408,0.14309999999403544],[0.07000000000000005,-0.2603703703703704,0.16339999999105714],[0.07833333333333338,-0.2657407407407407,0.18179999999702545],[0.07833333333333338,-0.2657407407407407,0.19320000000298876],[0.08093750000000005,-0.28296296296296297,0.20979999999701704],[0.07520833333333338,-0.30407407407407405,0.2297000000029783],[0.06104166666666669,-0.3109259259259259,0.24459999999403692],[0.05135416666666662,-0.3140740740740741,0.2642999999970215],[0.06531250000000005,-0.3153703703703704,0.2788999999910544],[0.06927083333333334,-0.3248148148148148,0.29329999999701784],[0.06281249999999995,-0.3642592592592592,0.3097000000029766],[0.035520833333333356,-0.38555555555555554,0.3264999999999958],[0.012916666666666642,-0.4,0.3430000000000035],[-0.0078125,-0.41333333333333333,0.3635999999940367],[-0.013437499999999976,-0.4244444444444444,0.3817000000029793],[-0.013437499999999976,-0.4244444444444444,0.39889999999105896],[-0.01072916666666662,-0.4316666666666667,0.4134999999999991],[-0.01072916666666662,-0.4316666666666667,0.4263999999910624],[-0.013854166666666619,-0.4427777777777778,0.4430999999940468],[-0.013854166666666619,-0.4427777777777778,0.4597000000029823],[-0.009791666666666643,-0.45203703703703707,0.47639999999105953],[-0.009791666666666643,-0.45203703703703707,0.49309999999404397],[-0.07354166666666669,-0.4711111111111111,0.5097999999970284],[-0.12927083333333336,-0.4740740740740741,0.5288999999910544],[-0.16416666666666668,-0.4462962962962963,0.5432999999970178],[-0.16416666666666668,-0.4462962962962963,0.5597999999970256],[-0.19624999999999998,-0.42537037037037034,0.5764999999999958],[-0.2185416666666666,-0.3888888888888889,0.5930999999940383],[-0.2569791666666667,-0.36148148148148146,0.6107999999970275],[-0.31052083333333336,-0.3362962962962963,0.6265000000000072],[-0.31052083333333336,-0.3362962962962963,0.6430999999940354],[-0.36739583333333337,-0.3140740740740741,0.6597000000029851],[-0.4077083333333333,-0.2948148148148148,0.6765000000000043],[-0.425,-0.2890740740740741,0.6957000000029865],[-0.39812500000000006,-0.2753703703703704,0.7097000000029823],[-0.37927083333333333,-0.2777777777777778,0.7263999999910595],[-0.33864583333333337,-0.2801851851851852,0.7432000000029859],[-0.29750000000000004,-0.2959259259259259,0.7597999999970284],[-0.26458333333333334,-0.33555555555555555,0.7790999999940453],[-0.26458333333333334,-0.33555555555555555,0.7935000000000088],[-0.2155208333333333,-0.3661111111111111,0.8098999999910603],[-0.17770833333333336,-0.39518518518518514,0.8283999999910634],[-0.13770833333333338,-0.4172222222222222,0.8447999999970222],[-0.13770833333333338,-0.4172222222222222,0.8597999999970227],[-0.0985416666666667,-0.43555555555555553,0.8765000000000072],[-0.0985416666666667,-0.43555555555555553,0.8930999999940354],[-0.08458333333333339,-0.4479629629629629,0.9098999999910546],[-0.08354166666666671,-0.47444444444444445,0.9320000000000022],[-0.06937500000000002,-0.5005555555555555,0.9463999999910584],[-0.06937500000000002,-0.5005555555555555,0.959799999997017],[-0.06875,-0.5303703703703704,0.9765000000000015],[-0.07572916666666671,-0.5353703703703704,0.9965999999940465],[-0.07572916666666671,-0.5353703703703704,1.0097000000029794],[-0.08406250000000005,-0.5335185185185186,1.0264999999999986],[-0.09239583333333339,-0.5401851851851852,1.0430999999940411],[-0.07239583333333334,-0.5674074074074074,1.0618999999910557],[-0.04635416666666667,-0.5638888888888889,1.0775000000000006],[-0.019166666666666644,-0.5612962962962963,1.0930999999940383],[0.002812500000000047,-0.552962962962963,1.1132999999970252],[0.002812500000000047,-0.552962962962963,1.1263999999910652],[0.03229166666666667,-0.5322222222222222,1.1430999999940354],[0.04864583333333338,-0.5118518518518518,1.1632999999970224],[0.05281250000000005,-0.5074074074074074,1.1820000000000022],[0.0640625,-0.5144444444444445,1.196799999997026],[0.0943749999999999,-0.4888888888888889,1.2102999999970194],[0.12468750000000005,-0.45481481481481484,1.2295000000000016],[0.12479166666666662,-0.4294444444444444,1.2447999999970278],[0.12000000000000005,-0.4388888888888889,1.2605999999940423],[0.10989583333333333,-0.44092592592592594,1.2792000000029873],[0.10989583333333333,-0.44092592592592594,1.293200000002983],[0.1134375000000001,-0.4457407407407407,1.3098999999910603],[0.14208333333333342,-0.4492592592592593,1.3299999999999983],[0.14208333333333342,-0.4492592592592593,1.3430999999940383],[0.20885416666666667,-0.4475925925925926,1.3597999999970227],[0.27281250000000007,-0.4101851851851852,1.3765000000000072],[0.3367708333333333,-0.3727777777777778,1.3962999999970265],[0.3836458333333333,-0.3677777777777778,1.4115000000000038],[0.4305208333333333,-0.36277777777777775,1.4265000000000043],[0.49072916666666655,-0.35111111111111115,1.445899999991056],[0.5483333333333335,-0.32888888888888895,1.4632000000029848],[0.6135416666666667,-0.31870370370370377,1.4765000000000015],[0.6135416666666667,-0.31870370370370377,1.493099999994044],[0.6653125000000001,-0.30574074074074076,1.5097000000029794],[0.6653125000000001,-0.30574074074074076,1.5263999999910567],[0.6634375000000001,-0.3085185185185186,1.543200000002983],[0.6634375000000001,-0.3085185185185186,1.5598999999910603],[0.5339583333333332,-0.3242592592592593,1.5764999999999958],[0.41947916666666674,-0.3387037037037037,1.5930000000000035],[0.3056250000000001,-0.3472222222222222,1.6127999999970228],[0.18958333333333333,-0.3544444444444444,1.6269999999999953],[0.06499999999999997,-0.3696296296296297,1.6430999999940354],[-0.052291666666666715,-0.3587037037037037,1.6613999999910618],[-0.16531250000000006,-0.3368518518518518,1.6763999999910624],[-0.2778125000000001,-0.33129629629629626,1.6957999999970212],[-0.39958333333333335,-0.33185185185185184,1.7097000000029823],[-0.4940625,-0.29740740740740745,1.7265000000000015],[-0.4942708333333333,-0.2675925925925926,1.743099999994044],[-0.5002083333333334,-0.2646296296296296,1.760799999997019],[-0.49864583333333334,-0.272037037037037,1.7792000000029873],[-0.4970833333333333,-0.2794444444444444,1.793200000002983],[-0.4925,-0.27981481481481485,1.8097999999970256],[-0.49541666666666667,-0.2851851851851852,1.826399999991068],[-0.5058333333333334,-0.30925925925925923,1.8430999999940383],[-0.5207291666666667,-0.3338888888888889,1.8624999999999972],[-0.5172916666666667,-0.3290740740740741,1.8783999999910606],[-0.505,-0.33666666666666667,1.894899999991054],[-0.5083333333333333,-0.3396296296296296,1.9097999999970199],[-0.5116666666666666,-0.3425925925925926,1.9263999999910624],[-0.5235416666666667,-0.34148148148148144,1.9455999999940445],[-0.5354166666666667,-0.3403703703703704,1.9608999999910566],[-0.5354166666666667,-0.3403703703703704,1.9763999999910595],[-0.5184375,-0.334074074074074,1.992999999999995],[-0.4502083333333334,-0.31574074074074077,2.0097000000029794],[-0.37520833333333337,-0.2929629629629629,2.030000000000001],[-0.3063541666666667,-0.2564814814814815,2.0448999999910598],[-0.24656250000000005,-0.2433333333333333,2.063399999991063],[-0.1798958333333334,-0.25333333333333335,2.0767999999970215],[-0.10447916666666662,-0.24814814814814815,2.0930000000000035],[-0.04645833333333336,-0.24129629629629631,2.1128999999910576],[0.011979166666666667,-0.23407407407407405,2.1270999999940443],[0.08250000000000005,-0.24388888888888888,2.1430000000000007],[0.1296875,-0.257962962962963,2.1607999999970247],[0.1209374999999999,-0.2862962962962963,2.1763999999910624],[0.11124999999999995,-0.3218518518518519,2.1954999999999956],[0.11916666666666677,-0.34444444444444444,2.211500000000001],[0.11916666666666677,-0.34444444444444444,2.2263999999910595],[0.12708333333333333,-0.367037037037037,2.242999999999995],[0.171875,-0.3594444444444445,2.2597999999970284],[0.23166666666666677,-0.37962962962962965,2.279399999991057],[0.30354166666666677,-0.4064814814814815,2.293899999991055],[0.3754166666666668,-0.43333333333333335,2.3097000000029766],[0.4352083333333333,-0.4431481481481482,2.326499999999996],[0.4986458333333334,-0.4588888888888889,2.3430999999940383],[0.5667708333333332,-0.47240740740740744,2.362700000002988],[0.6263541666666667,-0.4792592592592593,2.3767999999970186],[0.675,-0.4903703703703704,2.3930999999940354],[0.7363541666666668,-0.5038888888888889,2.40979999999702],[0.7517708333333334,-0.5309259259259259,2.4262999999970276],[0.7527083333333332,-0.5381481481481482,2.445999999999998],[0.7527083333333332,-0.5381481481481482,2.4597000000029823],[0.7589583333333333,-0.5403703703703704,2.4765000000000015],[0.7693749999999999,-0.5398148148148149,2.4934999999999974],[0.7818749999999999,-0.5387037037037037,2.5097000000029794],[0.7867708333333333,-0.5383333333333333,2.5288999999910544],[0.8086458333333333,-0.5242592592592593,2.543999999999997],[0.8390625,-0.5168518518518519,2.5614999999999952],[0.8188541666666665,-0.522037037037037,2.577200000002989],[0.7859375,-0.5248148148148147,2.5930999999940383],[0.6922916666666665,-0.49000000000000005,2.612399999991055],[0.6002083333333333,-0.4546296296296296,2.6272000000029863],[0.5044791666666666,-0.4225925925925926,2.647299999997017],[0.5044791666666666,-0.4225925925925926,2.659700000002985],[0.4132291666666667,-0.39166666666666666,2.6763999999910624],[0.3198958333333332,-0.36129629629629634,2.6957999999970212],[0.2275000000000001,-0.3362962962962963,2.7102999999970194],[0.2275000000000001,-0.3362962962962963,2.7263999999910595],[0.11812500000000009,-0.325,2.743099999994044],[0.010520833333333358,-0.3,2.764700000002989],[-0.05354166666666664,-0.2609259259259259,2.7788999999910544],[-0.11760416666666665,-0.22185185185185188,2.793200000002983],[-0.11385416666666662,-0.22481481481481477,2.8097999999970256],[-0.10208333333333333,-0.23129629629629625,2.8299999999999983],[-0.13447916666666668,-0.21185185185185182,2.8490999999940385],[-0.13447916666666668,-0.21185185185185182,2.859700000002988],[-0.17895833333333327,-0.20833333333333334,2.876500000000007],[-0.17895833333333327,-0.20833333333333334,2.8930999999940354],[-0.21781250000000002,-0.21518518518518517,2.909700000002985],[-0.26052083333333337,-0.1992592592592593,2.93189999999106],[-0.3032291666666667,-0.1685185185185185,2.9465000000000003],[-0.3032291666666667,-0.1685185185185185,2.9597000000029823],[-0.3477083333333333,-0.1514814814814815,2.9763999999910595],[-0.3802083333333333,-0.147037037037037,2.9935999999940464],[-0.4147916666666667,-0.15759259259259265,3.0097000000029794],[-0.45645833333333335,-0.16370370370370366,3.0288999999910544],[-0.5021875,-0.14481481481481479,3.0437000000029855],[-0.5001041666666667,-0.1485185185185185,3.0600000000000023],[-0.4445833333333333,-0.14537037037037037,3.076399999991068],[-0.39468749999999997,-0.13185185185185183,3.0930000000000035],[-0.32312500000000005,-0.10888888888888891,3.112700000002988],[-0.24427083333333333,-0.10203703703703708,3.126700000002984],[-0.16541666666666663,-0.09518518518518514,3.1430000000000007],[-0.09145833333333328,-0.0772222222222222,3.1623999999910666],[-0.019375000000000024,-0.05388888888888893,3.176599999994039],[0.05270833333333336,-0.030555555555555555,3.1955999999940445],[0.10583333333333324,-0.03740740740740749,3.210399999991054],[0.15895833333333323,-0.04425925925925922,3.2262999999970248],[0.18385416666666668,-0.03222222222222218,3.242999999999995],[0.2087500000000001,-0.020185185185185143,3.2597000000029794],[0.2209374999999999,-0.027222222222222307,3.2789999999999964],[0.22583333333333327,-0.03296296296296288,3.2937999999970202],[0.22312500000000005,-0.04148148148148144,3.3098999999910603],[0.22041666666666657,-0.05,3.326399999991068],[0.225,-0.0514814814814814,3.3430999999940383],[0.22958333333333342,-0.052962962962963,3.3628999999910576],[0.2491666666666667,-0.041666666666666664,3.376399999991065],[0.2491666666666667,-0.041666666666666664,3.3930999999940354],[0.26875,-0.03037037037037033,3.40979999999702],[0.2978125000000001,-0.031111111111111027,3.4263999999910624],[0.3359375,-0.026481481481481398,3.4454999999999956],[0.3610416666666666,-0.02388888888888885,3.462799999997017],[0.3610416666666666,-0.02388888888888885,3.4763999999910595],[0.3797916666666666,-0.025370370370370456,3.492999999999995],[0.42177083333333343,-0.028888888888888933,3.5097000000029794],[0.46375000000000005,-0.032407407407407406,3.5288999999910544],[0.4982291666666666,-0.026111111111111154,3.5437000000029855],[0.4982291666666666,-0.026111111111111154,3.5597999999970256],[0.5327083333333335,-0.0198148148148149,3.576299999997019],[0.566875,-0.011296296296296339,3.598899999991062],[0.6036458333333333,-0.018703703703703747,3.6130999999940343],[0.6088541666666667,-0.012407407407407492,3.6285000000000025],[0.6088541666666667,-0.012407407407407492,3.6430000000000007],[0.6036458333333333,-0.025925925925925925,3.659700000002985],[0.6079166666666665,-0.04407407407407399,3.6763999999910624],[0.6185416666666667,-0.05814814814814811,3.6957999999970212],[0.6064583333333334,-0.05129629629629638,3.7112000000029752],[0.6064583333333334,-0.05129629629629638,3.7263999999910595],[0.5943749999999999,-0.044444444444444446,3.743099999994044],[0.5858333333333334,-0.05018518518518523,3.7597000000029794],[0.5387500000000001,-0.06296296296296296,3.7790999999940453],[0.5016666666666666,-0.06796296296296295,3.7930000000000064],[0.45437500000000003,-0.050370370370370454,3.8097000000029766],[0.40739583333333323,-0.04592592592592584,3.829299999997019],[0.3702083333333334,-0.0235185185185186,3.8490000000000038],[0.3702083333333334,-0.0235185185185186,3.859700000002988],[0.34562499999999996,-0.010185185185185186,3.876399999991065],[0.3210416666666667,0.0031481481481482323,3.8930999999940354],[0.29375,-0.010925925925925884,3.909700000002985],[0.2664583333333333,-0.025,3.9263999999910624],[0.23208333333333328,-0.010740740740740657,3.9457999999970212],[0.23208333333333328,-0.010740740740740657,3.960000000000008],[0.23624999999999996,0.01055555555555564,3.9763999999910595],[0.2171875,0.027962962962963005,3.9934999999999974],[0.20833333333333334,0.03166666666666671,4.009700000002979],[0.20989583333333334,0.06222222222222226,4.029399999991057],[0.20010416666666658,0.09518518518518514,4.045200000002978],[0.18083333333333323,0.13481481481481472,4.063000000000002],[0.16124999999999995,0.14037037037037028,4.079200000002984],[0.14364583333333342,0.17222222222222222,4.098899999991062],[0.14364583333333342,0.17222222222222222,4.109700000002988],[0.11875,0.20629629629629626,4.126399999991065],[0.11875,0.20629629629629626,4.143099999994035],[0.08833333333333329,0.2388888888888889,4.15979999999702],[0.051979166666666646,0.2596296296296297,4.176399999991062],[0.02958333333333331,0.2572222222222222,4.195899999991056],[0.017499999999999953,0.2764814814814814,4.210399999991054],[-0.004999999999999952,0.26888888888888896,4.2263999999910595],[-0.024374999999999977,0.25462962962962965,4.242999999999995],[-0.041666666666666664,0.23833333333333342,4.259700000002979],[-0.08916666666666669,0.2514814814814814,4.278899999991054],[-0.12885416666666671,0.24962962962962953,4.2950999999940365],[-0.12885416666666671,0.24962962962962953,4.309700000002977],[-0.17177083333333332,0.2403703703703703,4.326399999991068],[-0.20843750000000003,0.2205555555555556,4.3430000000000035],[-0.21187499999999998,0.21277777777777773,4.36339999999106],[-0.2390625,0.20203703703703707,4.3783999999910606],[-0.2390625,0.20203703703703707,4.393000000000001],[-0.2791666666666667,0.1766666666666666,4.409899999991055],[-0.3223958333333333,0.16314814814814818,4.426399999991062],[-0.37312500000000004,0.14444444444444443,4.448999999999998],[-0.37312500000000004,0.14444444444444443,4.468500000000006],[-0.4366666666666667,0.13925925925925933,4.486000000000004],[-0.4366666666666667,0.13925925925925933,4.493099999994044],[-0.42916666666666664,0.147037037037037,4.509700000002979],[-0.4310416666666666,0.14944444444444452,4.529499999999999],[-0.42999999999999994,0.1603703703703704,4.5437000000029855],[-0.42999999999999994,0.1603703703703704,4.559700000002977],[-0.4139583333333333,0.16407407407407412,4.576599999994045],[-0.4023958333333333,0.18777777777777774,4.594099999994043],[-0.34406249999999994,0.20092592592592592,4.611999999999995],[-0.2685416666666666,0.2390740740740741,4.626500000000007],[-0.17260416666666673,0.2598148148148147,4.643000000000001],[-0.06937500000000002,0.28648148148148156,4.659899999991055],[0.03177083333333333,0.31055555555555564,4.676399999991062],[0.09239583333333339,0.32629629629629636,4.6957000000029865],[0.09239583333333339,0.32629629629629636,4.709700000002982],[0.14833333333333343,0.35111111111111115,4.7263999999910595],[0.2228125000000001,0.38259259259259265,4.743200000002986],[0.28927083333333337,0.4103703703703704,4.759799999997028],[0.32364583333333335,0.4020370370370371,4.777599999994038],[0.3345833333333334,0.42018518518518516,4.793099999994041],[0.32958333333333345,0.4166666666666667,4.809799999997026],[0.3072916666666667,0.41870370370370374,4.826299999997019],[0.2829166666666666,0.42055555555555557,4.8430000000000035],[0.2696875000000001,0.4214814814814815,4.8622999999970204],[0.25906250000000003,0.4270370370370371,4.876399999991065],[0.2625,0.42888888888888893,4.893000000000001],[0.26760416666666675,0.4024074074074073,4.909700000002985],[0.2727083333333333,0.37592592592592594,4.926399999991062],[0.29447916666666674,0.3822222222222222,4.945399999991068],[0.3162499999999999,0.38851851851851843,4.959899999991066],[0.3242708333333333,0.39518518518518514,4.9763999999910595],[0.33229166666666665,0.40185185185185185,4.992999999999995],[0.34656250000000005,0.40185185185185185,5.009700000002979],[0.36083333333333345,0.40185185185185185,5.029799999997024],[0.3807291666666667,0.38944444444444437,5.04489999999106],[0.4006249999999999,0.37703703703703706,5.062799999997026],[0.4,0.38129629629629624,5.076299999997019],[0.3993750000000001,0.38555555555555565,5.093099999994038],[0.37947916666666665,0.34148148148148144,5.109599999994046],[0.35958333333333337,0.29740740740740745,5.126299999997016],[0.3071875000000001,0.18407407407407403,5.143000000000001],[0.2700000000000001,0.06111111111111111,5.159700000002985],[0.23104166666666662,-0.05907407407407403,5.176399999991062],[0.19135416666666671,-0.1809259259259259,5.195499999999996],[0.1560416666666666,-0.2903703703703704,5.209700000002982],[0.11635416666666672,-0.4044444444444444,5.2263999999910595],[0.06625000000000002,-0.49740740740740746,5.242999999999995],[0.016145833333333335,-0.5903703703703704,5.259799999997028],[-0.009062500000000048,-0.6633333333333333,5.278999999999996],[-0.03427083333333331,-0.7362962962962963,5.293099999994041],[-0.028437499999999952,-0.7462962962962963,5.309700000002977],[-0.03781249999999995,-0.7466666666666667,5.326299999997019],[-0.03583333333333331,-0.7331481481481481,5.3430000000000035],[-0.03312499999999995,-0.7179629629629629,5.362700000002988],[-0.04041666666666662,-0.7201851851851852,5.378],[-0.03708333333333336,-0.732962962962963,5.3962999999970265],[-0.01114583333333338,-0.7461111111111111,5.410399999991057],[0.03260416666666662,-0.7538888888888889,5.427000000000007],[0.05562499999999997,-0.7698148148148148,5.445799999997021],[0.08937499999999995,-0.7792592592592593,5.462000000000003],[0.08937499999999995,-0.7792592592592593,5.4763999999910595],[0.1466666666666666,-0.7874074074074073,5.493099999994044],[0.1834374999999999,-0.7807407407407407,5.509700000002979],[0.1943749999999999,-0.7609259259259259,5.528700000002985],[0.2039583333333333,-0.7374074074074074,5.543500000000009],[0.2039583333333333,-0.7374074074074074,5.559700000002977],[0.209375,-0.7179629629629629,5.576399999991068],[0.20979166666666677,-0.6888888888888889,5.5930000000000035],[0.20583333333333323,-0.6094444444444445,5.612599999994046],[0.18406250000000005,-0.5353703703703704,5.626399999991065],[0.16302083333333334,-0.4401851851851852,5.643000000000001],[0.13125,-0.3514814814814815,5.659700000002985],[0.08989583333333329,-0.255,5.676399999991062],[0.06906249999999996,-0.17333333333333337,5.6947999999970165],[0.06614583333333333,-0.1205555555555556,5.709700000002982],[0.06458333333333334,-0.07148148148148152,5.726299999997025],[0.06333333333333328,-0.012037037037037037,5.742999999999995],[0.06083333333333331,0.052962962962963,5.764799999997024],[0.058749999999999976,0.036481481481481566,5.779399999991057],[0.06177083333333329,0.018703703703703747,5.793899999991055],[0.06499999999999997,-0.007962962962962878,5.8135999999940395],[0.06822916666666666,-0.03462962962962971,5.827899999991061],[0.05291666666666662,-0.07444444444444442,5.8430000000000035],[0.03760416666666669,-0.11425925925925924,5.862799999997023],[0.029999999999999954,-0.13148148148148148,5.877899999991058],[0.029999999999999954,-0.13148148148148148,5.893000000000001],[0.022395833333333334,-0.14870370370370373,5.909700000002985],[0.0026041666666666665,-0.16833333333333328,5.926299999997028],[-0.006458333333333381,-0.17518518518518522,5.945399999991068],[-0.024687500000000046,-0.18203703703703705,5.9609999999999985],[-0.024687500000000046,-0.18203703703703705,5.976299999997025],[-0.044062499999999956,-0.18722222222222226,5.992999999999995],[-0.05489583333333338,-0.17981481481481484,6.0095999999940375],[-0.06572916666666669,-0.17240740740740745,6.02879999999702],[-0.04468749999999998,-0.18499999999999997,6.043099999994041],[-0.02374999999999995,-0.19462962962962968,6.059599999994035],[-0.017499999999999953,-0.22314814814814815,6.076299999997019],[-0.011249999999999953,-0.25166666666666665,6.0930000000000035],[-0.003333333333333381,-0.27018518518518514,6.1122999999970204],[-0.00614583333333331,-0.3014814814814815,6.126399999991065],[0.011458333333333333,-0.31555555555555553,6.143000000000001],[0.02510416666666669,-0.32999999999999996,6.163399999991057],[0.02510416666666669,-0.32999999999999996,6.176299999997028],[0.033749999999999974,-0.34629629629629627,6.192999999999998],[0.05281250000000005,-0.3794444444444444,6.20959999999404],[0.058541666666666714,-0.3859259259259259,6.229700000002978],[0.07645833333333343,-0.3853703703703704,6.243799999997023],[0.09552083333333337,-0.38259259259259265,6.264099999994045],[0.1140625,-0.38555555555555554,6.279399999991057],[0.14572916666666677,-0.3853703703703704,6.29379999999702],[0.17739583333333328,-0.3851851851851852,6.313299999997028],[0.1974999999999999,-0.38499999999999995,6.328000000000003],[0.21760416666666677,-0.38481481481481483,6.343099999994038],[0.24093749999999994,-0.38796296296296295,6.363599999994037],[0.2525000000000001,-0.35722222222222216,6.378599999994037],[0.2640625,-0.3264814814814815,6.396799999997015],[0.27218749999999997,-0.3037037037037037,6.411200000002978],[0.2803124999999999,-0.2809259259259259,6.426299999997028],[0.27885416666666674,-0.24000000000000005,6.4457000000029865],[0.2760416666666667,-0.20333333333333337,6.462500000000006],[0.27156250000000004,-0.1690740740740741,6.478200000002985],[0.26708333333333345,-0.14000000000000004,6.493299999997021],[0.27583333333333326,-0.11574074074074074,6.5095999999940375],[0.28458333333333335,-0.09148148148148144,6.528899999991054],[0.2682291666666667,-0.07462962962962966,6.543000000000006],[0.25187499999999996,-0.057777777777777754,6.559599999994035],[0.2334374999999999,-0.06092592592592588,6.576399999991068],[0.2150000000000001,-0.06407407407407412,6.5930000000000035],[0.2273958333333333,-0.07925925925925928,6.612200000002986],[0.2397916666666667,-0.09444444444444444,6.626299999997016],[0.24489583333333323,-0.11203703703703703,6.646500000000003],[0.24489583333333323,-0.11203703703703703,6.659700000002985],[0.25,-0.10240740740740743,6.676399999991062],[0.2412499999999999,-0.07666666666666662,6.6955999999940445],[0.23583333333333342,-0.05092592592592592,6.713999999999999],[0.2543750000000001,-0.049074074074074076,6.729899999991062],[0.26802083333333326,-0.0448148148148149,6.744],[0.2751041666666666,-0.022592592592592678,6.759799999997028],[0.29052083333333345,0.020740740740740823,6.781299999997017],[0.28125,0.04333333333333329,6.796299999997018],[0.28125,0.04333333333333329,6.80989999999106],[0.2642708333333334,0.06629629629629621,6.826499999999996],[0.26416666666666655,0.09462962962962967,6.848599999994036],[0.26416666666666655,0.09462962962962967,6.859799999997023],[0.2631249999999999,0.09388888888888898,6.876500000000007],[0.2381249999999999,0.07555555555555547,6.899099999994036],[0.2381249999999999,0.07555555555555547,6.90979999999702],[0.15364583333333334,0.05314814814814823,6.926500000000004],[0.08114583333333343,0.05648148148148148,6.945399999991068],[0.013541666666666667,0.05740740740740741,6.964500000000001],[-0.00458333333333331,0.05092592592592592,6.980099999994039],[-0.03104166666666662,0.023333333333333376,6.996899999991058],[-0.03104166666666662,0.023333333333333376,7.009899999991063],[-0.07166666666666661,0.015000000000000043,7.029499999999999],[-0.06781250000000003,0.012407407407407492,7.045500000000004],[-0.071875,0.009259259259259259,7.06289999999106],[-0.07479166666666662,0.006666666666666709,7.079700000002987],[-0.07479166666666662,0.006666666666666709,7.09320000000298],[-0.03322916666666664,-0.018518518518518517,7.109799999997023],[0.05666666666666664,-0.032037037037036954,7.126500000000007],[0.11604166666666677,-0.07518518518518523,7.147000000000006],[0.11604166666666677,-0.07518518518518523,7.159999999999997],[0.1805208333333333,-0.11092592592592589,7.176500000000004],[0.16760416666666675,-0.15111111111111114,7.200000000000003],[0.16760416666666675,-0.15111111111111114,7.209799999997017],[0.16677083333333323,-0.18796296296296297,7.226599999994036],[0.17822916666666658,-0.22481481481481477,7.243799999997023],[0.15291666666666662,-0.26777777777777784,7.266399999991066],[0.15291666666666662,-0.26777777777777784,7.276399999991057],[0.11958333333333329,-0.29500000000000004,7.293200000002983],[0.11958333333333329,-0.29500000000000004,7.309799999997026],[0.08875000000000005,-0.31925925925925924,7.330200000002975],[0.041562499999999974,-0.3538888888888889,7.3490999999940385],[0.041562499999999974,-0.3538888888888889,7.3598999999910575],[0.0021875000000000236,-0.3961111111111111,7.376500000000007],[-0.020729166666666642,-0.39518518518518514,7.396500000000003],[-0.06312500000000003,-0.39944444444444444,7.4125000000000085],[-0.07760416666666667,-0.3918518518518519,7.427999999999997],[-0.11468750000000003,-0.3983333333333334,7.448899999991056],[-0.11468750000000003,-0.3983333333333334,7.459799999997017],[-0.140625,-0.40055555555555555,7.4765000000000015],[-0.16656249999999997,-0.4027777777777778,7.493099999994044],[-0.17541666666666664,-0.42240740740740745,7.515599999994038],[-0.17541666666666664,-0.42240740740740745,7.526499999999999],[-0.1851041666666667,-0.44370370370370377,7.543200000002983],[-0.1851041666666667,-0.44370370370370377,7.564000000000007],[-0.19885416666666664,-0.4396296296296296,7.576499999999996],[-0.2085416666666667,-0.4192592592592592,7.59320000000298],[-0.2123958333333333,-0.4305555555555556,7.614899999991067],[-0.2123958333333333,-0.4305555555555556,7.626399999991065],[-0.20718749999999997,-0.4546296296296296,7.643000000000001],[-0.18979166666666672,-0.48703703703703705,7.6617000000029805],[-0.15791666666666668,-0.49370370370370376,7.676399999991062],[-0.1313541666666667,-0.5035185185185185,7.692999999999998],[-0.08479166666666664,-0.48703703703703705,7.709700000002982],[-0.04729166666666664,-0.46888888888888886,7.726299999997025],[-0.011666666666666714,-0.4311111111111111,7.742899999991067],[0.025416666666666643,-0.3731481481481482,7.7595999999940375],[0.057604166666666616,-0.33259259259259266,7.776299999997022],[0.08854166666666667,-0.2853703703703704,7.793000000000006],[0.13791666666666677,-0.22518518518518524,7.809700000002977],[0.16458333333333333,-0.14981481481481476,7.829999999999998],[0.2029166666666666,-0.09888888888888885,7.850700000002988],[0.2029166666666666,-0.09888888888888885,7.859700000002988],[0.2367708333333333,-0.05277777777777778,7.876399999991065],[0.25062499999999993,-0.03296296296296288,7.892899999991059],[0.29104166666666675,-0.009259259259259259,7.90979999999702],[0.33145833333333335,-0.005185185185185101,7.926299999997028],[0.3719791666666666,-0.009444444444444486,7.945799999997021],[0.4133333333333333,-0.012592592592592508,7.961700000002978],[0.4133333333333333,-0.012592592592592508,7.976299999997025],[0.46041666666666664,-0.02444444444444453,7.995899999991067],[0.42208333333333337,-0.06648148148148143,8.010299999997017],[0.3866666666666667,-0.1161111111111111,8.030000000000001],[0.34708333333333335,-0.14537037037037037,8.049399999991067],[0.34708333333333335,-0.14537037037037037,8.05989999999106],[0.30364583333333334,-0.18888888888888888,8.076499999999996],[0.2564583333333334,-0.23777777777777773,8.09320000000298],[0.19864583333333338,-0.27814814814814814,8.115399999991055],[0.19864583333333338,-0.27814814814814814,8.126399999991065],[0.12979166666666658,-0.3383333333333333,8.143200000002977],[0.04375,-0.37537037037037035,8.160399999991057],[-0.016458333333333287,-0.43870370370370365,8.181599999994035],[-0.06979166666666667,-0.4935185185185185,8.196799999997026],[-0.05697916666666671,-0.5257407407407407,8.214799999997027],[-0.05697916666666671,-0.5257407407407407,8.247],[-0.02791666666666662,-0.5525925925925925,8.255899999991058],[-0.02791666666666662,-0.5525925925925925,8.262500000000003],[-0.027187500000000024,-0.5505555555555556,8.276399999991057],[-0.015104166666666667,-0.528888888888889,8.293000000000006],[0.01864583333333331,-0.5138888888888888,8.31289999999106],[0.03718750000000005,-0.5364814814814814,8.327799999997026],[0.06677083333333324,-0.5392592592592592,8.34320000000298],[0.06677083333333324,-0.5392592592592592,8.36229999999702],[0.11114583333333337,-0.5462962962962963,8.376500000000007],[0.11989583333333324,-0.5653703703703704,8.393099999994035],[0.12958333333333344,-0.5770370370370371,8.40979999999702],[0.13958333333333334,-0.5818518518518518,8.430700000002986],[0.13666666666666671,-0.58,8.445399999991068],[0.1632291666666667,-0.6044444444444445,8.460499999999996],[0.18427083333333344,-0.6507407407407407,8.481000000000009],[0.18739583333333343,-0.6742592592592593,8.496099999994044],[0.19052083333333342,-0.6581481481481481,8.514200000002987],[0.19364583333333343,-0.642037037037037,8.528899999991054],[0.1881249999999999,-0.6631481481481482,8.543000000000006],[0.19239583333333338,-0.6459259259259259,8.563500000000005],[0.19739583333333333,-0.6092592592592593,8.576299999997019],[0.20822916666666677,-0.5742592592592592,8.593000000000004],[0.22218749999999995,-0.542037037037037,8.612399999991055],[0.22218749999999995,-0.5264814814814816,8.626700000002984],[0.20520833333333333,-0.4633333333333333,8.642899999991059],[0.18822916666666673,-0.41092592592592586,8.660200000002988],[0.19145833333333329,-0.37222222222222223,8.676299999997028],[0.19104166666666675,-0.38629629629629636,8.695499999999996],[0.2127083333333334,-0.357962962962963,8.709700000002982],[0.234375,-0.3296296296296296,8.726299999997025],[0.22427083333333328,-0.33240740740740743,8.742999999999995],[0.21416666666666656,-0.3351851851851852,8.759799999997028],[0.2103125000000001,-0.3477777777777778,8.77879999999702],[0.2078125,-0.35722222222222216,8.793200000002983],[0.2165625000000001,-0.39759259259259255,8.809700000002977],[0.22531249999999994,-0.43796296296296294,8.826299999997019],[0.20343749999999997,-0.46166666666666667,8.843000000000004],[0.18520833333333328,-0.43259259259259264,8.86229999999702],[0.1273958333333333,-0.4361111111111111,8.876299999997016],[0.0865624999999999,-0.4418518518518519,8.893],[0.035312499999999976,-0.4433333333333333,8.909599999994043],[0.009375,-0.4359259259259259,8.926299999997028],[-0.024062500000000025,-0.4316666666666667,8.944899999991065],[-0.09093749999999995,-0.4275925925925925,8.960000000000008],[-0.12416666666666672,-0.4064814814814815,8.976299999997025],[-0.12416666666666672,-0.4064814814814815,8.992999999999995],[-0.15739583333333335,-0.3853703703703704,9.009599999994037],[-0.1779166666666666,-0.4064814814814815,9.028999999999996],[-0.1866666666666667,-0.4275925925925925,9.043299999997018],[-0.1686458333333333,-0.43648148148148147,9.059599999994035],[-0.1580208333333334,-0.4662962962962963,9.076299999997019],[-0.1014583333333333,-0.5181481481481481,9.093000000000004],[-0.08552083333333335,-0.5590740740740741,9.112700000002988],[-0.06354166666666666,-0.6088888888888889,9.126899999991068],[-0.008124999999999953,-0.6585185185185186,9.143],[0.021875,-0.7205555555555556,9.161500000000004],[0.07479166666666662,-0.7577777777777778,9.176299999997028],[0.10656249999999995,-0.8046296296296296,9.195399999991068],[0.13354166666666673,-0.835,9.210000000000008],[0.18093750000000006,-0.8866666666666667,9.22939999999106],[0.18364583333333329,-0.8733333333333334,9.242899999991067],[0.1678124999999999,-0.837037037037037,9.259599999994037],[0.1759375000000001,-0.8,9.27879999999702],[0.1756249999999999,-0.7374074074074074,9.294599999994048],[0.1756249999999999,-0.7374074074074074,9.309700000002977],[0.18104166666666663,-0.7246296296296296,9.326299999997019],[0.17927083333333324,-0.6950000000000001,9.343000000000004],[0.15770833333333342,-0.6922222222222223,9.362700000002988],[0.1728125000000001,-0.6572222222222222,9.377099999994044],[0.17020833333333343,-0.6287037037037037,9.393],[0.14395833333333338,-0.5679629629629629,9.409599999994043],[0.18583333333333343,-0.5472222222222223,9.430899999991055],[0.18239583333333323,-0.5731481481481482,9.445700000002986],[0.17552083333333332,-0.6157407407407407,9.460700000002987],[0.15354166666666677,-0.6935185185185185,9.478599999994046],[0.15354166666666677,-0.6935185185185185,9.492999999999995],[0.12760416666666666,-0.7225925925925926,9.515099999994035],[0.12760416666666666,-0.7225925925925926,9.526399999991057],[0.13177083333333334,-0.7437037037037038,9.543200000002983]]","[0.0002999999970256795,0.0492000000029833,0.059700000002976594,0.07639999999106806,0.09300000000000352,0.11239999999105521,0.12659999999404192,0.14309999999403544,0.16339999999105714,0.18179999999702545,0.19320000000298876,0.20979999999701704,0.2297000000029783,0.24459999999403692,0.2642999999970215,0.2788999999910544,0.29329999999701784,0.3097000000029766,0.3264999999999958,0.3430000000000035,0.3635999999940367,0.3817000000029793,0.39889999999105896,0.4134999999999991,0.4263999999910624,0.4430999999940468,0.4597000000029823,0.47639999999105953,0.49309999999404397,0.5097999999970284,0.5288999999910544,0.5432999999970178,0.5597999999970256,0.5764999999999958,0.5930999999940383,0.6107999999970275,0.6265000000000072,0.6430999999940354,0.6597000000029851,0.6765000000000043,0.6957000000029865,0.7097000000029823,0.7263999999910595,0.7432000000029859,0.7597999999970284,0.7790999999940453,0.7935000000000088,0.8098999999910603,0.8283999999910634,0.8447999999970222,0.8597999999970227,0.8765000000000072,0.8930999999940354,0.9098999999910546,0.9320000000000022,0.9463999999910584,0.959799999997017,0.9765000000000015,0.9965999999940465,1.0097000000029794,1.0264999999999986,1.0430999999940411,1.0618999999910557,1.0775000000000006,1.0930999999940383,1.1132999999970252,1.1263999999910652,1.1430999999940354,1.1632999999970224,1.1820000000000022,1.196799999997026,1.2102999999970194,1.2295000000000016,1.2447999999970278,1.2605999999940423,1.2792000000029873,1.293200000002983,1.3098999999910603,1.3299999999999983,1.3430999999940383,1.3597999999970227,1.3765000000000072,1.3962999999970265,1.4115000000000038,1.4265000000000043,1.445899999991056,1.4632000000029848,1.4765000000000015,1.493099999994044,1.5097000000029794,1.5263999999910567,1.543200000002983,1.5598999999910603,1.5764999999999958,1.5930000000000035,1.6127999999970228,1.6269999999999953,1.6430999999940354,1.6613999999910618,1.6763999999910624,1.6957999999970212,1.7097000000029823,1.7265000000000015,1.743099999994044,1.760799999997019,1.7792000000029873,1.793200000002983,1.8097999999970256,1.826399999991068,1.8430999999940383,1.8624999999999972,1.8783999999910606,1.894899999991054,1.9097999999970199,1.9263999999910624,1.9455999999940445,1.9608999999910566,1.9763999999910595,1.992999999999995,2.0097000000029794,2.030000000000001,2.0448999999910598,2.063399999991063,2.0767999999970215,2.0930000000000035,2.1128999999910576,2.1270999999940443,2.1430000000000007,2.1607999999970247,2.1763999999910624,2.1954999999999956,2.211500000000001,2.2263999999910595,2.242999999999995,2.2597999999970284,2.279399999991057,2.293899999991055,2.3097000000029766,2.326499999999996,2.3430999999940383,2.362700000002988,2.3767999999970186,2.3930999999940354,2.40979999999702,2.4262999999970276,2.445999999999998,2.4597000000029823,2.4765000000000015,2.4934999999999974,2.5097000000029794,2.5288999999910544,2.543999999999997,2.5614999999999952,2.577200000002989,2.5930999999940383,2.612399999991055,2.6272000000029863,2.647299999997017,2.659700000002985,2.6763999999910624,2.6957999999970212,2.7102999999970194,2.7263999999910595,2.743099999994044,2.764700000002989,2.7788999999910544,2.793200000002983,2.8097999999970256,2.8299999999999983,2.8490999999940385,2.859700000002988,2.876500000000007,2.8930999999940354,2.909700000002985,2.93189999999106,2.9465000000000003,2.9597000000029823,2.9763999999910595,2.9935999999940464,3.0097000000029794,3.0288999999910544,3.0437000000029855,3.0600000000000023,3.076399999991068,3.0930000000000035,3.112700000002988,3.126700000002984,3.1430000000000007,3.1623999999910666,3.176599999994039,3.1955999999940445,3.210399999991054,3.2262999999970248,3.242999999999995,3.2597000000029794,3.2789999999999964,3.2937999999970202,3.3098999999910603,3.326399999991068,3.3430999999940383,3.3628999999910576,3.376399999991065,3.3930999999940354,3.40979999999702,3.4263999999910624,3.4454999999999956,3.462799999997017,3.4763999999910595,3.492999999999995,3.5097000000029794,3.5288999999910544,3.5437000000029855,3.5597999999970256,3.576299999997019,3.598899999991062,3.6130999999940343,3.6285000000000025,3.6430000000000007,3.659700000002985,3.6763999999910624,3.6957999999970212,3.7112000000029752,3.7263999999910595,3.743099999994044,3.7597000000029794,3.7790999999940453,3.7930000000000064,3.8097000000029766,3.829299999997019,3.8490000000000038,3.859700000002988,3.876399999991065,3.8930999999940354,3.909700000002985,3.9263999999910624,3.9457999999970212,3.960000000000008,3.9763999999910595,3.9934999999999974,4.009700000002979,4.029399999991057,4.045200000002978,4.063000000000002,4.079200000002984,4.098899999991062,4.109700000002988,4.126399999991065,4.143099999994035,4.15979999999702,4.176399999991062,4.195899999991056,4.210399999991054,4.2263999999910595,4.242999999999995,4.259700000002979,4.278899999991054,4.2950999999940365,4.309700000002977,4.326399999991068,4.3430000000000035,4.36339999999106,4.3783999999910606,4.393000000000001,4.409899999991055,4.426399999991062,4.448999999999998,4.468500000000006,4.486000000000004,4.493099999994044,4.509700000002979,4.529499999999999,4.5437000000029855,4.559700000002977,4.576599999994045,4.594099999994043,4.611999999999995,4.626500000000007,4.643000000000001,4.659899999991055,4.676399999991062,4.6957000000029865,4.709700000002982,4.7263999999910595,4.743200000002986,4.759799999997028,4.777599999994038,4.793099999994041,4.809799999997026,4.826299999997019,4.8430000000000035,4.8622999999970204,4.876399999991065,4.893000000000001,4.909700000002985,4.926399999991062,4.945399999991068,4.959899999991066,4.9763999999910595,4.992999999999995,5.009700000002979,5.029799999997024,5.04489999999106,5.062799999997026,5.076299999997019,5.093099999994038,5.109599999994046,5.126299999997016,5.143000000000001,5.159700000002985,5.176399999991062,5.195499999999996,5.209700000002982,5.2263999999910595,5.242999999999995,5.259799999997028,5.278999999999996,5.293099999994041,5.309700000002977,5.326299999997019,5.3430000000000035,5.362700000002988,5.378,5.3962999999970265,5.410399999991057,5.427000000000007,5.445799999997021,5.462000000000003,5.4763999999910595,5.493099999994044,5.509700000002979,5.528700000002985,5.543500000000009,5.559700000002977,5.576399999991068,5.5930000000000035,5.612599999994046,5.626399999991065,5.643000000000001,5.659700000002985,5.676399999991062,5.6947999999970165,5.709700000002982,5.726299999997025,5.742999999999995,5.764799999997024,5.779399999991057,5.793899999991055,5.8135999999940395,5.827899999991061,5.8430000000000035,5.862799999997023,5.877899999991058,5.893000000000001,5.909700000002985,5.926299999997028,5.945399999991068,5.9609999999999985,5.976299999997025,5.992999999999995,6.0095999999940375,6.02879999999702,6.043099999994041,6.059599999994035,6.076299999997019,6.0930000000000035,6.1122999999970204,6.126399999991065,6.143000000000001,6.163399999991057,6.176299999997028,6.192999999999998,6.20959999999404,6.229700000002978,6.243799999997023,6.264099999994045,6.279399999991057,6.29379999999702,6.313299999997028,6.328000000000003,6.343099999994038,6.363599999994037,6.378599999994037,6.396799999997015,6.411200000002978,6.426299999997028,6.4457000000029865,6.462500000000006,6.478200000002985,6.493299999997021,6.5095999999940375,6.528899999991054,6.543000000000006,6.559599999994035,6.576399999991068,6.5930000000000035,6.612200000002986,6.626299999997016,6.646500000000003,6.659700000002985,6.676399999991062,6.6955999999940445,6.713999999999999,6.729899999991062,6.744,6.759799999997028,6.781299999997017,6.796299999997018,6.80989999999106,6.826499999999996,6.848599999994036,6.859799999997023,6.876500000000007,6.899099999994036,6.90979999999702,6.926500000000004,6.945399999991068,6.964500000000001,6.980099999994039,6.996899999991058,7.009899999991063,7.029499999999999,7.045500000000004,7.06289999999106,7.079700000002987,7.09320000000298,7.109799999997023,7.126500000000007,7.147000000000006,7.159999999999997,7.176500000000004,7.200000000000003,7.209799999997017,7.226599999994036,7.243799999997023,7.266399999991066,7.276399999991057,7.293200000002983,7.309799999997026,7.330200000002975,7.3490999999940385,7.3598999999910575,7.376500000000007,7.396500000000003,7.4125000000000085,7.427999999999997,7.448899999991056,7.459799999997017,7.4765000000000015,7.493099999994044,7.515599999994038,7.526499999999999,7.543200000002983,7.564000000000007,7.576499999999996,7.59320000000298,7.614899999991067,7.626399999991065,7.643000000000001,7.6617000000029805,7.676399999991062,7.692999999999998,7.709700000002982,7.726299999997025,7.742899999991067,7.7595999999940375,7.776299999997022,7.793000000000006,7.809700000002977,7.829999999999998,7.850700000002988,7.859700000002988,7.876399999991065,7.892899999991059,7.90979999999702,7.926299999997028,7.945799999997021,7.961700000002978,7.976299999997025,7.995899999991067,8.010299999997017,8.030000000000001,8.049399999991067,8.05989999999106,8.076499999999996,8.09320000000298,8.115399999991055,8.126399999991065,8.143200000002977,8.160399999991057,8.181599999994035,8.196799999997026,8.214799999997027,8.247,8.255899999991058,8.262500000000003,8.276399999991057,8.293000000000006,8.31289999999106,8.327799999997026,8.34320000000298,8.36229999999702,8.376500000000007,8.393099999994035,8.40979999999702,8.430700000002986,8.445399999991068,8.460499999999996,8.481000000000009,8.496099999994044,8.514200000002987,8.528899999991054,8.543000000000006,8.563500000000005,8.576299999997019,8.593000000000004,8.612399999991055,8.626700000002984,8.642899999991059,8.660200000002988,8.676299999997028,8.695499999999996,8.709700000002982,8.726299999997025,8.742999999999995,8.759799999997028,8.77879999999702,8.793200000002983,8.809700000002977,8.826299999997019,8.843000000000004,8.86229999999702,8.876299999997016,8.893,8.909599999994043,8.926299999997028,8.944899999991065,8.960000000000008,8.976299999997025,8.992999999999995,9.009599999994037,9.028999999999996,9.043299999997018,9.059599999994035,9.076299999997019,9.093000000000004,9.112700000002988,9.126899999991068,9.143,9.161500000000004,9.176299999997028,9.195399999991068,9.210000000000008,9.22939999999106,9.242899999991067,9.259599999994037,9.27879999999702,9.294599999994048,9.309700000002977,9.326299999997019,9.343000000000004,9.362700000002988,9.377099999994044,9.393,9.409599999994043,9.430899999991055,9.445700000002986,9.460700000002987,9.478599999994046,9.492999999999995,9.515099999994035,9.526399999991057,9.543200000002983]","[1732608304775,1732608304814,1732608304825,1732608304842,1732608304858,1732608304878,1732608304892,1732608304908,1732608304929,1732608304947,1732608304958,1732608304975,1732608304995,1732608305010,1732608305029,1732608305044,1732608305058,1732608305075,1732608305092,1732608305108,1732608305129,1732608305147,1732608305164,1732608305179,1732608305192,1732608305208,1732608305225,1732608305242,1732608305258,1732608305275,1732608305294,1732608305308,1732608305325,1732608305342,1732608305358,1732608305376,1732608305392,1732608305408,1732608305425,1732608305442,1732608305461,1732608305475,1732608305492,1732608305508,1732608305525,1732608305544,1732608305559,1732608305575,1732608305594,1732608305610,1732608305625,1732608305642,1732608305658,1732608305675,1732608305697,1732608305712,1732608305725,1732608305742,1732608305762,1732608305775,1732608305792,1732608305808,1732608305827,1732608305843,1732608305858,1732608305879,1732608305892,1732608305908,1732608305929,1732608305947,1732608305962,1732608305976,1732608305995,1732608306010,1732608306026,1732608306044,1732608306058,1732608306075,1732608306095,1732608306108,1732608306125,1732608306142,1732608306162,1732608306177,1732608306192,1732608306211,1732608306228,1732608306242,1732608306258,1732608306275,1732608306292,1732608306308,1732608306325,1732608306342,1732608306358,1732608306378,1732608306392,1732608306408,1732608306427,1732608306442,1732608306461,1732608306475,1732608306492,1732608306508,1732608306526,1732608306544,1732608306558,1732608306575,1732608306592,1732608306608,1732608306628,1732608306644,1732608306660,17326083066