inst1_resp.keys,inst1_resp.rt,calibrationMouse.x,calibrationMouse.y,calibrationMouse.leftButton,calibrationMouse.midButton,calibrationMouse.rightButton,calibrationClick.x,calibrationClick.y,calibrationClick.leftButton,calibrationClick.midButton,calibrationClick.rightButton,trialsc.thisRepN,trialsc.thisTrialN,trialsc.thisN,trialsc.thisIndex,trialsc.ran,calibration_x,calibration_y,participant,session,date,expName,psychopyVersion,OS,frameRate,calibrationClick.clicked_name,ScreenRes_pixels,Camera_pixels,mouse_2.x,mouse_2.y,mouse_2.leftButton,mouse_2.midButton,mouse_2.rightButton,mouse_2.time,mouse_2.clicked_name,mouse.x,mouse.y,mouse.leftButton,mouse.midButton,mouse.rightButton,mouse.time,mouse.clicked_name,Choice,Trial,TrialDuration,MOUSE_GAZE,ET_GAZE,ET_GAZE_x_T,time,unixTime,ET_GAZE_NF,Loc_Bus_label,Loc_Metro_label,Loc_RH_label,Loc_Cost_label,Loc_Travel_label,Loc_Comfort_label,Loc_Bus_cost,Loc_Metro_cost,Loc_RH_cost,Loc_Bus_travel,Loc_Metro_travel,Loc_RH_travel,Loc_Bus_comfort,Loc_Metro_comfort,Loc_RH_comfort,trials.thisRepN,trials.thisTrialN,trials.thisN,trials.thisIndex,trials.ran,Block,Device,RH_cost,RH_travel_time,RH_Comfort,metro_cost,metro_travel_time,metro_Comfort,Bus_cost,Bus_travel_time,Bus_Comfort
space,1.8502,-0.380208333,-0.15,1,0,0,-0.123958333,0.338888889,0,0,0,0,0,0,2,1,-0.67,0,36,001,2024-11-29_18h27.35.919,Attention_exp_legacy,2023.1.0,Win32,59.88023952,,,,,,,,,,,,,,,,,,,,,,,,,,,,,,,,,,,,,,,,,,,,,,,,,,,,,,,,,
,,,,,,,-0.14375,0.494444444,0,0,0,0,1,1,3,1,-0.67,0.33,36,001,2024-11-29_18h27.35.919,Attention_exp_legacy,2023.1.0,Win32,59.88023952,,,,,,,,,,,,,,,,,,,,,,,,,,,,,,,,,,,,,,,,,,,,,,,,,,,,,,,,,
,,,,,,,-0.335416667,0.331481481,1,0,0,0,2,2,7,1,-0.33,0.33,36,001,2024-11-29_18h27.35.919,Attention_exp_legacy,2023.1.0,Win32,59.88023952,calibration_square,,,,,,,,,,,,,,,,,,,,,,,,,,,,,,,,,,,,,,,,,,,,,,,,,,,,,,,,
,,,,,,,0.335416667,-0.325925926,1,0,0,0,3,3,15,1,0.33,-0.33,36,001,2024-11-29_18h27.35.919,Attention_exp_legacy,2023.1.0,Win32,59.88023952,calibration_square,,,,,,,,,,,,,,,,,,,,,,,,,,,,,,,,,,,,,,,,,,,,,,,,,,,,,,,,
,,,,,,,-0.664583333,-0.325925926,1,0,0,0,4,4,1,1,-0.67,-0.33,36,001,2024-11-29_18h27.35.919,Attention_exp_legacy,2023.1.0,Win32,59.88023952,calibration_square,,,,,,,,,,,,,,,,,,,,,,,,,,,,,,,,,,,,,,,,,,,,,,,,,,,,,,,,
,,,,,,,-0.335416667,-0.661111111,1,0,0,0,5,5,4,1,-0.33,-0.67,36,001,2024-11-29_18h27.35.919,Attention_exp_legacy,2023.1.0,Win32,59.88023952,calibration_square,,,,,,,,,,,,,,,,,,,,,,,,,,,,,,,,,,,,,,,,,,,,,,,,,,,,,,,,
,,,,,,,0.66875,-0.67037037,1,0,0,0,6,6,20,1,0.67,-0.67,36,001,2024-11-29_18h27.35.919,Attention_exp_legacy,2023.1.0,Win32,59.88023952,calibration_square,,,,,,,,,,,,,,,,,,,,,,,,,,,,,,,,,,,,,,,,,,,,,,,,,,,,,,,,
,,,,,,,0.325,-0.007407407,1,0,0,0,7,7,16,1,0.33,0,36,001,2024-11-29_18h27.35.919,Attention_exp_legacy,2023.1.0,Win32,59.88023952,calibration_square,,,,,,,,,,,,,,,,,,,,,,,,,,,,,,,,,,,,,,,,,,,,,,,,,,,,,,,,
,,,,,,,-0.323958333,0.668518519,1,0,0,0,8,8,8,1,-0.33,0.67,36,001,2024-11-29_18h27.35.919,Attention_exp_legacy,2023.1.0,Win32,59.88023952,calibration_square,,,,,,,,,,,,,,,,,,,,,,,,,,,,,,,,,,,,,,,,,,,,,,,,,,,,,,,,
,,,,,,,0.667708333,0.655555556,1,0,0,0,9,9,19,1,0.67,0.67,36,001,2024-11-29_18h27.35.919,Attention_exp_legacy,2023.1.0,Win32,59.88023952,,,,,,,,,,,,,,,,,,,,,,,,,,,,,,,,,,,,,,,,,,,,,,,,,,,,,,,,,
,,,,,,,0.00625,0.009259259,1,0,0,0,10,10,11,1,0,0,36,001,2024-11-29_18h27.35.919,Attention_exp_legacy,2023.1.0,Win32,59.88023952,calibration_square,,,,,,,,,,,,,,,,,,,,,,,,,,,,,,,,,,,,,,,,,,,,,,,,,,,,,,,,
,,,,,,,0.327083333,0.338888889,1,0,0,0,11,11,17,1,0.33,0.33,36,001,2024-11-29_18h27.35.919,Attention_exp_legacy,2023.1.0,Win32,59.88023952,calibration_square,,,,,,,,,,,,,,,,,,,,,,,,,,,,,,,,,,,,,,,,,,,,,,,,,,,,,,,,
,,,,,,,-0.326041667,0.003703704,1,0,0,0,12,12,6,1,-0.33,0,36,001,2024-11-29_18h27.35.919,Attention_exp_legacy,2023.1.0,Win32,59.88023952,calibration_square,,,,,,,,,,,,,,,,,,,,,,,,,,,,,,,,,,,,,,,,,,,,,,,,,,,,,,,,
,,,,,,,-0.002083333,-0.324074074,1,0,0,0,13,13,10,1,0,-0.33,36,001,2024-11-29_18h27.35.919,Attention_exp_legacy,2023.1.0,Win32,59.88023952,calibration_square,,,,,,,,,,,,,,,,,,,,,,,,,,,,,,,,,,,,,,,,,,,,,,,,,,,,,,,,
,,,,,,,-0.003125,-0.662962963,1,0,0,0,14,14,9,1,0,-0.67,36,001,2024-11-29_18h27.35.919,Attention_exp_legacy,2023.1.0,Win32,59.88023952,calibration_square,,,,,,,,,,,,,,,,,,,,,,,,,,,,,,,,,,,,,,,,,,,,,,,,,,,,,,,,
,,,,,,,-0.005208333,0.324074074,1,0,0,0,15,15,12,1,0,0.33,36,001,2024-11-29_18h27.35.919,Attention_exp_legacy,2023.1.0,Win32,59.88023952,calibration_square,,,,,,,,,,,,,,,,,,,,,,,,,,,,,,,,,,,,,,,,,,,,,,,,,,,,,,,,
,,,,,,,-0.321875,-0.342592593,1,0,0,0,16,16,5,1,-0.33,-0.33,36,001,2024-11-29_18h27.35.919,Attention_exp_legacy,2023.1.0,Win32,59.88023952,,,,,,,,,,,,,,,,,,,,,,,,,,,,,,,,,,,,,,,,,,,,,,,,,,,,,,,,,
,,,,,,,0.00625,0.67037037,1,0,0,0,17,17,13,1,0,0.67,36,001,2024-11-29_18h27.35.919,Attention_exp_legacy,2023.1.0,Win32,59.88023952,calibration_square,,,,,,,,,,,,,,,,,,,,,,,,,,,,,,,,,,,,,,,,,,,,,,,,,,,,,,,,
,,,,,,,0.31875,0.67037037,1,0,0,0,18,18,18,1,0.33,0.67,36,001,2024-11-29_18h27.35.919,Attention_exp_legacy,2023.1.0,Win32,59.88023952,,,,,,,,,,,,,,,,,,,,,,,,,,,,,,,,,,,,,,,,,,,,,,,,,,,,,,,,,
,,,,,,,0.322916667,-0.648148148,1,0,0,0,19,19,14,1,0.33,-0.67,36,001,2024-11-29_18h27.35.919,Attention_exp_legacy,2023.1.0,Win32,59.88023952,,,,,,,,,,,,,,,,,,,,,,,,,,,,,,,,,,,,,,,,,,,,,,,,,,,,,,,,,
,,,,,,,-0.670833333,-0.672222222,1,0,0,0,20,20,0,1,-0.67,-0.67,36,001,2024-11-29_18h27.35.919,Attention_exp_legacy,2023.1.0,Win32,59.88023952,calibration_square,,,,,,,,,,,,,,,,,,,,,,,,,,,,,,,,,,,,,,,,,,,,,,,,,,,,,,,,
,,,,,,,,,,,,,,,,,,,36,001,2024-11-29_18h27.35.919,Attention_exp_legacy,2023.1.0,Win32,59.88023952,,"[1920,1080]","[640,480]",[0.01875],[-0.5018518518518519],[1],[0],[0],[3.2959999999999994],"[""StartButton""]",[-0.058333333333333334],[0.16111111111111112],[1],[0],[0],[4.217699999988085],"[""Bus_label""]",Bus_label,1,5.2274,"[[-0.003125,-0.4462962962962963],[-0.003125,-0.4462962962962963],[-0.003125,-0.4462962962962963],[-0.003125,-0.4462962962962963],[-0.003125,-0.4462962962962963],[-0.003125,-0.4462962962962963],[-0.003125,-0.4462962962962963],[-0.003125,-0.4462962962962963],[-0.003125,-0.4462962962962963],[-0.003125,-0.4462962962962963],[-0.003125,-0.4462962962962963],[-0.004166666666666667,-0.4462962962962963],[-0.008333333333333333,-0.4462962962962963],[-0.0125,-0.44814814814814813],[-0.015625,-0.45185185185185184],[-0.01875,-0.4537037037037037],[-0.020833333333333332,-0.45555555555555555],[-0.020833333333333332,-0.45555555555555555],[-0.020833333333333332,-0.45555555555555555],[-0.021875,-0.45555555555555555],[-0.021875,-0.45555555555555555],[-0.021875,-0.45555555555555555],[-0.021875,-0.45555555555555555],[-0.021875,-0.45555555555555555],[-0.021875,-0.45555555555555555],[-0.021875,-0.45555555555555555],[-0.021875,-0.45555555555555555],[-0.021875,-0.45555555555555555],[-0.021875,-0.45555555555555555],[-0.021875,-0.45555555555555555],[-0.021875,-0.45555555555555555],[-0.021875,-0.45555555555555555],[-0.021875,-0.45555555555555555],[-0.021875,-0.45555555555555555],[-0.021875,-0.45555555555555555],[-0.021875,-0.45555555555555555],[-0.021875,-0.45555555555555555],[-0.021875,-0.45555555555555555],[-0.021875,-0.45555555555555555],[-0.021875,-0.45555555555555555],[-0.021875,-0.45555555555555555],[-0.021875,-0.45555555555555555],[-0.025,-0.45740740740740743],[-0.027083333333333334,-0.45740740740740743],[-0.028125,-0.45740740740740743],[-0.028125,-0.4537037037037037],[-0.028125,-0.4537037037037037],[-0.028125,-0.4537037037037037],[-0.028125,-0.4537037037037037],[-0.028125,-0.4537037037037037],[-0.028125,-0.4537037037037037],[-0.028125,-0.4537037037037037],[-0.028125,-0.4537037037037037],[-0.028125,-0.4537037037037037],[-0.028125,-0.4537037037037037],[-0.028125,-0.4537037037037037],[-0.028125,-0.4537037037037037],[-0.028125,-0.4537037037037037],[-0.028125,-0.45555555555555555],[-0.028125,-0.45555555555555555],[-0.028125,-0.45740740740740743],[-0.03125,-0.45740740740740743],[-0.035416666666666666,-0.45740740740740743],[-0.035416666666666666,-0.45740740740740743],[-0.035416666666666666,-0.45740740740740743],[-0.035416666666666666,-0.45740740740740743],[-0.035416666666666666,-0.45740740740740743],[-0.035416666666666666,-0.45740740740740743],[-0.035416666666666666,-0.45740740740740743],[-0.035416666666666666,-0.45740740740740743],[-0.035416666666666666,-0.45740740740740743],[-0.035416666666666666,-0.45740740740740743],[-0.035416666666666666,-0.45740740740740743],[-0.035416666666666666,-0.45740740740740743],[-0.035416666666666666,-0.45740740740740743],[-0.035416666666666666,-0.45740740740740743],[-0.035416666666666666,-0.45740740740740743],[-0.035416666666666666,-0.45740740740740743],[-0.035416666666666666,-0.45740740740740743],[-0.035416666666666666,-0.45740740740740743],[-0.035416666666666666,-0.45740740740740743],[-0.035416666666666666,-0.45740740740740743],[-0.035416666666666666,-0.45740740740740743],[-0.035416666666666666,-0.45740740740740743],[-0.035416666666666666,-0.45740740740740743],[-0.035416666666666666,-0.45740740740740743],[-0.035416666666666666,-0.45740740740740743],[-0.035416666666666666,-0.45740740740740743],[-0.035416666666666666,-0.45740740740740743],[-0.035416666666666666,-0.45740740740740743],[-0.035416666666666666,-0.45740740740740743],[-0.035416666666666666,-0.45740740740740743],[-0.035416666666666666,-0.45740740740740743],[-0.035416666666666666,-0.45740740740740743],[-0.035416666666666666,-0.45740740740740743],[-0.035416666666666666,-0.45740740740740743],[-0.035416666666666666,-0.45740740740740743],[-0.035416666666666666,-0.45740740740740743],[-0.035416666666666666,-0.45740740740740743],[-0.035416666666666666,-0.45740740740740743],[-0.035416666666666666,-0.45740740740740743],[-0.035416666666666666,-0.45740740740740743],[-0.035416666666666666,-0.45740740740740743],[-0.035416666666666666,-0.45740740740740743],[-0.035416666666666666,-0.45740740740740743],[-0.035416666666666666,-0.45740740740740743],[-0.035416666666666666,-0.45740740740740743],[-0.035416666666666666,-0.45740740740740743],[-0.035416666666666666,-0.45740740740740743],[-0.035416666666666666,-0.45740740740740743],[-0.035416666666666666,-0.45740740740740743],[-0.035416666666666666,-0.45740740740740743],[-0.035416666666666666,-0.45740740740740743],[-0.035416666666666666,-0.45740740740740743],[-0.035416666666666666,-0.45740740740740743],[-0.035416666666666666,-0.45740740740740743],[-0.035416666666666666,-0.45740740740740743],[-0.035416666666666666,-0.45740740740740743],[-0.035416666666666666,-0.45740740740740743],[-0.035416666666666666,-0.45740740740740743],[-0.035416666666666666,-0.45740740740740743],[-0.035416666666666666,-0.45740740740740743],[-0.035416666666666666,-0.45740740740740743],[-0.035416666666666666,-0.45740740740740743],[-0.035416666666666666,-0.45740740740740743],[-0.035416666666666666,-0.45740740740740743],[-0.035416666666666666,-0.45740740740740743],[-0.035416666666666666,-0.45740740740740743],[-0.035416666666666666,-0.45740740740740743],[-0.035416666666666666,-0.45740740740740743],[-0.035416666666666666,-0.45740740740740743],[-0.035416666666666666,-0.45740740740740743],[-0.035416666666666666,-0.45740740740740743],[-0.035416666666666666,-0.45740740740740743],[-0.035416666666666666,-0.45740740740740743],[-0.035416666666666666,-0.45740740740740743],[-0.035416666666666666,-0.45740740740740743],[-0.035416666666666666,-0.45740740740740743],[-0.035416666666666666,-0.45740740740740743],[-0.035416666666666666,-0.45740740740740743],[-0.035416666666666666,-0.45740740740740743],[-0.035416666666666666,-0.45740740740740743],[-0.035416666666666666,-0.45740740740740743],[-0.035416666666666666,-0.45740740740740743],[-0.035416666666666666,-0.45740740740740743],[-0.035416666666666666,-0.45740740740740743],[-0.035416666666666666,-0.45740740740740743],[-0.035416666666666666,-0.45740740740740743],[-0.035416666666666666,-0.45740740740740743],[-0.035416666666666666,-0.45740740740740743],[-0.035416666666666666,-0.45740740740740743],[-0.035416666666666666,-0.45740740740740743],[-0.035416666666666666,-0.45740740740740743],[-0.035416666666666666,-0.45740740740740743],[-0.035416666666666666,-0.45740740740740743],[-0.035416666666666666,-0.45740740740740743],[-0.035416666666666666,-0.45740740740740743],[-0.035416666666666666,-0.45740740740740743],[-0.035416666666666666,-0.45740740740740743],[-0.035416666666666666,-0.45740740740740743],[-0.035416666666666666,-0.45740740740740743],[-0.035416666666666666,-0.45740740740740743],[-0.035416666666666666,-0.45740740740740743],[-0.035416666666666666,-0.45740740740740743],[-0.035416666666666666,-0.45740740740740743],[-0.035416666666666666,-0.45740740740740743],[-0.035416666666666666,-0.45740740740740743],[-0.035416666666666666,-0.45740740740740743],[-0.035416666666666666,-0.45740740740740743],[-0.035416666666666666,-0.45740740740740743],[-0.035416666666666666,-0.45740740740740743],[-0.035416666666666666,-0.45740740740740743],[-0.035416666666666666,-0.45740740740740743],[-0.035416666666666666,-0.45740740740740743],[-0.035416666666666666,-0.45740740740740743],[-0.035416666666666666,-0.45740740740740743],[-0.035416666666666666,-0.45740740740740743],[-0.035416666666666666,-0.45740740740740743],[-0.035416666666666666,-0.45740740740740743],[-0.035416666666666666,-0.45740740740740743],[-0.035416666666666666,-0.45740740740740743],[-0.035416666666666666,-0.45740740740740743],[-0.035416666666666666,-0.45740740740740743],[-0.035416666666666666,-0.45740740740740743],[-0.035416666666666666,-0.45740740740740743],[-0.035416666666666666,-0.45740740740740743],[-0.035416666666666666,-0.45740740740740743],[-0.035416666666666666,-0.45740740740740743],[-0.035416666666666666,-0.45740740740740743],[-0.035416666666666666,-0.45740740740740743],[-0.035416666666666666,-0.45740740740740743],[-0.035416666666666666,-0.45740740740740743],[-0.035416666666666666,-0.45740740740740743],[-0.035416666666666666,-0.45740740740740743],[-0.035416666666666666,-0.45740740740740743],[-0.035416666666666666,-0.45740740740740743],[-0.035416666666666666,-0.45740740740740743],[-0.035416666666666666,-0.45740740740740743],[-0.035416666666666666,-0.45740740740740743],[-0.035416666666666666,-0.45740740740740743],[-0.035416666666666666,-0.45740740740740743],[-0.035416666666666666,-0.45740740740740743],[-0.035416666666666666,-0.45740740740740743],[-0.035416666666666666,-0.45740740740740743],[-0.035416666666666666,-0.45740740740740743],[-0.035416666666666666,-0.45740740740740743],[-0.035416666666666666,-0.45740740740740743],[-0.035416666666666666,-0.45740740740740743],[-0.035416666666666666,-0.45740740740740743],[-0.035416666666666666,-0.45740740740740743],[-0.035416666666666666,-0.45740740740740743],[-0.035416666666666666,-0.45740740740740743],[-0.035416666666666666,-0.45740740740740743],[-0.035416666666666666,-0.45740740740740743],[-0.035416666666666666,-0.45740740740740743],[-0.035416666666666666,-0.45740740740740743],[-0.035416666666666666,-0.45740740740740743],[-0.035416666666666666,-0.45740740740740743],[-0.035416666666666666,-0.45740740740740743],[-0.036458333333333336,-0.44074074074074077],[-0.036458333333333336,-0.40185185185185185],[-0.036458333333333336,-0.3574074074074074],[-0.036458333333333336,-0.31296296296296294],[-0.036458333333333336,-0.2611111111111111],[-0.03958333333333333,-0.21481481481481482],[-0.042708333333333334,-0.16666666666666666],[-0.042708333333333334,-0.12037037037037036],[-0.042708333333333334,-0.06666666666666667],[-0.046875,0.005555555555555556],[-0.051041666666666666,0.03888888888888889],[-0.051041666666666666,0.05925925925925926],[-0.051041666666666666,0.06851851851851852],[-0.052083333333333336,0.08148148148148149],[-0.053125,0.09259259259259259],[-0.053125,0.1037037037037037],[-0.05520833333333333,0.1111111111111111],[-0.05625,0.11666666666666667],[-0.05625,0.11666666666666667],[-0.057291666666666664,0.11666666666666667],[-0.057291666666666664,0.11666666666666667],[-0.057291666666666664,0.11851851851851852],[-0.057291666666666664,0.12222222222222222],[-0.057291666666666664,0.12777777777777777],[-0.057291666666666664,0.13518518518518519],[-0.057291666666666664,0.14814814814814814],[-0.057291666666666664,0.1537037037037037],[-0.057291666666666664,0.15555555555555556],[-0.057291666666666664,0.15555555555555556],[-0.057291666666666664,0.15555555555555556],[-0.057291666666666664,0.15555555555555556],[-0.058333333333333334,0.16111111111111112],[-0.058333333333333334,0.16111111111111112],[-0.058333333333333334,0.16111111111111112],[-0.058333333333333334,0.16111111111111112],[-0.058333333333333334,0.16111111111111112],[-0.058333333333333334,0.16111111111111112],[-0.058333333333333334,0.16111111111111112],[-0.058333333333333334,0.16111111111111112],[-0.058333333333333334,0.16111111111111112],[-0.058333333333333334,0.16111111111111112],[-0.058333333333333334,0.16111111111111112],[-0.058333333333333334,0.16111111111111112],[-0.058333333333333334,0.16111111111111112],[-0.058333333333333334,0.16111111111111112],[-0.058333333333333334,0.16111111111111112],[-0.058333333333333334,0.16111111111111112],[-0.058333333333333334,0.16111111111111112],[-0.058333333333333334,0.16111111111111112],[-0.058333333333333334,0.16111111111111112],[-0.058333333333333334,0.16111111111111112],[-0.058333333333333334,0.16111111111111112],[-0.058333333333333334,0.16111111111111112],[-0.058333333333333334,0.16111111111111112],[-0.058333333333333334,0.16111111111111112],[-0.058333333333333334,0.16111111111111112],[-0.058333333333333334,0.16111111111111112],[-0.058333333333333334,0.16111111111111112],[-0.058333333333333334,0.16111111111111112],[-0.058333333333333334,0.16111111111111112],[-0.058333333333333334,0.16111111111111112],[-0.058333333333333334,0.16111111111111112],[-0.058333333333333334,0.16111111111111112],[-0.058333333333333334,0.16111111111111112],[-0.058333333333333334,0.16111111111111112],[-0.058333333333333334,0.16111111111111112],[-0.058333333333333334,0.16111111111111112],[-0.058333333333333334,0.16111111111111112],[-0.058333333333333334,0.16111111111111112],[-0.058333333333333334,0.16111111111111112],[-0.058333333333333334,0.16111111111111112],[-0.058333333333333334,0.16111111111111112],[-0.058333333333333334,0.16111111111111112],[-0.058333333333333334,0.16111111111111112],[-0.058333333333333334,0.16111111111111112],[-0.058333333333333334,0.16111111111111112],[-0.058333333333333334,0.16111111111111112],[-0.058333333333333334,0.16111111111111112],[-0.058333333333333334,0.16111111111111112],[-0.058333333333333334,0.16111111111111112],[-0.058333333333333334,0.16111111111111112],[-0.058333333333333334,0.16111111111111112],[-0.058333333333333334,0.16111111111111112],[-0.058333333333333334,0.16111111111111112],[-0.058333333333333334,0.16111111111111112],[-0.058333333333333334,0.16111111111111112],[-0.058333333333333334,0.16111111111111112],[-0.058333333333333334,0.16111111111111112],[-0.058333333333333334,0.16111111111111112],[-0.058333333333333334,0.16111111111111112],[-0.058333333333333334,0.16111111111111112],[-0.058333333333333334,0.16111111111111112],[-0.058333333333333334,0.16111111111111112],[-0.058333333333333334,0.16111111111111112]]","[[-0.08135416666666669,0.40425925925925915],[-0.08135416666666669,0.40425925925925915],[-0.10177083333333338,0.3412962962962962],[-0.11322916666666671,0.3562962962962963],[-0.128125,0.3725925925925927],[-0.13322916666666665,0.3146296296296296],[-0.14343750000000005,0.2662962962962962],[-0.1408333333333334,0.25629629629629624],[-0.1248958333333333,0.25388888888888894],[-0.11979166666666667,0.2511111111111112],[-0.1252083333333334,0.25555555555555554],[-0.11916666666666664,0.22518518518518524],[-0.11229166666666662,0.2564814814814815],[-0.0967708333333333,0.262037037037037],[-0.08739583333333331,0.2540740740740742],[-0.08739583333333331,0.2540740740740742],[-0.09093749999999995,0.2948148148148149],[-0.08364583333333328,0.3550000000000001],[-0.09354166666666662,0.3785185185185185],[-0.09354166666666662,0.3785185185185185],[-0.10437500000000005,0.3672222222222221],[-0.1203125,0.3492592592592593],[-0.11156250000000002,0.35777777777777786],[-0.11145833333333334,0.4348148148148147],[-0.11145833333333334,0.4348148148148147],[-0.11322916666666671,0.4661111111111112],[-0.11760416666666665,0.4988888888888888],[-0.10864583333333329,0.5446296296296297],[-0.10864583333333329,0.5446296296296297],[-0.08843749999999997,0.5522222222222223],[-0.090625,0.5238888888888888],[-0.08187500000000002,0.5390740740740741],[-0.07218749999999995,0.5890740740740741],[-0.08312499999999995,0.597037037037037],[-0.09406249999999995,0.6050000000000001],[-0.09406249999999995,0.6050000000000001],[-0.10760416666666663,0.6044444444444445],[-0.11260416666666669,0.5922222222222221],[-0.12270833333333328,0.5925925925925926],[-0.12270833333333328,0.5925925925925926],[-0.1352083333333333,0.575925925925926],[-0.14781249999999999,0.5755555555555555],[-0.15843750000000004,0.5466666666666667],[-0.16833333333333336,0.5327777777777779],[-0.17541666666666664,0.5172222222222221],[-0.14968750000000006,0.6096296296296297],[-0.14968750000000006,0.6096296296296297],[-0.1265625,0.6155555555555555],[-0.13312499999999997,0.6005555555555555],[-0.13187500000000002,0.6511111111111112],[-0.13708333333333336,0.6972222222222222],[-0.13708333333333336,0.6972222222222222],[-0.13010416666666663,0.7098148148148147],[-0.13218749999999999,0.6937037037037037],[-0.12468750000000005,0.7225925925925927],[-0.11677083333333335,0.6937037037037037],[-0.11166666666666672,0.6664814814814815],[-0.09624999999999997,0.606851851851852],[-0.06979166666666667,0.6248148148148148],[-0.06979166666666667,0.6248148148148148],[-0.051770833333333384,0.6381481481481482],[-0.04656250000000005,0.6042592592592592],[-0.025416666666666643,0.5753703703703704],[-0.025416666666666643,0.5753703703703704],[-0.02822916666666669,0.55],[-0.028645833333333332,0.5451851851851851],[-0.0203125,0.5333333333333333],[-0.026250000000000048,0.5277777777777778],[-0.03218749999999997,0.5222222222222223],[-0.05135416666666662,0.48703703703703705],[-0.07427083333333329,0.4757407407407407],[-0.07010416666666662,0.4733333333333334],[-0.07010416666666662,0.4733333333333334],[-0.07833333333333338,0.4903703703703703],[-0.08218749999999998,0.45981481481481473],[-0.08781249999999995,0.4674074074074074],[-0.08781249999999995,0.4674074074074074],[-0.08666666666666671,0.4668518518518519],[-0.08812500000000002,0.452962962962963],[-0.08156249999999995,0.4537037037037037],[-0.0751041666666667,0.45481481481481484],[-0.08843749999999997,0.45981481481481473],[-0.09645833333333335,0.4566666666666667],[-0.09645833333333335,0.4566666666666667],[-0.10281250000000004,0.42851851851851847],[-0.10072916666666672,0.3875925925925925],[-0.1125,0.3937037037037037],[-0.12374999999999996,0.35907407407407405],[-0.13500000000000004,0.32444444444444454],[-0.15197916666666664,0.34333333333333327],[-0.17479166666666662,0.3405555555555555],[-0.20583333333333337,0.3109259259259259],[-0.22124999999999997,0.2801851851851851],[-0.2359375,0.2616666666666666],[-0.24145833333333327,0.2596296296296297],[-0.24510416666666662,0.2418518518518519],[-0.24874999999999994,0.22407407407407406],[-0.2553125,0.19870370370370363],[-0.26187499999999997,0.17333333333333337],[-0.2726041666666667,0.11055555555555564],[-0.28406250000000005,0.06370370370370367],[-0.2678125,0.08629629629629634],[-0.2359375,0.1338888888888888],[-0.23572916666666663,0.11388888888888889],[-0.221875,0.1242592592592593],[-0.221875,0.1242592592592593],[-0.21979166666666666,0.12314814814814815],[-0.22104166666666672,0.14314814814814805],[-0.21427083333333338,0.18574074074074065],[-0.1828125,0.24944444444444452],[-0.1476041666666667,0.31740740740740736],[-0.1476041666666667,0.31740740740740736],[-0.12447916666666667,0.3701851851851851],[-0.12447916666666667,0.3701851851851851],[-0.11229166666666662,0.39462962962962966],[-0.12885416666666671,0.34574074074074085],[-0.11052083333333336,0.3333333333333333],[-0.11333333333333329,0.3292592592592592],[-0.10583333333333336,0.33907407407407414],[-0.096875,0.2992592592592593],[-0.08510416666666672,0.2855555555555556],[-0.08510416666666672,0.2855555555555556],[-0.09885416666666665,0.2462962962962963],[-0.10260416666666666,0.20555555555555555],[-0.09249999999999996,0.14759259259259266],[-0.09760416666666671,0.09351851851851851],[-0.08958333333333333,0.08777777777777773],[-0.11312500000000002,0.062407407407407495],[-0.11104166666666669,0.06722222222222214],[-0.12708333333333333,0.0031481481481482323],[-0.11979166666666667,0.024629629629629547],[-0.10791666666666669,0.025185185185185227],[-0.10343749999999995,0.025370370370370456],[-0.1094791666666667,0.06092592592592588],[-0.1094791666666667,0.06092592592592588],[-0.11656249999999997,0.11296296296296296],[-0.12114583333333329,0.11444444444444436],[-0.11843750000000004,0.14592592592592585],[-0.09812500000000005,0.20907407407407402],[-0.0967708333333333,0.21574074074074073],[-0.07729166666666672,0.2912962962962962],[-0.09125000000000003,0.29444444444444445],[-0.10979166666666665,0.31851851851851853],[-0.11625000000000002,0.347037037037037],[-0.11864583333333331,0.30481481481481487],[-0.11760416666666665,0.3072222222222222],[-0.11145833333333334,0.3633333333333334],[-0.10979166666666665,0.35833333333333334],[-0.10812499999999996,0.3533333333333332],[-0.11458333333333333,0.35648148148148145],[-0.12104166666666671,0.3596296296296297],[-0.1125,0.3792592592592592],[-0.1046875,0.38629629629629636],[-0.10072916666666672,0.3937037037037037],[-0.09114583333333333,0.4359259259259259],[-0.09083333333333338,0.4],[-0.08854166666666667,0.3492592592592593],[-0.090625,0.34370370370370373],[-0.090625,0.34370370370370373],[-0.09291666666666672,0.37537037037037047],[-0.09041666666666662,0.35833333333333334],[-0.09083333333333338,0.3764814814814814],[-0.09083333333333338,0.3764814814814814],[-0.09427083333333333,0.39351851851851855],[-0.0829166666666667,0.4222222222222222],[-0.07770833333333335,0.41722222222222216],[-0.07770833333333335,0.41722222222222216],[-0.08166666666666664,0.4142592592592593],[-0.07145833333333336,0.44351851851851853],[-0.05479166666666669,0.46574074074074073],[-0.05479166666666669,0.46574074074074073],[-0.036562500000000026,0.47388888888888886],[-0.025625000000000023,0.4807407407407408],[-0.01427083333333338,0.4896296296296296],[0,0.46333333333333343],[0.01875,0.42962962962962964],[0.0234375,0.3968518518518518],[0.03427083333333331,0.3977777777777777],[0.04729166666666664,0.4225925925925927],[0.04989583333333331,0.3979629629629629],[0.043229166666666666,0.3735185185185186],[0.030729166666666665,0.35722222222222216],[0.025729166666666713,0.3050000000000001],[0.025729166666666713,0.3050000000000001],[0.024374999999999977,0.2729629629629629],[0.029375000000000047,0.24592592592592585],[0.029895833333333382,0.22629629629629638],[0.029895833333333382,0.22629629629629638],[0.021041666666666715,0.2183333333333333],[0.02333333333333331,0.25037037037037047],[0.0234375,0.25851851851851854],[0.016250000000000025,0.30407407407407416],[0.009062500000000048,0.34962962962962957],[0.011458333333333333,0.3557407407407408],[0.011979166666666667,0.35981481481481475],[0.01864583333333331,0.3866666666666666],[0.01864583333333331,0.3866666666666666],[0.024270833333333287,0.415925925925926],[0.03104166666666662,0.4329629629629629],[0.03718750000000005,0.4294444444444444],[0.03218749999999997,0.3859259259259259],[0.027187500000000024,0.3424074074074074],[0.040625,0.34388888888888897],[0.040625,0.34388888888888897],[0.05406249999999998,0.3453703703703704],[0.050625000000000024,0.3374074074074075],[0.04906250000000002,0.3314814814814815],[0.04104166666666664,0.3396296296296296],[0.027708333333333356,0.34037037037037027],[0.0018749999999999527,0.3418518518518519],[-0.01395833333333331,0.3522222222222223],[-0.04635416666666667,0.3709259259259258],[-0.07875000000000003,0.3896296296296296],[-0.10406249999999997,0.3712962962962963],[-0.14593750000000003,0.33833333333333343],[-0.14593750000000003,0.33833333333333343],[-0.15333333333333338,0.3490740740740741],[-0.14510416666666662,0.3848148148148147],[-0.13645833333333332,0.3896296296296296],[-0.13645833333333332,0.3896296296296296],[-0.1578125,0.38351851851851854],[-0.16510416666666666,0.412962962962963],[-0.17239583333333333,0.44240740740740736],[-0.17239583333333333,0.44240740740740736],[-0.14770833333333327,0.44000000000000006],[-0.12302083333333336,0.43759259259259253],[-0.1252083333333334,0.4272222222222223],[-0.09927083333333328,0.42833333333333323],[-0.09468749999999998,0.4264814814814814],[-0.11031249999999998,0.41999999999999993],[-0.11031249999999998,0.41999999999999993],[-0.12135416666666667,0.3651851851851853],[-0.12135416666666667,0.3651851851851853],[-0.10093749999999997,0.35351851851851845],[-0.07770833333333335,0.2712962962962963],[-0.058958333333333356,0.20555555555555555],[-0.058958333333333356,0.20555555555555555],[-0.06229166666666662,0.15203703703703708],[-0.04572916666666664,0.058333333333333334],[-0.025312499999999953,-0.016666666666666666],[-0.025312499999999953,-0.016666666666666666],[-0.02052083333333338,-0.05388888888888893],[-0.013854166666666619,-0.09944444444444442],[-0.002708333333333357,-0.2094444444444445],[-0.002708333333333357,-0.2094444444444445],[-0.0032291666666666905,-0.2192592592592592],[0.00010416666666669035,-0.26851851851851855],[-0.012395833333333309,-0.2485185185185185],[-0.012395833333333309,-0.2485185185185185],[-0.018437500000000048,-0.23722222222222225],[-0.008124999999999953,-0.25999999999999995],[-0.008124999999999953,-0.25999999999999995],[-0.017916666666666713,-0.24092592592592596],[-0.03187500000000002,-0.2088888888888889],[-0.049270833333333285,-0.24962962962962965],[-0.06166666666666672,-0.28111111111111114],[-0.06166666666666672,-0.28111111111111114],[-0.07395833333333333,-0.26851851851851855],[-0.06791666666666671,-0.2770370370370371],[-0.07718750000000002,-0.3168518518518519],[-0.07875000000000003,-0.35611111111111116],[-0.07875000000000003,-0.35611111111111116],[-0.07114583333333328,-0.37462962962962965],[-0.08010416666666664,-0.3544444444444444],[-0.08010416666666664,-0.3544444444444444],[-0.0828125,-0.3448148148148148],[-0.07593749999999998,-0.3061111111111111],[-0.051250000000000046,-0.28833333333333333],[-0.04093749999999995,-0.27870370370370373],[-0.021249999999999977,-0.26055555555555554],[-0.01083333333333331,-0.21666666666666667],[0.02000000000000005,-0.15777777777777777],[0.06239583333333331,-0.08907407407407411],[0.09364583333333343,-0.04888888888888885],[0.13989583333333327,-0.0011111111111111532],[0.18010416666666676,0.05555555555555555],[0.21645833333333328,0.05018518518518523],[0.23166666666666677,0.12222222222222222],[0.25791666666666657,0.2022222222222223],[0.3011458333333332,0.2564814814814815],[0.3288541666666667,0.26666666666666666],[0.3189583333333334,0.34074074074074073],[0.30010416666666656,0.3816666666666667],[0.28135416666666657,0.3824074074074074],[0.25447916666666665,0.3822222222222222],[0.21614583333333334,0.4125925925925925],[0.18312499999999995,0.45759259259259266],[0.15593750000000003,0.4246296296296295],[0.1252083333333334,0.39092592592592595],[0.08208333333333329,0.41351851851851845],[0.03791666666666664,0.4170370370370371],[0.03791666666666664,0.4170370370370371],[0.0203125,0.3785185185185185],[0.0203125,0.3785185185185185],[0.010416666666666666,0.2903703703703703],[0,0.24981481481481477],[-0.010416666666666666,0.20925925925925926],[-0.00947916666666669,0.14370370370370375],[-0.01593749999999995,0.10185185185185185],[-0.03312499999999995,0.09203703703703713],[-0.025,0.09462962962962967],[-0.025,0.09462962962962967],[-0.04020833333333336,0.04888888888888885],[-0.033749999999999974,0.02444444444444453],[-0.02802083333333331,-0.0014814814814813973],[-0.02802083333333331,-0.0014814814814813973],[-0.043020833333333286,-0.005555555555555556],[-0.03822916666666672,0.050370370370370454],[-0.03343750000000002,0.10629629629629625],[-0.030208333333333334,0.16222222222222227],[-0.019583333333333286,0.19444444444444445],[0.008229166666666643,0.2198148148148149],[0.01072916666666662,0.23277777777777786]]","[[-0.08135416666666669,0.40425925925925915,0.0003000000119186552],[-0.08135416666666669,0.40425925925925915,0.04980000001192053],[-0.10177083333333338,0.3412962962962962,0.0601999999880789],[-0.11322916666666671,0.3562962962962963,0.07739999997615854],[-0.128125,0.3725925925925927,0.0934999999999988],[-0.13322916666666665,0.3146296296296296,0.11080000001192047],[-0.14343750000000005,0.2662962962962962,0.1268000000119187],[-0.1408333333333334,0.25629629629629624,0.14519999998807975],[-0.1248958333333333,0.25388888888888894,0.16019999998808032],[-0.11979166666666667,0.2511111111111112,0.17680000001191587],[-0.1252083333333334,0.25555555555555554,0.19469999998807452],[-0.11916666666666664,0.22518518518518524,0.21519999998808004],[-0.11229166666666662,0.2564814814814815,0.2306999999880759],[-0.0967708333333333,0.262037037037037,0.24549999999999983],[-0.08739583333333331,0.2540740740740742,0.2681999999880773],[-0.08739583333333331,0.2540740740740742,0.2770999999642356],[-0.09093749999999995,0.2948148148148149,0.2936999999880783],[-0.08364583333333328,0.3550000000000001,0.3103999999761555],[-0.09354166666666662,0.3785185185185185,0.3269999999999982],[-0.09354166666666662,0.3785185185185185,0.34609999996423824],[-0.10437500000000005,0.3672222222222221,0.36019999998807606],[-0.1203125,0.3492592592592593,0.3768999999761533],[-0.11156250000000002,0.35777777777777786,0.39349999999999596],[-0.11145833333333334,0.4348148148148147,0.4129999999999967],[-0.11145833333333334,0.4348148148148147,0.42680000001191587],[-0.11322916666666671,0.4661111111111112,0.4435999999642348],[-0.11760416666666665,0.4988888888888888,0.4603000000119195],[-0.10864583333333329,0.5446296296296297,0.4800999999642386],[-0.10864583333333329,0.5446296296296297,0.4934999999999974],[-0.08843749999999997,0.5522222222222223,0.5101999999880746],[-0.090625,0.5238888888888888,0.5268000000119173],[-0.08187500000000002,0.5390740740740741,0.5438999999761549],[-0.07218749999999995,0.5890740740740741,0.5646999999880791],[-0.08312499999999995,0.597037037037037,0.5808000000119193],[-0.09406249999999995,0.6050000000000001,0.5964999999999989],[-0.09406249999999995,0.6050000000000001,0.6101999999880761],[-0.10760416666666663,0.6044444444444445,0.6269999999999953],[-0.11260416666666669,0.5922222222222221,0.644099999964233],[-0.12270833333333328,0.5925925925925926,0.6601999999880803],[-0.12270833333333328,0.5925925925925926,0.6768999999761576],[-0.1352083333333333,0.575925925925926,0.6935000000000002],[-0.14781249999999999,0.5755555555555555,0.7103000000119195],[-0.15843750000000004,0.5466666666666667,0.7305999999642339],[-0.16833333333333336,0.5327777777777779,0.7473999999761531],[-0.17541666666666664,0.5172222222222221,0.7643000000119216],[-0.14968750000000006,0.6096296296296297,0.7831999999880779],[-0.14968750000000006,0.6096296296296297,0.7935000000000016],[-0.1265625,0.6155555555555555,0.8101999999880789],[-0.13312499999999997,0.6005555555555555,0.8268000000119216],[-0.13187500000000002,0.6511111111111112,0.8453999999761592],[-0.13708333333333336,0.6972222222222222,0.8603999999761598],[-0.13708333333333336,0.6972222222222222,0.8780999999642347],[-0.13010416666666663,0.7098148148148147,0.8935999999642377],[-0.13218749999999999,0.6937037037037037,0.9131999999880804],[-0.12468750000000005,0.7225925925925927,0.9293000000119207],[-0.11677083333333335,0.6937037037037037,0.9455999999642373],[-0.11166666666666672,0.6664814814814815,0.9633000000119196],[-0.09624999999999997,0.606851851851852,0.9810000000000016],[-0.06979166666666667,0.6248148148148148,1.0011999999880743],[-0.06979166666666667,0.6248148148148148,1.0103000000119167],[-0.051770833333333384,0.6381481481481482,1.0270999999642356],[-0.04656250000000005,0.6042592592592592,1.043899999976155],[-0.025416666666666643,0.5753703703703704,1.0665999999642324],[-0.025416666666666643,0.5753703703703704,1.0768999999761562],[-0.02822916666666669,0.55,1.0934999999999988],[-0.028645833333333332,0.5451851851851851,1.1118000000119181],[-0.0203125,0.5333333333333333,1.1273999999761557],[-0.026250000000000048,0.5277777777777778,1.143499999999996],[-0.03218749999999997,0.5222222222222223,1.1643999999761547],[-0.05135416666666662,0.48703703703703705,1.1809999999999974],[-0.07427083333333329,0.4757407407407407,1.1980000000000004],[-0.07010416666666662,0.4733333333333334,1.214399999976159],[-0.07010416666666662,0.4733333333333334,1.2268000000119201],[-0.07833333333333338,0.4903703703703703,1.2434999999999974],[-0.08218749999999998,0.45981481481481473,1.2615999999642327],[-0.08781249999999995,0.4674074074074074,1.27769999998808],[-0.08781249999999995,0.4674074074074074,1.2935999999642362],[-0.08666666666666671,0.4668518518518519,1.310199999988079],[-0.08812500000000002,0.452962962962963,1.3284999999999982],[-0.08156249999999995,0.4537037037037037,1.3441999999880778],[-0.0751041666666667,0.45481481481481484,1.3651999999880786],[-0.08843749999999997,0.45981481481481473,1.3814999999999955],[-0.09645833333333335,0.4566666666666667,1.3985999999642331],[-0.09645833333333335,0.4566666666666667,1.4101999999880803],[-0.10281250000000004,0.42851851851851847,1.4268999999761576],[-0.10072916666666672,0.3875925925925925,1.4435000000000002],[-0.1125,0.3937037037037037,1.460399999976154],[-0.12374999999999996,0.35907407407407405,1.4769999999999968],[-0.13500000000000004,0.32444444444444454,1.4956999999880765],[-0.15197916666666664,0.34333333333333327,1.5136999999880771],[-0.17479166666666662,0.3405555555555555,1.5285999999642357],[-0.20583333333333337,0.3109259259259259,1.543999999999997],[-0.22124999999999997,0.2801851851851851,1.5608000000119162],[-0.2359375,0.2616666666666666,1.580999999999996],[-0.24145833333333327,0.2596296296296297,1.5966999999880755],[-0.24510416666666662,0.2418518518518519,1.6123999999761551],[-0.24874999999999994,0.22407407407407406,1.6303999999761558],[-0.2553125,0.19870370370370363,1.6475000000000009],[-0.26187499999999997,0.17333333333333337,1.6650999999642337],[-0.2726041666666667,0.11055555555555564,1.6809999999999974],[-0.28406250000000005,0.06370370370370367,1.6973000000119214],[-0.2678125,0.08629629629629634,1.7148999999761543],[-0.2359375,0.1338888888888888,1.730800000011918],[-0.23572916666666663,0.11388888888888889,1.7470999999642345],[-0.221875,0.1242592592592593,1.7658999999761562],[-0.221875,0.1242592592592593,1.776899999976159],[-0.21979166666666666,0.12314814814814815,1.7935999999642362],[-0.22104166666666672,0.14314814814814805,1.8106999999880742],[-0.21427083333333338,0.18574074074074065,1.8268000000119216],[-0.1828125,0.24944444444444452,1.8453000000119175],[-0.1476041666666667,0.31740740740740736,1.865599999964239],[-0.1476041666666667,0.31740740740740736,1.8768999999761533],[-0.12447916666666667,0.3701851851851851,1.8935999999642377],[-0.12447916666666667,0.3701851851851851,1.910399999976157],[-0.11229166666666662,0.39462962962962966,1.9291999999880787],[-0.12885416666666671,0.34574074074074085,1.9488000000119214],[-0.11052083333333336,0.3333333333333333,1.963599999964238],[-0.11333333333333329,0.3292592592592592,1.9798000000119202],[-0.10583333333333336,0.33907407407407414,1.9934999999999974],[-0.096875,0.2992592592592593,2.0100999999642326],[-0.08510416666666672,0.2855555555555556,2.0266999999880753],[-0.08510416666666672,0.2855555555555556,2.0435000000000016],[-0.09885416666666665,0.2462962962962963,2.060300000011921],[-0.10260416666666666,0.20555555555555555,2.0768000000119216],[-0.09249999999999996,0.14759259259259266,2.0933999999761568],[-0.09760416666666671,0.09351851851851851,2.1138000000119206],[-0.08958333333333333,0.08777777777777773,2.127199999988079],[-0.11312500000000002,0.062407407407407495,2.143399999976154],[-0.11104166666666669,0.06722222222222214,2.1601999999880803],[-0.12708333333333333,0.0031481481481482323,2.183],[-0.11979166666666667,0.024629629629629547,2.196800000011919],[-0.10791666666666669,0.025185185185185227,2.212599999964233],[-0.10343749999999995,0.025370370370370456,2.2268999999761547],[-0.1094791666666667,0.06092592592592588,2.2434999999999974],[-0.1094791666666667,0.06092592592592588,2.2603999999761584],[-0.11656249999999997,0.11296296296296296,2.2768000000119173],[-0.12114583333333329,0.11444444444444436,2.2968000000119204],[-0.11843750000000004,0.14592592592592585,2.313300000011921],[-0.09812500000000005,0.20907407407407402,2.329399999976154],[-0.0967708333333333,0.21574074074074073,2.343499999999999],[-0.07729166666666672,0.2912962962962962,2.360199999988076],[-0.09125000000000003,0.29444444444444445,2.3768999999761533],[-0.10979166666666665,0.31851851851851853,2.393499999999996],[-0.11625000000000002,0.347037037037037,2.4100999999642383],[-0.11864583333333331,0.30481481481481487,2.426800000011916],[-0.11760416666666665,0.3072222222222222,2.4435000000000002],[-0.11145833333333334,0.3633333333333334,2.4600999999642355],[-0.10979166666666665,0.35833333333333334,2.47680000001192],[-0.10812499999999996,0.3533333333333332,2.4933999999761554],[-0.11458333333333333,0.35648148148148145,2.5113000000119214],[-0.12104166666666671,0.3596296296296297,2.5268000000119173],[-0.1125,0.3792592592592592,2.5433999999761596],[-0.1046875,0.38629629629629636,2.5604999999999976],[-0.10072916666666672,0.3937037037037037,2.576999999999998],[-0.09114583333333333,0.4359259259259259,2.5953000000119175],[-0.09083333333333338,0.4,2.610099999964234],[-0.08854166666666667,0.3492592592592593,2.6268000000119187],[-0.090625,0.34370370370370373,2.643399999976154],[-0.090625,0.34370370370370373,2.6601999999880803],[-0.09291666666666672,0.37537037037037047,2.676800000011916],[-0.09041666666666662,0.35833333333333334,2.6935000000000002],[-0.09083333333333338,0.3764814814814814,2.710800000011922],[-0.09083333333333338,0.3764814814814814,2.72680000001192],[-0.09427083333333333,0.39351851851851855,2.7434999999999974],[-0.0829166666666667,0.4222222222222222,2.7603999999761584],[-0.07770833333333335,0.41722222222222216,2.776899999976159],[-0.07770833333333335,0.41722222222222216,2.7935000000000016],[-0.08166666666666664,0.4142592592592593,2.810099999964237],[-0.07145833333333336,0.44351851851851853,2.8268000000119216],[-0.05479166666666669,0.46574074074074073,2.843499999999999],[-0.05479166666666669,0.46574074074074073,2.860300000011918],[-0.036562500000000026,0.47388888888888886,2.8768000000119187],[-0.025625000000000023,0.4807407407407408,2.8938999999761563],[-0.01427083333333338,0.4896296296296296,2.9131999999880804],[0,0.46333333333333343,2.9305999999642367],[0.01875,0.42962962962962964,2.9453999999761535],[0.0234375,0.3968518518518518,2.9600999999642355],[0.03427083333333331,0.3977777777777777,2.97680000001192],[0.04729166666666664,0.4225925925925927,2.9933999999761554],[0.04989583333333331,0.3979629629629629,3.0100999999642326],[0.043229166666666666,0.3735185185185186,3.0268000000119173],[0.030729166666666665,0.35722222222222216,3.0435000000000016],[0.025729166666666713,0.3050000000000001,3.0628000000119187],[0.025729166666666713,0.3050000000000001,3.0768000000119216],[0.024374999999999977,0.2729629629629629,3.093499999999999],[0.029375000000000047,0.24592592592592585,3.1120999999642365],[0.029895833333333382,0.22629629629629638,3.1288999999761558],[0.029895833333333382,0.22629629629629638,3.143499999999996],[0.021041666666666715,0.2183333333333333,3.1603000000119224],[0.02333333333333331,0.25037037037037047,3.1784999999999997],[0.0234375,0.25851851851851854,3.1956999999880793],[0.016250000000000025,0.30407407407407416,3.213800000011922],[0.009062500000000048,0.34962962962962957,3.2268999999761547],[0.011458333333333333,0.3557407407407408,3.2433999999761554],[0.011979166666666667,0.35981481481481475,3.2600999999642326],[0.01864583333333331,0.3866666666666666,3.2794999999999987],[0.01864583333333331,0.3866666666666666,3.2935999999642362],[0.024270833333333287,0.415925925925926,3.310099999964237],[0.03104166666666662,0.4329629629629629,3.3278000000119192],[0.03718750000000005,0.4294444444444444,3.344899999976157],[0.03218749999999997,0.3859259259259259,3.360199999988076],[0.027187500000000024,0.3424074074074074,3.3768000000119187],[0.040625,0.34388888888888897,3.3938000000119217],[0.040625,0.34388888888888897,3.4100999999642383],[0.05406249999999998,0.3453703703703704,3.4268999999761576],[0.050625000000000024,0.3374074074074075,3.446699999988077],[0.04906250000000002,0.3314814814814815,3.462099999964238],[0.04104166666666664,0.3396296296296296,3.479300000011918],[0.027708333333333356,0.34037037037037027,3.494399999976153],[0.0018749999999999527,0.3418518518518519,3.5109999999999957],[-0.01395833333333331,0.3522222222222223,3.5268000000119173],[-0.04635416666666667,0.3709259259259258,3.5450000000000017],[-0.07875000000000003,0.3896296296296296,3.560099999964237],[-0.10406249999999997,0.3712962962962963,3.5766999999880795],[-0.14593750000000003,0.33833333333333343,3.593499999999999],[-0.14593750000000003,0.33833333333333343,3.610199999988076],[-0.15333333333333338,0.3490740740740741,3.6266999999880767],[-0.14510416666666662,0.3848148148148147,3.6435999999642377],[-0.13645833333333332,0.3896296296296296,3.6601999999880803],[-0.13645833333333332,0.3896296296296296,3.6809999999999974],[-0.1578125,0.38351851851851854,3.693599999964235],[-0.16510416666666666,0.412962962962963,3.7115999999642355],[-0.17239583333333333,0.44240740740740736,3.7300999999642386],[-0.17239583333333333,0.44240740740740736,3.743699999988074],[-0.14770833333333327,0.44000000000000006,3.7605000000000004],[-0.12302083333333336,0.43759259259259253,3.7770999999642356],[-0.1252083333333334,0.4272222222222223,3.7965999999642364],[-0.09927083333333328,0.42833333333333323,3.8121999999880742],[-0.09468749999999998,0.4264814814814814,3.8305999999642353],[-0.11031249999999998,0.41999999999999993,3.8511999999880757],[-0.11031249999999998,0.41999999999999993,3.864099999964239],[-0.12135416666666667,0.3651851851851853,3.877300000011921],[-0.12135416666666667,0.3651851851851853,3.8935999999642377],[-0.10093749999999997,0.35351851851851845,3.914899999976157],[-0.07770833333333335,0.2712962962962963,3.930499999999995],[-0.058958333333333356,0.20555555555555555,3.9468999999761536],[-0.058958333333333356,0.20555555555555555,3.9643000000119173],[-0.06229166666666662,0.15203703703703708,3.97680000001192],[-0.04572916666666664,0.058333333333333334,3.993599999964239],[-0.025312499999999953,-0.016666666666666666,4.010099999964233],[-0.025312499999999953,-0.016666666666666666,4.030199999988078],[-0.02052083333333338,-0.05388888888888893,4.043699999988078],[-0.013854166666666619,-0.09944444444444442,4.060800000011916],[-0.002708333333333357,-0.2094444444444445,4.082300000011919],[-0.002708333333333357,-0.2094444444444445,4.093599999964233],[-0.0032291666666666905,-0.2192592592592592,4.11039999997616],[0.00010416666666669035,-0.26851851851851855,4.126899999976153],[-0.012395833333333309,-0.2485185185185185,4.143399999976154],[-0.012395833333333309,-0.2485185185185185,4.16019999998808],[-0.018437500000000048,-0.23722222222222225,4.176800000011916],[-0.008124999999999953,-0.25999999999999995,4.199599999964235],[-0.008124999999999953,-0.25999999999999995,4.2100999999642355],[-0.017916666666666713,-0.24092592592592596,4.226899999976155],[-0.03187500000000002,-0.2088888888888889,4.243399999976155],[-0.049270833333333285,-0.24962962962962965,4.260599999964235],[-0.06166666666666672,-0.28111111111111114,4.277599999964238],[-0.06166666666666672,-0.28111111111111114,4.293500000000002],[-0.07395833333333333,-0.26851851851851855,4.310099999964237],[-0.06791666666666671,-0.2770370370370371,4.327199999988075],[-0.07718750000000002,-0.3168518518518519,4.343499999999999],[-0.07875000000000003,-0.35611111111111116,4.366599999964237],[-0.07875000000000003,-0.35611111111111116,4.376800000011919],[-0.07114583333333328,-0.37462962962962965,4.393399999976154],[-0.08010416666666664,-0.3544444444444444,4.412500000000001],[-0.08010416666666664,-0.3544444444444444,4.426800000011916],[-0.0828125,-0.3448148148148148,4.4435],[-0.07593749999999998,-0.3061111111111111,4.461999999999996],[-0.051250000000000046,-0.28833333333333333,4.476999999999997],[-0.04093749999999995,-0.27870370370370373,4.494300000011918],[-0.021249999999999977,-0.26055555555555554,4.513199999988075],[-0.01083333333333331,-0.21666666666666667,4.526800000011917],[0.02000000000000005,-0.15777777777777777,4.54339999997616],[0.06239583333333331,-0.08907407407407411,4.562099999964232],[0.09364583333333343,-0.04888888888888885,4.577599999964235],[0.13989583333333327,-0.0011111111111111532,4.593399999976157],[0.18010416666666676,0.05555555555555555,4.610199999988076],[0.21645833333333328,0.05018518518518523,4.628099999964235],[0.23166666666666677,0.12222222222222222,4.647500000000001],[0.25791666666666657,0.2022222222222223,4.6645999999642385],[0.3011458333333332,0.2564814814814815,4.680099999964234],[0.3288541666666667,0.26666666666666666,4.6948000000119166],[0.3189583333333334,0.34074074074074073,4.711899999976154],[0.30010416666666656,0.3816666666666667,4.7270999999642385],[0.28135416666666657,0.3824074074074074,4.743800000011916],[0.25447916666666665,0.3822222222222222,4.761300000011921],[0.21614583333333334,0.4125925925925925,4.78069999998808],[0.18312499999999995,0.45759259259259266,4.796300000011918],[0.15593750000000003,0.4246296296296295,4.811800000011921],[0.1252083333333334,0.39092592592592595,4.832000000000001],[0.08208333333333329,0.41351851851851845,4.847399999976155],[0.03791666666666664,0.4170370370370371,4.865599999964239],[0.03791666666666664,0.4170370370370371,4.876800000011919],[0.0203125,0.3785185185185185,4.893499999999996],[0.0203125,0.3785185185185185,4.91019999998808],[0.010416666666666666,0.2903703703703703,4.926800000011916],[0,0.24981481481481477,4.943399999976158],[-0.010416666666666666,0.20925925925925926,4.9600999999642355],[-0.00947916666666669,0.14370370370370375,4.976899999976155],[-0.01593749999999995,0.10185185185185185,4.993499999999997],[-0.03312499999999995,0.09203703703703713,5.010099999964233],[-0.025,0.09462962962962967,5.027199999988078],[-0.025,0.09462962962962967,5.043599999964236],[-0.04020833333333336,0.04888888888888885,5.0603999999761555],[-0.033749999999999974,0.02444444444444453,5.077300000011917],[-0.02802083333333331,-0.0014814814814813973,5.09430000001192],[-0.02802083333333331,-0.0014814814814813973,5.110199999988076],[-0.043020833333333286,-0.005555555555555556,5.126800000011919],[-0.03822916666666672,0.050370370370370454,5.144500000000001],[-0.03343750000000002,0.10629629629629625,5.160099999964238],[-0.030208333333333334,0.16222222222222227,5.177800000011921],[-0.019583333333333286,0.19444444444444445,5.193399999976158],[0.008229166666666643,0.2198148148148149,5.21180000001192],[0.01072916666666662,0.23277777777777786,5.227399999976157]]","[0.0003000000119186552,0.04980000001192053,0.0601999999880789,0.07739999997615854,0.0934999999999988,0.11080000001192047,0.1268000000119187,0.14519999998807975,0.16019999998808032,0.17680000001191587,0.19469999998807452,0.21519999998808004,0.2306999999880759,0.24549999999999983,0.2681999999880773,0.2770999999642356,0.2936999999880783,0.3103999999761555,0.3269999999999982,0.34609999996423824,0.36019999998807606,0.3768999999761533,0.39349999999999596,0.4129999999999967,0.42680000001191587,0.4435999999642348,0.4603000000119195,0.4800999999642386,0.4934999999999974,0.5101999999880746,0.5268000000119173,0.5438999999761549,0.5646999999880791,0.5808000000119193,0.5964999999999989,0.6101999999880761,0.6269999999999953,0.644099999964233,0.6601999999880803,0.6768999999761576,0.6935000000000002,0.7103000000119195,0.7305999999642339,0.7473999999761531,0.7643000000119216,0.7831999999880779,0.7935000000000016,0.8101999999880789,0.8268000000119216,0.8453999999761592,0.8603999999761598,0.8780999999642347,0.8935999999642377,0.9131999999880804,0.9293000000119207,0.9455999999642373,0.9633000000119196,0.9810000000000016,1.0011999999880743,1.0103000000119167,1.0270999999642356,1.043899999976155,1.0665999999642324,1.0768999999761562,1.0934999999999988,1.1118000000119181,1.1273999999761557,1.143499999999996,1.1643999999761547,1.1809999999999974,1.1980000000000004,1.214399999976159,1.2268000000119201,1.2434999999999974,1.2615999999642327,1.27769999998808,1.2935999999642362,1.310199999988079,1.3284999999999982,1.3441999999880778,1.3651999999880786,1.3814999999999955,1.3985999999642331,1.4101999999880803,1.4268999999761576,1.4435000000000002,1.460399999976154,1.4769999999999968,1.4956999999880765,1.5136999999880771,1.5285999999642357,1.543999999999997,1.5608000000119162,1.580999999999996,1.5966999999880755,1.6123999999761551,1.6303999999761558,1.6475000000000009,1.6650999999642337,1.6809999999999974,1.6973000000119214,1.7148999999761543,1.730800000011918,1.7470999999642345,1.7658999999761562,1.776899999976159,1.7935999999642362,1.8106999999880742,1.8268000000119216,1.8453000000119175,1.865599999964239,1.8768999999761533,1.8935999999642377,1.910399999976157,1.9291999999880787,1.9488000000119214,1.963599999964238,1.9798000000119202,1.9934999999999974,2.0100999999642326,2.0266999999880753,2.0435000000000016,2.060300000011921,2.0768000000119216,2.0933999999761568,2.1138000000119206,2.127199999988079,2.143399999976154,2.1601999999880803,2.183,2.196800000011919,2.212599999964233,2.2268999999761547,2.2434999999999974,2.2603999999761584,2.2768000000119173,2.2968000000119204,2.313300000011921,2.329399999976154,2.343499999999999,2.360199999988076,2.3768999999761533,2.393499999999996,2.4100999999642383,2.426800000011916,2.4435000000000002,2.4600999999642355,2.47680000001192,2.4933999999761554,2.5113000000119214,2.5268000000119173,2.5433999999761596,2.5604999999999976,2.576999999999998,2.5953000000119175,2.610099999964234,2.6268000000119187,2.643399999976154,2.6601999999880803,2.676800000011916,2.6935000000000002,2.710800000011922,2.72680000001192,2.7434999999999974,2.7603999999761584,2.776899999976159,2.7935000000000016,2.810099999964237,2.8268000000119216,2.843499999999999,2.860300000011918,2.8768000000119187,2.8938999999761563,2.9131999999880804,2.9305999999642367,2.9453999999761535,2.9600999999642355,2.97680000001192,2.9933999999761554,3.0100999999642326,3.0268000000119173,3.0435000000000016,3.0628000000119187,3.0768000000119216,3.093499999999999,3.1120999999642365,3.1288999999761558,3.143499999999996,3.1603000000119224,3.1784999999999997,3.1956999999880793,3.213800000011922,3.2268999999761547,3.2433999999761554,3.2600999999642326,3.2794999999999987,3.2935999999642362,3.310099999964237,3.3278000000119192,3.344899999976157,3.360199999988076,3.3768000000119187,3.3938000000119217,3.4100999999642383,3.4268999999761576,3.446699999988077,3.462099999964238,3.479300000011918,3.494399999976153,3.5109999999999957,3.5268000000119173,3.5450000000000017,3.560099999964237,3.5766999999880795,3.593499999999999,3.610199999988076,3.6266999999880767,3.6435999999642377,3.6601999999880803,3.6809999999999974,3.693599999964235,3.7115999999642355,3.7300999999642386,3.743699999988074,3.7605000000000004,3.7770999999642356,3.7965999999642364,3.8121999999880742,3.8305999999642353,3.8511999999880757,3.864099999964239,3.877300000011921,3.8935999999642377,3.914899999976157,3.930499999999995,3.9468999999761536,3.9643000000119173,3.97680000001192,3.993599999964239,4.010099999964233,4.030199999988078,4.043699999988078,4.060800000011916,4.082300000011919,4.093599999964233,4.11039999997616,4.126899999976153,4.143399999976154,4.16019999998808,4.176800000011916,4.199599999964235,4.2100999999642355,4.226899999976155,4.243399999976155,4.260599999964235,4.277599999964238,4.293500000000002,4.310099999964237,4.327199999988075,4.343499999999999,4.366599999964237,4.376800000011919,4.393399999976154,4.412500000000001,4.426800000011916,4.4435,4.461999999999996,4.476999999999997,4.494300000011918,4.513199999988075,4.526800000011917,4.54339999997616,4.562099999964232,4.577599999964235,4.593399999976157,4.610199999988076,4.628099999964235,4.647500000000001,4.6645999999642385,4.680099999964234,4.6948000000119166,4.711899999976154,4.7270999999642385,4.743800000011916,4.761300000011921,4.78069999998808,4.796300000011918,4.811800000011921,4.832000000000001,4.847399999976155,4.865599999964239,4.876800000011919,4.893499999999996,4.91019999998808,4.926800000011916,4.943399999976158,4.9600999999642355,4.976899999976155,4.993499999999997,5.010099999964233,5.027199999988078,5.043599999964236,5.0603999999761555,5.077300000011917,5.09430000001192,5.110199999988076,5.126800000011919,5.144500000000001,5.160099999964238,5.177800000011921,5.193399999976158,5.21180000001192,5.227399999976157]","[1732876104536,1732876104576,1732876104587,1732876104604,1732876104620,1732876104637,1732876104653,1732876104672,1732876104687,1732876104703,1732876104721,1732876104742,1732876104757,1732876104772,1732876104795,1732876104804,1732876104820,1732876104837,1732876104853,1732876104873,1732876104887,1732876104903,1732876104920,1732876104940,1732876104953,1732876104970,1732876104987,1732876105007,1732876105020,1732876105037,1732876105053,1732876105070,1732876105091,1732876105107,1732876105123,1732876105137,1732876105154,1732876105171,1732876105187,1732876105203,1732876105220,1732876105237,1732876105257,1732876105274,1732876105291,1732876105310,1732876105320,1732876105337,1732876105353,1732876105372,1732876105387,1732876105405,1732876105420,1732876105440,1732876105456,1732876105472,1732876105490,1732876105508,1732876105528,1732876105537,1732876105554,1732876105570,1732876105593,1732876105603,1732876105620,1732876105638,1732876105654,1732876105670,1732876105691,1732876105708,1732876105725,1732876105741,1732876105753,1732876105770,1732876105788,1732876105804,1732876105820,1732876105837,1732876105855,1732876105871,1732876105892,1732876105908,1732876105925,1732876105937,1732876105954,1732876105970,1732876105987,1732876106004,1732876106022,1732876106040,1732876106055,1732876106071,1732876106087,1732876106108,1732876106123,1732876106139,1732876106157,1732876106174,1732876106192,1732876106207,1732876106224,1732876106242,1732876106257,1732876106274,1732876106293,1732876106303,1732876106320,1732876106337,1732876106353,1732876106372,1732876106392,1732876106403,1732876106420,1732876106437,1732876106456,1732876106475,1732876106490,1732876106506,1732876106520,1732876106537,1732876106553,1732876106570,1732876106587,1732876106603,1732876106620,1732876106640,1732876106654,1732876106670,1732876106687,1732876106709,1732876106723,1732876106739,1732876106753,1732876106770,1732876106787,1732876106803,1732876106823,1732876106840,1732876106856,1732876106870,1732876106887,1732876106903,1732876106920,1732876106937,1732876106953,1732876106970,1732876106987,1732876107003,1732876107020,1732876107038,1732876107053,1732876107070,1732876107087,1732876107104,1732876107122,1732876107137,1732876107153,1732876107170,1732876107187,1732876107203,1732876107220,1732876107237,1732876107253,1732876107270,1732876107287,1732876107303,1732876107320,1732876107337,1732876107353,1732876107370,1732876107387,1732876107403,1732876107420,1732876107440,1732876107457,1732876107472,1732876107487,1732876107503,1732876107520,1732876107537,1732876107553,1732876107570,1732876107589,1732876107603,1732876107620,1732876107639,1732876107655,1732876107670,1732876107687,1732876107705,1732876107722,1732876107740,1732876107753,1732876107770,1732876107787,1732876107806,1732876107820,1732876107837,1732876107854,1732876107871,1732876107887,1732876107903,1732876107920,1732876107937,1732876107953,1732876107973,1732876107989,1732876108006,1732876108021,1732876108038,1732876108053,1732876108072,1732876108087,1732876108103,1732876108120,1732876108137,1732876108153,1732876108170,1732876108187,1732876108208,1732876108220,1732876108238,1732876108257,1732876108270,1732876108287,1732876108304,1732876108323,1732876108339,1732876108357,1732876108378,1732876108391,1732876108404,1732876108420,1732876108442,1732876108457,1732876108473,1732876108491,1732876108503,1732876108520,1732876108537,1732876108557,1732876108570,1732876108587,1732876108609,1732876108620,1732876108637,1732876108653,1732876108670,1732876108687,1732876108703,1732876108726,1732876108737,1732876108754,1732876108770,1732876108787,1732876108804,1732876108820,1732876108837,1732876108854,1732876108870,1732876108893,1732876108903,1732876108920,1732876108939,1732876108953,1732876108970,1732876108989,1732876109004,1732876109021,1732876109040,1732876109053,1732876109070,1732876109089,1732876109104,1732876109120,1732876109137,1732876109155,1732876109174,1732876109191,1732876109207,1732876109221,1732876109238,1732876109254,1732876109270,1732876109288,1732876109307,1732876109323,1732876109338,1732876109359,1732876109374,1732876109392,1732876109403,1732876109420,1732876109437,1732876109453,1732876109470,1732876109487,1732876109503,1732876109520,1732876109537,1732876109554,1732876109570,1732876109587,1732876109604,1732876109621,1732876109637,1732876109653,1732876109671,1732876109687,1732876109704,1732876109720,1732876109738,1732876109754]","[[881.9,758.3],[881.9,758.3],[862.3,724.3],[851.3,732.4],[837,741.2],[832.1,709.9],[822.3,683.8],[824.8,678.4],[840.1,677.1],[845,675.6],[839.8,678],[845.6,661.6],[852.2,678.5],[867.1,681.5],[876.1,677.2],[876.1,677.2],[872.7,699.2],[879.7,731.7],[870.2,744.4],[870.2,744.4],[859.8,738.3],[844.5,728.6],[852.9,733.2],[853,774.8],[853,774.8],[851.3,791.7],[847.1,809.4],[855.7,834.1],[855.7,834.1],[875.1,838.2],[873,822.9],[881.4,831.1],[890.7,858.1],[880.2,862.4],[869.7,866.7],[869.7,866.7],[856.7,866.4],[851.9,859.8],[842.2,860],[842.2,860],[830.2,851],[818.1,850.8],[807.9,835.2],[798.4,827.7],[791.6,819.3],[816.3,869.2],[816.3,869.2],[838.5,872.4],[832.2,864.3],[833.4,891.6],[828.4,916.5],[828.4,916.5],[835.1,923.3],[833.1,914.6],[840.3,930.2],[847.9,914.6],[852.8,899.9],[867.6,867.7],[893,877.4],[893,877.4],[910.3,884.6],[915.3,866.3],[935.6,850.7],[935.6,850.7],[932.9,837],[932.5,834.4],[940.5,828],[934.8,825],[929.1,822],[910.7,803],[888.7,796.9],[892.7,795.6],[892.7,795.6],[884.8,804.8],[881.1,788.3],[875.7,792.4],[875.7,792.4],[876.8,792.1],[875.4,784.6],[881.7,785],[887.9,785.6],[875.1,788.3],[867.4,786.6],[867.4,786.6],[861.3,771.4],[863.3,749.3],[852,752.6],[841.2,733.9],[830.4,715.2],[814.1,725.4],[792.2,723.9],[762.4,707.9],[747.6,691.3],[733.5,681.3],[728.2,680.2],[724.7,670.6],[721.2,661],[714.9,647.3],[708.6,633.6],[698.3,599.7],[687.3,574.4],[702.9,586.6],[733.5,612.3],[733.7,601.5],[747,607.1],[747,607.1],[749,606.5],[747.8,617.3],[754.3,640.3],[784.5,674.7],[818.3,711.4],[818.3,711.4],[840.5,739.9],[840.5,739.9],[852.2,753.1],[836.3,726.7],[853.9,720],[851.2,717.8],[858.4,723.1],[867,701.6],[878.3,694.2],[878.3,694.2],[865.1,673],[861.5,651],[871.2,619.7],[866.3,590.5],[874,587.4],[851.4,573.7],[853.4,576.3],[838,541.7],[845,553.3],[856.4,553.6],[860.7,553.7],[854.9,572.9],[854.9,572.9],[848.1,601],[843.7,601.8],[846.3,618.8],[865.8,652.9],[867.1,656.5],[885.8,697.3],[872.4,699],[854.6,712],[848.4,727.4],[846.1,704.6],[847.1,705.9],[853,736.2],[854.6,733.5],[856.2,730.8],[850,732.5],[843.8,734.2],[852,744.8],[859.5,748.6],[863.3,752.6],[872.5,775.4],[872.8,756],[875,728.6],[873,725.6],[873,725.6],[870.8,742.7],[873.2,733.5],[872.8,743.3],[872.8,743.3],[869.5,752.5],[880.4,768],[885.4,765.3],[885.4,765.3],[881.6,763.7],[891.4,779.5],[907.4,791.5],[907.4,791.5],[924.9,795.9],[935.4,799.6],[946.3,804.4],[960,790.2],[978,772],[982.5,754.3],[992.9,754.8],[1005.4,768.2],[1007.9,754.9],[1001.5,741.7],[989.5,732.9],[984.7,704.7],[984.7,704.7],[983.4,687.4],[988.2,672.8],[988.7,662.2],[988.7,662.2],[980.2,657.9],[982.4,675.2],[982.5,679.6],[975.6,704.2],[968.7,728.8],[971,732.1],[971.5,734.3],[977.9,748.8],[977.9,748.8],[983.3,764.6],[989.8,773.8],[995.7,771.9],[990.9,748.4],[986.1,724.9],[999,725.7],[999,725.7],[1011.9,726.5],[1008.6,722.2],[1007.1,719],[999.4,723.4],[986.6,723.8],[961.8,724.6],[946.6,730.2],[915.5,740.3],[884.4,750.4],[860.1,740.5],[819.9,722.7],[819.9,722.7],[812.8,728.5],[820.7,747.8],[829,750.4],[829,750.4],[808.5,747.1],[801.5,763],[794.5,778.9],[794.5,778.9],[818.2,777.6],[841.9,776.3],[839.8,770.7],[864.7,771.3],[869.1,770.3],[854.1,766.8],[854.1,766.8],[843.5,737.2],[843.5,737.2],[863.1,730.9],[885.4,686.5],[903.4,651],[903.4,651],[900.2,622.1],[916.1,571.5],[935.7,531],[935.7,531],[940.3,510.9],[946.7,486.3],[957.4,426.9],[957.4,426.9],[956.9,421.6],[960.1,395],[948.1,405.8],[948.1,405.8],[942.3,411.9],[952.2,399.6],[952.2,399.6],[942.8,409.9],[929.4,427.2],[912.7,405.2],[900.8,388.2],[900.8,388.2],[889,395],[894.8,390.4],[885.9,368.9],[884.4,347.7],[884.4,347.7],[891.7,337.7],[883.1,348.6],[883.1,348.6],[880.5,353.8],[887.1,374.7],[910.8,384.3],[920.7,389.5],[939.6,399.3],[949.6,423],[979.2,454.8],[1019.9,491.9],[1049.9,513.6],[1094.3,539.4],[1132.9,570],[1167.8,567.1],[1182.4,606],[1207.6,649.2],[1249.1,678.5],[1275.7,684],[1266.2,724],[1248.1,746.1],[1230.1,746.5],[1204.3,746.4],[1167.5,762.8],[1135.8,787.1],[1109.7,769.3],[1080.2,751.1],[1038.8,763.3],[996.4,765.2],[996.4,765.2],[979.5,744.4],[979.5,744.4],[970,696.8],[960,674.9],[950,653],[950.9,617.6],[944.7,595],[928.2,589.7],[936,591.1],[936,591.1],[921.4,566.4],[927.6,553.2],[933.1,539.2],[933.1,539.2],[918.7,537],[923.3,567.2],[927.9,597.4],[931,627.6],[941.2,645],[967.9,658.7],[970.3,665.7]]","[-0.056692,0.170076]","[0.056692,0.170076]","[0.170076,0.170076]","[-0.170076,0.056692]","[-0.170076,-0.056692]","[-0.170076,-0.170076]","[-0.056692,0.056692]","[0.056692,0.056692]","[0.170076,0.056692]","[-0.056692,-0.056692]","[0.056692,-0.056692]","[0.170076,-0.056692]","[-0.056692,-0.170076]","[0.056692,-0.170076]","[0.170076,-0.170076]",0,0,0,0,1,3,Smartphone,25,40,9,1,50,4,1,60,5
