inst1_resp.keys,inst1_resp.rt,calibrationMouse.x,calibrationMouse.y,calibrationMouse.leftButton,calibrationMouse.midButton,calibrationMouse.rightButton,calibrationClick.x,calibrationClick.y,calibrationClick.leftButton,calibrationClick.midButton,calibrationClick.rightButton,calibrationClick.clicked_name,trialsc.thisRepN,trialsc.thisTrialN,trialsc.thisN,trialsc.thisIndex,trialsc.ran,calibration_x,calibration_y,participant,session,date,expName,psychopyVersion,OS,frameRate,ScreenRes_pixels,Camera_pixels,mouse_2.x,mouse_2.y,mouse_2.leftButton,mouse_2.midButton,mouse_2.rightButton,mouse_2.time,mouse_2.clicked_name,mouse.x,mouse.y,mouse.leftButton,mouse.midButton,mouse.rightButton,mouse.time,mouse.clicked_name,Choice,Trial,TrialDuration,MOUSE_GAZE,ET_GAZE,ET_GAZE_x_T,time,unixTime,ET_GAZE_NF,Loc_Bus_label,Loc_Metro_label,Loc_RH_label,Loc_Cost_label,Loc_Travel_label,Loc_Comfort_label,Loc_Bus_cost,Loc_Metro_cost,Loc_RH_cost,Loc_Bus_travel,Loc_Metro_travel,Loc_RH_travel,Loc_Bus_comfort,Loc_Metro_comfort,Loc_RH_comfort,trials.thisRepN,trials.thisTrialN,trials.thisN,trials.thisIndex,trials.ran,Block,Device,RH_cost,RH_travel_time,RH_Comfort,metro_cost,metro_travel_time,metro_Comfort,Bus_cost,Bus_travel_time,Bus_Comfort
space,6.3735,-0.24375,-0.209259259,1,0,0,-0.33125,-0.662962963,1,0,0,calibration_square,0,0,0,4,1,-0.33,-0.67,10,001,2024-11-29_18h21.10.645,Attention_exp_legacy,2023.1.0,Win32,60.24096386,,,,,,,,,,,,,,,,,,,,,,,,,,,,,,,,,,,,,,,,,,,,,,,,,,,,,,,,
,,,,,,,0.001041667,-0.005555556,1,0,0,calibration_square,0,1,1,11,1,0,0,10,001,2024-11-29_18h21.10.645,Attention_exp_legacy,2023.1.0,Win32,60.24096386,,,,,,,,,,,,,,,,,,,,,,,,,,,,,,,,,,,,,,,,,,,,,,,,,,,,,,,,
,,,,,,,0,-0.327777778,1,0,0,calibration_square,0,2,2,10,1,0,-0.33,10,001,2024-11-29_18h21.10.645,Attention_exp_legacy,2023.1.0,Win32,60.24096386,,,,,,,,,,,,,,,,,,,,,,,,,,,,,,,,,,,,,,,,,,,,,,,,,,,,,,,,
,,,,,,,-0.328125,0.681481481,1,0,0,,0,3,3,8,1,-0.33,0.67,10,001,2024-11-29_18h21.10.645,Attention_exp_legacy,2023.1.0,Win32,60.24096386,,,,,,,,,,,,,,,,,,,,,,,,,,,,,,,,,,,,,,,,,,,,,,,,,,,,,,,,
,,,,,,,0.308333333,0.331481481,1,0,0,,0,4,4,17,1,0.33,0.33,10,001,2024-11-29_18h21.10.645,Attention_exp_legacy,2023.1.0,Win32,60.24096386,,,,,,,,,,,,,,,,,,,,,,,,,,,,,,,,,,,,,,,,,,,,,,,,,,,,,,,,
,,,,,,,-0.334375,-0.335185185,1,0,0,calibration_square,0,5,5,5,1,-0.33,-0.33,10,001,2024-11-29_18h21.10.645,Attention_exp_legacy,2023.1.0,Win32,60.24096386,,,,,,,,,,,,,,,,,,,,,,,,,,,,,,,,,,,,,,,,,,,,,,,,,,,,,,,,
,,,,,,,-0.667708333,0.32962963,1,0,0,calibration_square,0,6,6,3,1,-0.67,0.33,10,001,2024-11-29_18h21.10.645,Attention_exp_legacy,2023.1.0,Win32,60.24096386,,,,,,,,,,,,,,,,,,,,,,,,,,,,,,,,,,,,,,,,,,,,,,,,,,,,,,,,
,,,,,,,-0.005208333,-0.664814815,1,0,0,calibration_square,0,7,7,9,1,0,-0.67,10,001,2024-11-29_18h21.10.645,Attention_exp_legacy,2023.1.0,Win32,60.24096386,,,,,,,,,,,,,,,,,,,,,,,,,,,,,,,,,,,,,,,,,,,,,,,,,,,,,,,,
,,,,,,,0.679166667,0.675925926,1,0,0,calibration_square,0,8,8,19,1,0.67,0.67,10,001,2024-11-29_18h21.10.645,Attention_exp_legacy,2023.1.0,Win32,60.24096386,,,,,,,,,,,,,,,,,,,,,,,,,,,,,,,,,,,,,,,,,,,,,,,,,,,,,,,,
,,,,,,,0.335416667,-0.67037037,1,0,0,calibration_square,0,9,9,14,1,0.33,-0.67,10,001,2024-11-29_18h21.10.645,Attention_exp_legacy,2023.1.0,Win32,60.24096386,,,,,,,,,,,,,,,,,,,,,,,,,,,,,,,,,,,,,,,,,,,,,,,,,,,,,,,,
,,,,,,,0.325,0.001851852,1,0,0,calibration_square,0,10,10,16,1,0.33,0,10,001,2024-11-29_18h21.10.645,Attention_exp_legacy,2023.1.0,Win32,60.24096386,,,,,,,,,,,,,,,,,,,,,,,,,,,,,,,,,,,,,,,,,,,,,,,,,,,,,,,,
,,,,,,,-0.675,-0.666666667,1,0,0,calibration_square,0,11,11,0,1,-0.67,-0.67,10,001,2024-11-29_18h21.10.645,Attention_exp_legacy,2023.1.0,Win32,60.24096386,,,,,,,,,,,,,,,,,,,,,,,,,,,,,,,,,,,,,,,,,,,,,,,,,,,,,,,,
,,,,,,,-0.007291667,0.674074074,1,0,0,calibration_square,0,12,12,13,1,0,0.67,10,001,2024-11-29_18h21.10.645,Attention_exp_legacy,2023.1.0,Win32,60.24096386,,,,,,,,,,,,,,,,,,,,,,,,,,,,,,,,,,,,,,,,,,,,,,,,,,,,,,,,
,,,,,,,0.672916667,-0.672222222,1,0,0,calibration_square,0,13,13,20,1,0.67,-0.67,10,001,2024-11-29_18h21.10.645,Attention_exp_legacy,2023.1.0,Win32,60.24096386,,,,,,,,,,,,,,,,,,,,,,,,,,,,,,,,,,,,,,,,,,,,,,,,,,,,,,,,
,,,,,,,0,0.322222222,1,0,0,calibration_square,0,14,14,12,1,0,0.33,10,001,2024-11-29_18h21.10.645,Attention_exp_legacy,2023.1.0,Win32,60.24096386,,,,,,,,,,,,,,,,,,,,,,,,,,,,,,,,,,,,,,,,,,,,,,,,,,,,,,,,
,,,,,,,-0.670833333,-0.344444444,1,0,0,,0,15,15,1,1,-0.67,-0.33,10,001,2024-11-29_18h21.10.645,Attention_exp_legacy,2023.1.0,Win32,60.24096386,,,,,,,,,,,,,,,,,,,,,,,,,,,,,,,,,,,,,,,,,,,,,,,,,,,,,,,,
,,,,,,,-0.31875,0.005555556,1,0,0,,0,16,16,6,1,-0.33,0,10,001,2024-11-29_18h21.10.645,Attention_exp_legacy,2023.1.0,Win32,60.24096386,,,,,,,,,,,,,,,,,,,,,,,,,,,,,,,,,,,,,,,,,,,,,,,,,,,,,,,,
,,,,,,,-0.322916667,0.32962963,1,0,0,calibration_square,0,17,17,7,1,-0.33,0.33,10,001,2024-11-29_18h21.10.645,Attention_exp_legacy,2023.1.0,Win32,60.24096386,,,,,,,,,,,,,,,,,,,,,,,,,,,,,,,,,,,,,,,,,,,,,,,,,,,,,,,,
,,,,,,,0.320833333,-0.322222222,1,0,0,calibration_square,0,18,18,15,1,0.33,-0.33,10,001,2024-11-29_18h21.10.645,Attention_exp_legacy,2023.1.0,Win32,60.24096386,,,,,,,,,,,,,,,,,,,,,,,,,,,,,,,,,,,,,,,,,,,,,,,,,,,,,,,,
,,,,,,,0.322916667,0.668518519,1,0,0,calibration_square,0,19,19,18,1,0.33,0.67,10,001,2024-11-29_18h21.10.645,Attention_exp_legacy,2023.1.0,Win32,60.24096386,,,,,,,,,,,,,,,,,,,,,,,,,,,,,,,,,,,,,,,,,,,,,,,,,,,,,,,,
,,,,,,,-0.667708333,0.005555556,1,0,0,calibration_square,0,20,20,2,1,-0.67,0,10,001,2024-11-29_18h21.10.645,Attention_exp_legacy,2023.1.0,Win32,60.24096386,,,,,,,,,,,,,,,,,,,,,,,,,,,,,,,,,,,,,,,,,,,,,,,,,,,,,,,,
,,,,,,,,,,,,,,,,,,,,10,001,2024-11-29_18h21.10.645,Attention_exp_legacy,2023.1.0,Win32,60.24096386,"[1920,1080]","[640,480]",[0.01875],[-0.5],[1],[0],[0],[8.128399999976153],"[""StartButton""]",[-0.2375],[0.6277777777777778],[1],[0],[0],[14.149500000000003],"[""Bus_label""]",Bus_label,1,15.1672,"[[0.01875,-0.5],[0.01875,-0.5],[0.01875,-0.5],[0.01875,-0.5],[0.01875,-0.5],[0.01875,-0.5],[0.01875,-0.5],[0.01875,-0.5],[0.01875,-0.5],[0.01875,-0.5],[0.01875,-0.5],[0.01875,-0.5],[0.01875,-0.5],[0.01875,-0.5],[0.01875,-0.5],[0.01875,-0.5],[0.01875,-0.5],[0.01875,-0.5],[0.01875,-0.5],[0.01875,-0.5],[0.01875,-0.5],[0.01875,-0.5],[0.01875,-0.5],[0.01875,-0.5],[0.01875,-0.5],[0.01875,-0.5],[0.01875,-0.5],[0.01875,-0.5],[0.01875,-0.5],[0.01875,-0.5],[0.01875,-0.5],[0.01875,-0.5],[0.01875,-0.5],[0.01875,-0.5],[0.01875,-0.5],[0.01875,-0.5],[0.01875,-0.5],[0.01875,-0.5],[0.01875,-0.5],[0.01875,-0.5],[0.01875,-0.5],[0.01875,-0.5],[0.01875,-0.5],[0.01875,-0.5],[0.01875,-0.5],[0.01875,-0.5],[0.01875,-0.5],[0.01875,-0.5],[0.01875,-0.5],[0.01875,-0.5],[0.01875,-0.5],[0.01875,-0.5],[0.01875,-0.5],[0.01875,-0.5],[0.01875,-0.5],[0.01875,-0.5],[0.01875,-0.5],[0.01875,-0.5],[0.01875,-0.5],[0.01875,-0.5],[0.01875,-0.5],[0.01875,-0.5],[0.01875,-0.5],[0.01875,-0.5],[0.01875,-0.5],[0.01875,-0.5],[0.01875,-0.5],[0.01875,-0.5],[0.01875,-0.5],[0.01875,-0.5],[0.01875,-0.5],[0.01875,-0.5],[0.01875,-0.5],[0.01875,-0.5],[0.01875,-0.5],[0.01875,-0.5],[0.01875,-0.5],[0.01875,-0.5],[0.01875,-0.5],[0.01875,-0.5],[0.01875,-0.5],[0.01875,-0.5],[0.01875,-0.5],[0.01875,-0.5],[0.01875,-0.5],[0.01875,-0.5],[0.01875,-0.5],[0.01875,-0.5],[0.01875,-0.5],[0.01875,-0.5],[0.01875,-0.5],[0.01875,-0.5],[0.01875,-0.5],[0.01875,-0.5],[0.01875,-0.5],[0.01875,-0.5],[0.01875,-0.5],[0.01875,-0.5],[0.01875,-0.5],[0.01875,-0.5],[0.01875,-0.5],[0.01875,-0.5],[0.01875,-0.5],[0.01875,-0.5],[0.01875,-0.5],[0.01875,-0.5],[0.01875,-0.5],[0.01875,-0.5],[0.01875,-0.5],[0.01875,-0.5],[0.01875,-0.5],[0.01875,-0.5],[0.01875,-0.5],[0.01875,-0.5],[0.01875,-0.5],[0.01875,-0.5],[0.01875,-0.5],[0.01875,-0.5],[0.01875,-0.5],[0.01875,-0.5],[0.01875,-0.5],[0.01875,-0.5],[0.01875,-0.5],[0.01875,-0.5],[0.01875,-0.5],[0.01875,-0.5],[0.01875,-0.5],[0.01875,-0.5],[0.01875,-0.5],[0.01875,-0.5],[0.01875,-0.5],[0.01875,-0.5],[0.01875,-0.5],[0.01875,-0.5],[0.01875,-0.5],[0.01875,-0.5],[0.01875,-0.5],[0.01875,-0.5],[0.01875,-0.5],[0.01875,-0.5],[0.01875,-0.5],[0.01875,-0.5],[0.01875,-0.5],[0.01875,-0.5],[0.01875,-0.5],[0.01875,-0.5],[0.01875,-0.5],[0.01875,-0.5],[0.01875,-0.5],[0.01875,-0.5],[0.01875,-0.5],[0.01875,-0.5],[0.01875,-0.5],[0.01875,-0.5],[0.01875,-0.5],[0.01875,-0.5],[0.01875,-0.5],[0.01875,-0.5],[0.01875,-0.5],[0.01875,-0.5],[0.01875,-0.5],[0.01875,-0.5],[0.01875,-0.5],[0.01875,-0.5],[0.01875,-0.5],[0.01875,-0.5],[0.01875,-0.5],[0.01875,-0.5],[0.01875,-0.5],[0.01875,-0.5],[0.01875,-0.5],[0.01875,-0.5],[0.01875,-0.5],[0.01875,-0.5],[0.01875,-0.5],[0.01875,-0.5],[0.01875,-0.5],[0.01875,-0.5],[0.01875,-0.5],[0.01875,-0.5],[0.01875,-0.5],[0.01875,-0.5],[0.01875,-0.5],[0.01875,-0.5],[0.01875,-0.5],[0.01875,-0.5],[0.01875,-0.5],[0.01875,-0.5],[0.01875,-0.5],[0.01875,-0.5],[0.01875,-0.5],[0.01875,-0.5],[0.01875,-0.5],[0.01875,-0.5],[0.01875,-0.5],[0.01875,-0.5],[0.01875,-0.5],[0.01875,-0.5],[0.01875,-0.5],[0.01875,-0.5],[0.01875,-0.5],[0.01875,-0.5],[0.01875,-0.5],[0.01875,-0.5],[0.01875,-0.5],[0.01875,-0.5],[0.01875,-0.5],[0.01875,-0.5],[0.01875,-0.5],[0.01875,-0.5],[0.01875,-0.5],[0.01875,-0.5],[0.01875,-0.5],[0.01875,-0.5],[0.01875,-0.5],[0.01875,-0.5],[0.01875,-0.5],[0.01875,-0.5],[0.01875,-0.5],[0.01875,-0.5],[0.01875,-0.5],[0.01875,-0.5],[0.01875,-0.5],[0.01875,-0.5],[0.01875,-0.5],[0.01875,-0.5],[0.01875,-0.5],[0.01875,-0.5],[0.01875,-0.5],[0.01875,-0.5],[0.01875,-0.5],[0.01875,-0.5],[0.01875,-0.5],[0.01875,-0.5],[0.01875,-0.5],[0.01875,-0.5],[0.01875,-0.5],[0.01875,-0.5],[0.01875,-0.5],[0.01875,-0.5],[0.01875,-0.5],[0.01875,-0.5],[0.01875,-0.5],[0.01875,-0.5],[0.01875,-0.5],[0.01875,-0.5],[0.01875,-0.5],[0.01875,-0.5],[0.01875,-0.5],[0.01875,-0.5],[0.01875,-0.5],[0.01875,-0.5],[0.01875,-0.5],[0.01875,-0.5],[0.01875,-0.5],[0.01875,-0.5],[0.01875,-0.5],[0.01875,-0.5],[0.01875,-0.5],[0.01875,-0.5],[0.01875,-0.5],[0.01875,-0.5],[0.01875,-0.5],[0.01875,-0.5],[0.01875,-0.5],[0.01875,-0.5],[0.01875,-0.5],[0.01875,-0.5],[0.01875,-0.5],[0.01875,-0.5],[0.01875,-0.5],[0.01875,-0.5],[0.01875,-0.5],[0.01875,-0.5],[0.01875,-0.5],[0.01875,-0.5],[0.01875,-0.5],[0.01875,-0.5],[0.01875,-0.5],[0.01875,-0.5],[0.01875,-0.5],[0.01875,-0.5],[0.01875,-0.5],[0.01875,-0.5],[0.01875,-0.5],[0.01875,-0.5],[0.01875,-0.5],[0.01875,-0.5],[0.01875,-0.5],[0.01875,-0.5],[0.01875,-0.5],[0.01875,-0.5],[0.01875,-0.5],[0.01875,-0.5],[0.01875,-0.5],[0.01875,-0.5],[0.01875,-0.5],[0.01875,-0.5],[0.01875,-0.5],[0.01875,-0.5],[0.01875,-0.5],[0.01875,-0.5],[0.01875,-0.5],[0.01875,-0.5],[0.01875,-0.5],[0.01875,-0.5],[0.01875,-0.5],[0.01875,-0.5],[0.01875,-0.5],[0.01875,-0.5],[0.01875,-0.5],[0.01875,-0.5],[0.01875,-0.5],[0.01875,-0.5],[0.01875,-0.5],[0.01875,-0.5],[0.01875,-0.5],[0.01875,-0.5],[0.01875,-0.5],[0.01875,-0.5],[0.01875,-0.5],[0.01875,-0.5],[0.01875,-0.5],[0.01875,-0.5],[0.01875,-0.5],[0.01875,-0.5],[0.01875,-0.5],[0.01875,-0.5],[0.01875,-0.5],[0.01875,-0.5],[0.01875,-0.5],[0.01875,-0.5],[0.01875,-0.5],[0.01875,-0.5],[0.01875,-0.5],[0.01875,-0.5],[0.01875,-0.5],[0.01875,-0.5],[0.01875,-0.5],[0.01875,-0.5],[0.01875,-0.5],[0.01875,-0.5],[0.01875,-0.5],[0.01875,-0.5],[0.01875,-0.5],[0.01875,-0.5],[0.01875,-0.5],[0.01875,-0.5],[0.01875,-0.5],[0.01875,-0.5],[0.01875,-0.5],[0.01875,-0.5],[0.01875,-0.5],[0.01875,-0.5],[0.01875,-0.5],[0.01875,-0.5],[0.01875,-0.5],[0.01875,-0.5],[0.01875,-0.5],[0.01875,-0.5],[0.01875,-0.5],[0.01875,-0.5],[0.01875,-0.5],[0.01875,-0.5],[0.01875,-0.5],[0.01875,-0.5],[0.01875,-0.5],[0.01875,-0.5],[0.01875,-0.5],[0.01875,-0.5],[0.01875,-0.5],[0.01875,-0.5],[0.01875,-0.5],[0.01875,-0.5],[0.01875,-0.5],[0.01875,-0.5],[0.01875,-0.5],[0.01875,-0.5],[0.01875,-0.5],[0.01875,-0.5],[0.01875,-0.5],[0.01875,-0.5],[0.01875,-0.5],[0.01875,-0.5],[0.01875,-0.5],[0.01875,-0.5],[0.01875,-0.5],[0.01875,-0.5],[0.01875,-0.5],[0.01875,-0.5],[0.01875,-0.5],[0.01875,-0.5],[0.01875,-0.5],[0.01875,-0.5],[0.01875,-0.5],[0.01875,-0.5],[0.01875,-0.5],[0.01875,-0.5],[0.01875,-0.5],[0.01875,-0.5],[0.01875,-0.5],[0.01875,-0.5],[0.01875,-0.5],[0.01875,-0.5],[0.01875,-0.5],[0.01875,-0.5],[0.01875,-0.5],[0.01875,-0.5],[0.01875,-0.5],[0.01875,-0.5],[0.01875,-0.5],[0.01875,-0.5],[0.01875,-0.5],[0.01875,-0.5],[0.01875,-0.5],[0.01875,-0.5],[0.01875,-0.5],[0.01875,-0.5],[0.01875,-0.5],[0.01875,-0.5],[0.01875,-0.5],[0.01875,-0.5],[0.01875,-0.5],[0.01875,-0.5],[0.01875,-0.5],[0.01875,-0.5],[0.01875,-0.5],[0.01875,-0.5],[0.01875,-0.5],[0.01875,-0.5],[0.01875,-0.5],[0.01875,-0.5],[0.01875,-0.5],[0.01875,-0.5],[0.01875,-0.5],[0.01875,-0.5],[0.01875,-0.5],[0.01875,-0.5],[0.01875,-0.5],[0.01875,-0.5],[0.021875,-0.5],[0.035416666666666666,-0.5],[0.051041666666666666,-0.5055555555555555],[0.075,-0.5074074074074074],[0.11041666666666666,-0.5148148148148148],[0.146875,-0.5222222222222223],[0.17291666666666666,-0.5296296296296297],[0.20208333333333334,-0.5370370370370371],[0.22604166666666667,-0.5370370370370371],[0.24895833333333334,-0.5333333333333333],[0.26875,-0.512962962962963],[0.28125,-0.5],[0.28854166666666664,-0.49074074074074076],[0.296875,-0.48333333333333334],[0.303125,-0.4777777777777778],[0.309375,-0.4722222222222222],[0.31979166666666664,-0.4648148148148148],[0.334375,-0.4648148148148148],[0.3489583333333333,-0.4648148148148148],[0.35625,-0.4648148148148148],[0.36354166666666665,-0.45925925925925926],[0.371875,-0.45185185185185184],[0.421875,-0.4111111111111111],[0.5,-0.34814814814814815],[0.528125,-0.32037037037037036],[0.534375,-0.31296296296296294],[0.5364583333333334,-0.30925925925925923],[0.5364583333333334,-0.3074074074074074],[0.5364583333333334,-0.3055555555555556],[0.5364583333333334,-0.3],[0.5364583333333334,-0.29444444444444445],[0.5364583333333334,-0.29074074074074074],[0.5364583333333334,-0.2851851851851852],[0.5364583333333334,-0.2796296296296296],[0.5364583333333334,-0.2740740740740741],[0.5364583333333334,-0.26666666666666666],[0.5364583333333334,-0.26296296296296295],[0.5375,-0.2574074074074074],[0.5395833333333333,-0.25],[0.540625,-0.24444444444444444],[0.5447916666666667,-0.23148148148148148],[0.5489583333333333,-0.2222222222222222],[0.5510416666666667,-0.21481481481481482],[0.553125,-0.20555555555555555],[0.5572916666666666,-0.1962962962962963],[0.5635416666666667,-0.18333333333333332],[0.565625,-0.17407407407407408],[0.56875,-0.16666666666666666],[0.571875,-0.16296296296296298],[0.5729166666666666,-0.16111111111111112],[0.5739583333333333,-0.1574074074074074],[0.5739583333333333,-0.1574074074074074],[0.5739583333333333,-0.1574074074074074],[0.5739583333333333,-0.1574074074074074],[0.5739583333333333,-0.1574074074074074],[0.5739583333333333,-0.1574074074074074],[0.5739583333333333,-0.1574074074074074],[0.5739583333333333,-0.1574074074074074],[0.5739583333333333,-0.1574074074074074],[0.5739583333333333,-0.1574074074074074],[0.5739583333333333,-0.1574074074074074],[0.5739583333333333,-0.1574074074074074],[0.5739583333333333,-0.1574074074074074],[0.5739583333333333,-0.1574074074074074],[0.5739583333333333,-0.1574074074074074],[0.5739583333333333,-0.1574074074074074],[0.5739583333333333,-0.1574074074074074],[0.5739583333333333,-0.1574074074074074],[0.5739583333333333,-0.1574074074074074],[0.5739583333333333,-0.1574074074074074],[0.5739583333333333,-0.1574074074074074],[0.5739583333333333,-0.1574074074074074],[0.5739583333333333,-0.1574074074074074],[0.5739583333333333,-0.1574074074074074],[0.5739583333333333,-0.1574074074074074],[0.5739583333333333,-0.1574074074074074],[0.5739583333333333,-0.1574074074074074],[0.5739583333333333,-0.1574074074074074],[0.5739583333333333,-0.1574074074074074],[0.5739583333333333,-0.1574074074074074],[0.5739583333333333,-0.1574074074074074],[0.5739583333333333,-0.1574074074074074],[0.5739583333333333,-0.1574074074074074],[0.5739583333333333,-0.1574074074074074],[0.5739583333333333,-0.1574074074074074],[0.5739583333333333,-0.1574074074074074],[0.5739583333333333,-0.1574074074074074],[0.5739583333333333,-0.1574074074074074],[0.5739583333333333,-0.1574074074074074],[0.5739583333333333,-0.1574074074074074],[0.5739583333333333,-0.1574074074074074],[0.5739583333333333,-0.1574074074074074],[0.5739583333333333,-0.1574074074074074],[0.5739583333333333,-0.1574074074074074],[0.5739583333333333,-0.1574074074074074],[0.5739583333333333,-0.1574074074074074],[0.5739583333333333,-0.1574074074074074],[0.5739583333333333,-0.1574074074074074],[0.5739583333333333,-0.1574074074074074],[0.5739583333333333,-0.1574074074074074],[0.5739583333333333,-0.1574074074074074],[0.5739583333333333,-0.1574074074074074],[0.5739583333333333,-0.1574074074074074],[0.5739583333333333,-0.1574074074074074],[0.5739583333333333,-0.1574074074074074],[0.5739583333333333,-0.1574074074074074],[0.5739583333333333,-0.1574074074074074],[0.5739583333333333,-0.1574074074074074],[0.5739583333333333,-0.1574074074074074],[0.5739583333333333,-0.1574074074074074],[0.5739583333333333,-0.1574074074074074],[0.5739583333333333,-0.1574074074074074],[0.5739583333333333,-0.1574074074074074],[0.5739583333333333,-0.1574074074074074],[0.5739583333333333,-0.15555555555555556],[0.5697916666666667,-0.15555555555555556],[0.5677083333333334,-0.15555555555555556],[0.565625,-0.15555555555555556],[0.5645833333333333,-0.15555555555555556],[0.5583333333333333,-0.1574074074074074],[0.5572916666666666,-0.15925925925925927],[0.55625,-0.15925925925925927],[0.5552083333333333,-0.15925925925925927],[0.5541666666666667,-0.15925925925925927],[0.553125,-0.15925925925925927],[0.553125,-0.15925925925925927],[0.553125,-0.15925925925925927],[0.553125,-0.15925925925925927],[0.5520833333333334,-0.15925925925925927],[0.5520833333333334,-0.15925925925925927],[0.5520833333333334,-0.15925925925925927],[0.5510416666666667,-0.1574074074074074],[0.5510416666666667,-0.15185185185185185],[0.553125,-0.1425925925925926],[0.55625,-0.12777777777777777],[0.559375,-0.10925925925925926],[0.559375,-0.09444444444444444],[0.559375,-0.06851851851851852],[0.559375,-0.04259259259259259],[0.559375,-0.009259259259259259],[0.559375,0.02962962962962963],[0.559375,0.06111111111111111],[0.559375,0.08888888888888889],[0.559375,0.11666666666666667],[0.559375,0.12777777777777777],[0.559375,0.13148148148148148],[0.559375,0.13333333333333333],[0.559375,0.13333333333333333],[0.559375,0.13333333333333333],[0.559375,0.13333333333333333],[0.559375,0.13333333333333333],[0.559375,0.13333333333333333],[0.559375,0.13333333333333333],[0.559375,0.13333333333333333],[0.559375,0.13333333333333333],[0.559375,0.13333333333333333],[0.559375,0.13333333333333333],[0.559375,0.13333333333333333],[0.559375,0.13333333333333333],[0.559375,0.13333333333333333],[0.559375,0.13333333333333333],[0.559375,0.13333333333333333],[0.559375,0.13333333333333333],[0.559375,0.13333333333333333],[0.559375,0.13333333333333333],[0.559375,0.13333333333333333],[0.559375,0.13333333333333333],[0.559375,0.13333333333333333],[0.559375,0.13333333333333333],[0.559375,0.13333333333333333],[0.559375,0.13333333333333333],[0.559375,0.13333333333333333],[0.559375,0.13333333333333333],[0.559375,0.13333333333333333],[0.559375,0.13518518518518519],[0.559375,0.13518518518518519],[0.559375,0.13518518518518519],[0.559375,0.13518518518518519],[0.559375,0.13518518518518519],[0.5583333333333333,0.13518518518518519],[0.5583333333333333,0.13518518518518519],[0.5583333333333333,0.13518518518518519],[0.5583333333333333,0.13518518518518519],[0.5583333333333333,0.13518518518518519],[0.5583333333333333,0.13518518518518519],[0.5583333333333333,0.13518518518518519],[0.5572916666666666,0.13518518518518519],[0.5572916666666666,0.13518518518518519],[0.5572916666666666,0.13518518518518519],[0.5572916666666666,0.13518518518518519],[0.5572916666666666,0.13518518518518519],[0.5572916666666666,0.13518518518518519],[0.5572916666666666,0.13518518518518519],[0.5572916666666666,0.13518518518518519],[0.5572916666666666,0.13518518518518519],[0.5572916666666666,0.13518518518518519],[0.5572916666666666,0.13518518518518519],[0.5572916666666666,0.13518518518518519],[0.5572916666666666,0.13518518518518519],[0.5572916666666666,0.13518518518518519],[0.5572916666666666,0.13518518518518519],[0.5572916666666666,0.13518518518518519],[0.5572916666666666,0.13518518518518519],[0.5572916666666666,0.13518518518518519],[0.5572916666666666,0.13518518518518519],[0.5572916666666666,0.13518518518518519],[0.5572916666666666,0.13518518518518519],[0.5572916666666666,0.13518518518518519],[0.5572916666666666,0.13518518518518519],[0.5572916666666666,0.13518518518518519],[0.5572916666666666,0.13518518518518519],[0.5572916666666666,0.13518518518518519],[0.5572916666666666,0.13518518518518519],[0.5572916666666666,0.13518518518518519],[0.5572916666666666,0.13518518518518519],[0.5572916666666666,0.13518518518518519],[0.5572916666666666,0.13518518518518519],[0.5572916666666666,0.13518518518518519],[0.5572916666666666,0.13518518518518519],[0.5572916666666666,0.13518518518518519],[0.5572916666666666,0.13518518518518519],[0.5572916666666666,0.13518518518518519],[0.5572916666666666,0.13518518518518519],[0.5572916666666666,0.13518518518518519],[0.5572916666666666,0.13518518518518519],[0.5572916666666666,0.13518518518518519],[0.5572916666666666,0.13518518518518519],[0.5572916666666666,0.13518518518518519],[0.5572916666666666,0.13518518518518519],[0.5572916666666666,0.13518518518518519],[0.5572916666666666,0.13518518518518519],[0.5572916666666666,0.13518518518518519],[0.5572916666666666,0.13518518518518519],[0.5572916666666666,0.13518518518518519],[0.5572916666666666,0.13518518518518519],[0.5572916666666666,0.13518518518518519],[0.5572916666666666,0.13518518518518519],[0.5572916666666666,0.13518518518518519],[0.5572916666666666,0.13518518518518519],[0.5572916666666666,0.13518518518518519],[0.55625,0.13518518518518519],[0.55625,0.13518518518518519],[0.5552083333333333,0.13518518518518519],[0.5552083333333333,0.13518518518518519],[0.5552083333333333,0.13518518518518519],[0.5552083333333333,0.13518518518518519],[0.5552083333333333,0.13518518518518519],[0.5552083333333333,0.13518518518518519],[0.5552083333333333,0.13518518518518519],[0.5552083333333333,0.13518518518518519],[0.5552083333333333,0.13518518518518519],[0.5552083333333333,0.13518518518518519],[0.5552083333333333,0.13518518518518519],[0.5552083333333333,0.13518518518518519],[0.5552083333333333,0.13518518518518519],[0.5552083333333333,0.13518518518518519],[0.5552083333333333,0.13518518518518519],[0.5541666666666667,0.13518518518518519],[0.5510416666666667,0.13518518518518519],[0.5416666666666666,0.13518518518518519],[0.5010416666666667,0.13518518518518519],[0.4635416666666667,0.13518518518518519],[0.4354166666666667,0.13518518518518519],[0.41041666666666665,0.13518518518518519],[0.390625,0.13518518518518519],[0.37916666666666665,0.13518518518518519],[0.37083333333333335,0.13518518518518519],[0.365625,0.13518518518518519],[0.36041666666666666,0.13518518518518519],[0.35833333333333334,0.13518518518518519],[0.35625,0.13518518518518519],[0.353125,0.13518518518518519],[0.3489583333333333,0.13518518518518519],[0.346875,0.13518518518518519],[0.340625,0.13518518518518519],[0.3375,0.13518518518518519],[0.3333333333333333,0.13518518518518519],[0.33125,0.13518518518518519],[0.32916666666666666,0.13703703703703704],[0.3260416666666667,0.13703703703703704],[0.325,0.13703703703703704],[0.3229166666666667,0.1388888888888889],[0.31875,0.1388888888888889],[0.31666666666666665,0.1388888888888889],[0.30833333333333335,0.1388888888888889],[0.30416666666666664,0.1388888888888889],[0.29791666666666666,0.1388888888888889],[0.29583333333333334,0.1388888888888889],[0.29270833333333335,0.1388888888888889],[0.290625,0.1388888888888889],[0.2875,0.1388888888888889],[0.2875,0.1388888888888889],[0.28541666666666665,0.14074074074074075],[0.28541666666666665,0.14074074074074075],[0.28541666666666665,0.14074074074074075],[0.28541666666666665,0.14074074074074075],[0.28541666666666665,0.14074074074074075],[0.28541666666666665,0.14074074074074075],[0.28541666666666665,0.14074074074074075],[0.28541666666666665,0.14074074074074075],[0.28541666666666665,0.14074074074074075],[0.28541666666666665,0.14074074074074075],[0.28541666666666665,0.14074074074074075],[0.28541666666666665,0.14074074074074075],[0.28541666666666665,0.14074074074074075],[0.28541666666666665,0.14074074074074075],[0.28541666666666665,0.14074074074074075],[0.28541666666666665,0.14074074074074075],[0.28541666666666665,0.14074074074074075],[0.28541666666666665,0.14074074074074075],[0.28541666666666665,0.14074074074074075],[0.28541666666666665,0.14074074074074075],[0.28541666666666665,0.14074074074074075],[0.28541666666666665,0.14074074074074075],[0.28541666666666665,0.14074074074074075],[0.28541666666666665,0.14074074074074075],[0.28541666666666665,0.14074074074074075],[0.28541666666666665,0.14074074074074075],[0.28541666666666665,0.14074074074074075],[0.28541666666666665,0.14074074074074075],[0.28541666666666665,0.14074074074074075],[0.28541666666666665,0.14074074074074075],[0.28541666666666665,0.14074074074074075],[0.28541666666666665,0.14074074074074075],[0.28541666666666665,0.14074074074074075],[0.28541666666666665,0.14074074074074075],[0.28541666666666665,0.14074074074074075],[0.28541666666666665,0.14074074074074075],[0.28541666666666665,0.14074074074074075],[0.28541666666666665,0.14074074074074075],[0.28541666666666665,0.14074074074074075],[0.28541666666666665,0.14074074074074075],[0.28541666666666665,0.14074074074074075],[0.28541666666666665,0.14074074074074075],[0.28541666666666665,0.14074074074074075],[0.28541666666666665,0.14074074074074075],[0.28541666666666665,0.14074074074074075],[0.28541666666666665,0.14074074074074075],[0.28541666666666665,0.14074074074074075],[0.28541666666666665,0.14074074074074075],[0.28541666666666665,0.14074074074074075],[0.28541666666666665,0.14074074074074075],[0.28541666666666665,0.14074074074074075],[0.28541666666666665,0.14074074074074075],[0.28541666666666665,0.14074074074074075],[0.28541666666666665,0.14074074074074075],[0.28541666666666665,0.14074074074074075],[0.28541666666666665,0.14074074074074075],[0.28541666666666665,0.14074074074074075],[0.28541666666666665,0.14074074074074075],[0.28541666666666665,0.14074074074074075],[0.28541666666666665,0.14074074074074075],[0.28541666666666665,0.14074074074074075],[0.28541666666666665,0.14074074074074075],[0.28541666666666665,0.14074074074074075],[0.28541666666666665,0.14074074074074075],[0.28541666666666665,0.14074074074074075],[0.28541666666666665,0.14074074074074075],[0.28541666666666665,0.14074074074074075],[0.28541666666666665,0.14074074074074075],[0.28541666666666665,0.14074074074074075],[0.28541666666666665,0.14074074074074075],[0.28541666666666665,0.14074074074074075],[0.28541666666666665,0.14074074074074075],[0.28541666666666665,0.14074074074074075],[0.2760416666666667,0.14814814814814814],[0.24895833333333334,0.16296296296296298],[0.203125,0.2037037037037037],[0.14166666666666666,0.26666666666666666],[0.078125,0.3314814814814815],[0.005208333333333333,0.40555555555555556],[-0.109375,0.5333333333333333],[-0.18854166666666666,0.6333333333333333],[-0.2520833333333333,0.7148148148148148],[-0.30625,0.7907407407407407],[-0.35104166666666664,0.85],[-0.384375,0.9],[-0.4166666666666667,0.9481481481481482],[-0.4395833333333333,0.9814814814814815],[-0.4395833333333333,0.9814814814814815],[-0.4395833333333333,0.9814814814814815],[-0.4395833333333333,0.9814814814814815],[-0.4395833333333333,0.9814814814814815],[-0.4625,0.987037037037037],[-0.4625,0.9685185185185186],[-0.453125,0.9388888888888889],[-0.428125,0.8962962962962963],[-0.390625,0.8481481481481481],[-0.35625,0.8074074074074075],[-0.3177083333333333,0.7685185185185185],[-0.2916666666666667,0.7407407407407407],[-0.275,0.7240740740740741],[-0.26666666666666666,0.7148148148148148],[-0.26145833333333335,0.7129629629629629],[-0.2604166666666667,0.7111111111111111],[-0.25833333333333336,0.7092592592592593],[-0.25729166666666664,0.7074074074074074],[-0.25625,0.7055555555555556],[-0.25416666666666665,0.7018518518518518],[-0.253125,0.7],[-0.25104166666666666,0.6907407407407408],[-0.246875,0.6777777777777778],[-0.24479166666666666,0.6574074074074074],[-0.240625,0.6370370370370371],[-0.23958333333333334,0.6314814814814815],[-0.2375,0.6277777777777778],[-0.2375,0.6277777777777778],[-0.2375,0.6277777777777778],[-0.2375,0.6277777777777778],[-0.2375,0.6277777777777778],[-0.2375,0.6277777777777778],[-0.2375,0.6277777777777778],[-0.2375,0.6259259259259259],[-0.2375,0.6259259259259259],[-0.2375,0.6259259259259259],[-0.2375,0.6259259259259259],[-0.2375,0.6259259259259259],[-0.2375,0.6259259259259259],[-0.2375,0.6259259259259259],[-0.2375,0.6259259259259259],[-0.2375,0.6259259259259259],[-0.2375,0.6259259259259259],[-0.2375,0.6259259259259259],[-0.2375,0.6259259259259259],[-0.2375,0.6259259259259259],[-0.2375,0.6259259259259259],[-0.2375,0.6259259259259259],[-0.2375,0.6259259259259259],[-0.2375,0.6259259259259259],[-0.2375,0.6259259259259259],[-0.2375,0.6259259259259259],[-0.2375,0.6259259259259259],[-0.2375,0.6259259259259259],[-0.2375,0.6259259259259259],[-0.2375,0.6259259259259259],[-0.2375,0.6259259259259259],[-0.2375,0.6259259259259259],[-0.2375,0.6259259259259259],[-0.2375,0.6259259259259259],[-0.2375,0.6259259259259259],[-0.2375,0.6259259259259259],[-0.2375,0.6259259259259259],[-0.2375,0.6259259259259259],[-0.2375,0.6259259259259259],[-0.2375,0.6259259259259259],[-0.2375,0.6259259259259259],[-0.23645833333333333,0.6222222222222222],[-0.23645833333333333,0.6185185185185185],[-0.234375,0.6166666666666667],[-0.23229166666666667,0.6111111111111112],[-0.23020833333333332,0.6037037037037037],[-0.22604166666666667,0.5944444444444444],[-0.225,0.5814814814814815],[-0.22291666666666668,0.575925925925926],[-0.221875,0.5722222222222222],[-0.22083333333333333,0.5703703703703704],[-0.22083333333333333,0.5703703703703704],[-0.22083333333333333,0.5703703703703704],[-0.22083333333333333,0.5703703703703704],[-0.21979166666666666,0.5685185185185185],[-0.21979166666666666,0.5666666666666667],[-0.21979166666666666,0.5666666666666667],[-0.21770833333333334,0.5666666666666667],[-0.21770833333333334,0.5666666666666667],[-0.21770833333333334,0.5666666666666667],[-0.21770833333333334,0.5666666666666667],[-0.21770833333333334,0.5666666666666667],[-0.21666666666666667,0.5666666666666667]]","[[0.5402083333333333,0.11296296296296296],[0.5402083333333333,0.11296296296296296],[0.5909375,0.16296296296296298],[0.6173958333333334,0.19907407407407407],[0.6653125000000001,0.23722222222222225],[0.6844791666666665,0.2351851851851852],[0.6838541666666667,0.2381481481481482],[0.7346874999999999,0.22407407407407406],[0.7635416666666667,0.19759259259259268],[0.7782291666666665,0.13666666666666658],[0.8224999999999999,0.069074074074074],[0.8753124999999999,0.02370370370370362],[0.8753124999999999,0.02370370370370362],[0.8977083333333333,-0.07574074074074069],[0.9116666666666667,-0.19185185185185188],[0.9053124999999999,-0.29611111111111105],[0.8984375,-0.38796296296296295],[0.8890625,-0.4375925925925926],[0.8405208333333334,-0.4444444444444444],[0.8405208333333334,-0.4444444444444444],[0.7961458333333333,-0.4457407407407407],[0.7557291666666667,-0.4124074074074074],[0.6956249999999999,-0.38981481481481484],[0.6210416666666667,-0.387037037037037],[0.5504166666666668,-0.387037037037037],[0.5504166666666668,-0.387037037037037],[0.4552083333333333,-0.4009259259259259],[0.3984375,-0.4003703703703704],[0.3416666666666667,-0.3998148148148148],[0.328125,-0.4366666666666667],[0.32364583333333335,-0.4618518518518518],[0.33645833333333336,-0.5187037037037038],[0.33645833333333336,-0.5187037037037038],[0.34614583333333326,-0.5433333333333333],[0.3580208333333334,-0.6077777777777778],[0.3602083333333333,-0.6572222222222222],[0.35989583333333336,-0.6974074074074075],[0.39395833333333335,-0.7214814814814815],[0.39395833333333335,-0.7214814814814815],[0.40989583333333335,-0.7718518518518519],[0.4176041666666668,-0.8159259259259259],[0.4189583333333334,-0.8496296296296296],[0.4189583333333334,-0.8496296296296296],[0.4203125,-0.8833333333333333],[0.3961458333333333,-0.897962962962963],[0.35489583333333335,-0.8464814814814815],[0.32927083333333323,-0.7246296296296296],[0.32083333333333336,-0.6287037037037037],[0.27239583333333334,-0.5246296296296297],[0.22260416666666671,-0.40611111111111114],[0.22260416666666671,-0.40611111111111114],[0.17468750000000005,-0.29981481481481476],[0.1349999999999999,-0.19981481481481478],[0.07854166666666676,-0.11407407407407412],[0.07854166666666676,-0.11407407407407412],[0.01885416666666669,-0.043703703703703745],[-0.041666666666666664,0.018888888888888972],[-0.04520833333333331,0.010740740740740657],[-0.04520833333333331,0.010740740740740657],[-0.05583333333333336,-0.0001851851851852273],[-0.0889583333333333,-0.01314814814814819],[-0.08687499999999998,-0.06740740740740736],[-0.08687499999999998,-0.06740740740740736],[-0.09270833333333334,-0.13277777777777774],[-0.09624999999999997,-0.1772222222222222],[-0.10260416666666666,-0.1977777777777778],[-0.10197916666666665,-0.23537037037037042],[-0.10197916666666665,-0.23537037037037042],[-0.1045833333333333,-0.2346296296296296],[-0.07864583333333333,-0.2324074074074074],[-0.04770833333333328,-0.30481481481481487],[-0.016770833333333356,-0.3772222222222222],[0.024583333333333356,-0.4264814814814815],[0.08416666666666663,-0.4403703703703704],[0.13958333333333334,-0.43925925925925924],[0.18718750000000003,-0.4807407407407408],[0.23760416666666656,-0.5461111111111111],[0.30479166666666657,-0.5731481481481482],[0.35572916666666665,-0.6442592592592592],[0.3941666666666668,-0.6757407407407408],[0.4010416666666667,-0.6603703703703704],[0.3780208333333334,-0.5938888888888889],[0.35958333333333337,-0.5375925925925926],[0.29375,-0.48462962962962963],[0.2400000000000001,-0.43555555555555553],[0.19802083333333323,-0.35037037037037033],[0.1560416666666666,-0.2651851851851852],[0.11375000000000005,-0.21370370370370367],[0.08239583333333324,-0.13148148148148148],[0.03447916666666669,-0.0816666666666667],[-0.013437499999999976,-0.03185185185185194],[-0.04635416666666667,-0.007592592592592635],[-0.07927083333333336,0.016666666666666666],[-0.08229166666666667,0.0198148148148149],[-0.07479166666666662,0.03314814814814811],[-0.07541666666666665,0.04425925925925922],[-0.07999999999999995,0.04203703703703712],[-0.10583333333333336,0.046296296296296294],[-0.12927083333333336,0.03814814814814819],[-0.14312499999999997,0.041666666666666664],[-0.15697916666666673,0.04518518518518514],[-0.15593750000000003,0.041666666666666664],[-0.12687499999999996,0.009259259259259259],[-0.1390625,-0.02111111111111107],[-0.16177083333333328,-0.06166666666666669],[-0.1626041666666667,-0.08296296296296299],[-0.14979166666666663,-0.07833333333333335],[-0.14979166666666663,-0.07833333333333335],[-0.14281250000000004,-0.08277777777777776],[-0.12156250000000005,-0.11666666666666667],[-0.10031249999999996,-0.15055555555555558],[-0.10031249999999996,-0.15055555555555558],[-0.08125,-0.15407407407407406],[-0.07666666666666669,-0.1705555555555556],[-0.10010416666666669,-0.1581481481481481],[-0.06687500000000005,-0.12388888888888884],[-0.05562499999999997,-0.11055555555555553],[-0.05135416666666662,-0.14592592592592596],[-0.07322916666666662,-0.18129629629629626],[-0.0780208333333333,-0.1772222222222222],[-0.02677083333333338,-0.1559259259259259],[0.010416666666666666,-0.1624074074074074],[0.05437500000000005,-0.18555555555555553],[0.11281249999999995,-0.21425925925925923],[0.1712500000000001,-0.24296296296296294],[0.1993750000000001,-0.2935185185185185],[0.2353125000000001,-0.3266666666666666],[0.290625,-0.30944444444444447],[0.3853125000000001,-0.2942592592592592],[0.45281250000000006,-0.32759259259259255],[0.459375,-0.34592592592592597],[0.47645833333333343,-0.3244444444444444],[0.47645833333333343,-0.3244444444444444],[0.48895833333333344,-0.31666666666666665],[0.4794791666666666,-0.32333333333333336],[0.4859375,-0.33240740740740743],[0.5034375,-0.3274074074074074],[0.5371875,-0.3131481481481482],[0.5192708333333333,-0.3374074074074074],[0.47843749999999996,-0.37222222222222223],[0.47843749999999996,-0.37222222222222223],[0.47708333333333336,-0.39148148148148143],[0.496875,-0.39037037037037037],[0.5202083333333334,-0.40129629629629626],[0.5202083333333334,-0.40129629629629626],[0.5452083333333334,-0.395],[0.5452083333333334,-0.395],[0.5825,-0.38555555555555554],[0.6034375,-0.3701851851851851],[0.6338541666666667,-0.3568518518518518],[0.6338541666666667,-0.3568518518518518],[0.6621875,-0.3492592592592593],[0.6720833333333334,-0.33370370370370367],[0.6806250000000001,-0.33185185185185184],[0.6669791666666666,-0.3296296296296296],[0.6346875,-0.33648148148148144],[0.6346875,-0.33648148148148144],[0.6042708333333332,-0.3320370370370371],[0.5584374999999999,-0.3483333333333334],[0.5221874999999999,-0.3448148148148148],[0.5023958333333333,-0.322037037037037],[0.45343749999999994,-0.3314814814814815],[0.3636458333333332,-0.3272222222222222],[0.30968749999999995,-0.3133333333333333],[0.30968749999999995,-0.3133333333333333],[0.24249999999999997,-0.2757407407407407],[0.24249999999999997,-0.2757407407407407],[0.18385416666666668,-0.23111111111111113],[0.1171875,-0.1983333333333334],[0.04864583333333338,-0.17685185185185184],[-0.0032291666666666905,-0.15999999999999995],[-0.05499999999999995,-0.15166666666666662],[-0.12281249999999998,-0.1661111111111111],[-0.12281249999999998,-0.1661111111111111],[-0.1694791666666667,-0.13388888888888892],[-0.17458333333333337,-0.11351851851851855],[-0.1796875,-0.09314814814814817],[-0.1748958333333333,-0.09000000000000004],[-0.17999999999999997,-0.09166666666666666],[-0.17312500000000006,-0.11314814814814819],[-0.16625000000000004,-0.1346296296296296],[-0.1670833333333333,-0.14222222222222225],[-0.16791666666666671,-0.14981481481481476],[-0.16791666666666671,-0.14981481481481476],[-0.16124999999999995,-0.14092592592592595],[-0.16124999999999995,-0.14092592592592595],[-0.1765625,-0.14944444444444444],[-0.17541666666666664,-0.1801851851851852],[-0.19302083333333328,-0.2064814814814815],[-0.19302083333333328,-0.2064814814814815],[-0.20593750000000005,-0.22555555555555556],[-0.16281249999999994,-0.2644444444444445],[-0.16281249999999994,-0.2644444444444445],[-0.10989583333333333,-0.2705555555555556],[-0.06989583333333335,-0.2831481481481481],[-0.019166666666666644,-0.30185185185185187],[0.03156249999999995,-0.3205555555555556],[0.09666666666666662,-0.3605555555555555],[0.09666666666666662,-0.3605555555555555],[0.18229166666666666,-0.3955555555555556],[0.2556250000000001,-0.4081481481481481],[0.33614583333333337,-0.4131481481481482],[0.4166666666666667,-0.41814814814814816],[0.4166666666666667,-0.41814814814814816],[0.4513541666666666,-0.41333333333333333],[0.4513541666666666,-0.41333333333333333],[0.46989583333333323,-0.4274074074074074],[0.5102083333333333,-0.4448148148148148],[0.5172916666666666,-0.4661111111111111],[0.5553124999999999,-0.45314814814814813],[0.5633333333333332,-0.4396296296296296],[0.5713541666666667,-0.42611111111111116],[0.5472916666666667,-0.44814814814814813],[0.5347916666666668,-0.48222222222222216],[0.53125,-0.5029629629629631],[0.5175,-0.5137037037037037],[0.5171875,-0.49962962962962965],[0.4890625,-0.49740740740740746],[0.49208333333333343,-0.45851851851851855],[0.46416666666666656,-0.45388888888888895],[0.4443749999999999,-0.445],[0.42302083333333323,-0.46055555555555555],[0.4288541666666667,-0.4425925925925926],[0.44656250000000003,-0.4448148148148148],[0.4553124999999999,-0.46037037037037043],[0.45343749999999994,-0.5],[0.43802083333333336,-0.557962962962963],[0.44520833333333343,-0.5948148148148148],[0.44854166666666656,-0.6640740740740741],[0.4418750000000001,-0.7235185185185184],[0.4418750000000001,-0.7235185185185184],[0.45187499999999997,-0.7816666666666667],[0.4634375000000001,-0.8153703703703704],[0.4602083333333333,-0.859074074074074],[0.4602083333333333,-0.859074074074074],[0.4622916666666666,-0.8846296296296297],[0.4375,-0.9062962962962963],[0.4265625,-0.8898148148148148],[0.39166666666666666,-0.8875925925925926],[0.353125,-0.8848148148148148],[0.31187500000000007,-0.8538888888888889],[0.28062500000000007,-0.8327777777777777],[0.28062500000000007,-0.8327777777777777],[0.22072916666666675,-0.8400000000000001],[0.16083333333333344,-0.8472222222222222],[0.10989583333333333,-0.8531481481481481],[0.10989583333333333,-0.8531481481481481],[0.041770833333333354,-0.857037037037037],[0.010104166666666714,-0.8692592592592592],[-0.030208333333333334,-0.8572222222222222],[-0.030208333333333334,-0.8572222222222222],[-0.04656250000000005,-0.830925925925926],[-0.05375000000000003,-0.7570370370370371],[-0.028437499999999952,-0.7777777777777778],[-0.003125,-0.7985185185185185],[0.03218749999999997,-0.8322222222222222],[0.07364583333333338,-0.8390740740740741],[0.1209374999999999,-0.8372222222222223],[0.1209374999999999,-0.8372222222222223],[0.18125,-0.8468518518518519],[0.23937499999999995,-0.8516666666666666],[0.2934375000000001,-0.9253703703703704],[0.35812499999999997,-0.9479629629629629],[0.40989583333333335,-1.0405555555555555],[0.43781249999999994,-1.0725925925925928],[0.43781249999999994,-1.0725925925925928],[0.4721874999999999,-1.0855555555555556],[0.5130208333333334,-1.0629629629629629],[0.5477083333333332,-1.067222222222222],[0.5477083333333332,-1.067222222222222],[0.5477083333333332,-1.067222222222222],[0.5838541666666667,-1.0574074074074074],[0.6129166666666668,-1.0346296296296298],[0.6360416666666666,-1.011111111111111],[0.6679166666666667,-0.9512962962962964],[0.6679166666666667,-0.9512962962962964],[0.6909375,-0.9583333333333334],[0.705,-0.9364814814814815],[0.7109375,-0.9316666666666668],[0.7109375,-0.9316666666666668],[0.7383333333333333,-0.9724074074074075],[0.7384375000000001,-0.984074074074074],[0.7321875000000001,-0.9890740740740741],[0.7321875000000001,-0.9890740740740741],[0.7208333333333333,-0.9987037037037036],[0.7003125,-1.0003703703703704],[0.6952083333333334,-1.0522222222222224],[0.6952083333333334,-1.0522222222222224],[0.6908333333333334,-1.1098148148148148],[0.7014583333333334,-1.1185185185185185],[0.7184375000000001,-1.1096296296296297],[0.7184375000000001,-1.1096296296296297],[0.7376041666666666,-1.0777777777777777],[0.7447916666666666,-1],[0.7819791666666667,-0.9442592592592592],[0.7891666666666666,-0.9224074074074075],[0.8,-0.9099999999999999],[0.8121875000000001,-0.9016666666666666],[0.8075,-0.8442592592592593],[0.7944791666666667,-0.8205555555555556],[0.7646874999999999,-0.83],[0.7547916666666665,-0.8453703703703703],[0.7448958333333332,-0.8607407407407408],[0.7363541666666668,-0.8901851851851852],[0.720625,-0.9222222222222223],[0.7289583333333333,-0.9455555555555556],[0.7372916666666666,-0.968888888888889],[0.7483333333333334,-1.0105555555555557],[0.7389583333333334,-0.9890740740740741],[0.7504166666666667,-0.9437037037037037],[0.7692708333333333,-0.942037037037037],[0.7745833333333333,-0.9585185185185185],[0.7907291666666666,-0.9722222222222222],[0.7705208333333334,-1.006111111111111],[0.7470833333333334,-0.9925925925925926],[0.7359375,-0.9605555555555556],[0.7247916666666666,-0.9285185185185185],[0.7189583333333334,-0.866111111111111],[0.7335416666666668,-0.8668518518518519],[0.7335416666666668,-0.8607407407407408],[0.7340625000000001,-0.8411111111111111],[0.7242708333333333,-0.8311111111111111],[0.7036458333333333,-0.8238888888888889],[0.6965625000000001,-0.8098148148148149],[0.6965625000000001,-0.8098148148148149],[0.6927083333333334,-0.8431481481481482],[0.6901041666666666,-0.8422222222222222],[0.6929166666666667,-0.8327777777777777],[0.6929166666666667,-0.8327777777777777],[0.6895833333333333,-0.8407407407407408],[0.6944791666666668,-0.8374074074074074],[0.6895833333333333,-0.8444444444444444],[0.6895833333333333,-0.8444444444444444],[0.6767708333333334,-0.8212962962962963],[0.6678124999999999,-0.7814814814814814],[0.6588541666666666,-0.7416666666666667],[0.6588541666666666,-0.7416666666666667],[0.6639583333333334,-0.6994444444444444],[0.6585416666666667,-0.6814814814814815],[0.651875,-0.6977777777777778],[0.6397916666666668,-0.7225925925925926],[0.6397916666666668,-0.7225925925925926],[0.6463541666666667,-0.7772222222222221],[0.6439583333333334,-0.8074074074074075],[0.6439583333333334,-0.8074074074074075],[0.6534375,-0.8242592592592592],[0.6405208333333334,-0.8285185185185184],[0.6069791666666667,-0.8162962962962963],[0.5734375,-0.804074074074074],[0.4852083333333333,-0.7616666666666667],[0.40750000000000003,-0.6950000000000001],[0.3328125,-0.612037037037037],[0.26552083333333343,-0.5425925925925926],[0.17718749999999991,-0.4522222222222222],[0.08958333333333333,-0.39759259259259255],[-0.008333333333333333,-0.3507407407407407],[-0.08385416666666666,-0.3164814814814814],[-0.13802083333333334,-0.25277777777777777],[-0.17708333333333334,-0.2366666666666667],[-0.1892708333333334,-0.21518518518518517],[-0.20125000000000004,-0.20481481481481487],[-0.21625000000000003,-0.21074074074074076],[-0.228125,-0.2366666666666667],[-0.2376041666666667,-0.2537037037037037],[-0.24708333333333338,-0.2707407407407407],[-0.24708333333333338,-0.2707407407407407],[-0.2436458333333333,-0.27870370370370373],[-0.23864583333333336,-0.28351851851851856],[-0.2313541666666667,-0.3164814814814814],[-0.24874999999999994,-0.3025925925925925],[-0.246875,-0.31870370370370377],[-0.23833333333333329,-0.3162962962962963],[-0.2297916666666667,-0.3138888888888889],[-0.2297916666666667,-0.3138888888888889],[-0.22822916666666668,-0.2809259259259259],[-0.2469791666666667,-0.24407407407407408],[-0.2657291666666667,-0.20722222222222217],[-0.2657291666666667,-0.20722222222222217],[-0.26885416666666667,-0.17314814814814813],[-0.284375,-0.1787037037037037],[-0.30114583333333333,-0.17037037037037037],[-0.30114583333333333,-0.17037037037037037],[-0.30833333333333335,-0.16129629629629633],[-0.30833333333333335,-0.16129629629629633],[-0.3138541666666666,-0.15629629629629627],[-0.3138541666666666,-0.15629629629629627],[-0.3123958333333333,-0.13962962962962958],[-0.31375000000000003,-0.1655555555555555],[-0.3207291666666666,-0.18648148148148147],[-0.31218750000000006,-0.17481481481481478],[-0.30364583333333334,-0.16314814814814818],[-0.32312500000000005,-0.13425925925925927],[-0.33177083333333335,-0.06888888888888887],[-0.33177083333333335,-0.06888888888888887],[-0.3051041666666666,-0.09944444444444442],[-0.2140625,-0.13425925925925927],[-0.12770833333333337,-0.1594444444444445],[-0.028750000000000022,-0.14574074074074073],[0.07083333333333333,-0.10759259259259263],[0.18218750000000009,-0.08740740740740739],[0.30791666666666656,-0.10777777777777775],[0.38270833333333343,-0.13796296296296295],[0.38270833333333343,-0.13796296296296295],[0.45125000000000004,-0.1925925925925926],[0.5146874999999999,-0.2442592592592592],[0.551875,-0.2390740740740741],[0.5152083333333333,-0.23203703703703707],[0.4830208333333334,-0.22870370370370371],[0.4210416666666667,-0.2927777777777778],[0.36124999999999996,-0.3387037037037037],[0.29354166666666665,-0.37222222222222223],[0.21624999999999991,-0.4016666666666666],[0.1898958333333333,-0.4212962962962963],[0.16572916666666657,-0.4148148148148148],[0.15260416666666668,-0.4225925925925926],[0.1414583333333333,-0.45685185185185184],[0.14635416666666667,-0.47555555555555556],[0.13489583333333333,-0.5031481481481481],[0.13489583333333333,-0.5031481481481481],[0.11229166666666662,-0.5205555555555555],[0.10499999999999995,-0.5112962962962964],[0.10416666666666667,-0.5214814814814815],[0.10333333333333337,-0.5316666666666667],[0.078125,-0.544074074074074],[0.06677083333333324,-0.5738888888888889],[0.07708333333333334,-0.6068518518518519],[0.07708333333333334,-0.6068518518518519],[0.08104166666666662,-0.6129629629629629],[0.034791666666666644,-0.615925925925926],[0.008020833333333382,-0.602037037037037],[-0.008854166666666666,-0.5900000000000001],[-0.04104166666666664,-0.6046296296296296],[-0.08989583333333329,-0.5855555555555555],[-0.13510416666666672,-0.5692592592592592],[-0.1626041666666667,-0.5733333333333334],[-0.19458333333333327,-0.5898148148148148],[-0.24968750000000003,-0.5794444444444444],[-0.31520833333333337,-0.5514814814814815],[-0.33708333333333335,-0.5398148148148149],[-0.3455208333333334,-0.5375925925925926],[-0.349375,-0.5342592592592592],[-0.3272916666666667,-0.4383333333333333],[-0.3272916666666667,-0.4383333333333333],[-0.30416666666666664,-0.35462962962962963],[-0.23270833333333332,-0.3237037037037037],[-0.23270833333333332,-0.3237037037037037],[-0.1578125,-0.22148148148148153],[-0.04072916666666669,-0.1161111111111111],[0.071875,-0.023148148148148147],[0.12291666666666666,0.10351851851851848],[0.19729166666666675,0.2242592592592593],[0.24406249999999996,0.3175925925925926],[0.24406249999999996,0.3175925925925926],[0.29052083333333345,0.42851851851851847],[0.3318749999999999,0.46148148148148155],[0.3806250000000001,0.4959259259259258],[0.3806250000000001,0.4959259259259258],[0.34885416666666674,0.5637037037037037],[0.3145833333333333,0.6109259259259259],[0.2630208333333333,0.6022222222222223],[0.21760416666666677,0.5851851851851851],[0.21447916666666675,0.5475925925925926],[0.196875,0.532037037037037],[0.196875,0.532037037037037],[0.1525000000000001,0.5733333333333334],[0.10718750000000009,0.5857407407407407],[0.04104166666666664,0.5835185185185185],[-0.011354166666666643,0.5664814814814815],[-0.035208333333333286,0.5716666666666668],[-0.03697916666666667,0.5477777777777777],[-0.008437500000000023,0.5590740740740741],[-0.008437500000000023,0.5590740740740741],[0.00614583333333331,0.6107407407407407],[0.03687499999999998,0.643148148148148],[0.06020833333333329,0.6272222222222223],[0.06020833333333329,0.6272222222222223],[0.11989583333333324,0.5814814814814815],[0.16437499999999997,0.5479629629629629],[0.22385416666666677,0.5074074074074074],[0.22385416666666677,0.5074074074074074],[0.2695833333333333,0.4816666666666667],[0.3402083333333332,0.46537037037037027],[0.3883333333333333,0.444074074074074],[0.3883333333333333,0.444074074074074],[0.3857291666666666,0.4527777777777778],[0.384375,0.4101851851851852],[0.39656250000000004,0.35611111111111104],[0.39656250000000004,0.35611111111111104],[0.42041666666666655,0.34018518518518526],[0.42156250000000006,0.3224074074074075],[0.4391666666666666,0.3037037037037037],[0.4365624999999999,0.3079629629629629],[0.43166666666666675,0.3050000000000001],[0.41916666666666674,0.26222222222222225],[0.41281249999999997,0.22537037037037044],[0.4317708333333333,0.21129629629629634],[0.45729166666666665,0.21648148148148144],[0.46760416666666677,0.2390740740740741],[0.4337500000000001,0.24611111111111106],[0.44593749999999993,0.2646296296296296],[0.46281249999999996,0.2800000000000001],[0.48489583333333336,0.2794444444444444],[0.48489583333333336,0.2794444444444444],[0.5332291666666668,0.2742592592592593],[0.5630208333333333,0.2975925925925927],[0.5630208333333333,0.2975925925925927],[0.5928124999999999,0.32092592592592584],[0.5927083333333333,0.3198148148148149],[0.5926041666666667,0.31870370370370377],[0.6141666666666665,0.30185185185185187],[0.6839583333333332,0.2946296296296297],[0.6839583333333332,0.2946296296296297],[0.71875,0.2814814814814815],[0.71875,0.2814814814814815],[0.7426041666666667,0.2683333333333333],[0.7495833333333333,0.24962962962962953],[0.7495833333333333,0.24962962962962953],[0.7285416666666668,0.26722222222222214],[0.7223958333333333,0.2598148148148147],[0.7159375,0.2616666666666666],[0.7159375,0.2616666666666666],[0.7146874999999999,0.2705555555555556],[0.7082291666666668,0.2757407407407407],[0.683125,0.2927777777777778],[0.683125,0.2927777777777778],[0.6501041666666666,0.26962962962962966],[0.6398958333333333,0.255925925925926],[0.6359375,0.2442592592592592],[0.6359375,0.2442592592592592],[0.6486458333333334,0.24777777777777768],[0.6471874999999999,0.23351851851851857],[0.6320833333333333,0.24611111111111106],[0.6172916666666666,0.24944444444444452],[0.6047916666666666,0.23962962962962958],[0.59875,0.23259259259259263],[0.6068749999999999,0.21074074074074065],[0.6057291666666667,0.22907407407407415],[0.5917708333333332,0.19962962962962955],[0.5778125000000001,0.1712962962962963],[0.5679166666666667,0.1638888888888889],[0.5662499999999999,0.13759259259259252],[0.578125,0.11333333333333341],[0.5859375,0.08833333333333342],[0.5924999999999999,0.0772222222222223],[0.5978125000000001,0.06703703703703712],[0.6073958333333332,0.04759259259259268],[0.6169791666666666,0.02814814814814823],[0.6247916666666666,0.0338888888888888],[0.6345833333333334,0.052407407407407326],[0.6496875000000001,-0.052037037037037076],[0.6648958333333332,-0.1559259259259259],[0.6766666666666665,-0.2627777777777777],[0.7004166666666668,-0.3464814814814815],[0.7004166666666668,-0.3464814814814815],[0.7224999999999999,-0.43629629629629635],[0.7154166666666666,-0.47240740740740744],[0.7020833333333333,-0.49796296296296294],[0.6908333333333334,-0.5498148148148148],[0.6830208333333334,-0.5922222222222222],[0.6570833333333332,-0.6025925925925926],[0.6227083333333333,-0.5074074074074074],[0.5993750000000001,-0.39962962962962967],[0.578125,-0.2831481481481481],[0.5485416666666666,-0.17833333333333334],[0.5485416666666666,-0.17833333333333334],[0.51875,-0.08148148148148149],[0.5259375000000001,-0.02370370370370362],[0.5076041666666666,0.01314814814814819],[0.48427083333333343,0.05925925925925926],[0.49166666666666664,0.13148148148148148],[0.5152083333333333,0.1588888888888888],[0.5212500000000001,0.18981481481481483],[0.5278125,0.21296296296296297],[0.5221874999999999,0.22833333333333325],[0.5301041666666667,0.18870370370370365],[0.5308333333333333,0.18277777777777787],[0.5239583333333333,0.1814814814814815],[0.5426041666666668,0.20111111111111116],[0.5626041666666666,0.21185185185185182],[0.551875,0.19648148148148153],[0.5411458333333333,0.18111111111111103],[0.5411458333333333,0.18111111111111103],[0.5345833333333334,0.11444444444444436],[0.529375,0.09425925925925922],[0.5264583333333335,0.06092592592592588],[0.5392708333333334,0.06703703703703712],[0.5396874999999999,0.029814814814814856],[0.5353125000000001,-0.007592592592592635],[0.5309375000000001,-0.044999999999999915],[0.5226041666666668,-0.06759259259259259],[0.5142708333333333,-0.09018518518518516],[0.5006249999999999,-0.11962962962962967],[0.4995833333333332,-0.11444444444444446],[0.47760416666666666,-0.11814814814814817],[0.45333333333333337,-0.10870370370370368],[0.4080208333333334,-0.07833333333333335],[0.38250000000000006,-0.03037037037037033],[0.359375,-0.02092592592592584],[0.3396874999999999,-0.01314814814814819],[0.33531250000000007,-0.01907407407407399],[0.31135416666666677,-0.03814814814814819],[0.29270833333333335,-0.050370370370370454],[0.2775000000000001,-0.05407407407407405],[0.2808333333333332,-0.09666666666666665],[0.2835416666666667,-0.13111111111111112],[0.30437500000000006,-0.18574074074074076],[0.3252083333333334,-0.2403703703703704],[0.340625,-0.29240740740740734],[0.3601041666666667,-0.3418518518518519],[0.3603125000000001,-0.30907407407407406],[0.3959374999999999,-0.27444444444444444],[0.4189583333333334,-0.23259259259259263],[0.43854166666666666,-0.1992592592592593],[0.4557291666666667,-0.17111111111111107],[0.48333333333333334,-0.11537037037037039],[0.49197916666666663,-0.11259259259259262],[0.4817708333333333,-0.10537037037037032],[0.48197916666666674,-0.10666666666666672],[0.4772916666666667,-0.11500000000000005],[0.48156249999999995,-0.14962962962962964],[0.44854166666666656,-0.1838888888888889],[0.428125,-0.22537037037037036],[0.428125,-0.22537037037037036],[0.37374999999999997,-0.2361111111111111],[0.37374999999999997,-0.2361111111111111],[0.3160416666666668,-0.2351851851851852],[0.3160416666666668,-0.2351851851851852],[0.29354166666666665,-0.31740740740740736],[0.2640625,-0.3425925925925926],[0.2663541666666667,-0.36518518518518517],[0.27197916666666655,-0.37962962962962965],[0.2724999999999999,-0.36500000000000005],[0.2768749999999999,-0.3738888888888888],[0.2894791666666668,-0.392037037037037],[0.2894791666666668,-0.392037037037037],[0.3026041666666667,-0.4053703703703703],[0.3544791666666666,-0.46722222222222226],[0.4147916666666667,-0.49981481481481477],[0.4147916666666667,-0.49981481481481477],[0.4267708333333334,-0.4992592592592593],[0.4573958333333332,-0.4935185185185185],[0.4809375000000001,-0.47092592592592597],[0.4809375000000001,-0.47092592592592597],[0.48312499999999997,-0.44111111111111106],[0.5044791666666666,-0.4346296296296296],[0.5183333333333332,-0.44666666666666666],[0.5638541666666667,-0.4059259259259259],[0.5947916666666667,-0.35351851851851845],[0.615625,-0.29740740740740745],[0.6295833333333334,-0.2638888888888889],[0.6069791666666667,-0.19370370370370374],[0.5854166666666667,-0.1264814814814815],[0.5383333333333333,-0.08537037037037042],[0.5342708333333335,-0.02814814814814823],[0.48937499999999995,-0.052037037037037076],[0.44895833333333335,-0.07222222222222222],[0.39010416666666664,-0.125],[0.3585416666666667,-0.1381481481481482],[0.33229166666666665,-0.13722222222222227],[0.3189583333333334,-0.15092592592592594],[0.3455208333333334,-0.18703703703703703],[0.3455208333333334,-0.18703703703703703],[0.3363541666666668,-0.2257407407407407],[0.3549999999999999,-0.26648148148148143],[0.34427083333333336,-0.3266666666666666],[0.3637500000000001,-0.2972222222222222],[0.3689583333333334,-0.2801851851851852],[0.3689583333333334,-0.2801851851851852],[0.3841666666666666,-0.24407407407407408],[0.42249999999999993,-0.26592592592592595],[0.47666666666666657,-0.2735185185185185],[0.5214583333333332,-0.27148148148148155],[0.5702083333333334,-0.2796296296296296],[0.6301041666666668,-0.32314814814814813],[0.6809375000000001,-0.34370370370370373],[0.6809375000000001,-0.34370370370370373],[0.7434375000000001,-0.34148148148148144],[0.8080208333333334,-0.3266666666666666],[0.8865624999999999,-0.2922222222222222],[0.9625,-0.3051851851851852],[1.00625,-0.3162962962962963],[0.9739583333333334,-0.2868518518518518],[0.9392708333333334,-0.2903703703703704],[0.9392708333333334,-0.2903703703703704],[0.8895833333333333,-0.26222222222222225],[0.8520833333333333,-0.21518518518518517],[0.8155208333333335,-0.1868518518518518],[0.7472916666666668,-0.1714814814814815],[0.7063541666666666,-0.1735185185185185],[0.6654166666666667,-0.17555555555555558],[0.6008333333333333,-0.12925925925925927],[0.5320833333333332,-0.08296296296296299],[0.5261458333333332,-0.0992592592592593],[0.5226041666666668,-0.08259259259259263],[0.5190625,-0.09296296296296294],[0.5082291666666667,-0.08648148148148146],[0.4896874999999999,-0.07388888888888885],[0.49270833333333336,-0.057777777777777754],[0.4243750000000001,-0.08555555555555554],[0.35604166666666665,-0.11333333333333331],[0.3039583333333333,-0.16111111111111112],[0.32697916666666677,-0.19277777777777783],[0.34739583333333335,-0.21666666666666667],[0.36906249999999996,-0.2535185185185185],[0.36906249999999996,-0.2535185185185185],[0.3681250000000001,-0.2577777777777778],[0.3790625000000001,-0.2492592592592593],[0.3709374999999999,-0.25685185185185183],[0.3709374999999999,-0.25685185185185183],[0.3835416666666667,-0.26648148148148143],[0.4337500000000001,-0.25703703703703706],[0.4765625,-0.2346296296296296],[0.4765625,-0.2346296296296296],[0.5216666666666666,-0.19185185185185188],[0.49947916666666664,-0.17907407407407405],[0.46541666666666665,-0.17],[0.46541666666666665,-0.17],[0.41437499999999994,-0.1537037037037037],[0.40656249999999994,-0.14777777777777779],[0.39854166666666657,-0.16574074074074074],[0.39854166666666657,-0.16574074074074074],[0.41135416666666674,-0.18740740740740738],[0.41135416666666674,-0.18740740740740738],[0.4097916666666668,-0.16351851851851854],[0.40656249999999994,-0.11814814814814817],[0.40739583333333323,-0.10759259259259263],[0.3892708333333334,-0.12222222222222222],[0.3536458333333333,-0.11981481481481479],[0.3536458333333333,-0.11981481481481479],[0.3515625,-0.09870370370370372],[0.34572916666666675,-0.09648148148148153],[0.35906250000000006,-0.09703703703703699],[0.3607291666666666,-0.08648148148148146],[0.3607291666666666,-0.051111111111111156],[0.35437500000000005,-0.05925925925925926],[0.3578125,-0.09314814814814817],[0.3651041666666667,-0.1294444444444444],[0.41916666666666674,-0.14814814814814814],[0.4878124999999999,-0.14907407407407408],[0.5267708333333334,-0.16055555555555553],[0.5938541666666666,-0.15018518518518523],[0.6395833333333333,-0.13444444444444448],[0.6763541666666666,-0.13351851851851856],[0.7207291666666668,-0.14370370370370375],[0.7548958333333334,-0.18592592592592588],[0.7548958333333334,-0.18592592592592588],[0.7775000000000001,-0.17185185185185187],[0.7858333333333334,-0.14666666666666664],[0.7640625,-0.13425925925925927],[0.7686458333333335,-0.11592592592592597],[0.78125,-0.10203703703703708],[0.7634375000000001,-0.10703703703703706],[0.7454166666666666,-0.125],[0.7454166666666666,-0.125],[0.7295833333333335,-0.11333333333333331],[0.6955208333333334,-0.12666666666666662],[0.6833333333333333,-0.09888888888888885],[0.6598958333333333,-0.09500000000000001],[0.6502083333333334,-0.07796296296296301],[0.6422916666666666,-0.07796296296296301],[0.603125,-0.10481481481481486],[0.5477083333333332,-0.12833333333333335],[0.5162499999999999,-0.12907407407407406],[0.47843749999999996,-0.12444444444444443],[0.44864583333333335,-0.14777777777777779],[0.43718750000000006,-0.13185185185185183],[0.40895833333333326,-0.15833333333333333],[0.39375,-0.19148148148148145],[0.3720833333333334,-0.2044444444444444],[0.3720833333333334,-0.2044444444444444],[0.35666666666666674,-0.192037037037037],[0.3375,-0.19870370370370372],[0.3345833333333334,-0.20870370370370367],[0.3345833333333334,-0.20870370370370367],[0.35270833333333323,-0.2007407407407407],[0.39874999999999994,-0.2662962962962963],[0.44718749999999996,-0.28777777777777774],[0.44718749999999996,-0.28777777777777774],[0.4881249999999999,-0.30648148148148147],[0.4991666666666667,-0.2837037037037037],[0.5102083333333333,-0.2609259259259259],[0.5215625,-0.24740740740740744],[0.5251041666666666,-0.24000000000000005],[0.5235416666666666,-0.23444444444444448],[0.5219791666666665,-0.22888888888888892],[0.5118750000000001,-0.2705555555555556],[0.4730208333333332,-0.25037037037037035],[0.4390625,-0.26722222222222225],[0.4125,-0.30111111111111116],[0.39895833333333336,-0.33111111111111113],[0.3885416666666667,-0.3727777777777778],[0.39208333333333345,-0.42592592592592593],[0.3367708333333333,-0.4727777777777778],[0.30416666666666664,-0.5777777777777777],[0.2743750000000001,-0.712037037037037],[0.22989583333333338,-0.8181481481481482],[0.18541666666666667,-0.9242592592592593],[0.13177083333333334,-1.0216666666666667],[0.13177083333333334,-1.0216666666666667],[0.078125,-1.1190740740740739],[0.03864583333333336,-1.1985185185185185],[0.012083333333333357,-1.2796296296296297],[-0.029999999999999954,-1.3583333333333334],[-0.0002083333333333807,-1.4075925925925927],[0.008229166666666643,-1.3946296296296297],[0.005104166666666643,-1.3594444444444445],[0.005104166666666643,-1.3594444444444445],[0.04510416666666662,-1.2381481481481482],[0.08510416666666672,-1.116851851851852],[0.10708333333333328,-1],[0.10708333333333328,-1],[0.12354166666666658,-0.8977777777777778],[0.14187500000000006,-0.8235185185185185],[0.13166666666666677,-0.7390740740740741],[0.13770833333333338,-0.6618518518518518],[0.1326041666666666,-0.577962962962963],[0.1326041666666666,-0.47740740740740745],[0.12625000000000006,-0.4233333333333334],[0.12625000000000006,-0.4233333333333334],[0.05291666666666662,-0.46518518518518515],[-0.02041666666666669,-0.5070370370370371],[-0.050416666666666644,-0.5107407407407407],[-0.050416666666666644,-0.5107407407407407],[-0.07489583333333331,-0.49981481481481477],[-0.10614583333333331,-0.5094444444444445],[-0.10614583333333331,-0.5094444444444445],[-0.1248958333333333,-0.515925925925926],[-0.1304166666666667,-0.5057407407407408],[-0.14624999999999996,-0.5705555555555556],[-0.14624999999999996,-0.5705555555555556],[-0.1828125,-0.632962962962963],[-0.2101041666666667,-0.6322222222222221],[-0.21656249999999996,-0.6322222222222221],[-0.2163541666666667,-0.6320370370370371],[-0.24083333333333337,-0.6681481481481482],[-0.2748958333333333,-0.696111111111111],[-0.2748958333333333,-0.696111111111111],[-0.2786458333333333,-0.7068518518518518],[-0.2891666666666667,-0.7244444444444444],[-0.31791666666666674,-0.7398148148148148],[-0.33468749999999997,-0.7305555555555555],[-0.33708333333333335,-0.74],[-0.3336458333333333,-0.759074074074074],[-0.31760416666666663,-0.7470370370370369],[-0.31447916666666664,-0.7401851851851852],[-0.3186458333333333,-0.7311111111111112],[-0.3186458333333333,-0.7311111111111112],[-0.3133333333333333,-0.7342592592592593],[-0.315,-0.7468518518518519],[-0.3098958333333333,-0.7525925925925926],[-0.3229166666666667,-0.742037037037037],[-0.33479166666666665,-0.7344444444444445],[-0.3255208333333333,-0.7127777777777777],[-0.31520833333333337,-0.6890740740740741],[-0.31520833333333337,-0.6890740740740741],[-0.3051041666666666,-0.7281481481481481],[-0.2883333333333333,-0.7496296296296296],[-0.28229166666666666,-0.8070370370370371],[-0.27062499999999995,-0.8294444444444444],[-0.27104166666666674,-0.8544444444444445],[-0.2633333333333333,-0.8359259259259259],[-0.22302083333333336,-0.8531481481481481],[-0.18760416666666668,-0.8616666666666667],[-0.18760416666666668,-0.8616666666666667],[-0.18500000000000003,-0.8988888888888888],[-0.190625,-0.9451851851851851],[-0.190625,-0.9451851851851851],[-0.20562499999999997,-0.9492592592592592],[-0.19281250000000003,-0.9516666666666667],[-0.17697916666666663,-0.9248148148148148],[-0.17697916666666663,-0.9248148148148148],[-0.17927083333333335,-0.9209259259259259],[-0.16302083333333334,-0.8805555555555555],[-0.15750000000000006,-0.8959259259259259],[-0.17677083333333338,-0.9144444444444445],[-0.19604166666666673,-0.932962962962963],[-0.17770833333333336,-0.9148148148148149],[-0.15218750000000003,-0.8896296296296295],[-0.16687500000000005,-0.8785185185185185],[-0.16687500000000005,-0.8785185185185185],[-0.1907291666666667,-0.8644444444444445],[-0.19958333333333336,-0.845925925925926],[-0.21656249999999996,-0.8296296296296296],[-0.2077083333333333,-0.8314814814814815],[-0.20031249999999995,-0.8270370370370371],[-0.19104166666666664,-0.8072222222222222],[-0.18177083333333333,-0.7874074074074073],[-0.18177083333333333,-0.7874074074074073],[-0.2111458333333334,-0.7640740740740741],[-0.2621875000000001,-0.754074074074074],[-0.26989583333333333,-0.7301851851851852],[-0.26989583333333333,-0.7301851851851852],[-0.2679166666666667,-0.71],[-0.275,-0.707962962962963],[-0.25885416666666666,-0.6762962962962963],[-0.2856250000000001,-0.6496296296296297],[-0.2952083333333333,-0.6472222222222223],[-0.2998958333333333,-0.6511111111111112],[-0.31791666666666674,-0.6411111111111111],[-0.31791666666666674,-0.6411111111111111],[-0.30666666666666664,-0.6375925925925926],[-0.265625,-0.6285185185185185],[-0.2133333333333333,-0.6312962962962962],[-0.2133333333333333,-0.6312962962962962],[-0.2045833333333333,-0.605],[-0.17093750000000002,-0.5505555555555556],[-0.14635416666666667,-0.5455555555555556],[-0.14583333333333334,-0.5037037037037037]]","[[0.5402083333333333,0.11296296296296296,0.00040000003575357823],[0.5402083333333333,0.11296296296296296,0.05040000003576495],[0.5909375,0.16296296296296298,0.06160000002384436],[0.6173958333333334,0.19907407407407407,0.07719999998808191],[0.6653125000000001,0.23722222222222225,0.0934000000357571],[0.6844791666666665,0.2351851851851852,0.11290000003576495],[0.6838541666666667,0.2381481481481482,0.12869999998807202],[0.7346874999999999,0.22407407407407406,0.14560000002383333],[0.7635416666666667,0.19759259259259268,0.16169999998807327],[0.7782291666666665,0.13666666666666658,0.1798000000119231],[0.8224999999999999,0.069074074074074,0.19480000001192366],[0.8753124999999999,0.02370370370370362,0.21180000001191956],[0.8753124999999999,0.02370370370370362,0.22619999998808282],[0.8977083333333333,-0.07574074074074069,0.24450000000000216],[0.9116666666666667,-0.19185185185185188,0.262999999999991],[0.9053124999999999,-0.29611111111111105,0.27769999998807293],[0.8984375,-0.38796296296296295,0.2926000000238389],[0.8890625,-0.4375925925925926,0.3119999999999976],[0.8405208333333334,-0.4444444444444444,0.3283000000119216],[0.8405208333333334,-0.4444444444444444,0.34260000002383606],[0.7961458333333333,-0.4457407407407407,0.3591999999880784],[0.7557291666666667,-0.4124074074074074,0.3789000000357561],[0.6956249999999999,-0.38981481481481484,0.39280000001191695],[0.6210416666666667,-0.387037037037037,0.4093000000119247],[0.5504166666666668,-0.387037037037037,0.4281000000238464],[0.5504166666666668,-0.387037037037037,0.4426999999880792],[0.4552083333333333,-0.4009259259259259,0.45930000001192184],[0.3984375,-0.4003703703703704,0.4759000000357645],[0.3416666666666667,-0.3998148148148148,0.49260000002384174],[0.328125,-0.4366666666666667,0.509300000011919],[0.32364583333333335,-0.4618518518518518,0.5259000000357616],[0.33645833333333336,-0.5187037037037038,0.5426000000238389],[0.33645833333333336,-0.5187037037037038,0.5591999999880812],[0.34614583333333326,-0.5433333333333333,0.5764000000357612],[0.3580208333333334,-0.6077777777777778,0.5926999999880707],[0.3602083333333333,-0.6572222222222222,0.6126999999880809],[0.35989583333333336,-0.6974074074074075,0.628699999988072],[0.39395833333333335,-0.7214814814814815,0.6438000000119217],[0.39395833333333335,-0.7214814814814815,0.6593000000119247],[0.40989583333333335,-0.7718518518518519,0.6760000000000019],[0.4176041666666668,-0.8159259259259259,0.6926000000238446],[0.4189583333333334,-0.8496296296296296,0.7093000000119218],[0.4189583333333334,-0.8496296296296296,0.7259000000357645],[0.4203125,-0.8833333333333333,0.7426000000238417],[0.3961458333333333,-0.897962962962963,0.759300000011919],[0.35489583333333335,-0.8464814814814815,0.77619999998808],[0.32927083333333323,-0.7246296296296296,0.7939999999999969],[0.32083333333333336,-0.6287037037037037,0.8091999999880812],[0.27239583333333334,-0.5246296296296297,0.8259000000357588],[0.22260416666666671,-0.40611111111111114,0.8426000000238361],[0.22260416666666671,-0.40611111111111114,0.8593000000119133],[0.17468750000000005,-0.29981481481481476,0.875900000035756],[0.1349999999999999,-0.19981481481481478,0.8926000000238332],[0.07854166666666676,-0.11407407407407412,0.9093000000119247],[0.07854166666666676,-0.11407407407407412,0.9259000000357673],[0.01885416666666669,-0.043703703703703745,0.9426000000238446],[-0.041666666666666664,0.018888888888888972,0.9593000000119218],[-0.04520833333333331,0.010740740740740657,0.9759000000357645],[-0.04520833333333331,0.010740740740740657,0.9926000000238417],[-0.05583333333333336,-0.0001851851851852273,1.0091999999880699],[-0.0889583333333333,-0.01314814814814819,1.0259000000357616],[-0.08687499999999998,-0.06740740740740736,1.0426999999880735],[-0.08687499999999998,-0.06740740740740736,1.0593000000119162],[-0.09270833333333334,-0.13277777777777774,1.0759000000357588],[-0.09624999999999997,-0.1772222222222222,1.0925000000000011],[-0.10260416666666666,-0.1977777777777778,1.1091999999880784],[-0.10197916666666665,-0.23537037037037042,1.1301999999880792],[-0.10197916666666665,-0.23537037037037042,1.1426000000238332],[-0.1045833333333333,-0.2346296296296296,1.1591999999880755],[-0.07864583333333333,-0.2324074074074074,1.1759000000357673],[-0.04770833333333328,-0.30481481481481487,1.1926000000238446],[-0.016770833333333356,-0.3772222222222222,1.2093000000119218],[0.024583333333333356,-0.4264814814814815,1.2264000000357669],[0.08416666666666663,-0.4403703703703704,1.2426000000238417],[0.13958333333333334,-0.43925925925925924,1.2591999999880699],[0.18718750000000003,-0.4807407407407408,1.2759000000357616],[0.23760416666666656,-0.5461111111111111,1.292600000023839],[0.30479166666666657,-0.5731481481481482,1.3093000000119162],[0.35572916666666665,-0.6442592592592592,1.3266999999880795],[0.3941666666666668,-0.6757407407407408,1.3429000000357547],[0.4010416666666667,-0.6603703703703704,1.3591999999880784],[0.3780208333333334,-0.5938888888888889,1.375900000035756],[0.35958333333333337,-0.5375925925925926,1.393500000000003],[0.29375,-0.48462962962962963,1.4101999999880803],[0.2400000000000001,-0.43555555555555553,1.4274999999999949],[0.19802083333333323,-0.35037037037037033,1.4431000000238328],[0.1560416666666666,-0.2651851851851852,1.4591999999880727],[0.11375000000000005,-0.21370370370370367,1.479199999988083],[0.08239583333333324,-0.13148148148148148,1.492999999999995],[0.03447916666666669,-0.0816666666666667,1.509300000011919],[-0.013437499999999976,-0.03185185185185194,1.5259999999999962],[-0.04635416666666667,-0.007592592592592635,1.5428000000119226],[-0.07927083333333336,0.016666666666666666,1.5591999999880812],[-0.08229166666666667,0.0198148148148149,1.5759000000357588],[-0.07479166666666662,0.03314814814814811,1.5926999999880707],[-0.07541666666666665,0.04425925925925922,1.6098000000119157],[-0.07999999999999995,0.04203703703703712,1.625900000035756],[-0.10583333333333336,0.046296296296296294,1.6426000000238332],[-0.12927083333333336,0.03814814814814819,1.6593000000119247],[-0.14312499999999997,0.041666666666666664,1.6788000000119183],[-0.15697916666666673,0.04518518518518514,1.6926999999880792],[-0.15593750000000003,0.041666666666666664,1.7093000000119218],[-0.12687499999999996,0.009259259259259259,1.7259000000357645],[-0.1390625,-0.02111111111111107,1.7426999999880763],[-0.16177083333333328,-0.06166666666666669,1.7591999999880699],[-0.1626041666666667,-0.08296296296296299,1.7759000000357616],[-0.14979166666666663,-0.07833333333333335,1.792600000023839],[-0.14979166666666663,-0.07833333333333335,1.8093000000119162],[-0.14281250000000004,-0.08277777777777776,1.8259999999999934],[-0.12156250000000005,-0.11666666666666667,1.842600000023836],[-0.10031249999999996,-0.15055555555555558,1.8591999999880784],[-0.10031249999999996,-0.15055555555555558,1.875900000035756],[-0.08125,-0.15407407407407406,1.8926000000238332],[-0.07666666666666669,-0.1705555555555556,1.9091999999880755],[-0.10010416666666669,-0.1581481481481481,1.9266000000238392],[-0.06687500000000005,-0.12388888888888884,1.9439000000357538],[-0.05562499999999997,-0.11055555555555553,1.9624000000357569],[-0.05135416666666662,-0.14592592592592596,1.9789999999999992],[-0.07322916666666662,-0.18129629629629626,1.9939000000357652],[-0.0780208333333333,-0.1772222222222222,2.012999999999991],[-0.02677083333333338,-0.1559259259259259,2.030100000023836],[0.010416666666666666,-0.1624074074074074,2.045500000000004],[0.05437500000000005,-0.18555555555555553,2.0609000000357582],[0.11281249999999995,-0.21425925925925923,2.0778000000119192],[0.1712500000000001,-0.24296296296296294,2.095100000023834],[0.1993750000000001,-0.2935185185185185,2.1121999999880785],[0.2353125000000001,-0.3266666666666666,2.1281999999880696],[0.290625,-0.30944444444444447,2.1448000000119123],[0.3853125000000001,-0.2942592592592592,2.1606999999880827],[0.45281250000000006,-0.32759259259259255,2.176000000000002],[0.459375,-0.34592592592592597,2.1924999999999955],[0.47645833333333343,-0.3244444444444444,2.209900000035759],[0.47645833333333343,-0.3244444444444444,2.2259000000357645],[0.48895833333333344,-0.31666666666666665,2.2426000000238417],[0.4794791666666666,-0.32333333333333336,2.259400000035754],[0.4859375,-0.33240740740740743,2.2766000000238336],[0.5034375,-0.3274074074074074,2.2956999999880736],[0.5371875,-0.3131481481481482,2.311800000011914],[0.5192708333333333,-0.3374074074074074,2.3296999999880796],[0.47843749999999996,-0.37222222222222223,2.3491999999880733],[0.47843749999999996,-0.37222222222222223,2.3593000000119133],[0.47708333333333336,-0.39148148148148143,2.3759999999999906],[0.496875,-0.39037037037037037,2.3924999999999983],[0.5202083333333334,-0.40129629629629626,2.4110000000000014],[0.5202083333333334,-0.40129629629629626,2.4265000000000043],[0.5452083333333334,-0.395,2.4426000000238446],[0.5452083333333334,-0.395,2.4591999999880727],[0.5825,-0.38555555555555554,2.4759000000357645],[0.6034375,-0.3701851851851851,2.497100000023835],[0.6338541666666667,-0.3568518518518518,2.513900000035761],[0.6338541666666667,-0.3568518518518518,2.5259999999999962],[0.6621875,-0.3492592592592593,2.542600000023839],[0.6720833333333334,-0.33370370370370367,2.5600000000000023],[0.6806250000000001,-0.33185185185185184,2.5781999999880725],[0.6669791666666666,-0.3296296296296296,2.593999999999994],[0.6346875,-0.33648148148148144,2.6118000000119252],[0.6346875,-0.33648148148148144,2.625900000035756],[0.6042708333333332,-0.3320370370370371,2.642600000023833],[0.5584374999999999,-0.3483333333333334,2.6591999999880755],[0.5221874999999999,-0.3448148148148148,2.6764000000357555],[0.5023958333333333,-0.322037037037037,2.6951000000238423],[0.45343749999999994,-0.3314814814814815,2.7134000000357616],[0.3636458333333332,-0.3272222222222222,2.7311999999880783],[0.30968749999999995,-0.3133333333333333,2.7471999999880836],[0.30968749999999995,-0.3133333333333333,2.759400000035754],[0.24249999999999997,-0.2757407407407407,2.7761000000238454],[0.24249999999999997,-0.2757407407407407,2.792600000023839],[0.18385416666666668,-0.23111111111111113,2.809300000011916],[0.1171875,-0.1983333333333334,2.8299000000357637],[0.04864583333333338,-0.17685185185185184,2.846400000035757],[-0.0032291666666666905,-0.15999999999999995,2.8626000000238463],[-0.05499999999999995,-0.15166666666666662,2.880499999999998],[-0.12281249999999998,-0.1661111111111111,2.897400000035759],[-0.12281249999999998,-0.1661111111111111,2.9091999999880755],[-0.1694791666666667,-0.13388888888888892,2.9259000000357673],[-0.17458333333333337,-0.11351851851851855,2.9429000000357632],[-0.1796875,-0.09314814814814817,2.9599999999999937],[-0.1748958333333333,-0.09000000000000004,2.977600000023841],[-0.17999999999999997,-0.09166666666666666,2.9926000000238417],[-0.17312500000000006,-0.11314814814814819,3.0106000000238424],[-0.16625000000000004,-0.1346296296296296,3.026400000035764],[-0.1670833333333333,-0.14222222222222225,3.044699999988083],[-0.16791666666666671,-0.14981481481481476,3.0606000000238396],[-0.16791666666666671,-0.14981481481481476,3.075900000035759],[-0.16124999999999995,-0.14092592592592595,3.092600000023836],[-0.16124999999999995,-0.14092592592592595,3.1091999999880784],[-0.1765625,-0.14944444444444444,3.125900000035756],[-0.17541666666666664,-0.1801851851851852,3.1424999999999983],[-0.19302083333333328,-0.2064814814814815,3.1606999999880827],[-0.19302083333333328,-0.2064814814814815,3.1761999999880715],[-0.20593750000000005,-0.22555555555555556,3.1926000000238446],[-0.16281249999999994,-0.2644444444444445,3.2103000000119124],[-0.16281249999999994,-0.2644444444444445,3.2259000000357645],[-0.10989583333333333,-0.2705555555555556,3.2426999999880763],[-0.06989583333333335,-0.2831481481481481,3.259300000011919],[-0.019166666666666644,-0.30185185185185187,3.2759000000357616],[0.03156249999999995,-0.3205555555555556,3.292600000023839],[0.09666666666666662,-0.3605555555555555,3.313999999999993],[0.09666666666666662,-0.3605555555555555,3.325900000035759],[0.18229166666666666,-0.3955555555555556,3.342600000023836],[0.2556250000000001,-0.4081481481481481,3.3594000000357624],[0.33614583333333337,-0.4131481481481482,3.3806000000238328],[0.4166666666666667,-0.41814814814814816,3.395400000035764],[0.4166666666666667,-0.41814814814814816,3.4094000000357596],[0.4513541666666666,-0.41333333333333333,3.426000000000002],[0.4513541666666666,-0.41333333333333333,3.442699999988079],[0.46989583333333323,-0.4274074074074074,3.459300000011922],[0.5102083333333333,-0.4448148148148148,3.4758000000119154],[0.5172916666666666,-0.4661111111111111,3.4926000000238417],[0.5553124999999999,-0.45314814814814813,3.512500000000003],[0.5633333333333332,-0.4396296296296296,3.5299000000357665],[0.5713541666666667,-0.42611111111111116,3.547100000023846],[0.5472916666666667,-0.44814814814814813,3.562600000023835],[0.5347916666666668,-0.48222222222222216,3.5806000000238356],[0.53125,-0.5029629629629631,3.596400000035757],[0.5175,-0.5137037037037037,3.612800000011916],[0.5171875,-0.49962962962962965,3.6298000000119117],[0.4890625,-0.49740740740740746,3.647199999988075],[0.49208333333333343,-0.45851851851851855,3.662300000011925],[0.46416666666666656,-0.45388888888888895,3.679000000000002],[0.4443749999999999,-0.445,3.694999999999993],[0.42302083333333323,-0.46055555555555555,3.712999999999994],[0.4288541666666667,-0.4425925925925926,3.7298000000119202],[0.44656250000000003,-0.4448148148148148,3.7466000000238324],[0.4553124999999999,-0.46037037037037043,3.7626999999880724],[0.45343749999999994,-0.5,3.780100000023836],[0.43802083333333336,-0.557962962962963,3.7951000000238366],[0.44520833333333343,-0.5948148148148148,3.8114999999999952],[0.44854166666666656,-0.6640740740740741,3.8283000000119216],[0.4418750000000001,-0.7235185185185184,3.847400000035762],[0.4418750000000001,-0.7235185185185184,3.8591999999880784],[0.45187499999999997,-0.7816666666666667,3.875900000035756],[0.4634375000000001,-0.8153703703703704,3.892699999988082],[0.4602083333333333,-0.859074074074074,3.9091999999880755],[0.4602083333333333,-0.859074074074074,3.926000000000002],[0.4622916666666666,-0.8846296296296297,3.942699999988079],[0.4375,-0.9062962962962963,3.9591999999880727],[0.4265625,-0.8898148148148148,3.9759000000357645],[0.39166666666666666,-0.8875925925925926,3.9939999999999998],[0.353125,-0.8848148148148148,4.009500000000003],[0.31187500000000007,-0.8538888888888889,4.027699999988073],[0.28062500000000007,-0.8327777777777777,4.043100000023841],[0.28062500000000007,-0.8327777777777777,4.059300000011916],[0.22072916666666675,-0.8400000000000001,4.075900000035759],[0.16083333333333344,-0.8472222222222222,4.093300000011922],[0.10989583333333333,-0.8531481481481481,4.109199999988078],[0.10989583333333333,-0.8531481481481481,4.125999999999991],[0.041770833333333354,-0.857037037037037,4.142600000023833],[0.010104166666666714,-0.8692592592592592,4.159300000011925],[-0.030208333333333334,-0.8572222222222222,4.177199999988076],[-0.030208333333333334,-0.8572222222222222,4.192600000023845],[-0.04656250000000005,-0.830925925925926,4.209199999988073],[-0.05375000000000003,-0.7570370370370371,4.227199999988073],[-0.028437499999999952,-0.7777777777777778,4.2428000000119255],[-0.003125,-0.7985185185185185,4.2636000000238425],[0.03218749999999997,-0.8322222222222222,4.280100000023836],[0.07364583333333338,-0.8390740740740741,4.296699999988078],[0.1209374999999999,-0.8372222222222223,4.312300000011916],[0.1209374999999999,-0.8372222222222223,4.325900000035759],[0.18125,-0.8468518518518519,4.342600000023836],[0.23937499999999995,-0.8516666666666666,4.359199999988078],[0.2934375000000001,-0.9253703703703704,4.375900000035756],[0.35812499999999997,-0.9479629629629629,4.393000000000001],[0.40989583333333335,-1.0405555555555555,4.411900000035757],[0.43781249999999994,-1.0725925925925928,4.430900000035763],[0.43781249999999994,-1.0725925925925928,4.442600000023845],[0.4721874999999999,-1.0855555555555556,4.459499999999991],[0.5130208333333334,-1.0629629629629629,4.477100000023839],[0.5477083333333332,-1.067222222222222,4.510600000023842],[0.5477083333333332,-1.067222222222222,4.521500000000003],[0.5477083333333332,-1.067222222222222,4.526100000023845],[0.5838541666666667,-1.0574074074074074,4.542500000000004],[0.6129166666666668,-1.0346296296296298,4.559199999988081],[0.6360416666666666,-1.011111111111111,4.575900000035759],[0.6679166666666667,-0.9512962962962964,4.59769999998808],[0.6679166666666667,-0.9512962962962964,4.609199999988078],[0.6909375,-0.9583333333333334,4.625900000035756],[0.705,-0.9364814814814815,4.642699999988082],[0.7109375,-0.9316666666666668,4.659300000011925],[0.7109375,-0.9316666666666668,4.675900000035767],[0.7383333333333333,-0.9724074074074075,4.692600000023845],[0.7384375000000001,-0.984074074074074,4.709199999988073],[0.7321875000000001,-0.9890740740740741,4.7259000000357645],[0.7321875000000001,-0.9890740740740741,4.742499999999993],[0.7208333333333333,-0.9987037037037036,4.75919999998807],[0.7003125,-1.0003703703703704,4.775900000035762],[0.6952083333333334,-1.0522222222222224,4.792500000000004],[0.6952083333333334,-1.0522222222222224,4.809300000011916],[0.6908333333333334,-1.1098148148148148,4.825900000035759],[0.7014583333333334,-1.1185185185185185,4.842500000000001],[0.7184375000000001,-1.1096296296296297,4.859199999988078],[0.7184375000000001,-1.1096296296296297,4.875900000035756],[0.7376041666666666,-1.0777777777777777,4.892499999999998],[0.7447916666666666,-1,4.9091999999880755],[0.7819791666666667,-0.9442592592592592,4.925900000035767],[0.7891666666666666,-0.9224074074074075,4.942900000035763],[0.8,-0.9099999999999999,4.959199999988073],[0.8121875000000001,-0.9016666666666666,4.976199999988083],[0.8075,-0.8442592592592593,4.992600000023842],[0.7944791666666667,-0.8205555555555556,5.00919999998807],[0.7646874999999999,-0.83,5.025900000035762],[0.7547916666666665,-0.8453703703703703,5.0426999999880735],[0.7448958333333332,-0.8607407407407408,5.059199999988081],[0.7363541666666668,-0.8901851851851852,5.075900000035759],[0.720625,-0.9222222222222223,5.092500000000001],[0.7289583333333333,-0.9455555555555556,5.109199999988078],[0.7372916666666666,-0.968888888888889,5.125800000011921],[0.7483333333333334,-1.0105555555555557,5.143100000023836],[0.7389583333333334,-0.9890740740740741,5.159300000011925],[0.7504166666666667,-0.9437037037037037,5.176100000023837],[0.7692708333333333,-0.942037037037037,5.1924999999999955],[0.7745833333333333,-0.9585185185185185,5.209199999988073],[0.7907291666666666,-0.9722222222222222,5.2259000000357645],[0.7705208333333334,-1.006111111111111,5.242600000023842],[0.7470833333333334,-0.9925925925925926,5.25919999998807],[0.7359375,-0.9605555555555556,5.275900000035762],[0.7247916666666666,-0.9285185185185185,5.292800000011923],[0.7189583333333334,-0.866111111111111,5.309199999988081],[0.7335416666666668,-0.8668518518518519,5.325900000035759],[0.7335416666666668,-0.8607407407407408,5.342699999988071],[0.7340625000000001,-0.8411111111111111,5.359199999988078],[0.7242708333333333,-0.8311111111111111,5.375900000035756],[0.7036458333333333,-0.8238888888888889,5.392499999999998],[0.6965625000000001,-0.8098148148148149,5.4091999999880755],[0.6965625000000001,-0.8098148148148149,5.426000000000002],[0.6927083333333334,-0.8431481481481482,5.442600000023845],[0.6901041666666666,-0.8422222222222222,5.459199999988073],[0.6929166666666667,-0.8327777777777777,5.4759000000357645],[0.6929166666666667,-0.8327777777777777,5.492600000023842],[0.6895833333333333,-0.8407407407407408,5.509300000011919],[0.6944791666666668,-0.8374074074074074,5.525900000035762],[0.6895833333333333,-0.8444444444444444,5.542500000000004],[0.6895833333333333,-0.8444444444444444,5.559199999988081],[0.6767708333333334,-0.8212962962962963,5.575900000035759],[0.6678124999999999,-0.7814814814814814,5.592500000000001],[0.6588541666666666,-0.7416666666666667,5.609199999988078],[0.6588541666666666,-0.7416666666666667,5.625900000035756],[0.6639583333333334,-0.6994444444444444,5.642499999999998],[0.6585416666666667,-0.6814814814814815,5.6591999999880755],[0.651875,-0.6977777777777778,5.676000000000002],[0.6397916666666668,-0.7225925925925926,5.697000000000003],[0.6397916666666668,-0.7225925925925926,5.709300000011922],[0.6463541666666667,-0.7772222222222221,5.725800000011915],[0.6439583333333334,-0.8074074074074075,5.745800000011926],[0.6439583333333334,-0.8074074074074075,5.75919999998807],[0.6534375,-0.8242592592592592,5.775900000035762],[0.6405208333333334,-0.8285185185185184,5.792500000000004],[0.6069791666666667,-0.8162962962962963,5.809199999988081],[0.5734375,-0.804074074074074,5.825999999999993],[0.4852083333333333,-0.7616666666666667,5.842500000000001],[0.40750000000000003,-0.6950000000000001,5.859100000023844],[0.3328125,-0.612037037037037,5.876300000011923],[0.26552083333333343,-0.5425925925925926,5.892600000023833],[0.17718749999999991,-0.4522222222222222,5.910499999999999],[0.08958333333333333,-0.39759259259259255,5.925900000035767],[-0.008333333333333333,-0.3507407407407407,5.9424999999999955],[-0.08385416666666666,-0.3164814814814814,5.959300000011922],[-0.13802083333333334,-0.25277777777777777,5.9759000000357645],[-0.17708333333333334,-0.2366666666666667,5.992699999988076],[-0.1892708333333334,-0.21518518518518517,6.009300000011919],[-0.20125000000000004,-0.20481481481481487,6.02619999998808],[-0.21625000000000003,-0.21074074074074076,6.043900000035762],[-0.228125,-0.2366666666666667,6.059300000011916],[-0.2376041666666667,-0.2537037037037037,6.075900000035759],[-0.24708333333333338,-0.2707407407407407,6.092600000023836],[-0.24708333333333338,-0.2707407407407407,6.109199999988078],[-0.2436458333333333,-0.27870370370370373,6.125900000035756],[-0.23864583333333336,-0.28351851851851856,6.142600000023833],[-0.2313541666666667,-0.3164814814814814,6.1591999999880755],[-0.24874999999999994,-0.3025925925925925,6.175800000011918],[-0.246875,-0.31870370370370377,6.1924999999999955],[-0.23833333333333329,-0.3162962962962963,6.209199999988073],[-0.2297916666666667,-0.3138888888888889,6.2259000000357645],[-0.2297916666666667,-0.3138888888888889,6.242600000023842],[-0.22822916666666668,-0.2809259259259259,6.25919999998807],[-0.2469791666666667,-0.24407407407407408,6.275900000035762],[-0.2657291666666667,-0.20722222222222217,6.292500000000004],[-0.2657291666666667,-0.20722222222222217,6.309199999988081],[-0.26885416666666667,-0.17314814814814813,6.325900000035759],[-0.284375,-0.1787037037037037,6.3430000000000035],[-0.30114583333333333,-0.17037037037037037,6.360500000000002],[-0.30114583333333333,-0.17037037037037037,6.375900000035756],[-0.30833333333333335,-0.16129629629629633,6.392600000023833],[-0.30833333333333335,-0.16129629629629633,6.409300000011925],[-0.3138541666666666,-0.15629629629629627,6.426000000000002],[-0.3138541666666666,-0.15629629629629627,6.442699999988079],[-0.3123958333333333,-0.13962962962962958,6.459199999988073],[-0.31375000000000003,-0.1655555555555555,6.4759000000357645],[-0.3207291666666666,-0.18648148148148147,6.492499999999993],[-0.31218750000000006,-0.17481481481481478,6.513199999988075],[-0.30364583333333334,-0.16314814814814818,6.529600000023834],[-0.32312500000000005,-0.13425925925925927,6.546300000011925],[-0.33177083333333335,-0.06888888888888887,6.562300000011916],[-0.33177083333333335,-0.06888888888888887,6.575900000035759],[-0.3051041666666666,-0.09944444444444442,6.592500000000001],[-0.2140625,-0.13425925925925927,6.609199999988078],[-0.12770833333333337,-0.1594444444444445,6.625900000035756],[-0.028750000000000022,-0.14574074074074073,6.643999999999991],[0.07083333333333333,-0.10759259259259263,6.662100000023841],[0.18218750000000009,-0.08740740740740739,6.678800000011918],[0.30791666666666656,-0.10777777777777775,6.694900000035759],[0.38270833333333343,-0.13796296296296295,6.714300000011917],[0.38270833333333343,-0.13796296296296295,6.7259000000357645],[0.45125000000000004,-0.1925925925925926,6.742600000023842],[0.5146874999999999,-0.2442592592592592,6.759100000023835],[0.551875,-0.2390740740740741,6.776900000035766],[0.5152083333333333,-0.23203703703703707,6.795699999988074],[0.4830208333333334,-0.22870370370370371,6.8121000000238325],[0.4210416666666667,-0.2927777777777778,6.828900000035759],[0.36124999999999996,-0.3387037037037037,6.847400000035762],[0.29354166666666665,-0.37222222222222223,6.8631000000238345],[0.21624999999999991,-0.4016666666666666,6.8785000000000025],[0.1898958333333333,-0.4212962962962963,6.894699999988077],[0.16572916666666657,-0.4148148148148148,6.912800000011913],[0.15260416666666668,-0.4225925925925926,6.93040000003576],[0.1414583333333333,-0.45685185185185184,6.947800000011924],[0.14635416666666667,-0.47555555555555556,6.963499999999996],[0.13489583333333333,-0.5031481481481481,6.9809999999999945],[0.13489583333333333,-0.5031481481481481,6.992499999999993],[0.11229166666666662,-0.5205555555555555,7.00919999998807],[0.10499999999999995,-0.5112962962962964,7.0271999999880705],[0.10416666666666667,-0.5214814814814815,7.042600000023839],[0.10333333333333337,-0.5316666666666667,7.062800000011919],[0.078125,-0.544074074074074,7.0781999999880725],[0.06677083333333324,-0.5738888888888889,7.09280000001192],[0.07708333333333334,-0.6068518518518519,7.109100000023844],[0.07708333333333334,-0.6068518518518519,7.125900000035756],[0.08104166666666662,-0.6129629629629629,7.142499999999998],[0.034791666666666644,-0.615925925925926,7.159100000023841],[0.008020833333333382,-0.602037037037037,7.175800000011918],[-0.008854166666666666,-0.5900000000000001,7.194300000011921],[-0.04104166666666664,-0.6046296296296296,7.211300000011917],[-0.08989583333333329,-0.5855555555555555,7.226300000011918],[-0.13510416666666672,-0.5692592592592592,7.242499999999993],[-0.1626041666666667,-0.5733333333333334,7.26310000002384],[-0.19458333333333327,-0.5898148148148148,7.278600000023843],[-0.24968750000000003,-0.5794444444444444,7.292800000011923],[-0.31520833333333337,-0.5514814814814815,7.309100000023832],[-0.33708333333333335,-0.5398148148148149,7.328100000023838],[-0.3455208333333334,-0.5375925925925926,7.345699999988071],[-0.349375,-0.5342592592592592,7.363600000023837],[-0.3272916666666667,-0.4383333333333333,7.379600000023842],[-0.3272916666666667,-0.4383333333333333,7.392699999988082],[-0.30416666666666664,-0.35462962962962963,7.409499999999994],[-0.23270833333333332,-0.3237037037037037,7.435100000023837],[-0.23270833333333332,-0.3237037037037037,7.44369999998807],[-0.1578125,-0.22148148148148153,7.459499999999991],[-0.04072916666666669,-0.1161111111111111,7.478199999988078],[0.071875,-0.023148148148148147,7.495800000011926],[0.12291666666666666,0.10351851851851848,7.510800000011912],[0.19729166666666675,0.2242592592592593,7.5296999999880825],[0.24406249999999996,0.3175925925925926,7.549300000011925],[0.24406249999999996,0.3175925925925926,7.559600000023835],[0.29052083333333345,0.42851851851851847,7.5761000000238425],[0.3318749999999999,0.46148148148148155,7.595199999988083],[0.3806250000000001,0.4959259259259258,7.6144999999999925],[0.3806250000000001,0.4959259259259258,7.62610000002384],[0.34885416666666674,0.5637037037037037,7.642800000011917],[0.3145833333333333,0.6109259259259259,7.65940000003576],[0.2630208333333333,0.6022222222222223,7.680199999988076],[0.21760416666666677,0.5851851851851851,7.695100000023842],[0.21447916666666675,0.5475925925925926,7.710300000011912],[0.196875,0.532037037037037,7.733100000023839],[0.196875,0.532037037037037,7.742699999988076],[0.1525000000000001,0.5733333333333334,7.759400000035754],[0.10718750000000009,0.5857407407407407,7.775999999999996],[0.04104166666666664,0.5835185185185185,7.795800000011923],[-0.011354166666666643,0.5664814814814815,7.812699999988084],[-0.035208333333333286,0.5716666666666668,7.828699999988075],[-0.03697916666666667,0.5477777777777777,7.846300000011922],[-0.008437500000000023,0.5590740740740741,7.86190000003576],[-0.008437500000000023,0.5590740740740741,7.875900000035756],[0.00614583333333331,0.6107407407407407,7.892600000023833],[0.03687499999999998,0.643148148148148,7.9126000000238434],[0.06020833333333329,0.6272222222222223,7.928800000011918],[0.06020833333333329,0.6272222222222223,7.942800000011914],[0.11989583333333324,0.5814814814814815,7.962100000023838],[0.16437499999999997,0.5479629629629629,7.978499999999997],[0.22385416666666677,0.5074074074074074,7.9950000000000045],[0.22385416666666677,0.5074074074074074,8.009300000011919],[0.2695833333333333,0.4816666666666667,8.028999999999996],[0.3402083333333332,0.46537037037037027,8.046100000023841],[0.3883333333333333,0.444074074074074,8.062100000023833],[0.3883333333333333,0.444074074074074,8.075999999999993],[0.3857291666666666,0.4527777777777778,8.095500000000001],[0.384375,0.4101851851851852,8.110300000011918],[0.39656250000000004,0.35611111111111104,8.127699999988081],[0.39656250000000004,0.35611111111111104,8.142699999988082],[0.42041666666666655,0.34018518518518526,8.162199999988076],[0.42156250000000006,0.3224074074074075,8.178300000011916],[0.4391666666666666,0.3037037037037037,8.195300000011912],[0.4365624999999999,0.3079629629629629,8.211900000035754],[0.43166666666666675,0.3050000000000001,8.229500000000002],[0.41916666666666674,0.26222222222222225,8.245499999999993],[0.41281249999999997,0.22537037037037044,8.260900000035761],[0.4317708333333333,0.21129629629629634,8.277999999999992],[0.45729166666666665,0.21648148148148144,8.294400000035765],[0.46760416666666677,0.2390740740740741,8.309300000011916],[0.4337500000000001,0.24611111111111106,8.326100000023843],[0.44593749999999993,0.2646296296296296,8.343499999999992],[0.46281249999999996,0.2800000000000001,8.362900000035765],[0.48489583333333336,0.2794444444444444,8.37910000002384],[0.48489583333333336,0.2794444444444444,8.392499999999998],[0.5332291666666668,0.2742592592592593,8.409300000011925],[0.5630208333333333,0.2975925925925927,8.430499999999995],[0.5630208333333333,0.2975925925925927,8.442499999999995],[0.5928124999999999,0.32092592592592584,8.459199999988073],[0.5927083333333333,0.3198148148148149,8.478499999999997],[0.5926041666666667,0.31870370370370377,8.495699999988076],[0.6141666666666665,0.30185185185185187,8.511499999999998],[0.6839583333333332,0.2946296296296297,8.529900000035767],[0.6839583333333332,0.2946296296296297,8.549499999999995],[0.71875,0.2814814814814815,8.566699999988074],[0.71875,0.2814814814814815,8.575800000011924],[0.7426041666666667,0.2683333333333333,8.592500000000001],[0.7495833333333333,0.24962962962962953,8.609100000023844],[0.7495833333333333,0.24962962962962953,8.625800000011921],[0.7285416666666668,0.26722222222222214,8.642499999999998],[0.7223958333333333,0.2598148148148147,8.659100000023841],[0.7159375,0.2616666666666666,8.675800000011918],[0.7159375,0.2616666666666666,8.692499999999995],[0.7146874999999999,0.2705555555555556,8.709199999988073],[0.7082291666666668,0.2757407407407407,8.728300000011913],[0.683125,0.2927777777777778,8.743800000011916],[0.683125,0.2927777777777778,8.75919999998807],[0.6501041666666666,0.26962962962962966,8.775900000035762],[0.6398958333333333,0.255925925925926,8.792500000000004],[0.6359375,0.2442592592592592,8.809100000023832],[0.6359375,0.2442592592592592,8.825800000011924],[0.6486458333333334,0.24777777777777768,8.842500000000001],[0.6471874999999999,0.23351851851851857,8.862100000023844],[0.6320833333333333,0.24611111111111106,8.875900000035756],[0.6172916666666666,0.24944444444444452,8.892699999988082],[0.6047916666666666,0.23962962962962958,8.909199999988076],[0.59875,0.23259259259259263,8.925800000011918],[0.6068749999999999,0.21074074074074065,8.94240000003576],[0.6057291666666667,0.22907407407407415,8.960499999999996],[0.5917708333333332,0.19962962962962955,8.97869999998808],[0.5778125000000001,0.1712962962962963,8.992499999999993],[0.5679166666666667,0.1638888888888889,9.00919999998807],[0.5662499999999999,0.13759259259259252,9.027900000035757],[0.578125,0.11333333333333341,9.044800000011918],[0.5859375,0.08833333333333342,9.059100000023832],[0.5924999999999999,0.0772222222222223,9.075800000011924],[0.5978125000000001,0.06703703703703712,9.093000000000004],[0.6073958333333332,0.04759259259259268,9.109100000023844],[0.6169791666666666,0.02814814814814823,9.125800000011921],[0.6247916666666666,0.0338888888888888,9.142499999999998],[0.6345833333333334,0.052407407407407326,9.159199999988076],[0.6496875000000001,-0.052037037037037076,9.175900000035767],[0.6648958333333332,-0.1559259259259259,9.19240000003576],[0.6766666666666665,-0.2627777777777777,9.209199999988073],[0.7004166666666668,-0.3464814814814815,9.226199999988083],[0.7004166666666668,-0.3464814814814815,9.242499999999993],[0.7224999999999999,-0.43629629629629635,9.261600000023833],[0.7154166666666666,-0.47240740740740744,9.276100000023845],[0.7020833333333333,-0.49796296296296294,9.292699999988074],[0.6908333333333334,-0.5498148148148148,9.309300000011916],[0.6830208333333334,-0.5922222222222222,9.328300000011922],[0.6570833333333332,-0.6025925925925926,9.344400000035762],[0.6227083333333333,-0.5074074074074074,9.359600000023846],[0