inst1_resp.keys,inst1_resp.rt,calibrationMouse.x,calibrationMouse.y,calibrationMouse.leftButton,calibrationMouse.midButton,calibrationMouse.rightButton,calibrationClick.x,calibrationClick.y,calibrationClick.leftButton,calibrationClick.midButton,calibrationClick.rightButton,calibrationClick.clicked_name,trialsc.thisRepN,trialsc.thisTrialN,trialsc.thisN,trialsc.thisIndex,trialsc.ran,calibration_x,calibration_y,participant,session,date,expName,psychopyVersion,OS,frameRate,ScreenRes_pixels,Camera_pixels,mouse_2.x,mouse_2.y,mouse_2.leftButton,mouse_2.midButton,mouse_2.rightButton,mouse_2.time,mouse_2.clicked_name,mouse.x,mouse.y,mouse.leftButton,mouse.midButton,mouse.rightButton,mouse.time,mouse.clicked_name,Choice,Trial,TrialDuration,MOUSE_GAZE,ET_GAZE,ET_GAZE_x_T,time,unixTime,ET_GAZE_NF,Loc_Bus_label,Loc_Metro_label,Loc_RH_label,Loc_Cost_label,Loc_Travel_label,Loc_Comfort_label,Loc_Bus_cost,Loc_Metro_cost,Loc_RH_cost,Loc_Bus_travel,Loc_Metro_travel,Loc_RH_travel,Loc_Bus_comfort,Loc_Metro_comfort,Loc_RH_comfort,trials.thisRepN,trials.thisTrialN,trials.thisN,trials.thisIndex,trials.ran,Block,Device,RH_cost,RH_travel_time,RH_Comfort,metro_cost,metro_travel_time,metro_Comfort,Bus_cost,Bus_travel_time,Bus_Comfort
space,3.3809,0.017708333,0.055555556,1,0,0,0.003125,0.003703704,1,0,0,calibration_square,0,0,0,11,1,0,0,10,001,2024-11-27_15h36.35.055,Attention_exp_legacy,2023.1.0,Win32,60.24096386,,,,,,,,,,,,,,,,,,,,,,,,,,,,,,,,,,,,,,,,,,,,,,,,,,,,,,,,
,,,,,,,0.659375,-0.664814815,1,0,0,,0,1,1,20,1,0.67,-0.67,10,001,2024-11-27_15h36.35.055,Attention_exp_legacy,2023.1.0,Win32,60.24096386,,,,,,,,,,,,,,,,,,,,,,,,,,,,,,,,,,,,,,,,,,,,,,,,,,,,,,,,
,,,,,,,0.328125,-0.672222222,1,0,0,calibration_square,0,2,2,14,1,0.33,-0.67,10,001,2024-11-27_15h36.35.055,Attention_exp_legacy,2023.1.0,Win32,60.24096386,,,,,,,,,,,,,,,,,,,,,,,,,,,,,,,,,,,,,,,,,,,,,,,,,,,,,,,,
,,,,,,,0.320833333,0.67962963,1,0,0,calibration_square,0,3,3,18,1,0.33,0.67,10,001,2024-11-27_15h36.35.055,Attention_exp_legacy,2023.1.0,Win32,60.24096386,,,,,,,,,,,,,,,,,,,,,,,,,,,,,,,,,,,,,,,,,,,,,,,,,,,,,,,,
,,,,,,,0.325,-0.324074074,1,0,0,calibration_square,0,4,4,15,1,0.33,-0.33,10,001,2024-11-27_15h36.35.055,Attention_exp_legacy,2023.1.0,Win32,60.24096386,,,,,,,,,,,,,,,,,,,,,,,,,,,,,,,,,,,,,,,,,,,,,,,,,,,,,,,,
,,,,,,,0,-0.672222222,1,0,0,calibration_square,0,5,5,9,1,0,-0.67,10,001,2024-11-27_15h36.35.055,Attention_exp_legacy,2023.1.0,Win32,60.24096386,,,,,,,,,,,,,,,,,,,,,,,,,,,,,,,,,,,,,,,,,,,,,,,,,,,,,,,,
,,,,,,,-0.333333333,0.674074074,1,0,0,calibration_square,0,6,6,8,1,-0.33,0.67,10,001,2024-11-27_15h36.35.055,Attention_exp_legacy,2023.1.0,Win32,60.24096386,,,,,,,,,,,,,,,,,,,,,,,,,,,,,,,,,,,,,,,,,,,,,,,,,,,,,,,,
,,,,,,,-0.663541667,-0.67037037,1,0,0,calibration_square,0,7,7,0,1,-0.67,-0.67,10,001,2024-11-27_15h36.35.055,Attention_exp_legacy,2023.1.0,Win32,60.24096386,,,,,,,,,,,,,,,,,,,,,,,,,,,,,,,,,,,,,,,,,,,,,,,,,,,,,,,,
,,,,,,,-0.001041667,0.666666667,1,0,0,calibration_square,0,8,8,13,1,0,0.67,10,001,2024-11-27_15h36.35.055,Attention_exp_legacy,2023.1.0,Win32,60.24096386,,,,,,,,,,,,,,,,,,,,,,,,,,,,,,,,,,,,,,,,,,,,,,,,,,,,,,,,
,,,,,,,-0.007291667,0.377777778,1,0,0,,0,9,9,12,1,0,0.33,10,001,2024-11-27_15h36.35.055,Attention_exp_legacy,2023.1.0,Win32,60.24096386,,,,,,,,,,,,,,,,,,,,,,,,,,,,,,,,,,,,,,,,,,,,,,,,,,,,,,,,
,,,,,,,-0.680208333,-0.001851852,1,0,0,,0,10,10,2,1,-0.67,0,10,001,2024-11-27_15h36.35.055,Attention_exp_legacy,2023.1.0,Win32,60.24096386,,,,,,,,,,,,,,,,,,,,,,,,,,,,,,,,,,,,,,,,,,,,,,,,,,,,,,,,
,,,,,,,-0.33125,-0.67962963,1,0,0,calibration_square,0,11,11,4,1,-0.33,-0.67,10,001,2024-11-27_15h36.35.055,Attention_exp_legacy,2023.1.0,Win32,60.24096386,,,,,,,,,,,,,,,,,,,,,,,,,,,,,,,,,,,,,,,,,,,,,,,,,,,,,,,,
,,,,,,,-0.68125,0.335185185,1,0,0,,0,12,12,3,1,-0.67,0.33,10,001,2024-11-27_15h36.35.055,Attention_exp_legacy,2023.1.0,Win32,60.24096386,,,,,,,,,,,,,,,,,,,,,,,,,,,,,,,,,,,,,,,,,,,,,,,,,,,,,,,,
,,,,,,,0.323958333,0.337037037,1,0,0,calibration_square,0,13,13,17,1,0.33,0.33,10,001,2024-11-27_15h36.35.055,Attention_exp_legacy,2023.1.0,Win32,60.24096386,,,,,,,,,,,,,,,,,,,,,,,,,,,,,,,,,,,,,,,,,,,,,,,,,,,,,,,,
,,,,,,,0,-0.322222222,1,0,0,calibration_square,0,14,14,10,1,0,-0.33,10,001,2024-11-27_15h36.35.055,Attention_exp_legacy,2023.1.0,Win32,60.24096386,,,,,,,,,,,,,,,,,,,,,,,,,,,,,,,,,,,,,,,,,,,,,,,,,,,,,,,,
,,,,,,,-0.657291667,-0.316666667,1,0,0,,0,15,15,1,1,-0.67,-0.33,10,001,2024-11-27_15h36.35.055,Attention_exp_legacy,2023.1.0,Win32,60.24096386,,,,,,,,,,,,,,,,,,,,,,,,,,,,,,,,,,,,,,,,,,,,,,,,,,,,,,,,
,,,,,,,-0.332291667,-0.340740741,1,0,0,,0,16,16,5,1,-0.33,-0.33,10,001,2024-11-27_15h36.35.055,Attention_exp_legacy,2023.1.0,Win32,60.24096386,,,,,,,,,,,,,,,,,,,,,,,,,,,,,,,,,,,,,,,,,,,,,,,,,,,,,,,,
,,,,,,,0.667708333,0.674074074,1,0,0,calibration_square,0,17,17,19,1,0.67,0.67,10,001,2024-11-27_15h36.35.055,Attention_exp_legacy,2023.1.0,Win32,60.24096386,,,,,,,,,,,,,,,,,,,,,,,,,,,,,,,,,,,,,,,,,,,,,,,,,,,,,,,,
,,,,,,,0.321875,-0.012962963,1,0,0,,0,18,18,16,1,0.33,0,10,001,2024-11-27_15h36.35.055,Attention_exp_legacy,2023.1.0,Win32,60.24096386,,,,,,,,,,,,,,,,,,,,,,,,,,,,,,,,,,,,,,,,,,,,,,,,,,,,,,,,
,,,,,,,-0.333333333,-0.001851852,1,0,0,calibration_square,0,19,19,6,1,-0.33,0,10,001,2024-11-27_15h36.35.055,Attention_exp_legacy,2023.1.0,Win32,60.24096386,,,,,,,,,,,,,,,,,,,,,,,,,,,,,,,,,,,,,,,,,,,,,,,,,,,,,,,,
,,,,,,,-0.351041667,0.338888889,1,0,0,,0,20,20,7,1,-0.33,0.33,10,001,2024-11-27_15h36.35.055,Attention_exp_legacy,2023.1.0,Win32,60.24096386,,,,,,,,,,,,,,,,,,,,,,,,,,,,,,,,,,,,,,,,,,,,,,,,,,,,,,,,
,,,,,,,,,,,,,,,,,,,,10,001,2024-11-27_15h36.35.055,Attention_exp_legacy,2023.1.0,Win32,60.24096386,"[1920,1080]","[640,480]",[0.03333333333333333],[-0.5166666666666667],[1],[0],[0],[1.6118000000119181],"[""StartButton""]",[0.20208333333333334],[0.6166666666666667],[1],[0],[0],[5.9318000000119255],"[""Metro_label""]",Metro_label,1,6.9611,"[[0.01875,-0.1685185185185185],[0.01875,-0.1685185185185185],[0.01875,-0.1685185185185185],[0.01875,-0.1685185185185185],[0.01875,-0.1685185185185185],[0.01875,-0.1685185185185185],[0.01875,-0.1685185185185185],[0.01875,-0.1685185185185185],[0.01875,-0.1685185185185185],[0.01875,-0.1685185185185185],[0.01875,-0.1685185185185185],[0.01875,-0.1685185185185185],[0.01875,-0.1685185185185185],[0.01875,-0.1685185185185185],[0.01875,-0.1685185185185185],[0.01875,-0.1685185185185185],[0.01875,-0.1685185185185185],[0.01875,-0.1685185185185185],[0.01875,-0.1685185185185185],[0.01875,-0.1685185185185185],[0.01875,-0.1685185185185185],[0.01875,-0.1685185185185185],[0.01875,-0.1685185185185185],[0.01875,-0.1685185185185185],[0.01875,-0.1685185185185185],[0.01875,-0.1685185185185185],[0.01875,-0.1685185185185185],[0.01875,-0.1685185185185185],[0.01875,-0.1685185185185185],[0.01875,-0.1685185185185185],[0.01875,-0.1685185185185185],[0.01875,-0.1685185185185185],[0.01875,-0.1685185185185185],[0.01875,-0.1685185185185185],[0.01875,-0.1685185185185185],[0.01875,-0.1685185185185185],[0.017708333333333333,-0.1685185185185185],[0.017708333333333333,-0.1685185185185185],[0.017708333333333333,-0.1685185185185185],[0.017708333333333333,-0.1685185185185185],[0.017708333333333333,-0.1685185185185185],[0.017708333333333333,-0.1685185185185185],[0.016666666666666666,-0.1685185185185185],[0.016666666666666666,-0.1685185185185185],[0.016666666666666666,-0.1685185185185185],[0.016666666666666666,-0.1685185185185185],[0.016666666666666666,-0.1685185185185185],[0.016666666666666666,-0.1685185185185185],[0.016666666666666666,-0.1685185185185185],[0.016666666666666666,-0.1685185185185185],[0.015625,-0.1685185185185185],[0.015625,-0.1685185185185185],[0.015625,-0.1685185185185185],[0.015625,-0.1685185185185185],[0.015625,-0.1685185185185185],[0.015625,-0.1685185185185185],[0.015625,-0.1685185185185185],[0.015625,-0.1685185185185185],[0.015625,-0.1685185185185185],[0.015625,-0.1685185185185185],[0.015625,-0.1685185185185185],[0.015625,-0.1685185185185185],[0.015625,-0.1685185185185185],[0.015625,-0.1685185185185185],[0.015625,-0.1685185185185185],[0.015625,-0.1685185185185185],[0.015625,-0.1685185185185185],[0.015625,-0.1685185185185185],[0.015625,-0.1685185185185185],[0.015625,-0.1685185185185185],[0.0125,-0.1685185185185185],[0.010416666666666666,-0.1685185185185185],[0.00625,-0.1685185185185185],[0.004166666666666667,-0.1685185185185185],[-0.007291666666666667,-0.1685185185185185],[-0.010416666666666666,-0.1685185185185185],[-0.017708333333333333,-0.1685185185185185],[-0.022916666666666665,-0.1685185185185185],[-0.03229166666666667,-0.16296296296296298],[-0.034375,-0.16111111111111112],[-0.03854166666666667,-0.1574074074074074],[-0.03854166666666667,-0.1574074074074074],[-0.03854166666666667,-0.1574074074074074],[-0.03854166666666667,-0.1574074074074074],[-0.03854166666666667,-0.1574074074074074],[-0.03854166666666667,-0.1574074074074074],[-0.03854166666666667,-0.1574074074074074],[-0.03958333333333333,-0.1537037037037037],[-0.040625,-0.15],[-0.041666666666666664,-0.14629629629629629],[-0.041666666666666664,-0.14629629629629629],[-0.041666666666666664,-0.14444444444444443],[-0.041666666666666664,-0.1425925925925926],[-0.040625,-0.14074074074074075],[-0.035416666666666666,-0.13703703703703704],[-0.026041666666666668,-0.12962962962962962],[-0.010416666666666666,-0.12222222222222222],[-0.003125,-0.11851851851851852],[0.030208333333333334,-0.1037037037037037],[0.052083333333333336,-0.09259259259259259],[0.08541666666666667,-0.07407407407407407],[0.09791666666666667,-0.07222222222222222],[0.12604166666666666,-0.05925925925925926],[0.1375,-0.053703703703703705],[0.15520833333333334,-0.040740740740740744],[0.1625,-0.03518518518518519],[0.17291666666666666,-0.03148148148148148],[0.178125,-0.03148148148148148],[0.18125,-0.03148148148148148],[0.184375,-0.03148148148148148],[0.18541666666666667,-0.03148148148148148],[0.18854166666666666,-0.03888888888888889],[0.18854166666666666,-0.05740740740740741],[0.18854166666666666,-0.08148148148148149],[0.18854166666666666,-0.11666666666666667],[0.18541666666666667,-0.13333333333333333],[0.17708333333333334,-0.15185185185185185],[0.17395833333333333,-0.16111111111111112],[0.15729166666666666,-0.19074074074074074],[0.14583333333333334,-0.2037037037037037],[0.13541666666666666,-0.21666666666666667],[0.12604166666666666,-0.22407407407407406],[0.11770833333333333,-0.22777777777777777],[0.10729166666666666,-0.22777777777777777],[0.09583333333333334,-0.23148148148148148],[0.07395833333333333,-0.23703703703703705],[0.06458333333333334,-0.24074074074074073],[0.046875,-0.24074074074074073],[0.027083333333333334,-0.24074074074074073],[-0.00625,-0.24074074074074073],[-0.028125,-0.24074074074074073],[-0.052083333333333336,-0.24074074074074073],[-0.07291666666666667,-0.24074074074074073],[-0.090625,-0.23703703703703705],[-0.10729166666666666,-0.23148148148148148],[-0.11666666666666667,-0.22962962962962963],[-0.12291666666666666,-0.22962962962962963],[-0.128125,-0.22962962962962963],[-0.13229166666666667,-0.22962962962962963],[-0.134375,-0.22962962962962963],[-0.134375,-0.22962962962962963],[-0.134375,-0.22962962962962963],[-0.134375,-0.22962962962962963],[-0.134375,-0.22962962962962963],[-0.134375,-0.22777777777777777],[-0.134375,-0.22777777777777777],[-0.134375,-0.22777777777777777],[-0.134375,-0.22777777777777777],[-0.134375,-0.22777777777777777],[-0.134375,-0.22777777777777777],[-0.134375,-0.22777777777777777],[-0.134375,-0.22777777777777777],[-0.134375,-0.22777777777777777],[-0.134375,-0.22777777777777777],[-0.134375,-0.22777777777777777],[-0.134375,-0.22777777777777777],[-0.134375,-0.22777777777777777],[-0.134375,-0.22777777777777777],[-0.13229166666666667,-0.22777777777777777],[-0.12916666666666668,-0.22777777777777777],[-0.125,-0.22777777777777777],[-0.11875,-0.22777777777777777],[-0.10833333333333334,-0.22777777777777777],[-0.10520833333333333,-0.22777777777777777],[-0.096875,-0.22777777777777777],[-0.078125,-0.22777777777777777],[-0.06666666666666667,-0.22777777777777777],[-0.053125,-0.22777777777777777],[-0.03854166666666667,-0.22777777777777777],[-0.026041666666666668,-0.22777777777777777],[-0.0125,-0.22777777777777777],[0.0020833333333333333,-0.22777777777777777],[0.01875,-0.22777777777777777],[0.0375,-0.22777777777777777],[0.071875,-0.22777777777777777],[0.08645833333333333,-0.22777777777777777],[0.11666666666666667,-0.22777777777777777],[0.1625,-0.22777777777777777],[0.190625,-0.22777777777777777],[0.2125,-0.22777777777777777],[0.228125,-0.22777777777777777],[0.23645833333333333,-0.22777777777777777],[0.240625,-0.22777777777777777],[0.240625,-0.22777777777777777],[0.240625,-0.22777777777777777],[0.240625,-0.22777777777777777],[0.24166666666666667,-0.22777777777777777],[0.24375,-0.22592592592592592],[0.246875,-0.22592592592592592],[0.25,-0.22592592592592592],[0.25416666666666665,-0.22592592592592592],[0.25729166666666664,-0.22592592592592592],[0.25833333333333336,-0.22592592592592592],[0.25833333333333336,-0.22592592592592592],[0.25833333333333336,-0.22592592592592592],[0.25833333333333336,-0.22592592592592592],[0.25833333333333336,-0.22592592592592592],[0.25833333333333336,-0.22592592592592592],[0.25833333333333336,-0.22592592592592592],[0.25833333333333336,-0.22592592592592592],[0.25833333333333336,-0.22592592592592592],[0.25833333333333336,-0.22592592592592592],[0.25833333333333336,-0.22592592592592592],[0.25833333333333336,-0.22592592592592592],[0.25833333333333336,-0.22592592592592592],[0.25833333333333336,-0.22592592592592592],[0.25833333333333336,-0.22592592592592592],[0.25833333333333336,-0.22592592592592592],[0.25833333333333336,-0.22592592592592592],[0.25833333333333336,-0.22592592592592592],[0.25833333333333336,-0.22592592592592592],[0.25833333333333336,-0.22592592592592592],[0.25833333333333336,-0.22592592592592592],[0.25833333333333336,-0.22592592592592592],[0.25833333333333336,-0.22592592592592592],[0.25833333333333336,-0.22592592592592592],[0.25833333333333336,-0.22592592592592592],[0.25833333333333336,-0.22592592592592592],[0.25833333333333336,-0.22592592592592592],[0.25833333333333336,-0.22592592592592592],[0.25833333333333336,-0.22592592592592592],[0.25833333333333336,-0.22592592592592592],[0.25833333333333336,-0.22592592592592592],[0.25833333333333336,-0.22592592592592592],[0.25833333333333336,-0.22592592592592592],[0.25833333333333336,-0.22592592592592592],[0.25833333333333336,-0.22592592592592592],[0.25833333333333336,-0.22592592592592592],[0.25833333333333336,-0.22592592592592592],[0.25833333333333336,-0.22592592592592592],[0.25833333333333336,-0.22592592592592592],[0.25833333333333336,-0.22592592592592592],[0.25833333333333336,-0.22592592592592592],[0.25833333333333336,-0.22592592592592592],[0.25833333333333336,-0.22592592592592592],[0.25833333333333336,-0.22592592592592592],[0.25833333333333336,-0.22592592592592592],[0.25833333333333336,-0.22592592592592592],[0.25833333333333336,-0.22407407407407406],[0.25833333333333336,-0.22407407407407406],[0.25833333333333336,-0.22407407407407406],[0.25833333333333336,-0.22407407407407406],[0.25833333333333336,-0.22407407407407406],[0.25833333333333336,-0.22407407407407406],[0.25833333333333336,-0.22407407407407406],[0.25833333333333336,-0.22407407407407406],[0.25833333333333336,-0.22407407407407406],[0.25729166666666664,-0.22407407407407406],[0.25625,-0.22407407407407406],[0.2552083333333333,-0.22407407407407406],[0.2552083333333333,-0.22407407407407406],[0.2552083333333333,-0.22407407407407406],[0.25416666666666665,-0.22407407407407406],[0.2520833333333333,-0.2222222222222222],[0.2520833333333333,-0.2222222222222222],[0.25104166666666666,-0.2222222222222222],[0.24895833333333334,-0.2222222222222222],[0.24895833333333334,-0.2222222222222222],[0.24791666666666667,-0.2222222222222222],[0.24583333333333332,-0.2222222222222222],[0.24583333333333332,-0.2222222222222222],[0.24583333333333332,-0.2222222222222222],[0.24583333333333332,-0.2222222222222222],[0.24583333333333332,-0.2222222222222222],[0.24583333333333332,-0.2222222222222222],[0.24479166666666666,-0.2222222222222222],[0.24479166666666666,-0.2222222222222222],[0.24479166666666666,-0.2222222222222222],[0.24479166666666666,-0.2222222222222222],[0.24270833333333333,-0.2222222222222222],[0.24270833333333333,-0.2222222222222222],[0.24270833333333333,-0.2222222222222222],[0.24270833333333333,-0.2222222222222222],[0.24270833333333333,-0.2222222222222222],[0.24270833333333333,-0.2222222222222222],[0.24270833333333333,-0.2222222222222222],[0.24270833333333333,-0.2222222222222222],[0.24270833333333333,-0.2222222222222222],[0.24270833333333333,-0.2222222222222222],[0.24270833333333333,-0.2222222222222222],[0.24270833333333333,-0.2222222222222222],[0.24270833333333333,-0.2222222222222222],[0.24270833333333333,-0.2222222222222222],[0.24270833333333333,-0.2222222222222222],[0.24270833333333333,-0.2222222222222222],[0.24270833333333333,-0.2222222222222222],[0.24270833333333333,-0.2222222222222222],[0.24270833333333333,-0.2222222222222222],[0.24166666666666667,-0.2222222222222222],[0.23854166666666668,-0.21481481481481482],[0.2375,-0.1814814814814815],[0.2375,-0.09259259259259259],[0.23125,0.04259259259259259],[0.221875,0.17777777777777778],[0.21145833333333333,0.30925925925925923],[0.20104166666666667,0.4203703703703704],[0.19375,0.524074074074074],[0.19375,0.5648148148148148],[0.19375,0.5907407407407408],[0.19583333333333333,0.6092592592592593],[0.196875,0.6277777777777778],[0.19895833333333332,0.6462962962962963],[0.2,0.6555555555555556],[0.2,0.6648148148148149],[0.2,0.6648148148148149],[0.2,0.6648148148148149],[0.2,0.6648148148148149],[0.2,0.6648148148148149],[0.2,0.6648148148148149],[0.2,0.6648148148148149],[0.2,0.6648148148148149],[0.2,0.6648148148148149],[0.2,0.6648148148148149],[0.2,0.6648148148148149],[0.2,0.6648148148148149],[0.2,0.6648148148148149],[0.2,0.6648148148148149],[0.2,0.662962962962963],[0.2,0.6518518518518519],[0.2,0.6444444444444445],[0.2,0.6370370370370371],[0.2,0.6277777777777778],[0.2,0.6240740740740741],[0.2,0.6203703703703703],[0.2,0.6185185185185185],[0.2,0.6185185185185185],[0.2,0.6185185185185185],[0.2,0.6185185185185185],[0.2,0.6185185185185185],[0.2,0.6185185185185185],[0.2,0.6185185185185185],[0.2,0.6185185185185185],[0.2,0.6185185185185185],[0.2,0.6185185185185185],[0.2,0.6185185185185185],[0.2,0.6185185185185185],[0.2,0.6185185185185185],[0.2,0.6185185185185185],[0.2,0.6185185185185185],[0.2,0.6185185185185185],[0.2,0.6185185185185185],[0.2,0.6166666666666667],[0.20104166666666667,0.6166666666666667],[0.20104166666666667,0.6166666666666667],[0.20104166666666667,0.6166666666666667],[0.20104166666666667,0.6166666666666667],[0.20104166666666667,0.6166666666666667],[0.20104166666666667,0.6166666666666667],[0.20104166666666667,0.6166666666666667],[0.20104166666666667,0.6166666666666667],[0.20104166666666667,0.6166666666666667],[0.20104166666666667,0.6166666666666667],[0.20208333333333334,0.6166666666666667],[0.20208333333333334,0.6166666666666667],[0.20208333333333334,0.6166666666666667],[0.20208333333333334,0.6166666666666667],[0.20208333333333334,0.6166666666666667],[0.20208333333333334,0.6166666666666667],[0.20208333333333334,0.6166666666666667],[0.20208333333333334,0.6166666666666667],[0.20208333333333334,0.6166666666666667],[0.20208333333333334,0.6166666666666667],[0.20208333333333334,0.6166666666666667],[0.20208333333333334,0.6166666666666667],[0.20208333333333334,0.6166666666666667],[0.20208333333333334,0.6166666666666667],[0.20208333333333334,0.6166666666666667],[0.20208333333333334,0.6166666666666667],[0.20208333333333334,0.6166666666666667],[0.20208333333333334,0.6166666666666667],[0.20208333333333334,0.6166666666666667],[0.20208333333333334,0.6166666666666667],[0.20208333333333334,0.6166666666666667],[0.20208333333333334,0.6166666666666667],[0.20208333333333334,0.6166666666666667],[0.20208333333333334,0.6166666666666667],[0.20208333333333334,0.6166666666666667],[0.20208333333333334,0.6166666666666667],[0.20208333333333334,0.6166666666666667],[0.20208333333333334,0.6166666666666667],[0.20208333333333334,0.6166666666666667],[0.20208333333333334,0.6166666666666667],[0.20208333333333334,0.6166666666666667],[0.20208333333333334,0.6166666666666667],[0.20208333333333334,0.6166666666666667],[0.20208333333333334,0.6166666666666667],[0.20208333333333334,0.6166666666666667],[0.20208333333333334,0.6166666666666667],[0.20208333333333334,0.6166666666666667],[0.20208333333333334,0.6166666666666667],[0.20208333333333334,0.6166666666666667],[0.20208333333333334,0.6166666666666667],[0.20208333333333334,0.6166666666666667],[0.20208333333333334,0.6166666666666667],[0.20208333333333334,0.6166666666666667],[0.20208333333333334,0.6166666666666667],[0.20208333333333334,0.6166666666666667],[0.20208333333333334,0.6166666666666667],[0.20208333333333334,0.6166666666666667],[0.20208333333333334,0.6166666666666667],[0.20208333333333334,0.6166666666666667],[0.20208333333333334,0.6166666666666667],[0.20208333333333334,0.6166666666666667],[0.20208333333333334,0.6166666666666667],[0.20208333333333334,0.6166666666666667],[0.20208333333333334,0.6166666666666667],[0.20208333333333334,0.6166666666666667],[0.20208333333333334,0.6166666666666667],[0.20208333333333334,0.6166666666666667],[0.20208333333333334,0.6166666666666667],[0.20208333333333334,0.6166666666666667],[0.20208333333333334,0.6166666666666667],[0.20208333333333334,0.6166666666666667],[0.20208333333333334,0.6166666666666667],[0.20208333333333334,0.6166666666666667],[0.20208333333333334,0.6166666666666667],[0.20208333333333334,0.6166666666666667]]","[[0.01593749999999995,0.1948148148148149],[0.01593749999999995,0.1948148148148149],[0.020937500000000022,0.18592592592592588],[0.020937500000000022,0.18592592592592588],[0.024270833333333287,0.16129629629629633],[0.024270833333333287,0.16129629629629633],[0.02666666666666669,0.14314814814814805],[0.02666666666666669,0.14314814814814805],[0.06218750000000005,0.13499999999999995],[0.06218750000000005,0.13499999999999995],[0.0775000000000001,0.2074074074074074],[0.0775000000000001,0.2074074074074074],[0.07593750000000009,0.20092592592592592],[0.07593750000000009,0.20092592592592592],[0.04916666666666671,0.18722222222222226],[0.04916666666666671,0.18722222222222226],[0.019375000000000024,0.14296296296296304],[0.019375000000000024,0.14296296296296304],[0.00458333333333331,0.14037037037037028],[0.00458333333333331,0.14037037037037028],[-0.0006250000000000236,0.1668518518518519],[-0.0006250000000000236,0.1668518518518519],[-0.035312499999999976,0.21074074074074065],[-0.035312499999999976,0.21074074074074065],[-0.05645833333333338,0.285],[-0.05645833333333338,0.285],[-0.0829166666666667,0.28351851851851856],[-0.0829166666666667,0.28351851851851856],[-0.11958333333333329,0.3253703703703705],[-0.11958333333333329,0.3253703703703705],[-0.15177083333333338,0.27314814814814814],[-0.15177083333333338,0.27314814814814814],[-0.17749999999999996,0.294074074074074],[-0.17749999999999996,0.294074074074074],[-0.18416666666666662,0.3164814814814814],[-0.18416666666666662,0.3164814814814814],[-0.17854166666666665,0.33351851851851855],[-0.17854166666666665,0.33351851851851855],[-0.1733333333333333,0.32703703703703707],[-0.1733333333333333,0.32703703703703707],[-0.1694791666666667,0.25703703703703695],[-0.1694791666666667,0.25703703703703695],[-0.15458333333333332,0.1764814814814814],[-0.15458333333333332,0.1764814814814814],[-0.1460416666666667,0.12666666666666662],[-0.1460416666666667,0.12666666666666662],[-0.1460416666666667,0.12666666666666662],[-0.1460416666666667,0.12666666666666662],[-0.12239583333333333,0.11444444444444436],[-0.12239583333333333,0.11444444444444436],[-0.10041666666666664,0.08055555555555556],[-0.10041666666666664,0.08055555555555556],[-0.0640625,0.07555555555555547],[-0.0640625,0.07555555555555547],[-0.019479166666666714,0.07462962962962955],[-0.019479166666666714,0.07462962962962955],[0.013333333333333286,0.10500000000000008],[0.013333333333333286,0.10500000000000008],[0.03343750000000002,0.14166666666666666],[0.03343750000000002,0.14166666666666666],[0.03343750000000002,0.14166666666666666],[0.03343750000000002,0.14166666666666666],[0.03739583333333331,0.1725925925925927],[0.03739583333333331,0.1725925925925927],[0.03739583333333331,0.1725925925925927],[0.03739583333333331,0.1725925925925927],[-0.013333333333333286,0.2037037037037037],[-0.013333333333333286,0.2037037037037037],[-0.051770833333333384,0.23296296296296287],[-0.051770833333333384,0.23296296296296287],[-0.10291666666666661,0.21388888888888888],[-0.10291666666666661,0.21388888888888888],[-0.11927083333333334,0.262037037037037],[-0.11927083333333334,0.262037037037037],[-0.13729166666666662,0.29870370370370364],[-0.13729166666666662,0.29870370370370364],[-0.15958333333333338,0.29148148148148145],[-0.15958333333333338,0.29148148148148145],[-0.18187500000000004,0.28425925925925927],[-0.18187500000000004,0.28425925925925927],[-0.18229166666666666,0.24388888888888896],[-0.18229166666666666,0.24388888888888896],[-0.16354166666666667,0.23407407407407405],[-0.16354166666666667,0.23407407407407405],[-0.14020833333333335,0.20962962962962972],[-0.14020833333333335,0.20962962962962972],[-0.14020833333333335,0.20962962962962972],[-0.14020833333333335,0.20962962962962972],[-0.10447916666666662,0.22833333333333325],[-0.10447916666666662,0.22833333333333325],[-0.041562499999999974,0.24611111111111106],[-0.041562499999999974,0.24611111111111106],[0.04750000000000002,0.275],[0.04750000000000002,0.275],[0.0884375000000001,0.2490740740740741],[0.0884375000000001,0.2490740740740741],[0.12239583333333333,0.22148148148148153],[0.12239583333333333,0.22148148148148153],[0.15239583333333329,0.2116666666666666],[0.15239583333333329,0.2116666666666666],[0.19395833333333337,0.1896296296296296],[0.19395833333333337,0.1896296296296296],[0.1931250000000001,0.1712962962962963],[0.1931250000000001,0.1712962962962963],[0.19833333333333342,0.14518518518518514],[0.19833333333333342,0.14518518518518514],[0.21739583333333337,0.1227777777777777],[0.25010416666666657,0.0985185185185186],[0.2509375000000001,0.07759259259259255],[0.2509375000000001,0.07759259259259255],[0.2423958333333334,0.06722222222222214],[0.25104166666666666,0.07166666666666675],[0.25104166666666666,0.07166666666666675],[0.2540625000000001,0.05611111111111103],[0.2634375000000001,0.06407407407407412],[0.23916666666666658,0.06444444444444436],[0.23916666666666658,0.06444444444444436],[0.2546875,0.07018518518518514],[0.2546875,0.07018518518518514],[0.24802083333333325,0.06925925925925921],[0.24802083333333325,0.06925925925925921],[0.21614583333333334,0.09759259259259268],[0.20427083333333323,0.13907407407407413],[0.18875000000000006,0.175],[0.16156249999999991,0.1824074074074074],[0.12895833333333329,0.20500000000000007],[0.12895833333333329,0.20500000000000007],[0.12604166666666666,0.2094444444444445],[0.12604166666666666,0.2094444444444445],[0.09427083333333333,0.22037037037037038],[0.07802083333333343,0.2631481481481482],[0.07802083333333343,0.2631481481481482],[0.04906250000000002,0.2977777777777777],[0.00625,0.3079629629629629],[0.00625,0.3079629629629629],[-0.019791666666666666,0.29666666666666675],[-0.019791666666666666,0.29666666666666675],[-0.03843749999999998,0.2814814814814815],[-0.03843749999999998,0.2814814814814815],[-0.09020833333333336,0.2844444444444445],[-0.13374999999999998,0.26777777777777784],[-0.18031250000000001,0.25018518518518523],[-0.24166666666666667,0.2625925925925925],[-0.24166666666666667,0.2625925925925925],[-0.27760416666666665,0.2953703703703704],[-0.2972916666666666,0.275],[-0.2972916666666666,0.275],[-0.32999999999999996,0.247037037037037],[-0.3393749999999999,0.24518518518518514],[-0.3484375,0.2257407407407407],[-0.3484375,0.2257407407407407],[-0.37052083333333335,0.21777777777777782],[-0.37052083333333335,0.21777777777777782],[-0.3382291666666667,0.1933333333333333],[-0.29125,0.222037037037037],[-0.23854166666666668,0.22592592592592592],[-0.1851041666666667,0.24000000000000005],[-0.1851041666666667,0.24000000000000005],[-0.12177083333333331,0.20962962962962972],[-0.11927083333333334,0.25833333333333336],[-0.1046875,0.2994444444444445],[-0.13218749999999999,0.32462962962962955],[-0.12718750000000004,0.3514814814814814],[-0.12718750000000004,0.3514814814814814],[-0.10114583333333335,0.40925925925925927],[-0.10177083333333338,0.469074074074074],[-0.09312499999999997,0.4422222222222221],[-0.09864583333333338,0.4462962962962963],[-0.09864583333333338,0.4462962962962963],[-0.115625,0.43333333333333335],[-0.14020833333333335,0.42388888888888887],[-0.10291666666666661,0.4022222222222223],[-0.10291666666666661,0.4022222222222223],[-0.071875,0.34074074074074073],[-0.024791666666666618,0.3272222222222223],[-0.024791666666666618,0.3272222222222223],[0.0109375,0.31796296296296306],[0.03895833333333331,0.26444444444444437],[0.07604166666666666,0.17759259259259255],[0.10395833333333329,0.17629629629629637],[0.12458333333333324,0.13185185185185194],[0.13333333333333333,0.11703703703703712],[0.13739583333333344,0.10685185185185193],[0.13739583333333344,0.10685185185185193],[0.13145833333333337,0.09296296296296305],[0.1632291666666667,0.09888888888888885],[0.20479166666666657,0.0801851851851851],[0.18020833333333333,0.09185185185185189],[0.1556250000000001,0.10351851851851848],[0.13927083333333337,0.1398148148148148],[0.08635416666666676,0.14351851851851852],[0.06947916666666672,0.16703703703703712],[0.07593750000000009,0.17796296296296302],[0.07593750000000009,0.17796296296296302],[0.07114583333333328,0.17222222222222222],[0.08916666666666657,0.18259259259259264],[0.06020833333333329,0.22518518518518524],[0.03729166666666662,0.24148148148148144],[0.05614583333333331,0.2479629629629629],[0.075,0.2544444444444444],[0.08802083333333334,0.2705555555555556],[0.12406249999999991,0.32018518518518513],[0.13895833333333343,0.37222222222222223],[0.13895833333333343,0.37222222222222223],[0.13229166666666667,0.3883333333333334],[0.1482291666666666,0.42314814814814816],[0.140625,0.4198148148148149],[0.1368750000000001,0.39592592592592585],[0.13354166666666673,0.4068518518518519],[0.11135416666666677,0.3816666666666667],[0.08156249999999995,0.35462962962962963],[0.06395833333333331,0.3472222222222222],[0.06395833333333331,0.3472222222222222],[0.050520833333333334,0.31055555555555564],[0.02635416666666662,0.25388888888888894],[0.05437500000000005,0.2522222222222223],[0.07104166666666671,0.2485185185185186],[0.08260416666666662,0.24296296296296305],[0.10583333333333324,0.24574074074074082],[0.11895833333333337,0.24722222222222223],[0.14541666666666658,0.26666666666666666],[0.16979166666666667,0.282037037037037],[0.18322916666666675,0.26703703703703713],[0.1851041666666667,0.2577777777777779],[0.19406249999999994,0.24462962962962967],[0.17489583333333342,0.21814814814814806],[0.1556250000000001,0.19574074074074083],[0.1556250000000001,0.19574074074074083],[0.15458333333333343,0.1633333333333334],[0.15906250000000005,0.13111111111111104],[0.1671875,0.09166666666666666],[0.17302083333333323,0.03759259259259251],[0.18562500000000004,-0.026851851851851852],[0.19020833333333323,-0.07925925925925928],[0.19479166666666667,-0.1316666666666667],[0.20520833333333333,-0.17518518518518522],[0.21479166666666671,-0.22370370370370374],[0.21479166666666671,-0.22370370370370374],[0.22552083333333334,-0.27240740740740743],[0.23270833333333343,-0.23629629629629634],[0.234375,-0.20037037037037034],[0.23250000000000004,-0.15629629629629627],[0.23604166666666657,-0.09833333333333337],[0.23604166666666657,-0.09833333333333337],[0.2400000000000001,0.001851851851851852],[0.2453125,0.0772222222222223],[0.25062499999999993,0.15259259259259256],[0.25062499999999993,0.15259259259259256],[0.26447916666666677,0.22018518518518515],[0.26437499999999997,0.2948148148148149],[0.26437499999999997,0.2948148148148149],[0.2616666666666667,0.36629629629629623],[0.24874999999999994,0.36814814814814806],[0.17937500000000003,0.34444444444444444],[0.11354166666666667,0.31259259259259253],[0.04135416666666671,0.290925925925926],[-0.02833333333333338,0.2433333333333333],[-0.02833333333333338,0.2433333333333333],[-0.0421875,0.2094444444444445],[-0.06927083333333334,0.17314814814814813],[-0.09208333333333331,0.18092592592592602],[-0.11083333333333331,0.15685185185185194],[-0.1280208333333333,0.13203703703703695],[-0.1280208333333333,0.13203703703703695],[-0.14624999999999996,0.11925925925925922],[-0.10854166666666672,0.11259259259259251],[-0.06843750000000005,0.12092592592592584],[-0.041562499999999974,0.1307407407407408],[0.0006250000000000236,0.12851851851851848],[0.007187499999999976,0.14425925925925923],[0.03677083333333329,0.1594444444444445],[0.043437500000000046,0.1896296296296296],[0.058333333333333334,0.24388888888888896],[0.03791666666666664,0.26962962962962966],[0.03833333333333329,0.2977777777777777],[0.0775000000000001,0.33833333333333343],[0.09500000000000004,0.36277777777777775],[0.09500000000000004,0.36277777777777775],[0.12635416666666663,0.36074074074074064],[0.15270833333333325,0.37407407407407406],[0.16510416666666666,0.3762962962962964],[0.17156250000000003,0.40981481481481474],[0.17197916666666657,0.39351851851851855],[0.17197916666666657,0.39351851851851855],[0.17145833333333324,0.3846296296296297],[0.19802083333333323,0.38000000000000006],[0.20541666666666672,0.35759259259259263],[0.17854166666666677,0.3351851851851852],[0.17854166666666677,0.3351851851851852],[0.18354166666666671,0.3175925925925926],[0.17291666666666666,0.2972222222222222],[0.16437499999999997,0.31500000000000006],[0.16437499999999997,0.31500000000000006],[0.18177083333333333,0.2616666666666666],[0.18499999999999991,0.20314814814814824],[0.2021874999999999,0.1581481481481481],[0.21239583333333342,0.06111111111111111],[0.21239583333333342,0.06111111111111111],[0.2359375,0.009629629629629714],[0.25729166666666664,-0.048333333333333374],[0.25729166666666664,-0.048333333333333374],[0.27468750000000003,-0.0992592592592593],[0.27468750000000003,-0.0992592592592593],[0.26510416666666664,-0.10759259259259263],[0.271875,-0.12296296296296293],[0.28364583333333326,-0.20333333333333337],[0.2694791666666667,-0.2125925925925926],[0.2694791666666667,-0.2125925925925926],[0.2665625000000001,-0.22759259259259254],[0.24031250000000004,-0.1581481481481481],[0.22197916666666656,-0.04407407407407399],[0.17708333333333334,0.010740740740740657],[0.134375,0.072037037037037],[0.134375,0.072037037037037],[0.11052083333333323,0.08518518518518518],[0.08729166666666661,0.03814814814814819],[0.06177083333333329,0.03092592592592601],[0.018229166666666668,0.05462962962962963],[0.008124999999999953,0.0235185185185186],[0.0010416666666666667,-0.010925925925925884],[0.01729166666666669,-0.12981481481481486],[0.01729166666666669,-0.12981481481481486],[0.020833333333333332,-0.22999999999999998],[0.08937499999999995,-0.28574074074074074],[0.14166666666666666,-0.3594444444444445],[0.14677083333333343,-0.38333333333333336],[0.1710416666666667,-0.382962962962963],[0.20447916666666663,-0.4168518518518519],[0.2303124999999999,-0.4601851851851852],[0.21833333333333324,-0.4522222222222222],[0.2133333333333333,-0.44722222222222224],[0.2021874999999999,-0.4331481481481481],[0.2021874999999999,-0.4331481481481481],[0.2037499999999999,-0.4377777777777777],[0.16510416666666666,-0.4235185185185185],[0.16510416666666666,-0.4235185185185185],[0.15093750000000009,-0.4088888888888889],[0.1515625,-0.39740740740740743],[0.14677083333333343,-0.3962962962962963],[0.14562499999999995,-0.39462962962962966],[0.15270833333333325,-0.39092592592592595],[0.15552083333333327,-0.3977777777777778],[0.16281249999999994,-0.3690740740740741],[0.1716666666666666,-0.36277777777777775],[0.19104166666666675,-0.35777777777777775],[0.19104166666666675,-0.35777777777777775],[0.19572916666666676,-0.40259259259259256],[0.20114583333333325,-0.4074074074074074],[0.22010416666666663,-0.41074074074074074],[0.2283333333333334,-0.4372222222222223],[0.2353125000000001,-0.4346296296296296],[0.24541666666666656,-0.4505555555555556],[0.2638541666666666,-0.45333333333333337],[0.25718750000000007,-0.5235185185185185],[0.25499999999999995,-0.5637037037037037],[0.24874999999999994,-0.5948148148148148],[0.2539583333333333,-0.6040740740740741],[0.2539583333333333,-0.6040740740740741],[0.24052083333333343,-0.6431481481481481],[0.24052083333333343,-0.6431481481481481],[0.228125,-0.669074074074074],[0.22531249999999994,-0.6605555555555556],[0.21218750000000006,-0.6877777777777777],[0.19020833333333323,-0.6825925925925926],[0.16864583333333344,-0.6792592592592592],[0.17916666666666667,-0.6303703703703704],[0.17916666666666667,-0.6303703703703704],[0.17260416666666673,-0.6012962962962963],[0.1712500000000001,-0.5898148148148148],[0.17062499999999994,-0.5696296296296297],[0.1796875,-0.542037037037037],[0.17718749999999991,-0.5414814814814815],[0.17583333333333329,-0.5522222222222222],[0.17583333333333329,-0.5522222222222222],[0.18156249999999996,-0.522962962962963],[0.18322916666666675,-0.5083333333333333],[0.1915625000000001,-0.4918518518518519],[0.18072916666666666,-0.49074074074074076],[0.18072916666666666,-0.49074074074074076],[0.18697916666666667,-0.48629629629629634],[0.17489583333333342,-0.4955555555555556],[0.16552083333333342,-0.5027777777777778],[0.16552083333333342,-0.5027777777777778],[0.15656249999999997,-0.5009259259259259],[0.14989583333333342,-0.4685185185185185],[0.14989583333333342,-0.4685185185185185],[0.14947916666666666,-0.4527777777777778],[0.14947916666666666,-0.4527777777777778],[0.14312500000000009,-0.4609259259259259],[0.1492708333333333,-0.47481481481481475],[0.1486458333333334,-0.48777777777777775],[0.13937499999999994,-0.4935185185185185],[0.13020833333333334,-0.4994444444444444],[0.12770833333333323,-0.4818518518518518],[0.12104166666666671,-0.4696296296296297],[0.10812499999999996,-0.4714814814814815],[0.11635416666666672,-0.4948148148148148],[0.11635416666666672,-0.4948148148148148],[0.12854166666666675,-0.49981481481481477],[0.15489583333333337,-0.4792592592592593],[0.16135416666666677,-0.4366666666666667],[0.1474999999999999,-0.40611111111111114],[0.13770833333333338,-0.3987037037037037],[0.07000000000000005,-0.3803703703703703],[0.07000000000000005,-0.3803703703703703],[0.002291666666666714,-0.36203703703703705],[-0.05666666666666664,-0.3698148148148148],[-0.12458333333333335,-0.3844444444444445],[-0.12458333333333335,-0.3844444444444445],[-0.20541666666666672,-0.3942592592592592],[-0.29312499999999997,-0.3985185185185185],[-0.38947916666666665,-0.42666666666666664],[-0.4686458333333333,-0.4703703703703704],[-0.51875,-0.47611111111111115],[-0.5675,-0.47537037037037033],[-0.5794791666666667,-0.4927777777777778],[-0.5955208333333334,-0.4988888888888888]]","[[0.01593749999999995,0.1948148148148149,0.0003000000119186552],[0.01593749999999995,0.1948148148148149,0.05240000000596012],[0.020937500000000022,0.18592592592592588,0.07560000002384015],[0.020937500000000022,0.18592592592592588,0.0844000000059566],[0.024270833333333287,0.16129629629629633,0.11220000001787866],[0.024270833333333287,0.16129629629629633,0.12049999999999983],[0.02666666666666669,0.14314814814814805,0.14350000000000307],[0.02666666666666669,0.14314814814814805,0.15230000001191968],[0.06218750000000005,0.13499999999999995,0.17680000001192298],[0.06218750000000005,0.13499999999999995,0.18410000002383953],[0.0775000000000001,0.2074074074074074,0.20890000000596132],[0.0775000000000001,0.2074074074074074,0.21710000002384078],[0.07593750000000009,0.20092592592592592,0.24420000001788367],[0.07593750000000009,0.20092592592592592,0.2535000000000025],[0.04916666666666671,0.18722222222222226,0.27899999999999636],[0.04916666666666671,0.18722222222222226,0.28600000000000136],[0.019375000000000024,0.14296296296296304,0.3099000000059604],[0.019375000000000024,0.14296296296296304,0.31840000000595836],[0.00458333333333331,0.14037037037037028,0.3437000000178827],[0.00458333333333331,0.14037037037037028,0.35430000001191786],[-0.0006250000000000236,0.1668518518518519,0.37700000000000244],[-0.0006250000000000236,0.1668518518518519,0.38450000000000273],[-0.035312499999999976,0.21074074074074065,0.41080000001191763],[-0.035312499999999976,0.21074074074074065,0.41770000001788077],[-0.05645833333333338,0.285,0.44570000001787946],[-0.05645833333333338,0.285,0.4540000000000006],[-0.0829166666666667,0.28351851851851856,0.4765000000000015],[-0.0829166666666667,0.28351851851851856,0.48380000001191803],[-0.11958333333333329,0.3253703703703705,0.5102000000178819],[-0.11958333333333329,0.3253703703703705,0.5174999999999983],[-0.15177083333333338,0.27314814814814814,0.5439999999999969],[-0.15177083333333338,0.27314814814814814,0.5514999999999972],[-0.17749999999999996,0.294074074074074,0.576400000005961],[-0.17749999999999996,0.294074074074074,0.584900000005959],[-0.18416666666666662,0.3164814814814814,0.6122000000178787],[-0.18416666666666662,0.3164814814814814,0.6203000000119232],[-0.17854166666666665,0.33351851851851855,0.6462000000178776],[-0.17854166666666665,0.33351851851851855,0.6536000000238431],[-0.1733333333333333,0.32703703703703707,0.6767000000178811],[-0.1733333333333333,0.32703703703703707,0.6844999999999999],[-0.1694791666666667,0.25703703703703695,0.7094000000059566],[-0.1694791666666667,0.25703703703703695,0.7167000000178803],[-0.15458333333333332,0.1764814814814814,0.7467000000178814],[-0.15458333333333332,0.1764814814814814,0.7568000000119213],[-0.1460416666666667,0.12666666666666662,0.7789000000059616],[-0.1460416666666667,0.12666666666666662,0.786999999999999],[-0.1460416666666667,0.12666666666666662,0.7913000000119226],[-0.1460416666666667,0.12666666666666662,0.809400000005958],[-0.12239583333333333,0.11444444444444436,0.844200000017878],[-0.12239583333333333,0.11444444444444436,0.8542000000178831],[-0.10041666666666664,0.08055555555555556,0.8794000000059583],[-0.10041666666666664,0.08055555555555556,0.8877000000178796],[-0.0640625,0.07555555555555547,0.9112000000178782],[-0.0640625,0.07555555555555547,0.9184000000059598],[-0.019479166666666714,0.07462962962962955,0.9458000000119213],[-0.019479166666666714,0.07462962962962955,0.9540000000000006],[0.013333333333333286,0.10500000000000008,0.9773000000119225],[0.013333333333333286,0.10500000000000008,0.98540000000596],[0.03343750000000002,0.14166666666666666,1.0107000000178843],[0.03343750000000002,0.14166666666666666,1.0198000000119194],[0.03343750000000002,0.14166666666666666,1.02470000001788],[0.03343750000000002,0.14166666666666666,1.043999999999997],[0.03739583333333331,0.1725925925925927,1.078000000000003],[0.03739583333333331,0.1725925925925927,1.0848000000119171],[0.03739583333333331,0.1725925925925927,1.0913000000119197],[0.03739583333333331,0.1725925925925927,1.1124000000059624],[-0.013333333333333286,0.2037037037037037,1.1439000000059636],[-0.013333333333333286,0.2037037037037037,1.1518000000119173],[-0.051770833333333384,0.23296296296296287,1.1754000000059577],[-0.051770833333333384,0.23296296296296287,1.1827000000178813],[-0.10291666666666661,0.21388888888888888,1.212300000011922],[-0.10291666666666661,0.21388888888888888,1.22080000001192],[-0.11927083333333334,0.262037037037037,1.2449999999999974],[-0.11927083333333334,0.262037037037037,1.2530000000000001],[-0.13729166666666662,0.29870370370370364,1.2830000000000013],[-0.13729166666666662,0.29870370370370364,1.2907000000178783],[-0.15958333333333338,0.29148148148148145,1.3106000000238396],[-0.15958333333333338,0.29148148148148145,1.3193000000119213],[-0.18187500000000004,0.28425925925925927,1.35030000001192],[-0.18187500000000004,0.28425925925925927,1.357999999999997],[-0.18229166666666666,0.24388888888888896,1.3779000000059582],[-0.18229166666666666,0.24388888888888896,1.38510000002384],[-0.16354166666666667,0.23407407407407405,1.409700000017878],[-0.16354166666666667,0.23407407407407405,1.4171000000238436],[-0.14020833333333335,0.20962962962962972,1.4420000000000002],[-0.14020833333333335,0.20962962962962972,1.4532000000178797],[-0.14020833333333335,0.20962962962962972,1.4579999999999984],[-0.14020833333333335,0.20962962962962972,1.494700000017879],[-0.10447916666666662,0.22833333333333325,1.5105000000000004],[-0.10447916666666662,0.22833333333333325,1.52170000001788],[-0.041562499999999974,0.24611111111111106,1.544800000011918],[-0.041562499999999974,0.24611111111111106,1.560200000017879],[0.04750000000000002,0.275,1.578100000023845],[0.04750000000000002,0.275,1.5861000000238406],[0.0884375000000001,0.2490740740740741,1.6163000000119183],[0.0884375000000001,0.2490740740740741,1.6246000000238396],[0.12239583333333333,0.22148148148148153,1.6442000000178822],[0.12239583333333333,0.22148148148148153,1.6526000000238383],[0.15239583333333329,0.2116666666666666,1.6834000000059604],[0.15239583333333329,0.2116666666666666,1.6909000000059606],[0.19395833333333337,0.1896296296296296,1.711400000005959],[0.19395833333333337,0.1896296296296296,1.719200000017878],[0.1931250000000001,0.1712962962962963,1.7475000000000023],[0.1931250000000001,0.1712962962962963,1.7581000000238447],[0.19833333333333342,0.14518518518518514,1.7693000000119241],[0.19833333333333342,0.14518518518518514,1.7774000000059615],[0.21739583333333337,0.1227777777777777,1.7919000000059597],[0.25010416666666657,0.0985185185185186,1.8119999999999976],[0.2509375000000001,0.07759259259259255,1.8282000000178797],[0.2509375000000001,0.07759259259259255,1.8417000000178803],[0.2423958333333334,0.06722222222222214,1.8583000000119227],[0.25104166666666666,0.07166666666666675,1.879700000017884],[0.25104166666666666,0.07166666666666675,1.8915000000000006],[0.2540625000000001,0.05611111111111103,1.908200000017878],[0.2634375000000001,0.06407407407407412,1.9269000000059577],[0.23916666666666658,0.06444444444444436,1.9489000000059633],[0.23916666666666658,0.06444444444444436,1.9596000000238405],[0.2546875,0.07018518518518514,1.9751000000238434],[0.2546875,0.07018518518518514,1.991600000023844],[0.24802083333333325,0.06925925925925921,2.0112000000178796],[0.24802083333333325,0.06925925925925921,2.0249000000059567],[0.21614583333333334,0.09759259259259268,2.041499999999999],[0.20427083333333323,0.13907407407407413,2.058100000023842],[0.18875000000000006,0.175,2.078100000023845],[0.16156249999999991,0.1824074074074074,2.0944999999999965],[0.12895833333333329,0.20500000000000007,2.1141000000238392],[0.12895833333333329,0.20500000000000007,2.1277000000178816],[0.12604166666666666,0.2094444444444445,2.1416000000238427],[0.12604166666666666,0.2094444444444445,2.158200000017878],[0.09427083333333333,0.22037037037037038,2.1778000000119206],[0.07802083333333343,0.2631481481481482,2.196800000011919],[0.07802083333333343,0.2631481481481482,2.2081000000238404],[0.04906250000000002,0.2977777777777777,2.2248000000119177],[0.00625,0.3079629629629629,2.2506000000238444],[0.00625,0.3079629629629629,2.258400000005963],[-0.019791666666666666,0.29666666666666675,2.2749000000059567],[-0.019791666666666666,0.29666666666666675,2.2914000000059573],[-0.03843749999999998,0.2814814814814815,2.311900000005963],[-0.03843749999999998,0.2814814814814815,2.3247000000178843],[-0.09020833333333336,0.2844444444444445,2.3416000000238384],[-0.13374999999999998,0.26777777777777784,2.3592000000178786],[-0.18031250000000001,0.25018518518518523,2.3770000000000024],[-0.24166666666666667,0.2625925925925925,2.3924999999999983],[-0.24166666666666667,0.2625925925925925,2.4080000000000013],[-0.27760416666666665,0.2953703703703704,2.427600000023844],[-0.2972916666666666,0.275,2.44760000002384],[-0.2972916666666666,0.275,2.4579999999999984],[-0.32999999999999996,0.247037037037037,2.474700000017883],[-0.3393749999999999,0.24518518518518514,2.494800000011921],[-0.3484375,0.2257407407407407,2.51160000002384],[-0.3484375,0.2257407407407407,2.5316000000238432],[-0.37052083333333335,0.21777777777777782,2.5452000000178785],[-0.37052083333333335,0.21777777777777782,2.558],[-0.3382291666666667,0.1933333333333333,2.5746000000238425],[-0.29125,0.222037037037037,2.592600000023843],[-0.23854166666666668,0.22592592592592592,2.6079000000059622],[-0.1851041666666667,0.24000000000000005,2.6272000000178792],[-0.1851041666666667,0.24000000000000005,2.6414000000059588],[-0.12177083333333331,0.20962962962962972,2.6603000000119224],[-0.11927083333333334,0.25833333333333336,2.6748000000119205],[-0.1046875,0.2994444444444445,2.691499999999998],[-0.13218749999999999,0.32462962962962955,2.7126000000238406],[-0.12718750000000004,0.3514814814814814,2.7273000000119225],[-0.12718750000000004,0.3514814814814814,2.741500000000002],[-0.10114583333333335,0.40925925925925927,2.7583000000119213],[-0.10177083333333338,0.469074074074074,2.7797000000178826],[-0.09312499999999997,0.4422222222222221,2.7937000000178784],[-0.09864583333333338,0.4462962962962963,2.8083000000119185],[-0.09864583333333338,0.4462962962962963,2.826999999999998],[-0.115625,0.43333333333333335,2.8416000000238384],[-0.14020833333333335,0.42388888888888887,2.8583000000119227],[-0.10291666666666661,0.4022222222222223,2.8787000000178793],[-0.10291666666666661,0.4022222222222223,2.8914000000059588],[-0.071875,0.34074074074074073,2.90830000001192],[-0.024791666666666618,0.3272222222222223,2.932000000000002],[-0.024791666666666618,0.3272222222222223,2.94160000002384],[0.0109375,0.31796296296296306,2.9589000000059613],[0.03895833333333331,0.26444444444444437,2.976900000005962],[0.07604166666666666,0.17759259259259255,2.9957000000178837],[0.10395833333333329,0.17629629629629637,3.009999999999998],[0.12458333333333324,0.13185185185185194,3.024800000011922],[0.13333333333333333,0.11703703703703712,3.0437000000178784],[0.13739583333333344,0.10685185185185193,3.0598000000119185],[0.13739583333333344,0.10685185185185193,3.0747000000178843],[0.13145833333333337,0.09296296296296305,3.0913000000119197],[0.1632291666666667,0.09888888888888885,3.1079000000059622],[0.20479166666666657,0.0801851851851851,3.1293000000119235],[0.18020833333333333,0.09185185185185189,3.1442000000178822],[0.1556250000000001,0.10351851851851848,3.1608000000119176],[0.13927083333333337,0.1398148148148148,3.1754000000059577],[0.08635416666666676,0.14351851851851852,3.1964000000059585],[0.06947916666666672,0.16703703703703712,3.210800000011922],[0.07593750000000009,0.17796296296296302,3.225999999999999],[0.07593750000000009,0.17796296296296302,3.2413000000119183],[0.07114583333333328,0.17222222222222222,3.2580000000000027],[0.08916666666666657,0.18259259259259264,3.274600000023838],[0.06020833333333329,0.22518518518518524,3.2938000000119203],[0.03729166666666662,0.24148148148148144,3.308],[0.05614583333333331,0.2479629629629629,3.3247000000178843],[0.075,0.2544444444444444,3.3424000000059593],[0.08802083333333334,0.2705555555555556,3.357999999999997],[0.12406249999999991,0.32018518518518513,3.3769000000059606],[0.13895833333333343,0.37222222222222223,3.3914000000059588],[0.13895833333333343,0.37222222222222223,3.4079000000059594],[0.13229166666666667,0.3883333333333334,3.424600000023844],[0.1482291666666666,0.42314814814814816,3.441300000011921],[0.140625,0.4198148148148149,3.4604000000059614],[0.1368750000000001,0.39592592592592585,3.474600000023841],[0.13354166666666673,0.4068518518518519,3.4913000000119183],[0.11135416666666677,0.3816666666666667,3.5080000000000027],[0.08156249999999995,0.35462962962962963,3.52470000001788],[0.06395833333333331,0.3472222222222222,3.543900000005962],[0.06395833333333331,0.3472222222222222,3.557900000005958],[0.050520833333333334,0.31055555555555564,3.5746000000238425],[0.02635416666666662,0.25388888888888894,3.5913000000119197],[0.05437500000000005,0.2522222222222223,3.607999999999997],[0.07104166666666671,0.2485185185185186,3.6271000000238445],[0.08260416666666662,0.24296296296296305,3.642700000017882],[0.10583333333333324,0.24574074074074082,3.659900000005962],[0.11895833333333337,0.24722222222222223,3.6747000000178787],[0.14541666666666658,0.26666666666666666,3.691300000011921],[0.16979166666666667,0.282037037037037,3.71070000001788],[0.18322916666666675,0.26703703703703713,3.724600000023841],[0.1851041666666667,0.2577777777777779,3.7413000000119183],[0.19406249999999994,0.24462962962962967,3.757900000005961],[0.17489583333333342,0.21814814814814806,3.774600000023838],[0.1556250000000001,0.19574074074074083,3.7944999999999993],[0.1556250000000001,0.19574074074074083,3.808],[0.15458333333333343,0.1633333333333334,3.8246000000238425],[0.15906250000000005,0.13111111111111104,3.8416000000238384],[0.1671875,0.09166666666666666,3.8579000000059622],[0.17302083333333323,0.03759259259259251,3.8770000000000024],[0.18562500000000004,-0.026851851851851852,3.893600000023838],[0.19020833333333323,-0.07925925925925928,3.910499999999999],[0.19479166666666667,-0.1316666666666667,3.9249000000059624],[0.20520833333333333,-0.17518518518518522,3.941300000011921],[0.21479166666666671,-0.22370370370370374,3.9612000000178824],[0.21479166666666671,-0.22370370370370374,3.974700000017883],[0.22552083333333334,-0.27240740740740743,3.9951000000238395],[0.23270833333333343,-0.23629629629629634,4.0089000000059585],[0.234375,-0.20037037037037034,4.02470000001788],[0.23250000000000004,-0.15629629629629627,4.043700000017878],[0.23604166666666657,-0.09833333333333337,4.05840000000596],[0.23604166666666657,-0.09833333333333337,4.074700000017884],[0.2400000000000001,0.001851851851851852,4.091499999999996],[0.2453125,0.0772222222222223,4.107900000005962],[0.25062499999999993,0.15259259259259256,4.1285000000000025],[0.25062499999999993,0.15259259259259256,4.145499999999998],[0.26447916666666677,0.22018518518518515,4.158400000005962],[0.26437499999999997,0.2948148148148149,4.178300000011923],[0.26437499999999997,0.2948148148148149,4.191400000005963],[0.2616666666666667,0.36629629629629623,4.208200000017882],[0.24874999999999994,0.36814814814814806,4.228499999999997],[0.17937500000000003,0.34444444444444444,4.2451000000238395],[0.11354166666666667,0.31259259259259253,4.260200000017882],[0.04135416666666671,0.290925925925926,4.275100000023841],[-0.02833333333333338,0.2433333333333333,4.29680000001192],[-0.02833333333333338,0.2433333333333333,4.308],[-0.0421875,0.2094444444444445,4.324900000005961],[-0.06927083333333334,0.17314814814814813,4.342300000011917],[-0.09208333333333331,0.18092592592592602,4.358100000023839],[-0.11083333333333331,0.15685185185185194,4.377700000017882],[-0.1280208333333333,0.13203703703703695,4.393999999999998],[-0.1280208333333333,0.13203703703703695,4.407900000005959],[-0.14624999999999996,0.11925925925925922,4.424600000023844],[-0.10854166666666672,0.11259259259259251,4.4465],[-0.06843750000000005,0.12092592592592584,4.461600000023843],[-0.041562499999999974,0.1307407407407408,4.476900000005962],[0.0006250000000000236,0.12851851851851848,4.492800000011918],[0.007187499999999976,0.14425925925925923,4.510600000023842],[0.03677083333333329,0.1594444444444445,4.524600000023838],[0.043437500000000046,0.1896296296296296,4.545100000023844],[0.058333333333333334,0.24388888888888896,4.560300000011921],[0.03791666666666664,0.26962962962962966,4.577300000011924],[0.03833333333333329,0.2977777777777777,4.5938000000119175],[0.0775000000000001,0.33833333333333343,4.613300000011918],[0.09500000000000004,0.36277777777777775,4.628200000017884],[0.09500000000000004,0.36277777777777775,4.641300000011924],[0.12635416666666663,0.36074074074074064,4.658000000000001],[0.15270833333333325,0.37407407407407406,4.674600000023844],[0.16510416666666666,0.3762962962962964,4.691300000011921],[0.17156250000000003,0.40981481481481474,4.7103000000119195],[0.17197916666666657,0.39351851851851855,4.7265000000000015],[0.17197916666666657,0.39351851851851855,4.741300000011918],[0.17145833333333324,0.3846296296296297,4.758100000023845],[0.19802083333333323,0.38000000000000006,4.774600000023838],[0.20541666666666672,0.35759259259259263,4.794100000023839],[0.17854166666666677,0.3351851851851852,4.809600000023842],[0.17854166666666677,0.3351851851851852,4.827800000011919],[0.18354166666666671,0.3175925925925926,4.841499999999996],[0.17291666666666666,0.2972222222222222,4.85930000001192],[0.16437499999999997,0.31500000000000006,4.880200000017879],[0.16437499999999997,0.31500000000000006,4.891500000000001],[0.18177083333333333,0.2616666666666666,4.908100000023843],[0.18499999999999991,0.20314814814814824,4.924900000005962],[0.2021874999999999,0.1581481481481481,4.946900000005961],[0.21239583333333342,0.06111111111111111,4.962900000005959],[0.21239583333333342,0.06111111111111111,4.975000000000001],[0.2359375,0.009629629629629714,4.995200000017881],[0.25729166666666664,-0.048333333333333374,5.011700000017882],[0.25729166666666664,-0.048333333333333374,5.024800000011922],[0.27468750000000003,-0.0992592592592593,5.04490000000596],[0.27468750000000003,-0.0992592592592593,5.058200000017884],[0.26510416666666664,-0.10759259259259263,5.074800000011919],[0.271875,-0.12296296296296293,5.093600000023841],[0.28364583333333326,-0.20333333333333337,5.112400000005962],[0.2694791666666667,-0.2125925925925926,5.1286000000238445],[0.2694791666666667,-0.2125925925925926,5.141300000011924],[0.2665625000000001,-0.22759259259259254,5.158000000000001],[0.24031250000000004,-0.1581481481481481,5.174600000023844],[0.22197916666666656,-0.04407407407407399,5.191300000011921],[0.17708333333333334,0.010740740740740657,5.210499999999996],[0.134375,0.072037037037037,5.225700000017881],[0.134375,0.072037037037037,5.241300000011918],[0.11052083333333323,0.08518518518518518,5.258000000000003],[0.08729166666666661,0.03814814814814819,5.274600000023838],[0.06177083333333329,0.03092592592592601,5.294200000017881],[0.018229166666666668,0.05462962962962963,5.3129000000059605],[0.008124999999999953,0.0235185185185186,5.329400000005961],[0.0010416666666666667,-0.010925925925925884,5.34470000001788],[0.01729166666666669,-0.12981481481481486,5.365800000011923],[0.01729166666666669,-0.12981481481481486,5.3747000000178815],[0.020833333333333332,-0.22999999999999998,5.391500000000001],[0.08937499999999995,-0.28574074074074074,5.410400000005957],[0.14166666666666666,-0.3594444444444445,5.428200000017881],[0.14677083333333343,-0.38333333333333336,5.446800000011919],[0.1710416666666667,-0.382962962962963,5.461200000017882],[0.20447916666666663,-0.4168518518518519,5.476200000017883],[0.2303124999999999,-0.4601851851851852,5.491500000000002],[0.21833333333333324,-0.4522222222222222,5.507900000005961],[0.2133333333333333,-0.44722222222222224,5.524600000023838],[0.2021874999999999,-0.4331481481481481,5.545100000023844],[0.2021874999999999,-0.4331481481481481,5.557900000005958],[0.2037499999999999,-0.4377777777777777,5.5746000000238425],[0.16510416666666666,-0.4235185185185185,5.594900000005957],[0.16510416666666666,-0.4235185185185185,5.607999999999997],[0.15093750000000009,-0.4088888888888889,5.62460000002384],[0.1515625,-0.39740740740740743,5.641300000011924],[0.14677083333333343,-0.3962962962962963,5.658000000000001],[0.14562499999999995,-0.39462962962962966,5.674600000023844],[0.15270833333333325,-0.39092592592592595,5.691200000017879],[0.15552083333333327,-0.3977777777777778,5.711900000005961],[0.16281249999999994,-0.3690740740740741,5.7273000000119225],[0.1716666666666666,-0.36277777777777775,5.744999999999997],[0.19104166666666675,-0.35777777777777775,5.7643000000119216],[0.19104166666666675,-0.35777777777777775,5.774600000023838],[0.19572916666666676,-0.40259259259259256,5.791499999999999],[0.20114583333333325,-0.4074074074074074,5.807900000005958],[0.22010416666666663,-0.41074074074074074,5.8245000000000005],[0.2283333333333334,-0.4372222222222223,5.841600000023838],[0.2353125000000001,-0.4346296296296296,5.857900000005962],[0.24541666666666656,-0.4505555555555556,5.8770000000000024],[0.2638541666666666,-0.45333333333333337,5.894200000017882],[0.25718750000000007,-0.5235185185185185,5.910700000017883],[0.25499999999999995,-0.5637037037037037,5.925100000023839],[0.24874999999999994,-0.5948148148148148,5.941900000005958],[0.2539583333333333,-0.6040740740740741,5.962400000005957],[0.2539583333333333,-0.6040740740740741,5.974700000017883],[0.24052083333333343,-0.6431481481481481,5.99140000000596],[0.24052083333333343,-0.6431481481481481,6.007900000005961],[0.228125,-0.669074074074074,6.024600000023838],[0.22531249999999994,-0.6605555555555556,6.044200000017881],[0.21218750000000006,-0.6877777777777777,6.060800000011923],[0.19020833333333323,-0.6825925925925926,6.077500000000001],[0.16864583333333344,-0.6792592592592592,6.0938000000119175],[0.17916666666666667,-0.6303703703703704,6.113700000017879],[0.17916666666666667,-0.6303703703703704,6.12460000002384],[0.17260416666666673,-0.6012962962962963,6.141300000011924],[0.1712500000000001,-0.5898148148148148,6.1624000000059596],[0.17062499999999994,-0.5696296296296297,6.177800000011921],[0.1796875,-0.542037037037037,6.196900000005961],[0.17718749999999991,-0.5414814814814815,6.211300000011917],[0.17583333333333329,-0.5522222222222222,6.22680000001192],[0.17583333333333329,-0.5522222222222222,6.241300000011918],[0.18156249999999996,-0.522962962962963,6.258000000000003],[0.18322916666666675,-0.5083333333333333,6.275100000023841],[0.1915625000000001,-0.4918518518518519,6.294600000023841],[0.18072916666666666,-0.49074074074074076,6.3089999999999975],[0.18072916666666666,-0.49074074074074076,6.3246000000238425],[0.18697916666666667,-0.48629629629629634,6.341400000005962],[0.17489583333333342,-0.4955555555555556,6.357999999999997],[0.16552083333333342,-0.5027777777777778,6.378200000017884],[0.16552083333333342,-0.5027777777777778,6.391200000017882],[0.15656249999999997,-0.5009259259259259,6.408000000000001],[0.14989583333333342,-0.4685185185185185,6.427100000023842],[0.14989583333333342,-0.4685185185185185,6.4495000000000005],[0.14947916666666666,-0.4527777777777778,6.467600000023843],[0.14947916666666666,-0.4527777777777778,6.474600000023841],[0.14312500000000009,-0.4609259259259259,6.491300000011918],[0.1492708333333333,-0.47481481481481475,6.507900000005961],[0.1486458333333334,-0.48777777777777775,6.524600000023838],[0.13937499999999994,-0.4935185185185185,6.543900000005962],[0.13020833333333334,-0.4994444444444444,6.558],[0.12770833333333323,-0.4818518518518518,6.57710000002384],[0.12104166666666671,-0.4696296296296297,6.591200000017878],[0.10812499999999996,-0.4714814814814815,6.607900000005962],[0.11635416666666672,-0.4948148148148148,6.626900000005961],[0.11635416666666672,-0.4948148148148148,6.641400000005959],[0.12854166666666675,-0.49981481481481477,6.658000000000001],[0.15489583333333337,-0.4792592592592593,6.674600000023844],[0.16135416666666677,-0.4366666666666667,6.691300000011921],[0.1474999999999999,-0.40611111111111114,6.710400000005961],[0.13770833333333338,-0.3987037037037037,6.7249000000059596],[0.07000000000000005,-0.3803703703703703,6.744700000017879],[0.07000000000000005,-0.3803703703703703,6.757900000005961],[0.002291666666666714,-0.36203703703703705,6.774600000023838],[-0.05666666666666664,-0.3698148148148148,6.793999999999997],[-0.12458333333333335,-0.3844444444444445,6.8091000000238395],[-0.12458333333333335,-0.3844444444444445,6.8246000000238425],[-0.20541666666666672,-0.3942592592592592,6.841400000005962],[-0.29312499999999997,-0.3985185185185185,6.857999999999997],[-0.38947916666666665,-0.42666666666666664,6.876700000017884],[-0.4686458333333333,-0.4703703703703704,6.891300000011924],[-0.51875,-0.47611111111111115,6.910400000005957],[-0.5675,-0.47537037037037033,6.924600000023844],[-0.5794791666666667,-0.4927777777777778,6.941300000011921],[-0.5955208333333334,-0.4988888888888888,6.9611000000238406]]","[0.0003000000119186552,0.05240000000596012,0.07560000002384015,0.0844000000059566,0.11220000001787866,0.12049999999999983,0.14350000000000307,0.15230000001191968,0.17680000001192298,0.18410000002383953,0.20890000000596132,0.21710000002384078,0.24420000001788367,0.2535000000000025,0.27899999999999636,0.28600000000000136,0.3099000000059604,0.31840000000595836,0.3437000000178827,0.35430000001191786,0.37700000000000244,0.38450000000000273,0.41080000001191763,0.41770000001788077,0.44570000001787946,0.4540000000000006,0.4765000000000015,0.48380000001191803,0.5102000000178819,0.5174999999999983,0.5439999999999969,0.5514999999999972,0.576400000005961,0.584900000005959,0.6122000000178787,0.6203000000119232,0.6462000000178776,0.6536000000238431,0.6767000000178811,0.6844999999999999,0.7094000000059566,0.7167000000178803,0.7467000000178814,0.7568000000119213,0.7789000000059616,0.786999999999999,0.7913000000119226,0.809400000005958,0.844200000017878,0.8542000000178831,0.8794000000059583,0.8877000000178796,0.9112000000178782,0.9184000000059598,0.9458000000119213,0.9540000000000006,0.9773000000119225,0.98540000000596,1.0107000000178843,1.0198000000119194,1.02470000001788,1.043999999999997,1.078000000000003,1.0848000000119171,1.0913000000119197,1.1124000000059624,1.1439000000059636,1.1518000000119173,1.1754000000059577,1.1827000000178813,1.212300000011922,1.22080000001192,1.2449999999999974,1.2530000000000001,1.2830000000000013,1.2907000000178783,1.3106000000238396,1.3193000000119213,1.35030000001192,1.357999999999997,1.3779000000059582,1.38510000002384,1.409700000017878,1.4171000000238436,1.4420000000000002,1.4532000000178797,1.4579999999999984,1.494700000017879,1.5105000000000004,1.52170000001788,1.544800000011918,1.560200000017879,1.578100000023845,1.5861000000238406,1.6163000000119183,1.6246000000238396,1.6442000000178822,1.6526000000238383,1.6834000000059604,1.6909000000059606,1.711400000005959,1.719200000017878,1.7475000000000023,1.7581000000238447,1.7693000000119241,1.7774000000059615,1.7919000000059597,1.8119999999999976,1.8282000000178797,1.8417000000178803,1.8583000000119227,1.879700000017884,1.8915000000000006,1.908200000017878,1.9269000000059577,1.9489000000059633,1.9596000000238405,1.9751000000238434,1.991600000023844,2.0112000000178796,2.0249000000059567,2.041499999999999,2.058100000023842,2.078100000023845,2.0944999999999965,2.1141000000238392,2.1277000000178816,2.1416000000238427,2.158200000017878,2.1778000000119206,2.196800000011919,2.2081000000238404,2.2248000000119177,2.2506000000238444,2.258400000005963,2.2749000000059567,2.2914000000059573,2.311900000005963,2.3247000000178843,2.3416000000238384,2.3592000000178786,2.3770000000000024,2.3924999999999983,2.4080000000000013,2.427600000023844,2.44760000002384,2.4579999999999984,2.474700000017883,2.494800000011921,2.51160000002384,2.5316000000238432,2.5452000000178785,2.558,2.5746000000238425,2.592600000023843,2.6079000000059622,2.6272000000178792,2.6414000000059588,2.6603000000119224,2.6748000000119205,2.691499999999998,2.7126000000238406,2.7273000000119225,2.741500000000002,2.7583000000119213,2.7797000000178826,2.7937000000178784,2.8083000000119185,2.826999999999998,2.8416000000238384,2.8583000000119227,2.8787000000178793,2.8914000000059588,2.90830000001192,2.932000000000002,2.94160000002384,2.9589000000059613,2.976900000005962,2.9957000000178837,3.009999999999998,3.024800000011922,3.0437000000178784,3.0598000000119185,3.0747000000178843,3.0913000000119197,3.1079000000059622,3.1293000000119235,3.1442000000178822,3.1608000000119176,3.1754000000059577,3.1964000000059585,3.210800000011922,3.225999999999999,3.2413000000119183,3.2580000000000027,3.274600000023838,3.2938000000119203,3.308,3.3247000000178843,3.3424000000059593,3.357999999999997,3.3769000000059606,3.3914000000059588,3.4079000000059594,3.424600000023844,3.441300000011921,3.4604000000059614,3.474600000023841,3.4913000000119183,3.5080000000000027,3.52470000001788,3.543900000005962,3.557900000005958,3.5746000000238425,3.5913000000119197,3.607999999999997,3.6271000000238445,3.642700000017882,3.659900000005962,3.6747000000178787,3.691300000011921,3.71070000001788,3.724600000023841,3.7413000000119183,3.757900000005961,3.774600000023838,3.7944999999999993,3.808,3.8246000000238425,3.8416000000238384,3.8579000000059622,3.8770000000000024,3.893600000023838,3.910499999999999,3.9249000000059624,3.941300000011921,3.9612000000178824,3.974700000017883,3.9951000000238395,4.0089000000059585,4.02470000001788,4.043700000017878,4.05840000000596,4.074700000017884,4.091499999999996,4.107900000005962,4.1285000000000025,4.145499999999998,4.158400000005962,4.178300000011923,4.191400000005963,4.208200000017882,4.228499999999997,4.2451000000238395,4.260200000017882,4.275100000023841,4.29680000001192,4.308,4.324900000005961,4.342300000011917,4.358100000023839,4.377700000017882,4.393999999999998,4.407900000005959,4.424600000023844,4.4465,4.461600000023843,4.476900000005962,4.492800000011918,4.510600000023842,4.524600000023838,4.545100000023844,4.560300000011921,4.577300000011924,4.5938000000119175,4.613300000011918,4.628200000017884,4.641300000011924,4.658000000000001,4.674600000023844,4.691300000011921,4.7103000000119195,4.7265000000000015,4.741300000011918,4.758100000023845,4.774600000023838,4.794100000023839,4.809600000023842,4.827800000011919,4.841499999999996,4.85930000001192,4.880200000017879,4.891500000000001,4.908100000023843,4.924900000005962,4.946900000005961,4.962900000005959,4.975000000000001,4.995200000017881,5.011700000017882,5.024800000011922,5.04490000000596,5.058200000017884,5.074800000011919,5.093600000023841,5.112400000005962,5.1286000000238445,5.141300000011924,5.158000000000001,5.174600000023844,5.191300000011921,5.210499999999996,5.225700000017881,5.241300000011918,5.258000000000003,5.274600000023838,5.294200000017881,5.3129000000059605,5.329400000005961,5.34470000001788,5.365800000011923,5.3747000000178815,5.391500000000001,5.410400000005957,5.428200000017881,5.446800000011919,5.461200000017882,5.476200000017883,5.491500000000002,5.507900000005961,5.524600000023838,5.545100000023844,5.557900000005958,5.5746000000238425,5.594900000005957,5.607999999999997,5.62460000002384,5.641300000011924,5.658000000000001,5.674600000023844,5.691200000017879,5.711900000005961,5.7273000000119225,5.744999999999997,5.7643000000119216,5.774600000023838,5.791499999999999,5.807900000005958,5.8245000000000005,5.841600000023838,5.857900000005962,5.8770000000000024,5.894200000017882,5.910700000017883,5.925100000023839,5.941900000005958,5.962400000005957,5.974700000017883,5.99140000000596,6.007900000005961,6.024600000023838,6.044200000017881,6.060800000011923,6.077500000000001,6.0938000000119175,6.113700000017879,6.12460000002384,6.141300000011924,6.1624000000059596,6.177800000011921,6.196900000005961,6.211300000011917,6.22680000001192,6.241300000011918,6.258000000000003,6.275100000023841,6.294600000023841,6.3089999999999975,6.3246000000238425,6.341400000005962,6.357999999999997,6.378200000017884,6.391200000017882,6.408000000000001,6.427100000023842,6.4495000000000005,6.467600000023843,6.474600000023841,6.491300000011918,6.507900000005961,6.524600000023838,6.543900000005962,6.558,6.57710000002384,6.591200000017878,6.607900000005962,6.626900000005961,6.641400000005959,6.658000000000001,6.674600000023844,6.691300000011921,6.710400000005961,6.7249000000059596,6.744700000017879,6.757900000005961,6.774600000023838,6.793999999999997,6.8091000000238395,6.8246000000238425,6.841400000005962,6.857999999999997,6.876700000017884,6.891300000011924,6.910400000005957,6.924600000023844,6.941300000011921,6.9611000000238406]","[1732693039273,1732693039315,1732693039338,1732693039347,1732693039375,1732693039383,1732693039406,1732693039415,1732693039440,1732693039447,1732693039472,1732693039480,1732693039507,1732693039516,1732693039542,1732693039549,1732693039573,1732693039581,1732693039607,1732693039617,1732693039640,1732693039647,1732693039674,1732693039681,1732693039709,1732693039717,1732693039739,1732693039747,1732693039773,1732693039780,1732693039807,1732693039814,1732693039839,1732693039848,1732693039875,1732693039883,1732693039909,1732693039917,1732693039940,1732693039947,1732693039972,1732693039980,1732693040010,1732693040020,1732693040042,1732693040050,1732693040054,1732693040072,1732693040107,1732693040117,1732693040142,1732693040151,1732693040174,1732693040181,1732693040209,1732693040217,1732693040240,1732693040248,1732693040274,1732693040283,1732693040288,1732693040307,1732693040341,1732693040348,1732693040354,1732693040375,1732693040407,1732693040415,1732693040438,1732693040446,1732693040475,1732693040484,1732693040508,1732693040516,1732693040546,1732693040554,1732693040573,1732693040582,1732693040613,1732693040621,1732693040641,1732693040648,1732693040673,1732693040680,1732693040705,1732693040716,1732693040721,1732693040758,1732693040773,1732693040785,1732693040808,1732693040823,1732693040841,1732693040849,1732693040879,1732693040887,1732693040907,1732693040916,1732693040946,1732693040954,1732693040974,1732693040982,1732693041010,1732693041021,1732693041032,1732693041040,1732693041055,1732693041075,1732693041091,1732693041105,1732693041121,1732693041143,1732693041154,1732693041171,1732693041190,1732693041212,1732693041222,1732693041238,1732693041255,1732693041274,1732693041288,1732693041304,1732693041321,1732693041341,1732693041357,1732693041377,1732693041391,1732693041404,1732693041421,1732693041441,1732693041460,1732693041471,1732693041488,1732693041513,1732693041521,1732693041538,1732693041554,1732693041575,1732693041588,1732693041604,1732693041622,1732693041640,1732693041655,1732693041671,1732693041691,1732693041711,1732693041721,1732693041738,1732693041758,1732693041774,1732693041794,1732693041808,1732693041821,1732693041838,1732693041855,1732693041871,1732693041890,1732693041904,1732693041923,1732693041938,1732693041954,1732693041975,1732693041990,1732693042004,1732693042021,1732693042043,1732693042057,1732693042071,1732693042090,1732693042105,1732693042121,1732693042141,1732693042154,1732693042171,1732693042195,1732693042204,1732693042222,1732693042240,1732693042259,1732693042273,1732693042288,1732693042307,1732693042323,1732693042338,1732693042354,1732693042371,1732693042392,1732693042407,1732693042424,1732693042438,1732693042459,1732693042474,1732693042489,1732693042504,1732693042521,1732693042538,1732693042557,1732693042571,1732693042588,1732693042605,1732693042621,1732693042640,1732693042654,1732693042671,1732693042688,1732693042704,1732693042723,1732693042737,1732693042754,1732693042771,1732693042788,1732693042807,1732693042821,1732693042837,1732693042854,1732693042871,1732693042890,1732693042906,1732693042923,1732693042938,1732693042954,1732693042974,1732693042987,1732693043004,1732693043021,1732693043037,1732693043057,1732693043071,1732693043088,1732693043105,1732693043121,1732693043140,1732693043157,1732693043173,1732693043188,1732693043204,1732693043224,1732693043238,1732693043258,1732693043272,1732693043288,1732693043307,1732693043321,1732693043338,1732693043354,1732693043371,1732693043391,1732693043408,1732693043421,1732693043441,1732693043454,1732693043471,1732693043491,1732693043508,1732693043523,1732693043538,1732693043560,1732693043571,1732693043588,1732693043605,1732693043621,1732693043641,1732693043657,1732693043671,1732693043688,1732693043709,1732693043725,1732693043740,1732693043756,1732693043773,1732693043788,1732693043808,1732693043823,1732693043840,1732693043857,1732693043876,1732693043891,1732693043904,1732693043921,1732693043937,1732693043954,1732693043973,1732693043989,1732693044004,1732693044021,1732693044038,1732693044057,1732693044073,1732693044091,1732693044104,1732693044122,1732693044143,1732693044154,1732693044171,1732693044188,1732693044210,1732693044226,1732693044238,1732693044258,1732693044275,1732693044288,1732693044308,1732693044321,1732693044338,1732693044357,1732693044375,1732693044391,1732693044404,1732693044421,1732693044437,1732693044454,1732693044473,1732693044489,1732693044504,1732693044521,1732693044537,1732693044557,1732693044576,1732693044592,1732693044608,1732693044629,1732693044638,1732693044654,1732693044673,1732693044691,1732693044710,1732693044724,1732693044739,1732693044754,1732693044771,1732693044787,1732693044808,1732693044821,1732693044837,1732693044858,1732693044871,1732693044888,1732693044904,1732693044921,1732693044937,1732693044954,1732693044975,1732693044990,1732693045008,1732693045027,1732693045037,1732693045054,1732693045071,1732693045087,1732693045104,1732693045121,1732693045140,1732693045157,1732693045174,1732693045188,1732693045205,1732693045225,1732693045238,1732693045254,1732693045271,1732693045288,1732693045307,1732693045324,1732693045340,1732693045357,1732693045377,1732693045388,1732693045404,1732693045425,1732693045441,1732693045460,1732693045474,1732693045490,1732693045504,1732693045521,1732693045538,1732693045557,1732693045572,1732693045588,1732693045604,1732693045621,1732693045641,1732693045654,1732693045671,1732693045690,1732693045712,1732693045731,1732693045737,1732693045754,1732693045771,1732693045787,1732693045807,1732693045821,1732693045840,1732693045854,1732693045871,1732693045890,1732693045904,1732693045921,1732693045937,1732693045954,1732693045973,1732693045988,1732693046008,1732693046021,1732693046037,1732693046057,1732693046072,1732693046088,1732693046104,1732693046121,1732693046140,1732693046154,1732693046173,1732693046188,1732693046204,1732693046224]","[[975.3,645.2],[975.3,645.2],[980.1,640.4],[980.1,640.4],[983.3,627.1],[983.3,627.1],[985.6,617.3],[985.6,617.3],[1019.7,612.9],[1019.7,612.9],[1034.4,652],[1034.4,652],[1032.9,648.5],[1032.9,648.5],[1007.2,641.1],[1007.2,641.1],[978.6,617.2],[978.6,617.2],[964.4,615.8],[964.4,615.8],[959.4,630.1],[959.4,630.1],[926.1,653.8],[926.1,653.8],[905.8,693.9],[905.8,693.9],[880.4,693.1],[880.4,693.1],[845.2,715.7],[845.2,715.7],[814.3,687.5],[814.3,687.5],[789.6,698.8],[789.6,698.8],[783.2,710.9],[783.2,710.9],[788.6,720.1],[788.6,720.1],[793.6,716.6],[793.6,716.6],[797.3,678.8],[797.3,678.8],[811.6,635.3],[811.6,635.3],[819.8,608.4],[819.8,608.4],[819.8,608.4],[819.8,608.4],[842.5,601.8],[842.5,601.8],[863.6,583.5],[863.6,583.5],[898.5,580.8],[898.5,580.8],[941.3,580.3],[941.3,580.3],[972.8,596.7],[972.8,596.7],[992.1,616.5],[992.1,616.5],[992.1,616.5],[992.1,616.5],[995.9,633.2],[995.9,633.2],[995.9,633.2],[995.9,633.2],[947.2,650],[947.2,650],[910.3,665.8],[910.3,665.8],[861.2,655.5],[861.2,655.5],[845.5,681.5],[845.5,681.5],[828.2,701.3],[828.2,701.3],[806.8,697.4],[806.8,697.4],[785.4,693.5],[785.4,693.5],[785,671.7],[785,671.7],[803,666.4],[803,666.4],[825.4,653.2],[825.4,653.2],[825.4,653.2],[825.4,653.2],[859.7,663.3],[859.7,663.3],[920.1,672.9],[920.1,672.9],[1005.6,688.5],[1005.6,688.5],[1044.9,674.5],[1044.9,674.5],[1077.5,659.6],[1077.5,659.6],[1106.3,654.3],[1106.3,654.3],[1146.2,642.4],[1146.2,642.4],[1145.4,632.5],[1145.4,632.5],[1150.4,618.4],[1150.4,618.4],[1168.7,606.3],[1200.1,593.2],[1200.9,581.9],[1200.9,581.9],[1192.7,576.3],[1201,578.7],[1201,578.7],[1203.9,570.3],[1212.9,574.6],[1189.6,574.8],[1189.6,574.8],[1204.5,577.9],[1204.5,577.9],[1198.1,577.4],[1198.1,577.4],[1167.5,592.7],[1156.1,615.1],[1141.2,634.5],[1115.1,638.5],[1083.8,650.7],[1083.8,650.7],[1081,653.1],[1081,653.1],[1050.5,659],[1034.9,682.1],[1034.9,682.1],[1007.1,700.8],[966,706.3],[966,706.3],[941,700.2],[941,700.2],[923.1,692],[923.1,692],[873.4,693.6],[831.6,684.6],[786.9,675.1],[728,681.8],[728,681.8],[693.5,699.5],[674.6,688.5],[674.6,688.5],[643.2,673.4],[634.2,672.4],[625.5,661.9],[625.5,661.9],[604.3,657.6],[604.3,657.6],[635.3,644.4],[680.4,659.9],[731,662],[782.3,669.6],[782.3,669.6],[843.1,653.2],[845.5,679.5],[859.5,701.7],[833.1,715.3],[837.9,729.8],[837.9,729.8],[862.9,761],[862.3,793.3],[870.6,778.8],[865.3,781],[865.3,781],[849,774],[825.4,768.9],[861.2,757.2],[861.2,757.2],[891,724],[936.2,716.7],[936.2,716.7],[970.5,711.7],[997.4,682.8],[1033,635.9],[1059.8,635.2],[1079.6,611.2],[1088,603.2],[1091.9,597.7],[1091.9,597.7],[1086.2,590.2],[1116.7,593.4],[1156.6,583.3],[1133,589.6],[1109.4,595.9],[1093.7,615.5],[1042.9,617.5],[1026.7,630.2],[1032.9,636.1],[1032.9,636.1],[1028.3,633],[1045.6,638.6],[1017.8,661.6],[995.8,670.4],[1013.9,673.9],[1032,677.4],[1044.5,686.1],[1079.1,712.9],[1093.4,741],[1093.4,741],[1087,749.7],[1102.3,768.5],[1095,766.7],[1091.4,753.8],[1088.2,759.7],[1066.9,746.1],[1038.3,731.5],[1021.4,727.5],[1021.4,727.5],[1008.5,707.7],[985.3,677.1],[1012.2,676.2],[1028.2,674.2],[1039.3,671.2],[1061.6,672.7],[1074.2,673.5],[1099.6,684],[1123,692.3],[1135.9,684.2],[1137.7,679.2],[1146.3,672.1],[1127.9,657.8],[1109.4,645.7],[1109.4,645.7],[1108.4,628.2],[1112.7,610.8],[1120.5,589.5],[1126.1,560.3],[1138.2,525.5],[1142.6,497.2],[1147,468.9],[1157,445.4],[1166.2,419.2],[1166.2,419.2],[1176.5,392.9],[1183.4,412.4],[1185,431.8],[1183.2,455.6],[1186.6,486.9],[1186.6,486.9],[1190.4,541],[1195.5,581.7],[1200.6,622.4],[1200.6,622.4],[1213.9,658.9],[1213.8,699.2],[1213.8,699.2],[1211.2,737.8],[1198.8,738.8],[1132.2,726],[1069,708.8],[999.7,697.1],[932.8,671.4],[932.8,671.4],[919.5,653.1],[893.5,633.5],[871.6,637.7],[853.6,624.7],[837.1,611.3],[837.1,611.3],[819.6,604.4],[855.8,600.8],[894.3,605.3],[920.1,610.6],[960.6,609.4],[966.9,617.9],[995.3,626.1],[1001.7,642.4],[1016,671.7],[996.4,685.6],[996.8,700.8],[1034.4,722.7],[1051.2,735.9],[1051.2,735.9],[1081.3,734.8],[1106.6,742],[1118.5,743.2],[1124.7,761.3],[1125.1,752.5],[1125.1,752.5],[1124.6,747.7],[1150.1,745.2],[1157.2,733.1],[1131.4,721],[1131.4,721],[1136.2,711.5],[1126,700.5],[1117.8,710.1],[1117.8,710.1],[1134.5,681.3],[1137.6,649.7],[1154.1,625.4],[1163.9,573],[1163.9,573],[1186.5,545.2],[1207,513.9],[1207,513.9],[1223.7,486.4],[1223.7,486.4],[1214.5,481.9],[1221,473.6],[1232.3,430.2],[1218.7,425.2],[1218.7,425.2],[1215.9,417.1],[1190.7,454.6],[1173.1,516.2],[1130,545.8],[1089,578.9],[1089,578.9],[1066.1,586],[1043.8,560.6],[1019.3,556.7],[977.5,569.5],[967.8,552.7],[961,534.1],[976.6,469.9],[976.6,469.9],[980,415.8],[1045.8,385.7],[1096,345.9],[1100.9,333],[1124.2,333.2],[1156.3,314.9],[1181.1,291.5],[1169.6,295.8],[1164.8,298.5],[1154.1,306.1],[1154.1,306.1],[1155.6,303.6],[1118.5,311.3],[1118.5,311.3],[1104.9,319.2],[1105.5,325.4],[1100.9,326],[1099.8,326.9],[1106.6,328.9],[1109.3,325.2],[1116.3,340.7],[1124.8,344.1],[1143.4,346.8],[1143.4,346.8],[1147.9,322.6],[1153.1,320],[1171.3,318.2],[1179.2,303.9],[1185.9,305.3],[1195.6,296.7],[1213.3,295.2],[1206.9,257.3],[1204.8,235.6],[1198.8,218.8],[1203.8,213.8],[1203.8,213.8],[1190.9,192.7],[1190.9,192.7],[1179,178.7],[1176.3,183.3],[1163.7,168.6],[1142.6,171.4],[1121.9,173.2],[1132,199.6],[1132,199.6],[1125.7,215.3],[1124.4,221.5],[1123.8,232.4],[1132.5,247.3],[1130.1,247.6],[1128.8,241.8],[1128.8,241.8],[1134.3,257.6],[1135.9,265.5],[1143.9,274.4],[1133.5,275],[1133.5,275],[1139.5,277.4],[1127.9,272.4],[1118.9,268.5],[1118.9,268.5],[1110.3,269.5],[1103.9,287],[1103.9,287],[1103.5,295.5],[1103.5,295.5],[1097.4,291.1],[1103.3,283.6],[1102.7,276.6],[1093.8,273.5],[1085,270.3],[1082.6,279.8],[1076.2,286.4],[1063.8,285.4],[1071.7,272.8],[1071.7,272.8],[1083.4,270.1],[1108.7,281.2],[1114.9,304.2],[1101.6,320.7],[1092.2,324.7],[1027.2,334.6],[1027.2,334.6],[962.2,344.5],[905.6,340.3],[840.4,332.4],[840.4,332.4],[762.8,327.1],[678.6,324.8],[586.1,309.6],[510.1,286],[462,282.9],[415.2,283.3],[403.7,273.9],[388.3,270.6]]","[-0.2,0.6000000000000001]","[0.2,0.6000000000000001]","[0.6000000000000001,0.6000000000000001]","[-0.6000000000000001,-0.6000000000000001]","[-0.6000000000000001,0.2]","[-0.6000000000000001,-0.2]","[-0.2,-0.6000000000000001]","[0.2,-0.6000000000000001]","[0.6000000000000001,-0.6000000000000001]","[-0.2,0.2]","[0.2,0.2]","[0.6000000000000001,0.2]","[-0.2,-0.2]","[0.2,-0.2]","[0.6000000000000001,-0.2]",0,0,0,0,1,3,Monitor,25,40,9,1,50,4,1,60,5
