inst1_resp.keys,inst1_resp.rt,calibrationMouse.x,calibrationMouse.y,calibrationMouse.leftButton,calibrationMouse.midButton,calibrationMouse.rightButton,calibrationClick.x,calibrationClick.y,calibrationClick.leftButton,calibrationClick.midButton,calibrationClick.rightButton,trialsc.thisRepN,trialsc.thisTrialN,trialsc.thisN,trialsc.thisIndex,trialsc.ran,calibration_x,calibration_y,participant,session,date,expName,psychopyVersion,OS,frameRate,calibrationClick.clicked_name,ScreenRes_pixels,Camera_pixels,mouse_2.x,mouse_2.y,mouse_2.leftButton,mouse_2.midButton,mouse_2.rightButton,mouse_2.time,mouse_2.clicked_name,mouse.x,mouse.y,mouse.leftButton,mouse.midButton,mouse.rightButton,mouse.time,mouse.clicked_name,Choice,Trial,TrialDuration,MOUSE_GAZE,ET_GAZE,ET_GAZE_x_T,time,unixTime,ET_GAZE_NF,Loc_Bus_label,Loc_Metro_label,Loc_RH_label,Loc_Cost_label,Loc_Travel_label,Loc_Comfort_label,Loc_Bus_cost,Loc_Metro_cost,Loc_RH_cost,Loc_Bus_travel,Loc_Metro_travel,Loc_RH_travel,Loc_Bus_comfort,Loc_Metro_comfort,Loc_RH_comfort,trials.thisRepN,trials.thisTrialN,trials.thisN,trials.thisIndex,trials.ran,Block,Device,RH_cost,RH_travel_time,RH_Comfort,metro_cost,metro_travel_time,metro_Comfort,Bus_cost,Bus_travel_time,Bus_Comfort
space,1.8877,0.077083333,-0.077777778,1,0,0,0.00625,0.683333333,1,0,0,0,0,0,13,1,0,0.67,19,001,2024-11-27_15h27.29.287,Attention_exp_legacy,2023.1.0,Win32,59.88023952,,,,,,,,,,,,,,,,,,,,,,,,,,,,,,,,,,,,,,,,,,,,,,,,,,,,,,,,,
,,,,,,,0,0.340740741,1,0,0,0,1,1,12,1,0,0.33,19,001,2024-11-27_15h27.29.287,Attention_exp_legacy,2023.1.0,Win32,59.88023952,,,,,,,,,,,,,,,,,,,,,,,,,,,,,,,,,,,,,,,,,,,,,,,,,,,,,,,,,
,,,,,,,-0.003125,0.003703704,1,0,0,0,2,2,11,1,0,0,19,001,2024-11-27_15h27.29.287,Attention_exp_legacy,2023.1.0,Win32,59.88023952,calibration_square,,,,,,,,,,,,,,,,,,,,,,,,,,,,,,,,,,,,,,,,,,,,,,,,,,,,,,,,
,,,,,,,0.321875,-0.337037037,1,0,0,0,3,3,15,1,0.33,-0.33,19,001,2024-11-27_15h27.29.287,Attention_exp_legacy,2023.1.0,Win32,59.88023952,calibration_square,,,,,,,,,,,,,,,,,,,,,,,,,,,,,,,,,,,,,,,,,,,,,,,,,,,,,,,,
,,,,,,,0.001041667,-0.661111111,1,0,0,0,4,4,9,1,0,-0.67,19,001,2024-11-27_15h27.29.287,Attention_exp_legacy,2023.1.0,Win32,59.88023952,calibration_square,,,,,,,,,,,,,,,,,,,,,,,,,,,,,,,,,,,,,,,,,,,,,,,,,,,,,,,,
,,,,,,,0.338541667,0.67962963,1,0,0,0,5,5,18,1,0.33,0.67,19,001,2024-11-27_15h27.29.287,Attention_exp_legacy,2023.1.0,Win32,59.88023952,calibration_square,,,,,,,,,,,,,,,,,,,,,,,,,,,,,,,,,,,,,,,,,,,,,,,,,,,,,,,,
,,,,,,,-0.676041667,-0.009259259,1,0,0,0,6,6,2,1,-0.67,0,19,001,2024-11-27_15h27.29.287,Attention_exp_legacy,2023.1.0,Win32,59.88023952,calibration_square,,,,,,,,,,,,,,,,,,,,,,,,,,,,,,,,,,,,,,,,,,,,,,,,,,,,,,,,
,,,,,,,0.321875,0.318518519,1,0,0,0,7,7,17,1,0.33,0.33,19,001,2024-11-27_15h27.29.287,Attention_exp_legacy,2023.1.0,Win32,59.88023952,,,,,,,,,,,,,,,,,,,,,,,,,,,,,,,,,,,,,,,,,,,,,,,,,,,,,,,,,
,,,,,,,-0.329166667,-0.681481481,1,0,0,0,8,8,4,1,-0.33,-0.67,19,001,2024-11-27_15h27.29.287,Attention_exp_legacy,2023.1.0,Win32,59.88023952,,,,,,,,,,,,,,,,,,,,,,,,,,,,,,,,,,,,,,,,,,,,,,,,,,,,,,,,,
,,,,,,,-0.328125,-0.322222222,1,0,0,0,9,9,5,1,-0.33,-0.33,19,001,2024-11-27_15h27.29.287,Attention_exp_legacy,2023.1.0,Win32,59.88023952,calibration_square,,,,,,,,,,,,,,,,,,,,,,,,,,,,,,,,,,,,,,,,,,,,,,,,,,,,,,,,
,,,,,,,0.671875,0.666666667,1,0,0,0,10,10,19,1,0.67,0.67,19,001,2024-11-27_15h27.29.287,Attention_exp_legacy,2023.1.0,Win32,59.88023952,calibration_square,,,,,,,,,,,,,,,,,,,,,,,,,,,,,,,,,,,,,,,,,,,,,,,,,,,,,,,,
,,,,,,,0.342708333,0.011111111,1,0,0,0,11,11,16,1,0.33,0,19,001,2024-11-27_15h27.29.287,Attention_exp_legacy,2023.1.0,Win32,59.88023952,,,,,,,,,,,,,,,,,,,,,,,,,,,,,,,,,,,,,,,,,,,,,,,,,,,,,,,,,
,,,,,,,-0.683333333,-0.331481481,1,0,0,0,12,12,1,1,-0.67,-0.33,19,001,2024-11-27_15h27.29.287,Attention_exp_legacy,2023.1.0,Win32,59.88023952,,,,,,,,,,,,,,,,,,,,,,,,,,,,,,,,,,,,,,,,,,,,,,,,,,,,,,,,,
,,,,,,,-0.338541667,0.32962963,1,0,0,0,13,13,7,1,-0.33,0.33,19,001,2024-11-27_15h27.29.287,Attention_exp_legacy,2023.1.0,Win32,59.88023952,calibration_square,,,,,,,,,,,,,,,,,,,,,,,,,,,,,,,,,,,,,,,,,,,,,,,,,,,,,,,,
,,,,,,,-0.332291667,0.681481481,1,0,0,0,14,14,8,1,-0.33,0.67,19,001,2024-11-27_15h27.29.287,Attention_exp_legacy,2023.1.0,Win32,59.88023952,,,,,,,,,,,,,,,,,,,,,,,,,,,,,,,,,,,,,,,,,,,,,,,,,,,,,,,,,
,,,,,,,-0.676041667,-0.677777778,1,0,0,0,15,15,0,1,-0.67,-0.67,19,001,2024-11-27_15h27.29.287,Attention_exp_legacy,2023.1.0,Win32,59.88023952,calibration_square,,,,,,,,,,,,,,,,,,,,,,,,,,,,,,,,,,,,,,,,,,,,,,,,,,,,,,,,
,,,,,,,-0.665625,0.331481481,1,0,0,0,16,16,3,1,-0.67,0.33,19,001,2024-11-27_15h27.29.287,Attention_exp_legacy,2023.1.0,Win32,59.88023952,calibration_square,,,,,,,,,,,,,,,,,,,,,,,,,,,,,,,,,,,,,,,,,,,,,,,,,,,,,,,,
,,,,,,,-0.327083333,0.003703704,1,0,0,0,17,17,6,1,-0.33,0,19,001,2024-11-27_15h27.29.287,Attention_exp_legacy,2023.1.0,Win32,59.88023952,calibration_square,,,,,,,,,,,,,,,,,,,,,,,,,,,,,,,,,,,,,,,,,,,,,,,,,,,,,,,,
,,,,,,,0.669791667,-0.648148148,1,0,0,0,18,18,20,1,0.67,-0.67,19,001,2024-11-27_15h27.29.287,Attention_exp_legacy,2023.1.0,Win32,59.88023952,,,,,,,,,,,,,,,,,,,,,,,,,,,,,,,,,,,,,,,,,,,,,,,,,,,,,,,,,
,,,,,,,0.323958333,-0.668518519,1,0,0,0,19,19,14,1,0.33,-0.67,19,001,2024-11-27_15h27.29.287,Attention_exp_legacy,2023.1.0,Win32,59.88023952,calibration_square,,,,,,,,,,,,,,,,,,,,,,,,,,,,,,,,,,,,,,,,,,,,,,,,,,,,,,,,
,,,,,,,-0.00625,-0.346296296,1,0,0,0,20,20,10,1,0,-0.33,19,001,2024-11-27_15h27.29.287,Attention_exp_legacy,2023.1.0,Win32,59.88023952,,,,,,,,,,,,,,,,,,,,,,,,,,,,,,,,,,,,,,,,,,,,,,,,,,,,,,,,,
,,,,,,,,,,,,,,,,,,,19,001,2024-11-27_15h27.29.287,Attention_exp_legacy,2023.1.0,Win32,59.88023952,,"[1920,1080]","[640,480]",[0.013541666666666667],[-0.5259259259259259],[1],[0],[0],[6.044199999988081],"[""StartButton""]",[0.07083333333333333],[0.15925925925925927],[1],[0],[0],[6.350199999988078],"[""Metro_label""]",Metro_label,1,7.3769,"[[0.013541666666666667,-0.524074074074074],[0.013541666666666667,-0.524074074074074],[0.013541666666666667,-0.524074074074074],[0.013541666666666667,-0.524074074074074],[0.013541666666666667,-0.524074074074074],[0.013541666666666667,-0.524074074074074],[0.013541666666666667,-0.524074074074074],[0.013541666666666667,-0.524074074074074],[0.013541666666666667,-0.524074074074074],[0.013541666666666667,-0.524074074074074],[0.013541666666666667,-0.524074074074074],[0.013541666666666667,-0.524074074074074],[0.013541666666666667,-0.524074074074074],[0.013541666666666667,-0.524074074074074],[0.013541666666666667,-0.524074074074074],[0.013541666666666667,-0.524074074074074],[0.013541666666666667,-0.524074074074074],[0.013541666666666667,-0.524074074074074],[0.013541666666666667,-0.524074074074074],[0.013541666666666667,-0.524074074074074],[0.013541666666666667,-0.524074074074074],[0.013541666666666667,-0.524074074074074],[0.013541666666666667,-0.524074074074074],[0.013541666666666667,-0.524074074074074],[0.013541666666666667,-0.524074074074074],[0.013541666666666667,-0.524074074074074],[0.013541666666666667,-0.524074074074074],[0.013541666666666667,-0.524074074074074],[0.013541666666666667,-0.524074074074074],[0.013541666666666667,-0.524074074074074],[0.013541666666666667,-0.524074074074074],[0.013541666666666667,-0.524074074074074],[0.013541666666666667,-0.524074074074074],[0.013541666666666667,-0.524074074074074],[0.013541666666666667,-0.524074074074074],[0.013541666666666667,-0.524074074074074],[0.013541666666666667,-0.524074074074074],[0.013541666666666667,-0.524074074074074],[0.013541666666666667,-0.524074074074074],[0.013541666666666667,-0.524074074074074],[0.013541666666666667,-0.524074074074074],[0.013541666666666667,-0.524074074074074],[0.013541666666666667,-0.524074074074074],[0.013541666666666667,-0.524074074074074],[0.013541666666666667,-0.524074074074074],[0.013541666666666667,-0.524074074074074],[0.013541666666666667,-0.524074074074074],[0.013541666666666667,-0.524074074074074],[0.013541666666666667,-0.524074074074074],[0.013541666666666667,-0.524074074074074],[0.013541666666666667,-0.524074074074074],[0.013541666666666667,-0.524074074074074],[0.013541666666666667,-0.524074074074074],[0.013541666666666667,-0.524074074074074],[0.013541666666666667,-0.524074074074074],[0.013541666666666667,-0.524074074074074],[0.013541666666666667,-0.524074074074074],[0.013541666666666667,-0.524074074074074],[0.013541666666666667,-0.524074074074074],[0.013541666666666667,-0.524074074074074],[0.013541666666666667,-0.524074074074074],[0.013541666666666667,-0.524074074074074],[0.013541666666666667,-0.524074074074074],[0.013541666666666667,-0.524074074074074],[0.013541666666666667,-0.524074074074074],[0.013541666666666667,-0.524074074074074],[0.013541666666666667,-0.524074074074074],[0.013541666666666667,-0.524074074074074],[0.013541666666666667,-0.524074074074074],[0.013541666666666667,-0.524074074074074],[0.013541666666666667,-0.5203703703703704],[0.013541666666666667,-0.4962962962962963],[0.013541666666666667,-0.4777777777777778],[0.013541666666666667,-0.4703703703703704],[0.013541666666666667,-0.4685185185185185],[0.013541666666666667,-0.4685185185185185],[0.013541666666666667,-0.4685185185185185],[0.013541666666666667,-0.4685185185185185],[0.013541666666666667,-0.4685185185185185],[0.013541666666666667,-0.4685185185185185],[0.013541666666666667,-0.4685185185185185],[0.013541666666666667,-0.4685185185185185],[0.013541666666666667,-0.4685185185185185],[0.013541666666666667,-0.4685185185185185],[0.013541666666666667,-0.4685185185185185],[0.013541666666666667,-0.4685185185185185],[0.013541666666666667,-0.4685185185185185],[0.013541666666666667,-0.4685185185185185],[0.013541666666666667,-0.4685185185185185],[0.013541666666666667,-0.4685185185185185],[0.013541666666666667,-0.4685185185185185],[0.013541666666666667,-0.4685185185185185],[0.013541666666666667,-0.4685185185185185],[0.013541666666666667,-0.4685185185185185],[0.013541666666666667,-0.4685185185185185],[0.013541666666666667,-0.4685185185185185],[0.013541666666666667,-0.4685185185185185],[0.013541666666666667,-0.4685185185185185],[0.013541666666666667,-0.4685185185185185],[0.013541666666666667,-0.4685185185185185],[0.013541666666666667,-0.4685185185185185],[0.013541666666666667,-0.4685185185185185],[0.013541666666666667,-0.4685185185185185],[0.013541666666666667,-0.4685185185185185],[0.013541666666666667,-0.4685185185185185],[0.013541666666666667,-0.4685185185185185],[0.013541666666666667,-0.4685185185185185],[0.013541666666666667,-0.4685185185185185],[0.013541666666666667,-0.4685185185185185],[0.013541666666666667,-0.4685185185185185],[0.013541666666666667,-0.4685185185185185],[0.013541666666666667,-0.4685185185185185],[0.013541666666666667,-0.4685185185185185],[0.013541666666666667,-0.4685185185185185],[0.013541666666666667,-0.4685185185185185],[0.013541666666666667,-0.4685185185185185],[0.013541666666666667,-0.4685185185185185],[0.013541666666666667,-0.4685185185185185],[0.013541666666666667,-0.4685185185185185],[0.013541666666666667,-0.4685185185185185],[0.013541666666666667,-0.4685185185185185],[0.013541666666666667,-0.4685185185185185],[0.013541666666666667,-0.4685185185185185],[0.013541666666666667,-0.4685185185185185],[0.013541666666666667,-0.4685185185185185],[0.013541666666666667,-0.4685185185185185],[0.013541666666666667,-0.4685185185185185],[0.013541666666666667,-0.4685185185185185],[0.013541666666666667,-0.4685185185185185],[0.013541666666666667,-0.4685185185185185],[0.013541666666666667,-0.4685185185185185],[0.013541666666666667,-0.4685185185185185],[0.013541666666666667,-0.4685185185185185],[0.013541666666666667,-0.4685185185185185],[0.013541666666666667,-0.4685185185185185],[0.013541666666666667,-0.4685185185185185],[0.013541666666666667,-0.4685185185185185],[0.013541666666666667,-0.4685185185185185],[0.013541666666666667,-0.4685185185185185],[0.013541666666666667,-0.4685185185185185],[0.013541666666666667,-0.4685185185185185],[0.013541666666666667,-0.4685185185185185],[0.013541666666666667,-0.4685185185185185],[0.013541666666666667,-0.4685185185185185],[0.013541666666666667,-0.4685185185185185],[0.013541666666666667,-0.4685185185185185],[0.013541666666666667,-0.4685185185185185],[0.013541666666666667,-0.4685185185185185],[0.013541666666666667,-0.4685185185185185],[0.013541666666666667,-0.4685185185185185],[0.013541666666666667,-0.4685185185185185],[0.013541666666666667,-0.4685185185185185],[0.013541666666666667,-0.4685185185185185],[0.013541666666666667,-0.4685185185185185],[0.013541666666666667,-0.4685185185185185],[0.013541666666666667,-0.4685185185185185],[0.013541666666666667,-0.4685185185185185],[0.013541666666666667,-0.4685185185185185],[0.013541666666666667,-0.4685185185185185],[0.013541666666666667,-0.4685185185185185],[0.013541666666666667,-0.4685185185185185],[0.013541666666666667,-0.4685185185185185],[0.013541666666666667,-0.4685185185185185],[0.013541666666666667,-0.4685185185185185],[0.013541666666666667,-0.4685185185185185],[0.013541666666666667,-0.4685185185185185],[0.013541666666666667,-0.4685185185185185],[0.013541666666666667,-0.4685185185185185],[0.013541666666666667,-0.4685185185185185],[0.013541666666666667,-0.45925925925925926],[0.013541666666666667,-0.42777777777777776],[0.013541666666666667,-0.3925925925925926],[0.013541666666666667,-0.34074074074074073],[0.013541666666666667,-0.28888888888888886],[0.013541666666666667,-0.25],[0.013541666666666667,-0.2222222222222222],[0.014583333333333334,-0.20185185185185187],[0.014583333333333334,-0.18518518518518517],[0.014583333333333334,-0.18333333333333332],[0.015625,-0.17962962962962964],[0.016666666666666666,-0.17222222222222222],[0.01875,-0.1648148148148148],[0.019791666666666666,-0.15555555555555556],[0.021875,-0.14444444444444443],[0.025,-0.12962962962962962],[0.030208333333333334,-0.10925925925925926],[0.035416666666666666,-0.08518518518518518],[0.040625,-0.05],[0.04479166666666667,-0.020370370370370372],[0.04895833333333333,0.009259259259259259],[0.053125,0.03333333333333333],[0.057291666666666664,0.07037037037037037],[0.058333333333333334,0.09259259259259259],[0.059375,0.1111111111111111],[0.059375,0.12037037037037036],[0.059375,0.1259259259259259],[0.059375,0.13333333333333333],[0.059375,0.13703703703703704],[0.059375,0.1425925925925926],[0.06145833333333333,0.14814814814814814],[0.06145833333333333,0.14814814814814814],[0.06145833333333333,0.14814814814814814],[0.06145833333333333,0.14814814814814814],[0.06145833333333333,0.14814814814814814],[0.06145833333333333,0.14814814814814814],[0.06145833333333333,0.14814814814814814],[0.06354166666666666,0.12407407407407407],[0.071875,0.08518518518518518],[0.08020833333333334,0.05185185185185185],[0.09375,0.005555555555555556],[0.09791666666666667,-0.005555555555555556],[0.10729166666666666,-0.027777777777777776],[0.11666666666666667,-0.04814814814814815],[0.12604166666666666,-0.06851851851851852],[0.13333333333333333,-0.08518518518518518],[0.14270833333333333,-0.10185185185185185],[0.15625,-0.12037037037037036],[0.16458333333333333,-0.12777777777777777],[0.16770833333333332,-0.12962962962962962],[0.16770833333333332,-0.12962962962962962],[0.16770833333333332,-0.12962962962962962],[0.16770833333333332,-0.12962962962962962],[0.16770833333333332,-0.12962962962962962],[0.16875,-0.12962962962962962],[0.16979166666666667,-0.12777777777777777],[0.16979166666666667,-0.12222222222222222],[0.16979166666666667,-0.11851851851851852],[0.16979166666666667,-0.1111111111111111],[0.16979166666666667,-0.10555555555555556],[0.16979166666666667,-0.10185185185185185],[0.16875,-0.0962962962962963],[0.16666666666666666,-0.09074074074074075],[0.16458333333333333,-0.08703703703703704],[0.1625,-0.08333333333333333],[0.159375,-0.07962962962962963],[0.15520833333333334,-0.07962962962962963],[0.15208333333333332,-0.07777777777777778],[0.14583333333333334,-0.07407407407407407],[0.140625,-0.07407407407407407],[0.1375,-0.07407407407407407],[0.13333333333333333,-0.07407407407407407],[0.12916666666666668,-0.07407407407407407],[0.12604166666666666,-0.07407407407407407],[0.12083333333333333,-0.07407407407407407],[0.11770833333333333,-0.07407407407407407],[0.11354166666666667,-0.07407407407407407],[0.109375,-0.07407407407407407],[0.103125,-0.07407407407407407],[0.09583333333333334,-0.07407407407407407],[0.09166666666666666,-0.07407407407407407],[0.08854166666666667,-0.07407407407407407],[0.08229166666666667,-0.07407407407407407],[0.07291666666666667,-0.07407407407407407],[0.071875,-0.07407407407407407],[0.06979166666666667,-0.07407407407407407],[0.06875,-0.07407407407407407],[0.06875,-0.07407407407407407],[0.06875,-0.07407407407407407],[0.06875,-0.07407407407407407],[0.06875,-0.07407407407407407],[0.06875,-0.07407407407407407],[0.06875,-0.07407407407407407],[0.06875,-0.08148148148148149],[0.071875,-0.1037037037037037],[0.07395833333333333,-0.1259259259259259],[0.07604166666666666,-0.15185185185185185],[0.08020833333333334,-0.17592592592592593],[0.08229166666666667,-0.1925925925925926],[0.084375,-0.2037037037037037],[0.084375,-0.2111111111111111],[0.084375,-0.2111111111111111],[0.084375,-0.2111111111111111],[0.084375,-0.2111111111111111],[0.084375,-0.2111111111111111],[0.084375,-0.2111111111111111],[0.08541666666666667,-0.2111111111111111],[0.08958333333333333,-0.20185185185185187],[0.09166666666666666,-0.18888888888888888],[0.09479166666666666,-0.17037037037037037],[0.09791666666666667,-0.1425925925925926],[0.1,-0.11296296296296296],[0.1,-0.07222222222222222],[0.1,-0.03333333333333333],[0.1,0.012962962962962963],[0.096875,0.07407407407407407],[0.09583333333333334,0.0962962962962963],[0.09375,0.1111111111111111],[0.090625,0.12962962962962962],[0.0875,0.1425925925925926],[0.084375,0.1537037037037037],[0.08333333333333333,0.1574074074074074],[0.08229166666666667,0.15925925925925927],[0.08229166666666667,0.15925925925925927],[0.08229166666666667,0.16111111111111112],[0.08229166666666667,0.16111111111111112],[0.08229166666666667,0.16111111111111112],[0.08020833333333334,0.16296296296296298],[0.07604166666666666,0.16666666666666666],[0.07604166666666666,0.16666666666666666],[0.07604166666666666,0.16666666666666666],[0.07604166666666666,0.16666666666666666],[0.07604166666666666,0.16666666666666666],[0.07604166666666666,0.16666666666666666],[0.07604166666666666,0.16666666666666666],[0.07604166666666666,0.16666666666666666],[0.07604166666666666,0.16666666666666666],[0.07604166666666666,0.16666666666666666],[0.07604166666666666,0.16666666666666666],[0.07604166666666666,0.16666666666666666],[0.07604166666666666,0.16666666666666666],[0.07604166666666666,0.16666666666666666],[0.07604166666666666,0.16666666666666666],[0.07604166666666666,0.16666666666666666],[0.07604166666666666,0.16666666666666666],[0.07604166666666666,0.16666666666666666],[0.07604166666666666,0.16666666666666666],[0.07604166666666666,0.16666666666666666],[0.07604166666666666,0.16666666666666666],[0.07604166666666666,0.16666666666666666],[0.07604166666666666,0.16666666666666666],[0.07604166666666666,0.16666666666666666],[0.07604166666666666,0.16666666666666666],[0.07604166666666666,0.16666666666666666],[0.07395833333333333,0.1685185185185185],[0.06458333333333334,0.16666666666666666],[0.04895833333333333,0.1648148148148148],[0.041666666666666664,0.1648148148148148],[0.028125,0.1648148148148148],[0.016666666666666666,0.1648148148148148],[0.00625,0.1648148148148148],[-0.0010416666666666667,0.1648148148148148],[-0.007291666666666667,0.1648148148148148],[-0.010416666666666666,0.1648148148148148],[-0.013541666666666667,0.1648148148148148],[-0.015625,0.1648148148148148],[-0.01875,0.1648148148148148],[-0.021875,0.1648148148148148],[-0.023958333333333335,0.1648148148148148],[-0.025,0.1648148148148148],[-0.029166666666666667,0.1648148148148148],[-0.035416666666666666,0.1648148148148148],[-0.03958333333333333,0.1648148148148148],[-0.04583333333333333,0.1648148148148148],[-0.05,0.1648148148148148],[-0.05416666666666667,0.1648148148148148],[-0.05416666666666667,0.1648148148148148],[-0.05416666666666667,0.1648148148148148],[-0.05416666666666667,0.1648148148148148],[-0.05416666666666667,0.1648148148148148],[-0.05416666666666667,0.1648148148148148],[-0.05416666666666667,0.1648148148148148],[-0.05416666666666667,0.1648148148148148],[-0.05416666666666667,0.1648148148148148],[-0.05416666666666667,0.1648148148148148],[-0.046875,0.1648148148148148],[-0.035416666666666666,0.1648148148148148],[-0.021875,0.1648148148148148],[-0.005208333333333333,0.1648148148148148],[0.013541666666666667,0.1648148148148148],[0.034375,0.1648148148148148],[0.04479166666666667,0.16111111111111112],[0.04895833333333333,0.16111111111111112],[0.051041666666666666,0.16111111111111112],[0.052083333333333336,0.16111111111111112],[0.05416666666666667,0.15925925925925927],[0.05416666666666667,0.15925925925925927],[0.05520833333333333,0.15925925925925927],[0.059375,0.15925925925925927],[0.06145833333333333,0.15925925925925927],[0.06458333333333334,0.15925925925925927],[0.06666666666666667,0.15925925925925927],[0.06770833333333333,0.15925925925925927],[0.06875,0.15925925925925927],[0.06875,0.15925925925925927],[0.06979166666666667,0.15925925925925927],[0.07083333333333333,0.15925925925925927],[0.07083333333333333,0.15925925925925927],[0.07083333333333333,0.15925925925925927],[0.07083333333333333,0.15925925925925927],[0.07083333333333333,0.15925925925925927],[0.07083333333333333,0.15925925925925927],[0.07083333333333333,0.15925925925925927],[0.07083333333333333,0.15925925925925927],[0.07083333333333333,0.15925925925925927],[0.07083333333333333,0.15925925925925927],[0.07083333333333333,0.15925925925925927],[0.07083333333333333,0.15925925925925927],[0.07083333333333333,0.15925925925925927],[0.07083333333333333,0.15925925925925927],[0.07083333333333333,0.15925925925925927],[0.07083333333333333,0.15925925925925927],[0.07083333333333333,0.15925925925925927],[0.07083333333333333,0.15925925925925927],[0.07083333333333333,0.15925925925925927],[0.07083333333333333,0.15925925925925927],[0.07083333333333333,0.15925925925925927],[0.07083333333333333,0.15925925925925927],[0.07083333333333333,0.15925925925925927],[0.07083333333333333,0.15925925925925927],[0.07083333333333333,0.15925925925925927],[0.07083333333333333,0.15925925925925927],[0.07083333333333333,0.15925925925925927],[0.07083333333333333,0.15925925925925927],[0.07083333333333333,0.15925925925925927],[0.07083333333333333,0.15925925925925927],[0.07083333333333333,0.15925925925925927],[0.07083333333333333,0.1537037037037037],[0.06875,0.15],[0.06666666666666667,0.14444444444444443],[0.06666666666666667,0.1425925925925926],[0.065625,0.14074074074074075],[0.065625,0.14074074074074075],[0.065625,0.14074074074074075],[0.065625,0.14074074074074075],[0.065625,0.14074074074074075],[0.065625,0.14074074074074075],[0.065625,0.14074074074074075],[0.06458333333333334,0.14074074074074075],[0.06458333333333334,0.14074074074074075],[0.06458333333333334,0.14074074074074075],[0.06458333333333334,0.14074074074074075],[0.06458333333333334,0.14074074074074075],[0.06458333333333334,0.14074074074074075],[0.06458333333333334,0.14074074074074075],[0.06458333333333334,0.14074074074074075],[0.06458333333333334,0.14074074074074075],[0.06458333333333334,0.14074074074074075],[0.06458333333333334,0.14074074074074075],[0.06458333333333334,0.14074074074074075],[0.06458333333333334,0.14074074074074075],[0.06458333333333334,0.14074074074074075],[0.06458333333333334,0.14074074074074075],[0.06458333333333334,0.14074074074074075],[0.06458333333333334,0.14074074074074075],[0.06458333333333334,0.14074074074074075],[0.06458333333333334,0.14074074074074075],[0.06458333333333334,0.14074074074074075],[0.06458333333333334,0.14074074074074075],[0.06458333333333334,0.14074074074074075],[0.06458333333333334,0.14074074074074075],[0.06458333333333334,0.14074074074074075],[0.06458333333333334,0.14074074074074075]]","[[-0.04385416666666669,0.4203703703703704],[-0.04385416666666669,0.4203703703703704],[-0.04385416666666669,0.4203703703703704],[-0.04864583333333338,0.3992592592592593],[-0.03708333333333336,0.38000000000000006],[-0.049791666666666616,0.32944444444444443],[-0.053125,0.2975925925925927],[-0.06458333333333334,0.24666666666666676],[-0.06458333333333334,0.24666666666666676],[-0.08427083333333331,0.2511111111111112],[-0.08427083333333331,0.2511111111111112],[-0.10395833333333329,0.25555555555555554],[-0.0875,0.25870370370370377],[-0.04750000000000002,0.21740740740740735],[-0.021979166666666692,0.2222222222222222],[-0.01895833333333338,0.21055555555555563],[-0.03302083333333338,0.19314814814814807],[-0.01739583333333338,0.23759259259259252],[0.004270833333333357,0.2770370370370371],[0.0078125,0.32685185185185184],[0.0078125,0.32685185185185184],[0.02374999999999995,0.3329629629629629],[0.00614583333333331,0.3194444444444444],[0.00614583333333331,0.3194444444444444],[-0.027708333333333356,0.3140740740740741],[-0.04020833333333336,0.29796296296296293],[-0.04020833333333336,0.29796296296296293],[-0.08395833333333336,0.2977777777777777],[-0.0953125,0.32685185185185184],[-0.10666666666666665,0.35592592592592603],[-0.12427083333333329,0.33425925925925926],[-0.15072916666666672,0.2977777777777777],[-0.1782291666666667,0.27870370370370373],[-0.22708333333333333,0.262037037037037],[-0.24270833333333333,0.25925925925925924],[-0.2612499999999999,0.25166666666666665],[-0.3061458333333333,0.2657407407407407],[-0.29739583333333336,0.26222222222222225],[-0.29739583333333336,0.26222222222222225],[-0.30895833333333333,0.2729629629629629],[-0.33135416666666667,0.2512962962962964],[-0.3460416666666667,0.26796296296296307],[-0.3584375,0.29666666666666675],[-0.3532291666666667,0.3224074074074075],[-0.3453125,0.33055555555555555],[-0.3463541666666667,0.32388888888888884],[-0.3359375,0.3424074074074074],[-0.30968749999999995,0.3490740740740741],[-0.2942708333333333,0.3640740740740741],[-0.29750000000000004,0.3848148148148147],[-0.2627083333333334,0.4064814814814815],[-0.2423958333333334,0.3907407407407407],[-0.24427083333333333,0.3448148148148149],[-0.24614583333333329,0.29888888888888887],[-0.22541666666666665,0.3066666666666667],[-0.19416666666666665,0.31055555555555564],[-0.1734375,0.26129629629629636],[-0.16822916666666668,0.21574074074074073],[-0.17458333333333337,0.16351851851851842],[-0.1642708333333334,0.10037037037037046],[-0.1811458333333333,0.06870370370370374],[-0.19624999999999998,0.06648148148148143],[-0.19624999999999998,0.06648148148148143],[-0.18802083333333333,0.08537037037037042],[-0.1782291666666667,0.0955555555555556],[-0.18197916666666672,0.08833333333333342],[-0.18697916666666667,0.10555555555555556],[-0.19760416666666672,0.14944444444444452],[-0.21687500000000004,0.1618518518518518],[-0.2361458333333334,0.1742592592592593],[-0.2404166666666666,0.1544444444444444],[-0.2404166666666666,0.1544444444444444],[-0.21843750000000003,0.19981481481481478],[-0.20197916666666665,0.2462962962962963],[-0.17479166666666662,0.2972222222222222],[-0.17020833333333332,0.3168518518518519],[-0.16010416666666671,0.31055555555555564],[-0.15,0.3042592592592592],[-0.128125,0.3072222222222222],[-0.09760416666666671,0.3416666666666667],[-0.09760416666666671,0.3416666666666667],[-0.07239583333333334,0.37111111111111106],[-0.05510416666666664,0.4153703703703703],[-0.05510416666666664,0.4153703703703703],[-0.05364583333333333,0.37777777777777777],[-0.057500000000000044,0.3479629629629629],[-0.06385416666666661,0.3374074074074075],[-0.036145833333333384,0.38629629629629636],[-0.01885416666666669,0.4329629629629629],[-0.02677083333333338,0.42666666666666664],[-0.03885416666666662,0.41722222222222216],[-0.05020833333333338,0.4233333333333334],[-0.04364583333333331,0.40555555555555556],[-0.03708333333333336,0.3877777777777777],[-0.0578125,0.38203703703703695],[-0.06187499999999998,0.35722222222222216],[-0.07114583333333328,0.3177777777777778],[-0.09343750000000005,0.2588888888888888],[-0.13572916666666662,0.1868518518518518],[-0.15281250000000005,0.16777777777777783],[-0.15552083333333327,0.16648148148148145],[-0.15895833333333337,0.14962962962962956],[-0.16354166666666667,0.1624074074074075],[-0.16812499999999997,0.17518518518518522],[-0.16812499999999997,0.15166666666666662],[-0.15625,0.15555555555555556],[-0.1508333333333333,0.14740740740740746],[-0.14812500000000003,0.12462962962962955],[-0.12541666666666665,0.11500000000000005],[-0.10906250000000005,0.1227777777777777],[-0.10906250000000005,0.1227777777777777],[-0.09697916666666669,0.11722222222222214],[-0.09697916666666669,0.11722222222222214],[-0.07197916666666669,0.13148148148148148],[-0.07197916666666669,0.13148148148148148],[-0.06958333333333329,0.14759259259259266],[-0.06270833333333338,0.15611111111111103],[-0.03427083333333331,0.22888888888888892],[-0.033958333333333354,0.23851851851851844],[-0.021979166666666692,0.25555555555555554],[-0.004062499999999977,0.2964814814814815],[0.013854166666666619,0.3374074074074075],[0.03354166666666671,0.36314814814814816],[0.043124999999999976,0.3844444444444445],[0.03854166666666667,0.35407407407407415],[0.04916666666666671,0.337037037037037],[0.04614583333333329,0.3235185185185186],[0.033854166666666664,0.28666666666666657],[0.033854166666666664,0.28666666666666657],[0.03958333333333333,0.3077777777777779],[0.033645833333333285,0.32148148148148153],[0.005624999999999976,0.25277777777777777],[-0.022395833333333334,0.18407407407407403],[-0.022187499999999954,0.13944444444444437],[-0.021979166666666692,0.0948148148148149],[-0.01583333333333338,0.10777777777777786],[-0.024374999999999977,0.10666666666666672],[-0.02374999999999995,0.10962962962962972],[-0.03104166666666662,0.09166666666666666],[-0.03947916666666664,0.032777777777777864],[-0.03885416666666662,-0.0235185185185186],[-0.024895833333333308,0.0031481481481482323],[-0.002812500000000047,0.05092592592592592],[-0.002812500000000047,0.05092592592592592],[-0.004375000000000047,0.07240740740740745],[-0.01416666666666669,0.10166666666666663],[-0.013437499999999976,0.08814814814814818],[-0.003333333333333381,0.049629629629629544],[0.0036458333333333334,0.009074074074074031],[0.01854166666666662,-0.01055555555555564],[0.025416666666666643,0.01444444444444436],[0.02322916666666662,0.03685185185185181],[0.036145833333333384,0.051666666666666625],[0.04093749999999995,0.04537037037037037],[0.04572916666666664,0.039074074074074115],[0.050416666666666644,0.014814814814814815],[0.03989583333333328,0.007592592592592635],[0.04125000000000002,0.03611111111111111],[0.04125000000000002,0.03611111111111111],[0.04604166666666672,0.07629629629629638],[0.036666666666666715,0.125],[0.036145833333333384,0.08851851851851844],[0.03156249999999995,0.08537037037037042],[0.025937499999999978,0.11351851851851844],[0.0203125,0.14166666666666666],[0.0009374999999999763,0.1411111111111112],[-0.0013541666666666192,0.13277777777777786],[-0.0036458333333333334,0.12444444444444452],[-0.020729166666666642,0.10925925925925926],[-0.03093750000000005,0.07814814814814823],[-0.03093750000000005,0.07814814814814823],[-0.023958333333333335,0.10722222222222218],[-0.01572916666666669,0.1725925925925927],[-0.0034374999999999527,0.20462962962962963],[0.0017708333333333807,0.22333333333333338],[0.006979166666666714,0.24203703703703713],[0.0002083333333333807,0.2837037037037038],[-0.015312500000000047,0.34333333333333327],[-0.015312500000000047,0.34333333333333327],[-0.011249999999999953,0.368888888888889],[-0.0078125,0.3874074074074075],[-0.013229166666666714,0.4137037037037037],[-0.013229166666666714,0.4137037037037037],[-0.003125,0.3670370370370371],[-0.0007291666666667141,0.3707407407407408],[-0.0007291666666667141,0.3707407407407408],[-0.014374999999999952,0.3675925925925926],[-0.02802083333333331,0.33833333333333343],[-0.02802083333333331,0.33833333333333343],[-0.028854166666666715,0.24833333333333338],[-0.018020833333333285,0.20888888888888882],[-0.007187499999999976,0.16944444444444445],[-0.010625000000000048,0.1727777777777777],[-0.0017708333333333807,0.16833333333333328],[-0.0012500000000000473,0.13425925925925927],[-0.0012500000000000473,0.13425925925925927],[-0.025,0.11018518518518519],[-0.04708333333333338,0.15037037037037046],[-0.009895833333333333,0.14129629629629623],[-0.009895833333333333,0.14129629629629623],[0.009062500000000048,0.08314814814814811],[0.0016666666666666904,0.08314814814814811],[0.016354166666666715,0.0838888888888888],[0.016354166666666715,0.0838888888888888],[0.02947916666666662,0.09537037037037037],[0.053125,0.11611111111111119],[0.05531250000000002,0.14129629629629623],[0.05531250000000002,0.14129629629629623],[0.053125,0.20629629629629626],[0.06770833333333333,0.23148148148148148],[0.06770833333333333,0.23148148148148148],[0.09520833333333342,0.13203703703703695],[0.09520833333333342,0.13203703703703695],[0.06416666666666669,0.09314814814814806],[0.06416666666666669,0.09314814814814806],[0.06635416666666671,0.11148148148148157],[0.07010416666666662,0.1257407407407407],[0.06583333333333338,0.09444444444444444],[0.06583333333333338,0.09444444444444444],[0.0865624999999999,0.07092592592592584],[0.07447916666666667,0.05944444444444449],[0.07635416666666663,0.05259259259259255],[0.10583333333333324,0.01314814814814819],[0.11833333333333323,0.00722222222222218],[0.11833333333333323,0.00722222222222218],[0.11510416666666666,0.03629629629629634],[0.11229166666666662,0.06018518518518518],[0.1118750000000001,0.05851851851851856],[0.11916666666666677,0.11703703703703712],[0.10906250000000005,0.14444444444444443],[0.08239583333333324,0.13499999999999995],[0.08239583333333324,0.13499999999999995],[0.07479166666666662,0.11888888888888897],[0.06770833333333333,0.10629629629629625],[0.06770833333333333,0.10629629629629625],[0.071875,0.12685185185185185],[0.08197916666666671,0.1479629629629629],[0.10281250000000004,0.16296296296296298],[0.11583333333333339,0.1551851851851851],[0.1099999999999999,0.17074074074074083],[0.11864583333333342,0.14870370370370362],[0.1446875000000001,0.15777777777777785],[0.1446875000000001,0.15777777777777785],[0.16666666666666666,0.17592592592592593],[0.19052083333333342,0.14074074074074075],[0.19052083333333342,0.14074074074074075],[0.19541666666666657,0.11648148148148144],[0.18562500000000004,0.08962962962962959],[0.18135416666666657,0.07777777777777778],[0.15947916666666656,0.05851851851851856],[0.15010416666666657,0.06574074074074074],[0.13875000000000004,0.0816666666666667],[0.1171875,0.0816666666666667],[0.12312500000000005,0.08648148148148156],[0.12312500000000005,0.08648148148148156],[0.12291666666666666,0.09370370370370375],[0.11708333333333343,0.11999999999999991],[0.11812500000000009,0.14351851851851852],[0.12260416666666671,0.1705555555555556],[0.13333333333333333,0.18370370370370379],[0.16020833333333329,0.20462962962962963],[0.19729166666666675,0.22259259259259268],[0.20791666666666658,0.2442592592592592],[0.20791666666666658,0.2442592592592592],[0.22062499999999996,0.2514814814814814],[0.19000000000000009,0.26703703703703713],[0.18447916666666658,0.2594444444444445],[0.18447916666666658,0.2594444444444445],[0.17260416666666673,0.27074074074074084],[0.18083333333333323,0.294074074074074],[0.18083333333333323,0.294074074074074],[0.1650000000000001,0.2742592592592593],[0.1224999999999999,0.27518518518518525],[0.1224999999999999,0.27518518518518525],[0.0640625,0.25925925925925924],[0.0375,0.24740740740740744],[0.03802083333333333,0.22759259259259254],[-0.0013541666666666192,0.2103703703703704],[-0.0013541666666666192,0.2103703703703704],[0.005624999999999976,0.1725925925925927],[0.014374999999999952,0.19000000000000003],[0.014374999999999952,0.19000000000000003],[0.013750000000000047,0.19666666666666674],[0.007187499999999976,0.18092592592592602],[-0.0009374999999999763,0.18907407407407412],[0.005833333333333357,0.17537037037037045],[0.005833333333333357,0.17537037037037045],[0.033854166666666664,0.15222222222222231],[0.04718749999999995,0.1338888888888888],[0.04718749999999995,0.1338888888888888],[0.06187499999999998,0.1111111111111111],[0.08895833333333343,0.11351851851851844],[0.08510416666666672,0.12074074074074083],[0.0796875,0.08111111111111102],[0.0734375,0.08814814814814818],[0.07947916666666661,0.07444444444444454],[0.07947916666666661,0.07444444444444454],[0.08312499999999995,0.08185185185185194],[0.06604166666666664,0.09037037037037028],[0.06625000000000002,0.09351851851851851],[0.06072916666666662,0.09259259259259259],[0.06947916666666672,0.10870370370370379],[0.06947916666666672,0.10870370370370379],[0.08604166666666657,0.1081481481481481],[0.10302083333333342,0.11018518518518519],[0.09145833333333328,0.10166666666666663],[0.09812500000000005,0.0492592592592593],[0.08583333333333343,0.02555555555555547],[0.08583333333333343,0.02555555555555547],[0.08854166666666667,-0.0011111111111111532],[0.10229166666666671,-0.009074074074074031],[0.09552083333333337,0.03685185185185181],[0.06427083333333337,0.08037037037037033],[0.016458333333333287,0.10407407407407415],[0.008020833333333382,0.14314814814814805],[-0.000416666666666643,0.18222222222222217],[-0.01583333333333338,0.2411111111111112],[-0.03125,0.3],[-0.03125,0.3],[-0.028958333333333287,0.3551851851851851],[-0.03572916666666662,0.3874074074074075],[-0.0328125,0.3998148148148148],[-0.035104166666666714,0.3937037037037037],[-0.035104166666666714,0.3937037037037037],[-0.005729166666666666,0.3516666666666666],[0.0034374999999999527,0.3042592592592592],[0.0034374999999999527,0.3042592592592592],[-0.008854166666666666,0.2542592592592592],[-0.008854166666666666,0.2542592592592592],[-0.012083333333333357,0.18777777777777774],[0.000833333333333286,0.14462962962962966],[0.000833333333333286,0.14462962962962966],[0.019270833333333334,0.09537037037037037],[0.020833333333333332,0.05388888888888893],[0.02666666666666669,-0.008888888888888804],[0.03250000000000005,-0.07166666666666664],[0.03250000000000005,-0.07166666666666664],[0.04489583333333336,-0.12814814814814812],[0.04489583333333336,-0.12814814814814812],[0.044062499999999956,-0.15018518518518523],[0.058958333333333356,-0.14629629629629629],[0.06177083333333329,-0.16277777777777774],[0.05520833333333333,-0.16407407407407412],[0.05520833333333333,-0.16407407407407412],[0.04489583333333336,-0.17518518518518522],[0.026250000000000048,-0.1814814814814815],[0.01083333333333331,-0.20111111111111116],[0.013854166666666619,-0.17851851851851847],[0.017083333333333308,-0.15629629629629627],[0.017083333333333308,-0.15629629629629627],[0.004166666666666667,-0.14907407407407408],[-0.012812499999999952,-0.14240740740740737],[-0.024270833333333287,-0.1522222222222222],[-0.015625,-0.14444444444444443],[-0.006666666666666643,-0.13537037037037042],[-0.01229166666666662,-0.1361111111111111],[-0.01229166666666662,-0.1361111111111111],[-0.013750000000000047,-0.1270370370370371],[-0.02385416666666664,-0.10981481481481484],[-0.02385416666666664,-0.10981481481481484],[-0.028645833333333332,-0.11833333333333329],[-0.043333333333333356,-0.11074074074074076],[-0.043333333333333356,-0.11074074074074076],[-0.03447916666666669,-0.09296296296296294],[-0.035312499999999976,-0.07999999999999997],[-0.011458333333333333,-0.08851851851851854],[-0.0014583333333333095,-0.10277777777777777],[-0.0012500000000000473,-0.10166666666666663],[0.01729166666666669,-0.09444444444444444],[0.01729166666666669,-0.09444444444444444],[0.03447916666666669,-0.09574074074074072],[0.07104166666666671,-0.13296296296296298],[0.0884375000000001,-0.1544444444444444],[0.12197916666666657,-0.19648148148148153],[0.14166666666666666,-0.20611111111111113],[0.153125,-0.20833333333333334],[0.12791666666666662,-0.18666666666666668],[0.11604166666666677,-0.17703703703703708],[0.1171875,-0.16129629629629633],[0.11979166666666667,-0.1714814814814815],[0.11979166666666667,-0.1714814814814815],[0.12104166666666671,-0.17166666666666663],[0.10989583333333333,-0.11981481481481479],[0.10989583333333333,-0.11981481481481479],[0.08385416666666666,-0.06703703703703702],[0.06541666666666662,-0.0198148148148149],[0.035000000000000024,-0.0005555555555554713],[0.021145833333333287,0.01574074074074074],[0.035312499999999976,0.01907407407407399],[0.041979166666666616,0.018333333333333292],[0.06312500000000003,0.02370370370370362],[0.08020833333333334,0.05759259259259263],[0.08072916666666667,0.07796296296296301],[0.09156250000000009,0.06370370370370367],[0.12604166666666666,0.036481481481481566],[0.12062499999999995,0.02444444444444453],[0.12708333333333333,0.006481481481481481],[0.1196875000000001,-0.004629629629629629],[0.1196875000000001,-0.004629629629629629],[0.11958333333333329,-0.006111111111111027],[0.11197916666666667,0.015555555555555513],[0.07854166666666676,-0.010185185185185186],[0.04510416666666662,-0.03592592592592588],[0.04104166666666664,-0.049629629629629544],[0.05333333333333338,-0.06962962962962967],[0.05687500000000002,-0.07759259259259255],[0.06822916666666666,-0.11777777777777781],[0.0740624999999999,-0.1257407407407407],[0.0740624999999999,-0.1257407407407407],[0.10697916666666671,-0.14166666666666666],[0.11260416666666657,-0.15685185185185183],[0.11687500000000005,-0.1787037037037037],[0.13624999999999995,-0.17555555555555558],[0.1556250000000001,-0.17240740740740745],[0.16416666666666657,-0.19240740740740736],[0.15187499999999995,-0.19277777777777783],[0.14354166666666662,-0.19425925925925921],[0.15322916666666658,-0.16833333333333328],[0.15322916666666658,-0.16833333333333328],[0.15260416666666668,-0.167037037037037],[0.13739583333333344,-0.17222222222222222],[0.12072916666666676,-0.18925925925925924],[0.11260416666666657,-0.20759259259259263],[0.0853125000000001,-0.24277777777777781],[0.05802083333333338,-0.277962962962963],[0.04031250000000005,-0.27814814814814814],[0.01729166666666669,-0.25851851851851854],[-0.016250000000000025,-0.2707407407407407],[-0.041562499999999974,-0.2640740740740741],[-0.05666666666666664,-0.23499999999999996],[-0.07864583333333333,-0.20981481481481484],[-0.09239583333333339,-0.19222222222222224],[-0.0890625,-0.14222222222222225],[-0.08333333333333333,-0.09351851851851851],[-0.0733333333333333,-0.04296296296296305],[-0.06927083333333334,-0.004444444444444402],[-0.07250000000000002,0.025],[-0.065625,0.0962962962962963],[-0.06781250000000003,0.12777777777777777],[-0.07114583333333328,0.08333333333333333],[-0.07114583333333328,0.08333333333333333],[-0.05375000000000003,0.06777777777777783]]","[[-0.04385416666666669,0.4203703703703704,0.00030000001192576065],[-0.04385416666666669,0.4203703703703704,0.05440000000596257],[-0.04385416666666669,0.4203703703703704,0.06020000001788617],[-0.04864583333333338,0.3992592592592593,0.07699999999999818],[-0.03708333333333336,0.38000000000000006,0.09410000002384322],[-0.049791666666666616,0.32944444444444443,0.11030000001192519],[-0.053125,0.2975925925925927,0.12710000002384447],[-0.06458333333333334,0.24666666666666676,0.14610000002384282],[-0.06458333333333334,0.24666666666666676,0.16030000001192235],[-0.08427083333333331,0.2511111111111112,0.1769999999999996],[-0.08427083333333331,0.2511111111111112,0.19370000001788412],[-0.10395833333333329,0.25555555555555554,0.2103000000119195],[-0.0875,0.25870370370370377,0.22930000001192496],[-0.04750000000000002,0.21740740740740735,0.24360000002384652],[-0.021979166666666692,0.2222222222222222,0.2607000000178843],[-0.01895833333333338,0.21055555555555563,0.27710000002384305],[-0.03302083333333338,0.19314814814814807,0.29370000001788554],[-0.01739583333333338,0.23759259259259252,0.31190000000596285],[0.004270833333333357,0.2770370370370371,0.3269000000059634],[0.0078125,0.32685185185185184,0.3476000000238457],[0.0078125,0.32685185185185184,0.3602000000178833],[0.02374999999999995,0.3329629629629629,0.3769000000059606],[0.00614583333333331,0.3194444444444444,0.39470000001788463],[0.00614583333333331,0.3194444444444444,0.4104000000059642],[-0.027708333333333356,0.3140740740740741,0.4269999999999996],[-0.04020833333333336,0.29796296296296293,0.4456000000238447],[-0.04020833333333336,0.29796296296296293,0.46020000001788475],[-0.08395833333333336,0.2977777777777777,0.476900000005962],[-0.0953125,0.32685185185185184,0.4937000000178813],[-0.10666666666666665,0.35592592592592603,0.5103000000119238],[-0.12427083333333329,0.33425925925925926,0.5269000000059592],[-0.15072916666666672,0.2977777777777777,0.5437000000178855],[-0.1782291666666667,0.27870370370370373,0.5632000000178863],[-0.22708333333333333,0.262037037037037,0.5774000000059587],[-0.24270833333333333,0.25925925925925924,0.5970000000000013],[-0.2612499999999999,0.25166666666666665,0.6133000000119253],[-0.3061458333333333,0.2657407407407407,0.6314000000059607],[-0.29739583333333336,0.26222222222222225,0.6479000000059614],[-0.29739583333333336,0.26222222222222225,0.6602000000178805],[-0.30895833333333333,0.2729629629629629,0.6771000000238416],[-0.33135416666666667,0.2512962962962964,0.6936000000238423],[-0.3460416666666667,0.26796296296296307,0.7103000000119195],[-0.3584375,0.29666666666666675,0.7295000000000016],[-0.3532291666666667,0.3224074074074075,0.7439999999999998],[-0.3453125,0.33055555555555555,0.7627000000178796],[-0.3463541666666667,0.32388888888888884,0.7769000000059592],[-0.3359375,0.3424074074074074,0.7936000000238437],[-0.30968749999999995,0.3490740740740741,0.8124000000059652],[-0.2942708333333333,0.3640740740740741,0.8269999999999982],[-0.29750000000000004,0.3848148148148147,0.8475000000000037],[-0.2627083333333334,0.4064814814814815,0.8629999999999995],[-0.2423958333333334,0.3907407407407407,0.881300000011926],[-0.24427083333333333,0.3448148148148149,0.89670000001788],[-0.24614583333333329,0.29888888888888887,0.9114000000059619],[-0.22541666666666665,0.3066666666666667,0.9273000000119254],[-0.19416666666666665,0.31055555555555564,0.9435000000000002],[-0.1734375,0.26129629629629636,0.9603000000119195],[-0.16822916666666668,0.21574074074074073,0.9789000000059644],[-0.17458333333333337,0.16351851851851842,0.9936000000238465],[-0.1642708333333334,0.10037037037037046,1.013900000005961],[-0.1811458333333333,0.06870370370370374,1.0291000000238455],[-0.19624999999999998,0.06648148148148143,1.050300000011923],[-0.19624999999999998,0.06648148148148143,1.0602000000178862],[-0.18802083333333333,0.08537037037037042,1.0769999999999982],[-0.1782291666666667,0.0955555555555556,1.0956000000238433],[-0.18197916666666672,0.08833333333333342,1.1103000000119252],[-0.18697916666666667,0.10555555555555556,1.1269000000059606],[-0.19760416666666672,0.14944444444444452,1.1480000000000032],[-0.21687500000000004,0.1618518518518518,1.1636000000238411],[-0.2361458333333334,0.1742592592592593,1.179800000011923],[-0.2404166666666666,0.1544444444444444,1.2001000000238449],[-0.2404166666666666,0.1544444444444444,1.2105000000000032],[-0.21843750000000003,0.19981481481481478,1.227100000023846],[-0.20197916666666665,0.2462962962962963,1.2438000000119231],[-0.17479166666666662,0.2972222222222222,1.2644000000059634],[-0.17020833333333332,0.3168518518518519,1.2791000000238455],[-0.16010416666666671,0.31055555555555564,1.2980000000000018],[-0.15,0.3042592592592592,1.313400000005963],[-0.128125,0.3072222222222222,1.328100000023845],[-0.09760416666666671,0.3416666666666667,1.3487000000178853],[-0.09760416666666671,0.3416666666666667,1.3603000000119252],[-0.07239583333333334,0.37111111111111106,1.3769000000059606],[-0.05510416666666664,0.4153703703703703,1.3954999999999984],[-0.05510416666666664,0.4153703703703703,1.4103000000119224],[-0.05364583333333333,0.37777777777777777,1.4269000000059648],[-0.057500000000000044,0.3479629629629629,1.4435000000000002],[-0.06385416666666661,0.3374074074074075,1.4603000000119195],[-0.036145833333333384,0.38629629629629636,1.4796000000238436],[-0.01885416666666669,0.4329629629629629,1.4956000000238419],[-0.02677083333333338,0.42666666666666664,1.5106000000238424],[-0.03885416666666662,0.41722222222222216,1.5275000000000034],[-0.05020833333333338,0.4233333333333334,1.5437000000178855],[-0.04364583333333331,0.40555555555555556,1.5635000000000048],[-0.03708333333333336,0.3877777777777777,1.580300000011924],[-0.0578125,0.38203703703703695,1.5959000000059618],[-0.06187499999999998,0.35722222222222216,1.6103000000119252],[-0.07114583333333328,0.3177777777777778,1.6268000000119258],[-0.09343750000000005,0.2588888888888888,1.645900000005959],[-0.13572916666666662,0.1868518518518518,1.6634000000059643],[-0.15281250000000005,0.16777777777777783,1.679000000000002],[-0.15552083333333327,0.16648148148148145,1.6955000000000027],[-0.15895833333333337,0.14962962962962956,1.7103000000119195],[-0.16354166666666667,0.1624074074074075,1.728600000023846],[-0.16812499999999997,0.17518518518518522,1.7436000000238465],[-0.16812499999999997,0.15166666666666662,1.760200000017882],[-0.15625,0.15555555555555556,1.7769000000059592],[-0.1508333333333333,0.14740740740740746,1.7936000000238437],[-0.14812500000000003,0.12462962962962955,1.8125],[-0.12541666666666665,0.11500000000000005,1.828000000000003],[-0.10906250000000005,0.1227777777777777,1.8453000000119246],[-0.10906250000000005,0.1227777777777777,1.8684000000059626],[-0.09697916666666669,0.11722222222222214,1.8831000000238447],[-0.09697916666666669,0.11722222222222214,1.8937000000178799],[-0.07197916666666669,0.13148148148148148,1.9102000000178805],[-0.07197916666666669,0.13148148148148148,1.9269000000059648],[-0.06958333333333329,0.14759259259259266,1.9436000000238423],[-0.06270833333333338,0.15611111111111103,1.9603000000119195],[-0.03427083333333331,0.22888888888888892,1.9787000000178807],[-0.033958333333333354,0.23851851851851844,1.9937000000178813],[-0.021979166666666692,0.25555555555555554,2.013200000017882],[-0.004062499999999977,0.2964814814814815,2.027900000005964],[0.013854166666666619,0.3374074074074075,2.0436000000238437],[0.03354166666666671,0.36314814814814816,2.0614000000059605],[0.043124999999999976,0.3844444444444445,2.0769000000059634],[0.03854166666666667,0.35407407407407415,2.0962000000178804],[0.04916666666666671,0.337037037037037,2.1107000000178857],[0.04614583333333329,0.3235185185185186,2.1270000000000024],[0.033854166666666664,0.28666666666666657,2.1447000000178846],[0.033854166666666664,0.28666666666666657,2.1602000000178805],[0.03958333333333333,0.3077777777777779,2.1769999999999996],[0.033645833333333285,0.32148148148148153,2.1935000000000002],[0.005624999999999976,0.25277777777777777,2.2103000000119195],[-0.022395833333333334,0.18407407407407403,2.2279000000059597],[-0.022187499999999954,0.13944444444444437,2.2435000000000045],[-0.021979166666666692,0.0948148148148149,2.2620000000000005],[-0.01583333333333338,0.10777777777777786,2.2796000000238408],[-0.024374999999999977,0.10666666666666672,2.2974999999999994],[-0.02374999999999995,0.10962962962962972,2.3122000000178815],[-0.03104166666666662,0.09166666666666666,2.3268000000119216],[-0.03947916666666664,0.032777777777777864,2.3437000000178827],[-0.03885416666666662,-0.0235185185185186,2.3602000000178833],[-0.024895833333333308,0.0031481481481482323,2.3769000000059606],[-0.002812500000000047,0.05092592592592592,2.3977000000178847],[-0.002812500000000047,0.05092592592592592,2.4102000000178805],[-0.004375000000000047,0.07240740740740745,2.4272000000178835],[-0.01416666666666669,0.10166666666666663,2.444700000017882],[-0.013437499999999976,0.08814814814814818,2.464500000000001],[-0.003333333333333381,0.049629629629629544,2.478999999999999],[0.0036458333333333334,0.009074074074074031,2.4935000000000045],[0.01854166666666662,-0.01055555555555564,2.5136000000238425],[0.025416666666666643,0.01444444444444436,2.528600000023843],[0.02322916666666662,0.03685185185185181,2.5438000000119203],[0.036145833333333384,0.051666666666666625,2.562600000023842],[0.04093749999999995,0.04537037037037037,2.5769000000059634],[0.04572916666666664,0.039074074074074115,2.5962000000178804],[0.050416666666666644,0.014814814814814815,2.6117000000178834],[0.03989583333333328,0.007592592592592635,2.6270000000000024],[0.04125000000000002,0.03611111111111111,2.64670000001788],[0.04125000000000002,0.03611111111111111,2.6602000000178805],[0.04604166666666672,0.07629629629629638,2.6771000000238416],[0.036666666666666715,0.125,2.6935000000000002],[0.036145833333333384,0.08851851851851844,2.7102000000178847],[0.03156249999999995,0.08537037037037042,2.7280000000000015],[0.025937499999999978,0.11351851851851844,2.7436000000238465],[0.0203125,0.14166666666666666,2.760200000017882],[0.0009374999999999763,0.1411111111111112,2.777000000000001],[-0.0013541666666666192,0.13277777777777786,2.7935000000000016],[-0.0036458333333333334,0.12444444444444452,2.8120000000000047],[-0.020729166666666642,0.10925925925925926,2.8268000000119216],[-0.03093750000000005,0.07814814814814823,2.8522000000178807],[-0.03093750000000005,0.07814814814814823,2.860300000011925],[-0.023958333333333335,0.10722222222222218,2.8771000000238445],[-0.01572916666666669,0.1725925925925927,2.895900000005959],[-0.0034374999999999527,0.20462962962962963,2.913499999999999],[0.0017708333333333807,0.22333333333333338,2.929200000017886],[0.006979166666666714,0.24203703703703713,2.943800000011926],[0.0002083333333333807,0.2837037037037038,2.9604000000059614],[-0.015312500000000047,0.34333333333333327,2.9804999999999993],[-0.015312500000000047,0.34333333333333327,2.993800000011923],[-0.011249999999999953,0.368888888888889,3.0105000000000004],[-0.0078125,0.3874074074074075,3.027100000023843],[-0.013229166666666714,0.4137037037037037,3.0491000000238415],[-0.013229166666666714,0.4137037037037037,3.060300000011921],[-0.003125,0.3670370370370371,3.077200000017882],[-0.0007291666666667141,0.3707407407407408,3.098100000023841],[-0.0007291666666667141,0.3707407407407408,3.110500000000002],[-0.014374999999999952,0.3675925925925926,3.1272000000178863],[-0.02802083333333331,0.33833333333333343,3.146000000000001],[-0.02802083333333331,0.33833333333333343,3.1634000000059643],[-0.028854166666666715,0.24833333333333338,3.1773000000119254],[-0.018020833333333285,0.20888888888888882,3.193700000017884],[-0.007187499999999976,0.16944444444444445,3.2154999999999987],[-0.010625000000000048,0.1727777777777777,3.229300000011925],[-0.0017708333333333807,0.16833333333333328,3.243900000005965],[-0.0012500000000000473,0.13425925925925927,3.265600000023845],[-0.0012500000000000473,0.13425925925925927,3.277000000000001],[-0.025,0.11018518518518519,3.2937000000178855],[-0.04708333333333338,0.15037037037037046,3.3128000000119258],[-0.009895833333333333,0.14129629629629623,3.3302000000178893],[-0.009895833333333333,0.14129629629629623,3.3439000000059664],[0.009062500000000048,0.08314814814814811,3.360200000017876],[0.0016666666666666904,0.08314814814814811,3.3769000000059677],[0.016354166666666715,0.0838888888888888,3.395100000023838],[0.016354166666666715,0.0838888888888888,3.410600000023841],[0.02947916666666662,0.09537037037037037,3.4269999999999996],[0.053125,0.11611111111111119,3.445200000017884],[0.05531250000000002,0.14129629629629623,3.466200000017885],[0.05531250000000002,0.14129629629629623,3.4769999999999968],[0.053125,0.20629629629629626,3.493800000011923],[0.06770833333333333,0.23148148148148148,3.5191000000238475],[0.06770833333333333,0.23148148148148148,3.527100000023843],[0.09520833333333342,0.13203703703703695,3.543900000005955],[0.09520833333333342,0.13203703703703695,3.5604999999999976],[0.06416666666666669,0.09314814814814806,3.581800000011917],[0.06416666666666669,0.09314814814814806,3.5937000000178827],[0.06635416666666671,0.11148148148148157,3.6104999999999947],[0.07010416666666662,0.1257407407407407,3.6271000000238374],[0.06583333333333338,0.09444444444444444,3.6496000000238453],[0.06583333333333338,0.09444444444444444,3.6603000000119224],[0.0865624999999999,0.07092592592592584,3.6769999999999996],[0.07447916666666667,0.05944444444444449,3.6935000000000073],[0.07635416666666663,0.05259259259259255,3.7103000000119195],[0.10583333333333324,0.01314814814814819,3.728700000017888],[0.11833333333333323,0.00722222222222218,3.747700000017879],[0.11833333333333323,0.00722222222222218,3.760200000017882],[0.11510416666666666,0.03629629629629634,3.777200000017878],[0.11229166666666662,0.06018518518518518,3.7938000000119203],[0.1118750000000001,0.05851851851851856,3.814900000005956],[0.11916666666666677,0.11703703703703712,3.830400000005959],[0.10906250000000005,0.14444444444444443,3.8477000000178876],[0.08239583333333324,0.13499999999999995,3.867300000011916],[0.08239583333333324,0.13499999999999995,3.8769000000059677],[0.07479166666666662,0.11888888888888897,3.89370000001788],[0.06770833333333333,0.10629629629629625,3.9165000000000063],[0.06770833333333333,0.10629629629629625,3.9269999999999996],[0.071875,0.12685185185185185,3.943800000011926],[0.08197916666666671,0.1479629629629629,3.9604000000059685],[0.10281250000000004,0.16296296296296298,3.9818000000119227],[0.11583333333333339,0.1551851851851851,3.997000000000007],[0.1099999999999999,0.17074074074074083,4.012600000023845],[0.11864583333333342,0.14870370370370362,4.028200000017883],[0.1446875000000001,0.15777777777777785,4.0498000000119205],[0.1446875000000001,0.15777777777777785,4.060300000011928],[0.16666666666666666,0.17592592592592593,4.07710000002384],[0.19052083333333342,0.14074074074074075,4.099499999999999],[0.19052083333333342,0.14074074074074075,4.110300000011925],[0.19541666666666657,0.11648148148148144,4.1270000000000024],[0.18562500000000004,0.08962962962962959,4.145700000017889],[0.18135416666666657,0.07777777777777778,4.16580000001192],[0.15947916666666656,0.05851851851851856,4.180200000017884],[0.15010416666666657,0.06574074074074074,4.194300000011928],[0.13875000000000004,0.0816666666666667,4.210700000017887],[0.1171875,0.0816666666666667,4.230900000005967],[0.12312500000000005,0.08648148148148156,4.249300000011921],[0.12312500000000005,0.08648148148148156,4.260300000011917],[0.12291666666666666,0.09370370370370375,4.277100000023843],[0.11708333333333343,0.11999999999999991,4.293500000000002],[0.11812500000000009,0.14351851851851852,4.312400000005958],[0.12260416666666671,0.1705555555555556,4.327999999999996],[0.13333333333333333,0.18370370370370379,4.345100000023841],[0.16020833333333329,0.20462962962962963,4.362600000023839],[0.19729166666666675,0.22259259259259268,4.381900000005963],[0.20791666666666658,0.2442592592592592,4.401200000017887],[0.20791666666666658,0.2442592592592592,4.413200000017888],[0.22062499999999996,0.2514814814814814,4.4272000000178835],[0.19000000000000009,0.26703703703703713,4.443700000017877],[0.18447916666666658,0.2594444444444445,4.465400000005964],[0.18447916666666658,0.2594444444444445,4.476999999999997],[0.17260416666666673,0.27074074074074084,4.493700000017888],[0.18083333333333323,0.294074074074074,4.518900000005964],[0.18083333333333323,0.294074074074074,4.526800000011924],[0.1650000000000001,0.2742592592592593,4.543600000023837],[0.1224999999999999,0.27518518518518525,4.563499999999998],[0.1224999999999999,0.27518518518518525,4.576900000005956],[0.0640625,0.25925925925925924,4.593499999999999],[0.0375,0.24740740740740744,4.616000000000007],[0.03802083333333333,0.22759259259259254,4.631600000023845],[-0.0013541666666666192,0.2103703703703704,4.6502000000178825],[-0.0013541666666666192,0.2103703703703704,4.660300000011922],[0.005624999999999976,0.1725925925925927,4.679700000017881],[0.014374999999999952,0.19000000000000003,4.696600000023842],[0.014374999999999952,0.19000000000000003,4.7104000000059685],[0.013750000000000047,0.19666666666666674,4.727100000023846],[0.007187499999999976,0.18092592592592602,4.747800000011928],[-0.0009374999999999763,0.18907407407407412,4.763800000011919],[0.005833333333333357,0.17537037037037045,4.782600000023841],[0.005833333333333357,0.17537037037037045,4.793600000023837],[0.033854166666666664,0.15222222222222231,4.813300000011928],[0.04718749999999995,0.1338888888888888,4.827500000000008],[0.04718749999999995,0.1338888888888888,4.843700000017883],[0.06187499999999998,0.1111111111111111,4.86040000000596],[0.08895833333333343,0.11351851851851844,4.881600000023845],[0.08510416666666672,0.12074074074074083,4.896600000023845],[0.0796875,0.08111111111111102,4.913500000000006],[0.0734375,0.08814814814814818,4.929800000011916],[0.07947916666666661,0.07444444444444454,4.945800000011921],[0.07947916666666661,0.07444444444444454,4.964700000017878],[0.08312499999999995,0.08185185185185194,4.976999999999997],[0.06604166666666664,0.09037037037037028,4.9935000000000045],[0.06625000000000002,0.09351851851851851,5.013900000005968],[0.06072916666666662,0.09259259259259259,5.02880000001192],[0.06947916666666672,0.10870370370370379,5.050700000017876],[0.06947916666666672,0.10870370370370379,5.060200000017879],[0.08604166666666657,0.1081481481481481,5.0768000000119216],[0.10302083333333342,0.11018518518518519,5.096800000011918],[0.09145833333333328,0.10166666666666663,5.112500000000004],[0.09812500000000005,0.0492592592592593,5.131800000011928],[0.08583333333333343,0.02555555555555547,5.149800000011929],[0.08583333333333343,0.02555555555555547,5.160200000017888],[0.08854166666666667,-0.0011111111111111532,5.176900000005965],[0.10229166666666671,-0.009074074074074031,5.193500000000007],[0.09552083333333337,0.03685185185185181,5.210700000017887],[0.06427083333333337,0.08037037037037033,5.229999999999997],[0.016458333333333287,0.10407407407407415,5.2459000000059675],[0.008020833333333382,0.14314814814814805,5.262999999999998],[-0.000416666666666643,0.18222222222222217,5.278200000017883],[-0.01583333333333338,0.2411111111111112,5.297999999999995],[-0.03125,0.3,5.314100000023849],[-0.03125,0.3,5.3268000000119216],[-0.028958333333333287,0.3551851851851851,5.343499999999999],[-0.03572916666666662,0.3874074074074075,5.3623000000119205],[-0.0328125,0.3998148148148148,5.380300000011921],[-0.035104166666666714,0.3937037037037037,5.396499999999996],[-0.035104166666666714,0.3937037037037037,5.4141000000238435],[-0.005729166666666666,0.3516666666666666,5.427100000023849],[0.0034374999999999527,0.3042592592592592,5.4518000000119216],[0.0034374999999999527,0.3042592592592592,5.4603000000119195],[-0.008854166666666666,0.2542592592592592,5.47940000000596],[-0.008854166666666666,0.2542592592592592,5.493700000017888],[-0.012083333333333357,0.18777777777777774,5.510400000005966],[0.000833333333333286,0.14462962962962966,5.533000000000008],[0.000833333333333286,0.14462962962962966,5.5437000000178855],[0.019270833333333334,0.09537037037037037,5.560400000005963],[0.020833333333333332,0.05388888888888893,5.582200000017885],[0.02666666666666669,-0.008888888888888804,5.596800000011918],[0.03250000000000005,-0.07166666666666664,5.61640000000596],[0.03250000000000005,-0.07166666666666664,5.649600000023845],[0.04489583333333336,-0.12814814814814812,5.658300000011927],[0.04489583333333336,-0.12814814814814812,5.664700000017881],[0.044062499999999956,-0.15018518518518523,5.677300000011918],[0.058958333333333356,-0.14629629629629629,5.695500000000003],[0.06177083333333329,-0.16277777777777774,5.7104000000059685],[0.05520833333333333,-0.16407407407407412,5.727600000023848],[0.05520833333333333,-0.16407407407407412,5.7455],[0.04489583333333336,-0.17518518518518522,5.760400000005966],[0.026250000000000048,-0.1814814814814815,5.776800000011924],[0.01083333333333331,-0.20111111111111116,5.793500000000002],[0.013854166666666619,-0.17851851851851847,5.811600000023837],[0.017083333333333308,-0.15629629629629627,5.8268000000119216],[0.017083333333333308,-0.15629629629629627,5.843600000023848],[0.004166666666666667,-0.14907407407407408,5.860200000017876],[-0.012812499999999952,-0.14240740740740737,5.876800000011919],[-0.024270833333333287,-0.1522222222222222,5.8955000000000055],[-0.015625,-0.14444444444444443,5.910200000017888],[-0.006666666666666643,-0.13537037037037042,5.929400000005963],[-0.01229166666666662,-0.1361111111111111,5.945300000011919],[-0.01229166666666662,-0.1361111111111111,5.9603000000119195],[-0.013750000000000047,-0.1270370370370371,5.977200000017881],[-0.02385416666666664,-0.10981481481481484,5.995300000011916],[-0.02385416666666664,-0.10981481481481484,6.010400000005966],[-0.028645833333333332,-0.11833333333333329,6.027200000017878],[-0.043333333333333356,-0.11074074074074076,6.0437000000178855],[-0.043333333333333356,-0.11074074074074076,6.062500000000007],[-0.03447916666666669,-0.09296296296296294,6.07710000002384],[-0.035312499999999976,-0.07999999999999997,6.095800000011927],[-0.011458333333333333,-0.08851851851851854,6.1101000000238415],[-0.0014583333333333095,-0.10277777777777777,6.131000000000007],[-0.0012500000000000473,-0.10166666666666663,6.146499999999996],[0.01729166666666669,-0.09444444444444444,6.162200000017883],[0.01729166666666669,-0.09444444444444444,6.176900000005965],[0.03447916666666669,-0.09574074074074072,6.195400000005968],[0.07104166666666671,-0.13296296296296298,6.2104000000059685],[0.0884375000000001,-0.1544444444444444,6.228200000017885],[0.12197916666666657,-0.19648148148148153,6.2435000000000045],[0.14166666666666666,-0.20611111111111113,6.2635000000000005],[0.153125,-0.20833333333333334,6.278200000017883],[0.12791666666666662,-0.18666666666666668,6.293500000000002],[0.11604166666666677,-0.17703703703703708,6.311400000005968],[0.1171875,-0.16129629629629633,6.326900000005956],[0.11979166666666667,-0.1714814814814815,6.347900000005957],[0.11979166666666667,-0.1714814814814815,6.3601000000238415],[0.12104166666666671,-0.17166666666666663,6.376900000005968],[0.10989583333333333,-0.11981481481481479,6.394900000005968],[0.10989583333333333,-0.11981481481481479,6.410200000017888],[0.08385416666666666,-0.06703703703703702,6.426900000005965],[0.06541666666666662,-0.0198148148148149,6.443500000000007],[0.035000000000000024,-0.0005555555555554713,6.4603000000119195],[0.021145833333333287,0.01574074074074074,6.47830000001192],[0.035312499999999976,0.01907407407407399,6.49740000000596],[0.041979166666666616,0.018333333333333292,6.5135000000000005],[0.06312500000000003,0.02370370370370362,6.528100000023848],[0.08020833333333334,0.05759259259259263,6.543500000000002],[0.08072916666666667,0.07796296296296301,6.562700000017877],[0.09156250000000009,0.06370370370370367,6.5768000000119216],[0.12604166666666666,0.036481481481481566,6.596300000011929],[0.12062499999999995,0.02444444444444453,6.611300000011916],[0.12708333333333333,0.006481481481481481,6.626900000005968],[0.1196875000000001,-0.004629629629629629,6.6454000000059565],[0.1196875000000001,-0.004629629629629629,6.660200000017888],[0.11958333333333329,-0.006111111111111027,6.676900000005965],[0.11197916666666667,0.015555555555555513,6.693500000000007],[0.07854166666666676,-0.010185185185185186,6.7103000000119195],[0.04510416666666662,-0.03592592592592588,6.729200000017876],[0.04104166666666664,-0.049629629629629544,6.744700000017879],[0.05333333333333338,-0.06962962962962967,6.76270000001788],[0.05687500000000002,-0.07759259259259255,6.776900000005959],[0.06822916666666666,-0.11777777777777781,6.797700000017876],[0.0740624999999999,-0.1257407407407407,6.813700000017882],[0.0740624999999999,-0.1257407407407407,6.826900000005956],[0.10697916666666671,-0.14166666666666666,6.8438000000119175],[0.11260416666666657,-0.15685185185185183,6.862600000023839],[0.11687500000000005,-0.1787037037037037,6.876800000011919],[0.13624999999999995,-0.17555555555555558,6.894700000017885],[0.1556250000000001,-0.17240740740740745,6.910200000017888],[0.16416666666666657,-0.19240740740740736,6.929800000011916],[0.15187499999999995,-0.19277777777777783,6.944600000023847],[0.14354166666666662,-0.19425925925925921,6.964400000005959],[0.15322916666666658,-0.16833333333333328,6.9804000000059645],[0.15322916666666658,-0.16833333333333328,6.9934000000059555],[0.15260416666666668,-0.167037037037037,7.010200000017882],[0.13739583333333344,-0.17222222222222222,7.026900000005959],[0.12072916666666676,-0.18925925925925924,7.043500000000002],[0.11260416666666657,-0.20759259259259263,7.062600000023842],[0.0853125000000001,-0.24277777777777781,7.077200000017889],[0.05802083333333338,-0.277962962962963,7.096100000023846],[0.04031250000000005,-0.27814814814814814,7.110200000017876],[0.01729166666666669,-0.25851851851851854,7.126900000005968],[-0.016250000000000025,-0.2707407407407407,7.145300000011922],[-0.041562499999999974,-0.2640740740740741,7.1633000000119225],[-0.05666666666666664,-0.23499999999999996,7.18],[-0.07864583333333333,-0.20981481481481484,7.193500000000007],[-0.09239583333333339,-0.19222222222222224,7.210200000017885],[-0.0890625,-0.14222222222222225,7.229200000017876],[-0.08333333333333333,-0.09351851851851851,7.244800000011928],[-0.0733333333333333,-0.04296296296296305,7.262300000011926],[-0.06927083333333334,-0.004444444444444402,7.276800000011924],[-0.07250000000000002,0.025,7.293500000000002],[-0.065625,0.0962962962962963,7.312500000000007],[-0.06781250000000003,0.12777777777777777,7.33010000002384],[-0.07114583333333328,0.08333333333333333,7.347700000017888],[-0.07114583333333328,0.08333333333333333,7.3601000000238415],[-0.05375000000000003,0.06777777777777783,7.376900000005968]]","[0.00030000001192576065,0.05440000000596257,0.06020000001788617,0.07699999999999818,0.09410000002384322,0.11030000001192519,0.12710000002384447,0.14610000002384282,0.16030000001192235,0.1769999999999996,0.19370000001788412,0.2103000000119195,0.22930000001192496,0.24360000002384652,0.2607000000178843,0.27710000002384305,0.29370000001788554,0.31190000000596285,0.3269000000059634,0.3476000000238457,0.3602000000178833,0.3769000000059606,0.39470000001788463,0.4104000000059642,0.4269999999999996,0.4456000000238447,0.46020000001788475,0.476900000005962,0.4937000000178813,0.5103000000119238,0.5269000000059592,0.5437000000178855,0.5632000000178863,0.5774000000059587,0.5970000000000013,0.6133000000119253,0.6314000000059607,0.6479000000059614,0.6602000000178805,0.6771000000238416,0.6936000000238423,0.7103000000119195,0.7295000000000016,0.7439999999999998,0.7627000000178796,0.7769000000059592,0.7936000000238437,0.8124000000059652,0.8269999999999982,0.8475000000000037,0.8629999999999995,0.881300000011926,0.89670000001788,0.9114000000059619,0.9273000000119254,0.9435000000000002,0.9603000000119195,0.9789000000059644,0.9936000000238465,1.013900000005961,1.0291000000238455,1.050300000011923,1.0602000000178862,1.0769999999999982,1.0956000000238433,1.1103000000119252,1.1269000000059606,1.1480000000000032,1.1636000000238411,1.179800000011923,1.2001000000238449,1.2105000000000032,1.227100000023846,1.2438000000119231,1.2644000000059634,1.2791000000238455,1.2980000000000018,1.313400000005963,1.328100000023845,1.3487000000178853,1.3603000000119252,1.3769000000059606,1.3954999999999984,1.4103000000119224,1.4269000000059648,1.4435000000000002,1.4603000000119195,1.4796000000238436,1.4956000000238419,1.5106000000238424,1.5275000000000034,1.5437000000178855,1.5635000000000048,1.580300000011924,1.5959000000059618,1.6103000000119252,1.6268000000119258,1.645900000005959,1.6634000000059643,1.679000000000002,1.6955000000000027,1.7103000000119195,1.728600000023846,1.7436000000238465,1.760200000017882,1.7769000000059592,1.7936000000238437,1.8125,1.828000000000003,1.8453000000119246,1.8684000000059626,1.8831000000238447,1.8937000000178799,1.9102000000178805,1.9269000000059648,1.9436000000238423,1.9603000000119195,1.9787000000178807,1.9937000000178813,2.013200000017882,2.027900000005964,2.0436000000238437,2.0614000000059605,2.0769000000059634,2.0962000000178804,2.1107000000178857,2.1270000000000024,2.1447000000178846,2.1602000000178805,2.1769999999999996,2.1935000000000002,2.2103000000119195,2.2279000000059597,2.2435000000000045,2.2620000000000005,2.2796000000238408,2.2974999999999994,2.3122000000178815,2.3268000000119216,2.3437000000178827,2.3602000000178833,2.3769000000059606,2.3977000000178847,2.4102000000178805,2.4272000000178835,2.444700000017882,2.464500000000001,2.478999999999999,2.4935000000000045,2.5136000000238425,2.528600000023843,2.5438000000119203,2.562600000023842,2.5769000000059634,2.5962000000178804,2.6117000000178834,2.6270000000000024,2.64670000001788,2.6602000000178805,2.6771000000238416,2.6935000000000002,2.7102000000178847,2.7280000000000015,2.7436000000238465,2.760200000017882,2.777000000000001,2.7935000000000016,2.8120000000000047,2.8268000000119216,2.8522000000178807,2.860300000011925,2.8771000000238445,2.895900000005959,2.913499999999999,2.929200000017886,2.943800000011926,2.9604000000059614,2.9804999999999993,2.993800000011923,3.0105000000000004,3.027100000023843,3.0491000000238415,3.060300000011921,3.077200000017882,3.098100000023841,3.110500000000002,3.1272000000178863,3.146000000000001,3.1634000000059643,3.1773000000119254,3.193700000017884,3.2154999999999987,3.229300000011925,3.243900000005965,3.265600000023845,3.277000000000001,3.2937000000178855,3.3128000000119258,3.3302000000178893,3.3439000000059664,3.360200000017876,3.3769000000059677,3.395100000023838,3.410600000023841,3.4269999999999996,3.445200000017884,3.466200000017885,3.4769999999999968,3.493800000011923,3.5191000000238475,3.527100000023843,3.543900000005955,3.5604999999999976,3.581800000011917,3.5937000000178827,3.6104999999999947,3.6271000000238374,3.6496000000238453,3.6603000000119224,3.6769999999999996,3.6935000000000073,3.7103000000119195,3.728700000017888,3.747700000017879,3.760200000017882,3.777200000017878,3.7938000000119203,3.814900000005956,3.830400000005959,3.8477000000178876,3.867300000011916,3.8769000000059677,3.89370000001788,3.9165000000000063,3.9269999999999996,3.943800000011926,3.9604000000059685,3.9818000000119227,3.997000000000007,4.012600000023845,4.028200000017883,4.0498000000119205,4.060300000011928,4.07710000002384,4.099499999999999,4.110300000011925,4.1270000000000024,4.145700000017889,4.16580000001192,4.180200000017884,4.194300000011928,4.210700000017887,4.230900000005967,4.249300000011921,4.260300000011917,4.277100000023843,4.293500000000002,4.312400000005958,4.327999999999996,4.345100000023841,4.362600000023839,4.381900000005963,4.401200000017887,4.413200000017888,4.4272000000178835,4.443700000017877,4.465400000005964,4.476999999999997,4.493700000017888,4.518900000005964,4.526800000011924,4.543600000023837,4.563499999999998,4.576900000005956,4.593499999999999,4.616000000000007,4.631600000023845,4.6502000000178825,4.660300000011922,4.679700000017881,4.696600000023842,4.7104000000059685,4.727100000023846,4.747800000011928,4.763800000011919,4.782600000023841,4.793600000023837,4.813300000011928,4.827500000000008,4.843700000017883,4.86040000000596,4.881600000023845,4.896600000023845,4.913500000000006,4.929800000011916,4.945800000011921,4.964700000017878,4.976999999999997,4.9935000000000045,5.013900000005968,5.02880000001192,5.050700000017876,5.060200000017879,5.0768000000119216,5.096800000011918,5.112500000000004,5.131800000011928,5.149800000011929,5.160200000017888,5.176900000005965,5.193500000000007,5.210700000017887,5.229999999999997,5.2459000000059675,5.262999999999998,5.278200000017883,5.297999999999995,5.314100000023849,5.3268000000119216,5.343499999999999,5.3623000000119205,5.380300000011921,5.396499999999996,5.4141000000238435,5.427100000023849,5.4518000000119216,5.4603000000119195,5.47940000000596,5.493700000017888,5.510400000005966,5.533000000000008,5.5437000000178855,5.560400000005963,5.582200000017885,5.596800000011918,5.61640000000596,5.649600000023845,5.658300000011927,5.664700000017881,5.677300000011918,5.695500000000003,5.7104000000059685,5.727600000023848,5.7455,5.760400000005966,5.776800000011924,5.793500000000002,5.811600000023837,5.8268000000119216,5.843600000023848,5.860200000017876,5.876800000011919,5.8955000000000055,5.910200000017888,5.929400000005963,5.945300000011919,5.9603000000119195,5.977200000017881,5.995300000011916,6.010400000005966,6.027200000017878,6.0437000000178855,6.062500000000007,6.07710000002384,6.095800000011927,6.1101000000238415,6.131000000000007,6.146499999999996,6.162200000017883,6.176900000005965,6.195400000005968,6.2104000000059685,6.228200000017885,6.2435000000000045,6.2635000000000005,6.278200000017883,6.293500000000002,6.311400000005968,6.326900000005956,6.347900000005957,6.3601000000238415,6.376900000005968,6.394900000005968,6.410200000017888,6.426900000005965,6.443500000000007,6.4603000000119195,6.47830000001192,6.49740000000596,6.5135000000000005,6.528100000023848,6.543500000000002,6.562700000017877,6.5768000000119216,6.596300000011929,6.611300000011916,6.626900000005968,6.6454000000059565,6.660200000017888,6.676900000005965,6.693500000000007,6.7103000000119195,6.729200000017876,6.744700000017879,6.76270000001788,6.776900000005959,6.797700000017876,6.813700000017882,6.826900000005956,6.8438000000119175,6.862600000023839,6.876800000011919,6.894700000017885,6.910200000017888,6.929800000011916,6.944600000023847,6.964400000005959,6.9804000000059645,6.9934000000059555,7.010200000017882,7.026900000005959,7.043500000000002,7.062600000023842,7.077200000017889,7.096100000023846,7.110200000017876,7.126900000005968,7.145300000011922,7.1633000000119225,7.18,7.193500000000007,7.210200000017885,7.229200000017876,7.244800000011928,7.262300000011926,7.276800000011924,7.293500000000002,7.312500000000007,7.33010000002384,7.347700000017888,7.3601000000238415,7.376900000005968]","[1732692500654,1732692500698,1732692500704,1732692500721,1732692500738,1732692500754,1732692500771,1732692500790,1732692500804,1732692500821,1732692500837,1732692500854,1732692500873,1732692500887,1732692500904,1732692500921,1732692500937,1732692500956,1732692500971,1732692500991,1732692501004,1732692501021,1732692501038,1732692501054,1732692501071,1732692501089,1732692501104,1732692501121,1732692501137,1732692501154,1732692501171,1732692501187,1732692501207,1732692501221,1732692501241,1732692501257,1732692501275,1732692501292,1732692501304,1732692501321,1732692501337,1732692501354,1732692501373,1732692501388,1732692501406,1732692501421,1732692501437,1732692501456,1732692501471,1732692501491,1732692501507,1732692501525,1732692501540,1732692501555,1732692501571,1732692501587,1732692501604,1732692501623,1732692501637,1732692501658,1732692501673,1732692501694,1732692501704,1732692501721,1732692501739,1732692501754,1732692501771,1732692501792,1732692501807,1732692501823,1732692501844,1732692501854,1732692501871,1732692501887,1732692501908,1732692501923,1732692501942,1732692501957,1732692501972,1732692501992,1732692502004,1732692502021,1732692502039,1732692502054,1732692502071,1732692502087,1732692502104,1732692502123,1732692502139,1732692502154,1732692502171,1732692502187,1732692502207,1732692502224,1732692502239,1732692502254,1732692502270,1732692502289,1732692502307,1732692502323,1732692502339,1732692502354,1732692502372,1732692502387,1732692502404,1732692502421,1732692502437,1732692502456,1732692502472,1732692502489,1732692502512,1732692502527,1732692502537,1732692502554,1732692502571,1732692502587,1732692502604,1732692502622,1732692502637,1732692502657,1732692502672,1732692502687,1732692502705,1732692502721,1732692502740,1732692502754,1732692502771,1732692502788,1732692502804,1732692502821,1732692502837,1732692502854,1732692502872,1732692502887,1732692502906,1732692502923,1732692502941,1732692502956,1732692502971,1732692502987,1732692503004,1732692503021,1732692503041,1732692503054,1732692503071,1732692503088,1732692503108,1732692503123,1732692503137,1732692503157,1732692503172,1732692503187,1732692503206,1732692503221,1732692503240,1732692503255,1732692503271,1732692503290,1732692503304,1732692503321,1732692503337,1732692503354,1732692503372,1732692503387,1732692503404,1732692503421,1732692503437,1732692503456,1732692503470,1732692503496,1732692503504,1732692503521,1732692503539,1732692503557,1732692503573,1732692503587,1732692503604,1732692503624,1732692503637,1732692503654,1732692503671,1732692503693,1732692503704,1732692503721,1732692503742,1732692503754,1732692503771,1732692503790,1732692503807,1732692503821,1732692503837,1732692503859,1732692503873,1732692503888,1732692503909,1732692503921,1732692503937,1732692503956,1732692503974,1732692503988,1732692504004,1732692504020,1732692504039,1732692504054,1732692504071,1732692504089,1732692504110,1732692504121,1732692504137,1732692504163,1732692504171,1732692504188,1732692504204,1732692504225,1732692504237,1732692504254,1732692504271,1732692504293,1732692504304,1732692504321,1732692504337,1732692504354,1732692504372,1732692504391,1732692504404,1732692504421,1732692504437,1732692504459,1732692504474,1732692504491,1732692504511,1732692504521,1732692504537,1732692504560,1732692504571,1732692504588,1732692504604,1732692504625,1732692504641,1732692504656,1732692504672,1732692504693,1732692504704,1732692504721,1732692504743,1732692504754,1732692504771,1732692504789,1732692504809,1732692504824,1732692504838,1732692504854,1732692504875,1732692504893,1732692504904,1732692504921,1732692504937,1732692504956,1732692504972,1732692504989,1732692505006,1732692505025,1732692505045,1732692505057,1732692505071,1732692505087,1732692505109,1732692505121,1732692505137,1732692505163,1732692505171,1732692505187,1732692505207,1732692505221,1732692505237,1732692505260,1732692505275,1732692505294,1732692505304,1732692505323,1732692505340,1732692505354,1732692505371,1732692505391,1732692505407,1732692505426,1732692505437,1732692505457,1732692505471,1732692505487,1732692505504,1732692505525,1732692505540,1732692505557,1732692505573,1732692505590,1732692505608,1732692505621,1732692505637,1732692505658,1732692505672,1732692505694,1732692505704,1732692505721,1732692505740,1732692505756,1732692505775,1732692505793,1732692505804,1732692505821,1732692505837,1732692505854,1732692505874,1732692505890,1732692505907,1732692505922,1732692505942,1732692505958,1732692505970,1732692505987,1732692506006,1732692506024,1732692506040,1732692506058,1732692506071,1732692506095,1732692506104,1732692506123,1732692506137,1732692506154,1732692506177,1732692506187,1732692506204,1732692506226,1732692506240,1732692506260,1732692506293,1732692506302,1732692506308,1732692506321,1732692506339,1732692506354,1732692506371,1732692506389,1732692506404,1732692506420,1732692506437,1732692506455,1732692506470,1732692506487,1732692506504,1732692506520,1732692506539,1732692506554,1732692506573,1732692506589,1732692506604,1732692506621,1732692506639,1732692506654,1732692506671,1732692506687,1732692506706,1732692506721,1732692506739,1732692506754,1732692506775,1732692506790,1732692506806,1732692506821,1732692506839,1732692506854,1732692506872,1732692506887,1732692506907,1732692506922,1732692506937,1732692506955,1732692506971,1732692506992,1732692507004,1732692507021,1732692507039,1732692507054,1732692507071,1732692507087,1732692507104,1732692507122,1732692507141,1732692507157,1732692507172,1732692507187,1732692507206,1732692507220,1732692507240,1732692507255,1732692507271,1732692507289,1732692507304,1732692507321,1732692507337,1732692507354,1732692507373,1732692507388,1732692507406,1732692507421,1732692507441,1732692507457,1732692507471,1732692507487,1732692507506,1732692507520,1732692507538,1732692507554,1732692507573,1732692507588,1732692507608,1732692507624,1732692507637,1732692507654,1732692507671,1732692507687,1732692507706,1732692507721,1732692507740,1732692507754,1732692507771,1732692507789,1732692507807,1732692507824,1732692507837,1732692507854,1732692507873,1732692507888,1732692507906,1732692507920,1732692507937,1732692507956,1732692507974,1732692507991,1732692508004,1732692508020]","[[917.9,767],[917.9,767],[917.9,767],[913.3,755.6],[924.4,745.2],[912.2,717.9],[909,700.7],[898,673.2],[898,673.2],[879.1,675.6],[879.1,675.6],[860.2,678],[876,679.7],[914.4,657.4],[938.9,660],[941.8,653.7],[928.3,644.3],[943.3,668.3],[964.1,689.6],[967.5,716.5],[967.5,716.5],[982.8,719.8],[965.9,712.5],[965.9,712.5],[933.4,709.6],[921.4,700.9],[921.4,700.9],[879.4,700.8],[868.5,716.5],[857.6,732.2],[840.7,720.5],[815.3,700.8],[788.9,690.5],[742,681.5],[727,680],[709.2,675.9],[666.1,683.5],[674.5,681.6],[674.5,681.6],[663.4,687.4],[641.9,675.7],[627.8,684.7],[615.9,700.2],[620.9,714.1],[628.5,718.5],[627.5,714.9],[637.5,724.9],[662.7,728.5],[677.5,736.6],[674.4,747.8],[707.8,759.5],[727.3,751],[725.5,726.2],[723.7,701.4],[743.6,705.6],[773.6,707.7],[793.5,681.1],[798.5,656.5],[792.4,628.3],[802.3,594.2],[786.1,577.1],[771.6,575.9],[771.6,575.9],[779.5,586.1],[788.9,591.6],[785.3,587.7],[780.5,597],[770.3,620.7],[751.8,627.4],[733.3,634.1],[729.2,623.4],[729.2,623.4],[750.3,647.9],[766.1,673],[792.2,700.5],[796.6,711.1],[806.3,707.7],[816,704.3],[837,705.9],[866.3,724.5],[866.3,724.5],[890.5,740.4],[907.1,764.3],[907.1,764.3],[908.5,744],[904.8,727.9],[898.7,722.2],[925.3,748.6],[941.9,773.8],[934.3,770.4],[922.7,765.3],[911.8,768.6],[918.1,759],[924.4,749.4],[904.5,746.3],[900.6,732.9],[891.7,711.6],[870.3,679.8],[829.7,640.9],[813.3,630.6],[810.7,629.9],[807.4,620.8],[803,627.7],[798.6,634.6],[798.6,621.9],[810,624],[815.2,619.6],[817.8,607.3],[839.6,602.1],[855.3,606.3],[855.3,606.3],[866.9,603.3],[866.9,603.3],[890.9,611],[890.9,611],[893.2,619.7],[899.8,624.3],[927.1,663.6],[927.4,668.8],[938.9,678],[956.1,700.1],[973.3,722.2],[992.2,736.1],[1001.4,747.6],[997,731.2],[1007.2,722],[1004.3,714.7],[992.5,694.8],[992.5,694.8],[998,706.2],[992.3,713.6],[965.4,676.5],[938.5,639.4],[938.7,615.3],[938.9,591.2],[944.8,598.2],[936.6,597.6],[937.2,599.2],[930.2,589.5],[922.1,557.7],[922.7,527.3],[936.1,541.7],[957.3,567.5],[957.3,567.5],[955.8,579.1],[946.4,594.9],[947.1,587.6],[956.8,566.8],[963.5,544.9],[977.8,534.3],[984.4,547.8],[982.3,559.9],[994.7,567.9],[999.3,564.5],[1003.9,561.1],[1008.4,548],[998.3,544.1],[999.6,559.5],[999.6,559.5],[1004.2,581.2],[995.2,607.5],[994.7,587.8],[990.3,586.1],[984.9,601.3],[979.5,616.5],[960.9,616.2],[958.7,611.7],[956.5,607.2],[940.1,599],[930.3,582.2],[930.3,582.2],[937,597.9],[944.9,633.2],[956.7,650.5],[961.7,660.6],[966.7,670.7],[960.2,693.2],[945.3,725.4],[945.3,725.4],[949.2,739.2],[952.5,749.2],[947.3,763.4],[947.3,763.4],[957,738.2],[959.3,740.2],[959.3,740.2],[946.2,738.5],[933.1,722.7],[933.1,722.7],[932.3,674.1],[942.7,652.8],[953.1,631.5],[949.8,633.3],[958.3,630.9],[958.8,612.5],[958.8,612.5],[936,599.5],[914.8,621.2],[950.5,616.3],[950.5,616.3],[968.7,584.9],[961.6,584.9],[975.7,585.3],[975.7,585.3],[988.3,591.5],[1011,602.7],[1013.1,616.3],[1013.1,616.3],[1011,651.4],[1025,665],[1025,665],[1051.4,611.3],[1051.4,611.3],[1021.6,590.3],[1021.6,590.3],[1023.7,600.2],[1027.3,607.9],[1023.2,591],[1023.2,591],[1043.1,578.3],[1031.5,572.1],[1033.3,568.4],[1061.6,547.1],[1073.6,543.9],[1073.6,543.9],[1070.5,559.6],[1067.8,572.5],[1067.4,571.6],[1074.4,603.2],[1064.7,618],[1039.1,612.9],[1039.1,612.9],[1031.8,604.2],[1025,597.4],[1025,597.4],[1029,608.5],[1038.7,619.9],[1058.7,628],[1071.2,623.8],[1065.6,632.2],[1073.9,620.3],[1098.9,625.2],[1098.9,625.2],[1120,635],[1142.9,616],[1142.9,616],[1147.6,602.9],[1138.2,588.4],[1134.1,582],[1113.1,571.6],[1104.1,575.5],[1093.2,584.1],[1072.5,584.1],[1078.2,586.7],[1078.2,586.7],[1078,590.6],[1072.4,604.8],[1073.4,617.5],[1077.7,632.1],[1088,639.2],[1113.8,650.5],[1149.4,660.2],[1159.6,671.9],[1159.6,671.9],[1171.8,675.8],[1142.4,684.2],[1137.1,680.1],[1137.1,680.1],[1125.7,686.2],[1133.6,698.8],[1133.6,698.8],[1118.4,688.1],[1077.6,688.6],[1077.6,688.6],[1021.5,680],[996,673.6],[996.5,662.9],[958.7,653.6],[958.7,653.6],[965.4,633.2],[973.8,642.6],[973.8,642.6],[973.2,646.2],[966.9,637.7],[959.1,642.1],[965.6,634.7],[965.6,634.7],[992.5,622.2],[1005.3,612.3],[1005.3,612.3],[1019.4,600],[1045.4,601.3],[1041.7,605.2],[1036.5,583.8],[1030.5,587.6],[1036.3,580.2],[1036.3,580.2],[1039.8,584.2],[1023.4,588.8],[1023.6,590.5],[1018.3,590],[1026.7,598.7],[1026.7,598.7],[1042.6,598.4],[1058.9,599.5],[1047.8,594.9],[1054.2,566.6],[1042.4,553.8],[1042.4,553.8],[1045,539.4],[1058.2,535.1],[1051.7,559.9],[1021.7,583.4],[975.8,596.2],[967.7,617.3],[959.6,638.4],[944.8,670.2],[930,702],[930,702],[932.2,731.8],[925.7,749.2],[928.5,755.9],[926.3,752.6],[926.3,752.6],[954.5,729.9],[963.3,704.3],[963.3,704.3],[951.5,677.3],[951.5,677.3],[948.4,641.4],[960.8,618.1],[960.8,618.1],[978.5,591.5],[980,569.1],[985.6,535.2],[991.2,501.3],[991.2,501.3],[1003.1,470.8],[1003.1,470.8],[1002.3,458.9],[1016.6,461],[1019.3,452.1],[1013,451.4],[1013,451.4],[1003.1,445.4],[985.2,442],[970.4,431.4],[973.3,443.6],[976.4,455.6],[976.4,455.6],[964,459.5],[947.7,463.1],[936.7,457.8],[945,462],[953.6,466.9],[948.2,466.5],[948.2,466.5],[946.8,471.4],[937.1,480.7],[937.1,480.7],[932.5,476.1],[918.4,480.2],[918.4,480.2],[926.9,489.8],[926.1,496.8],[949,492.2],[958.6,484.5],[958.8,485.1],[976.6,489],[976.6,489],[993.1,488.3],[1028.2,468.2],[1044.9,456.6],[1077.1,433.9],[1096,428.7],[1107,427.5],[1082.8,439.2],[1071.4,444.4],[1072.5,452.9],[1075,447.4],[1075,447.4],[1076.2,447.3],[1065.5,475.3],[1065.5,475.3],[1040.5,503.8],[1022.8,529.3],[993.6,539.7],[980.3,548.5],[993.9,550.3],[1000.3,549.9],[1020.6,552.8],[1037,571.1],[1037.5,582.1],[1047.9,574.4],[1081,559.7],[1075.8,553.2],[1082,543.5],[1074.9,537.5],[1074.9,537.5],[1074.8,536.7],[1067.5,548.4],[1035.4,534.5],[1003.3,520.6],[999.4,513.2],[1011.2,502.4],[1014.6,498.1],[1025.5,476.4],[1031.1,472.1],[1031.1,472.1],[1062.7,463.5],[1068.1,455.3],[1072.2,443.5],[1090.8,445.2],[1109.4,446.9],[1117.6,436.1],[1105.8,435.9],[1097.8,435.1],[1107.1,449.1],[1107.1,449.1],[1106.5,449.8],[1091.9,447],[1075.9,437.8],[1068.1,427.9],[1041.9,408.9],[1015.7,389.9],[998.7,389.8],[976.6,400.4],[944.4,393.8],[920.1,397.4],[905.6,413.1],[884.5,426.7],[871.3,436.2],[874.5,463.2],[880,489.5],[889.6,516.8],[893.5,537.6],[890.4,553.5],[897,592],[894.9,609],[891.7,585],[891.7,585],[908.4,576.6]]","[-0.056692,0.170076]","[0.056692,0.170076]","[0.170076,0.170076]","[-0.170076,-0.056692]","[-0.170076,-0.170076]","[-0.170076,0.056692]","[-0.056692,-0.056692]","[0.056692,-0.056692]","[0.170076,-0.056692]","[-0.056692,-0.170076]","[0.056692,-0.170076]","[0.170076,-0.170076]","[-0.056692,0.056692]","[0.056692,0.056692]","[0.170076,0.056692]",0,0,0,0,1,3,Smartphone,25,40,9,1,50,4,1,60,5
