inst1_resp.keys,inst1_resp.rt,calibrationMouse.x,calibrationMouse.y,calibrationMouse.leftButton,calibrationMouse.midButton,calibrationMouse.rightButton,calibrationClick.x,calibrationClick.y,calibrationClick.leftButton,calibrationClick.midButton,calibrationClick.rightButton,trialsc.thisRepN,trialsc.thisTrialN,trialsc.thisN,trialsc.thisIndex,trialsc.ran,calibration_x,calibration_y,participant,session,date,expName,psychopyVersion,OS,frameRate,calibrationClick.clicked_name,ScreenRes_pixels,Camera_pixels,mouse_2.x,mouse_2.y,mouse_2.leftButton,mouse_2.midButton,mouse_2.rightButton,mouse_2.time,mouse_2.clicked_name,mouse.x,mouse.y,mouse.leftButton,mouse.midButton,mouse.rightButton,mouse.time,mouse.clicked_name,Choice,Trial,TrialDuration,MOUSE_GAZE,ET_GAZE,ET_GAZE_x_T,time,unixTime,ET_GAZE_NF,Loc_Bus_label,Loc_Metro_label,Loc_RH_label,Loc_Cost_label,Loc_Travel_label,Loc_Comfort_label,Loc_Bus_cost,Loc_Metro_cost,Loc_RH_cost,Loc_Bus_travel,Loc_Metro_travel,Loc_RH_travel,Loc_Bus_comfort,Loc_Metro_comfort,Loc_RH_comfort,trials.thisRepN,trials.thisTrialN,trials.thisN,trials.thisIndex,trials.ran,Block,Device,RH_cost,RH_travel_time,RH_Comfort,metro_cost,metro_travel_time,metro_Comfort,Bus_cost,Bus_travel_time,Bus_Comfort
space,2.5811,0.034375,0.190740741,1,0,0,-0.660416667,-0.342592593,1,0,0,0,0,0,1,1,-0.67,-0.33,38,001,2024-11-29_18h31.54.808,Attention_exp_legacy,2023.1.0,Win32,59.88023952,,,,,,,,,,,,,,,,,,,,,,,,,,,,,,,,,,,,,,,,,,,,,,,,,,,,,,,,,
,,,,,,,-0.339583333,-0.003703704,1,0,0,0,1,1,6,1,-0.33,0,38,001,2024-11-29_18h31.54.808,Attention_exp_legacy,2023.1.0,Win32,59.88023952,calibration_square,,,,,,,,,,,,,,,,,,,,,,,,,,,,,,,,,,,,,,,,,,,,,,,,,,,,,,,,
,,,,,,,0.322916667,0.005555556,1,0,0,0,2,2,16,1,0.33,0,38,001,2024-11-29_18h31.54.808,Attention_exp_legacy,2023.1.0,Win32,59.88023952,calibration_square,,,,,,,,,,,,,,,,,,,,,,,,,,,,,,,,,,,,,,,,,,,,,,,,,,,,,,,,
,,,,,,,0.329166667,0.333333333,1,0,0,0,3,3,17,1,0.33,0.33,38,001,2024-11-29_18h31.54.808,Attention_exp_legacy,2023.1.0,Win32,59.88023952,calibration_square,,,,,,,,,,,,,,,,,,,,,,,,,,,,,,,,,,,,,,,,,,,,,,,,,,,,,,,,
,,,,,,,-0.001041667,0.007407407,1,0,0,0,4,4,11,1,0,0,38,001,2024-11-29_18h31.54.808,Attention_exp_legacy,2023.1.0,Win32,59.88023952,calibration_square,,,,,,,,,,,,,,,,,,,,,,,,,,,,,,,,,,,,,,,,,,,,,,,,,,,,,,,,
,,,,,,,0.001041667,0.661111111,1,0,0,0,5,5,13,1,0,0.67,38,001,2024-11-29_18h31.54.808,Attention_exp_legacy,2023.1.0,Win32,59.88023952,calibration_square,,,,,,,,,,,,,,,,,,,,,,,,,,,,,,,,,,,,,,,,,,,,,,,,,,,,,,,,
,,,,,,,-0.677083333,0.340740741,1,0,0,0,6,6,3,1,-0.67,0.33,38,001,2024-11-29_18h31.54.808,Attention_exp_legacy,2023.1.0,Win32,59.88023952,,,,,,,,,,,,,,,,,,,,,,,,,,,,,,,,,,,,,,,,,,,,,,,,,,,,,,,,,
,,,,,,,-0.326041667,0.32962963,1,0,0,0,7,7,7,1,-0.33,0.33,38,001,2024-11-29_18h31.54.808,Attention_exp_legacy,2023.1.0,Win32,59.88023952,calibration_square,,,,,,,,,,,,,,,,,,,,,,,,,,,,,,,,,,,,,,,,,,,,,,,,,,,,,,,,
,,,,,,,-0.326041667,-0.662962963,1,0,0,0,8,8,4,1,-0.33,-0.67,38,001,2024-11-29_18h31.54.808,Attention_exp_legacy,2023.1.0,Win32,59.88023952,calibration_square,,,,,,,,,,,,,,,,,,,,,,,,,,,,,,,,,,,,,,,,,,,,,,,,,,,,,,,,
,,,,,,,-0.665625,0,1,0,0,0,9,9,2,1,-0.67,0,38,001,2024-11-29_18h31.54.808,Attention_exp_legacy,2023.1.0,Win32,59.88023952,calibration_square,,,,,,,,,,,,,,,,,,,,,,,,,,,,,,,,,,,,,,,,,,,,,,,,,,,,,,,,
,,,,,,,0.330208333,0.67037037,1,0,0,0,10,10,18,1,0.33,0.67,38,001,2024-11-29_18h31.54.808,Attention_exp_legacy,2023.1.0,Win32,59.88023952,calibration_square,,,,,,,,,,,,,,,,,,,,,,,,,,,,,,,,,,,,,,,,,,,,,,,,,,,,,,,,
,,,,,,,-0.327083333,0.687037037,1,0,0,0,11,11,8,1,-0.33,0.67,38,001,2024-11-29_18h31.54.808,Attention_exp_legacy,2023.1.0,Win32,59.88023952,,,,,,,,,,,,,,,,,,,,,,,,,,,,,,,,,,,,,,,,,,,,,,,,,,,,,,,,,
,,,,,,,-0.009375,0.335185185,1,0,0,0,12,12,12,1,0,0.33,38,001,2024-11-29_18h31.54.808,Attention_exp_legacy,2023.1.0,Win32,59.88023952,calibration_square,,,,,,,,,,,,,,,,,,,,,,,,,,,,,,,,,,,,,,,,,,,,,,,,,,,,,,,,
,,,,,,,0.675,0.674074074,1,0,0,0,13,13,19,1,0.67,0.67,38,001,2024-11-29_18h31.54.808,Attention_exp_legacy,2023.1.0,Win32,59.88023952,calibration_square,,,,,,,,,,,,,,,,,,,,,,,,,,,,,,,,,,,,,,,,,,,,,,,,,,,,,,,,
,,,,,,,0.00625,-0.318518519,1,0,0,0,14,14,10,1,0,-0.33,38,001,2024-11-29_18h31.54.808,Attention_exp_legacy,2023.1.0,Win32,59.88023952,,,,,,,,,,,,,,,,,,,,,,,,,,,,,,,,,,,,,,,,,,,,,,,,,,,,,,,,,
,,,,,,,0.325,-0.314814815,1,0,0,0,15,15,15,1,0.33,-0.33,38,001,2024-11-29_18h31.54.808,Attention_exp_legacy,2023.1.0,Win32,59.88023952,,,,,,,,,,,,,,,,,,,,,,,,,,,,,,,,,,,,,,,,,,,,,,,,,,,,,,,,,
,,,,,,,-0.003125,-0.662962963,1,0,0,0,16,16,9,1,0,-0.67,38,001,2024-11-29_18h31.54.808,Attention_exp_legacy,2023.1.0,Win32,59.88023952,calibration_square,,,,,,,,,,,,,,,,,,,,,,,,,,,,,,,,,,,,,,,,,,,,,,,,,,,,,,,,
,,,,,,,0.332291667,-0.659259259,1,0,0,0,17,17,14,1,0.33,-0.67,38,001,2024-11-29_18h31.54.808,Attention_exp_legacy,2023.1.0,Win32,59.88023952,,,,,,,,,,,,,,,,,,,,,,,,,,,,,,,,,,,,,,,,,,,,,,,,,,,,,,,,,
,,,,,,,0.673958333,-0.674074074,1,0,0,0,18,18,20,1,0.67,-0.67,38,001,2024-11-29_18h31.54.808,Attention_exp_legacy,2023.1.0,Win32,59.88023952,calibration_square,,,,,,,,,,,,,,,,,,,,,,,,,,,,,,,,,,,,,,,,,,,,,,,,,,,,,,,,
,,,,,,,-0.666666667,-0.664814815,1,0,0,0,19,19,0,1,-0.67,-0.67,38,001,2024-11-29_18h31.54.808,Attention_exp_legacy,2023.1.0,Win32,59.88023952,calibration_square,,,,,,,,,,,,,,,,,,,,,,,,,,,,,,,,,,,,,,,,,,,,,,,,,,,,,,,,
,,,,,,,-0.327083333,-0.32962963,1,0,0,0,20,20,5,1,-0.33,-0.33,38,001,2024-11-29_18h31.54.808,Attention_exp_legacy,2023.1.0,Win32,59.88023952,calibration_square,,,,,,,,,,,,,,,,,,,,,,,,,,,,,,,,,,,,,,,,,,,,,,,,,,,,,,,,
,,,,,,,,,,,,,,,,,,,38,001,2024-11-29_18h31.54.808,Attention_exp_legacy,2023.1.0,Win32,59.88023952,,"[1920,1080]","[640,480]",[0.004166666666666667],[-0.45740740740740743],[1],[0],[0],[3.899599999964238],"[""StartButton""]",[0.09375],[0.4444444444444444],[1],[0],[0],[7.1638999999761594],"[""Metro_label""]",Metro_label,1,8.1922,"[[-0.1,-0.29444444444444445],[-0.1,-0.29444444444444445],[-0.1,-0.29444444444444445],[-0.1,-0.29444444444444445],[-0.1,-0.29444444444444445],[-0.1,-0.29444444444444445],[-0.1,-0.29444444444444445],[-0.1,-0.29444444444444445],[-0.1,-0.29444444444444445],[-0.1,-0.29444444444444445],[-0.1,-0.29444444444444445],[-0.1,-0.29444444444444445],[-0.1,-0.29444444444444445],[-0.1,-0.29444444444444445],[-0.1,-0.29444444444444445],[-0.1,-0.29444444444444445],[-0.1,-0.29444444444444445],[-0.1,-0.29444444444444445],[-0.1,-0.29444444444444445],[-0.1,-0.29444444444444445],[-0.1,-0.29444444444444445],[-0.1,-0.29444444444444445],[-0.1,-0.29444444444444445],[-0.1,-0.29444444444444445],[-0.1,-0.29444444444444445],[-0.1,-0.29444444444444445],[-0.1,-0.29444444444444445],[-0.1,-0.29444444444444445],[-0.1,-0.29444444444444445],[-0.1,-0.29444444444444445],[-0.1,-0.29444444444444445],[-0.1,-0.29444444444444445],[-0.1,-0.29444444444444445],[-0.1,-0.29444444444444445],[-0.1,-0.29444444444444445],[-0.1,-0.29444444444444445],[-0.1,-0.29444444444444445],[-0.1,-0.29444444444444445],[-0.1,-0.29444444444444445],[-0.1,-0.29444444444444445],[-0.1,-0.29444444444444445],[-0.1,-0.29444444444444445],[-0.1,-0.29444444444444445],[-0.1,-0.29444444444444445],[-0.1,-0.29444444444444445],[-0.1,-0.29444444444444445],[-0.1,-0.29444444444444445],[-0.1,-0.29444444444444445],[-0.1,-0.29444444444444445],[-0.1,-0.29444444444444445],[-0.1,-0.29444444444444445],[-0.1,-0.29444444444444445],[-0.1,-0.29444444444444445],[-0.1,-0.29444444444444445],[-0.1,-0.29444444444444445],[-0.1,-0.29444444444444445],[-0.1,-0.29444444444444445],[-0.1,-0.29444444444444445],[-0.1,-0.29444444444444445],[-0.1,-0.29444444444444445],[-0.1,-0.29444444444444445],[-0.1,-0.29444444444444445],[-0.1,-0.29444444444444445],[-0.1,-0.29444444444444445],[-0.1,-0.29444444444444445],[-0.1,-0.29444444444444445],[-0.1,-0.29444444444444445],[-0.1,-0.29444444444444445],[-0.1,-0.29444444444444445],[-0.1,-0.29444444444444445],[-0.1,-0.29444444444444445],[-0.1,-0.29444444444444445],[-0.1,-0.29444444444444445],[-0.1,-0.29444444444444445],[-0.1,-0.29444444444444445],[-0.1,-0.29444444444444445],[-0.1,-0.29444444444444445],[-0.1,-0.29444444444444445],[-0.1,-0.29444444444444445],[-0.1,-0.29444444444444445],[-0.1,-0.29444444444444445],[-0.1,-0.29444444444444445],[-0.1,-0.29444444444444445],[-0.1,-0.29444444444444445],[-0.1,-0.29444444444444445],[-0.1,-0.29444444444444445],[-0.1,-0.29444444444444445],[-0.1,-0.29444444444444445],[-0.1,-0.29444444444444445],[-0.1,-0.29444444444444445],[-0.1,-0.29444444444444445],[-0.1,-0.29444444444444445],[-0.1,-0.29444444444444445],[-0.1,-0.29444444444444445],[-0.1,-0.29444444444444445],[-0.1,-0.29444444444444445],[-0.1,-0.29444444444444445],[-0.1,-0.29444444444444445],[-0.1,-0.29444444444444445],[-0.1,-0.29444444444444445],[-0.1,-0.29444444444444445],[-0.1,-0.29444444444444445],[-0.1,-0.29444444444444445],[-0.1,-0.29444444444444445],[-0.1,-0.29444444444444445],[-0.1,-0.29444444444444445],[-0.1,-0.29444444444444445],[-0.1,-0.29444444444444445],[-0.1,-0.29444444444444445],[-0.1,-0.29444444444444445],[-0.1,-0.29444444444444445],[-0.1,-0.29444444444444445],[-0.1,-0.29444444444444445],[-0.1,-0.29444444444444445],[-0.1,-0.29444444444444445],[-0.1,-0.29444444444444445],[-0.1,-0.29444444444444445],[-0.1,-0.29444444444444445],[-0.1,-0.29444444444444445],[-0.1,-0.29444444444444445],[-0.1,-0.29444444444444445],[-0.1,-0.29444444444444445],[-0.1,-0.29444444444444445],[-0.1,-0.29444444444444445],[-0.1,-0.29444444444444445],[-0.1,-0.29444444444444445],[-0.1,-0.29444444444444445],[-0.1,-0.29444444444444445],[-0.1,-0.29444444444444445],[-0.1,-0.29444444444444445],[-0.1,-0.29444444444444445],[-0.1,-0.29444444444444445],[-0.1,-0.29444444444444445],[-0.1,-0.29444444444444445],[-0.1,-0.29444444444444445],[-0.1,-0.29444444444444445],[-0.1,-0.29444444444444445],[-0.1,-0.29444444444444445],[-0.1,-0.29444444444444445],[-0.1,-0.29444444444444445],[-0.1,-0.29444444444444445],[-0.1,-0.29444444444444445],[-0.1,-0.29444444444444445],[-0.1,-0.29444444444444445],[-0.1,-0.29444444444444445],[-0.1,-0.29444444444444445],[-0.1,-0.29444444444444445],[-0.1,-0.29444444444444445],[-0.1,-0.29444444444444445],[-0.1,-0.29444444444444445],[-0.1,-0.29444444444444445],[-0.1,-0.29444444444444445],[-0.1,-0.29444444444444445],[-0.1,-0.29444444444444445],[-0.1,-0.29444444444444445],[-0.1,-0.29444444444444445],[-0.1,-0.29444444444444445],[-0.1,-0.29444444444444445],[-0.1,-0.29444444444444445],[-0.1,-0.29444444444444445],[-0.1,-0.29444444444444445],[-0.1,-0.29444444444444445],[-0.1,-0.29444444444444445],[-0.1,-0.29444444444444445],[-0.1,-0.29444444444444445],[-0.1,-0.29444444444444445],[-0.1,-0.29444444444444445],[-0.1,-0.29444444444444445],[-0.1,-0.29444444444444445],[-0.1,-0.29444444444444445],[-0.1,-0.29444444444444445],[-0.1,-0.29444444444444445],[-0.1,-0.29444444444444445],[-0.1,-0.29444444444444445],[-0.1,-0.29444444444444445],[-0.1,-0.29444444444444445],[-0.1,-0.29444444444444445],[-0.1,-0.29444444444444445],[-0.1,-0.29444444444444445],[-0.1,-0.29444444444444445],[-0.10208333333333333,-0.29444444444444445],[-0.10729166666666666,-0.29444444444444445],[-0.11458333333333333,-0.29814814814814816],[-0.11770833333333333,-0.3],[-0.11875,-0.3],[-0.11875,-0.3],[-0.11875,-0.3],[-0.11979166666666667,-0.3],[-0.12083333333333333,-0.30185185185185187],[-0.12395833333333334,-0.3055555555555556],[-0.12708333333333333,-0.30925925925925923],[-0.13229166666666667,-0.31851851851851853],[-0.1375,-0.32592592592592595],[-0.14270833333333333,-0.3333333333333333],[-0.153125,-0.34814814814814815],[-0.16145833333333334,-0.3611111111111111],[-0.17083333333333334,-0.37777777777777777],[-0.17708333333333334,-0.3907407407407407],[-0.18541666666666667,-0.40925925925925927],[-0.18541666666666667,-0.412962962962963],[-0.18645833333333334,-0.4166666666666667],[-0.18645833333333334,-0.4166666666666667],[-0.18645833333333334,-0.4166666666666667],[-0.18645833333333334,-0.4166666666666667],[-0.18645833333333334,-0.4166666666666667],[-0.18645833333333334,-0.4166666666666667],[-0.18645833333333334,-0.4166666666666667],[-0.18645833333333334,-0.4166666666666667],[-0.18645833333333334,-0.4166666666666667],[-0.18645833333333334,-0.4166666666666667],[-0.18645833333333334,-0.4166666666666667],[-0.18645833333333334,-0.4166666666666667],[-0.18645833333333334,-0.4166666666666667],[-0.18645833333333334,-0.4166666666666667],[-0.18645833333333334,-0.4166666666666667],[-0.18645833333333334,-0.4166666666666667],[-0.18645833333333334,-0.4166666666666667],[-0.18645833333333334,-0.4166666666666667],[-0.18645833333333334,-0.4166666666666667],[-0.18645833333333334,-0.4166666666666667],[-0.18645833333333334,-0.4166666666666667],[-0.18645833333333334,-0.4166666666666667],[-0.18645833333333334,-0.4166666666666667],[-0.18645833333333334,-0.4166666666666667],[-0.184375,-0.40925925925925927],[-0.17708333333333334,-0.39814814814814814],[-0.16770833333333332,-0.387037037037037],[-0.15,-0.37592592592592594],[-0.13333333333333333,-0.36666666666666664],[-0.11354166666666667,-0.3574074074074074],[-0.09479166666666666,-0.35],[-0.07395833333333333,-0.34629629629629627],[-0.04375,-0.3388888888888889],[-0.034375,-0.337037037037037],[-0.016666666666666666,-0.3351851851851852],[0.007291666666666667,-0.3277777777777778],[0.01875,-0.32592592592592595],[0.03229166666666667,-0.32037037037037036],[0.036458333333333336,-0.31851851851851853],[0.05,-0.31666666666666665],[0.058333333333333334,-0.3111111111111111],[0.06979166666666667,-0.3111111111111111],[0.08229166666666667,-0.3111111111111111],[0.09479166666666666,-0.3111111111111111],[0.109375,-0.3111111111111111],[0.12291666666666666,-0.3111111111111111],[0.13541666666666666,-0.3111111111111111],[0.146875,-0.3111111111111111],[0.15625,-0.3111111111111111],[0.159375,-0.3111111111111111],[0.159375,-0.3111111111111111],[0.159375,-0.3111111111111111],[0.159375,-0.3111111111111111],[0.159375,-0.3111111111111111],[0.159375,-0.3111111111111111],[0.159375,-0.3111111111111111],[0.159375,-0.3111111111111111],[0.159375,-0.3111111111111111],[0.159375,-0.3111111111111111],[0.159375,-0.3111111111111111],[0.159375,-0.3111111111111111],[0.159375,-0.3111111111111111],[0.159375,-0.3111111111111111],[0.159375,-0.3111111111111111],[0.159375,-0.3111111111111111],[0.159375,-0.3111111111111111],[0.159375,-0.3111111111111111],[0.159375,-0.3111111111111111],[0.159375,-0.3111111111111111],[0.159375,-0.3111111111111111],[0.159375,-0.3111111111111111],[0.159375,-0.3111111111111111],[0.159375,-0.3111111111111111],[0.159375,-0.3111111111111111],[0.159375,-0.3111111111111111],[0.159375,-0.3111111111111111],[0.159375,-0.3111111111111111],[0.159375,-0.3111111111111111],[0.159375,-0.3111111111111111],[0.159375,-0.3111111111111111],[0.159375,-0.3111111111111111],[0.159375,-0.3111111111111111],[0.159375,-0.3111111111111111],[0.159375,-0.3111111111111111],[0.159375,-0.3111111111111111],[0.159375,-0.3111111111111111],[0.159375,-0.3111111111111111],[0.159375,-0.3111111111111111],[0.159375,-0.3111111111111111],[0.159375,-0.3111111111111111],[0.159375,-0.3111111111111111],[0.159375,-0.3111111111111111],[0.159375,-0.3111111111111111],[0.159375,-0.3111111111111111],[0.159375,-0.3111111111111111],[0.159375,-0.3111111111111111],[0.159375,-0.3111111111111111],[0.159375,-0.3111111111111111],[0.159375,-0.3111111111111111],[0.159375,-0.3111111111111111],[0.159375,-0.3111111111111111],[0.159375,-0.3111111111111111],[0.159375,-0.3111111111111111],[0.159375,-0.3111111111111111],[0.159375,-0.3111111111111111],[0.159375,-0.3111111111111111],[0.159375,-0.3111111111111111],[0.159375,-0.3111111111111111],[0.159375,-0.3111111111111111],[0.159375,-0.3111111111111111],[0.159375,-0.3111111111111111],[0.159375,-0.3111111111111111],[0.159375,-0.3111111111111111],[0.159375,-0.3111111111111111],[0.159375,-0.3111111111111111],[0.159375,-0.3111111111111111],[0.159375,-0.3111111111111111],[0.159375,-0.3111111111111111],[0.159375,-0.3111111111111111],[0.159375,-0.3111111111111111],[0.159375,-0.3111111111111111],[0.159375,-0.3111111111111111],[0.159375,-0.3111111111111111],[0.159375,-0.3111111111111111],[0.159375,-0.3111111111111111],[0.159375,-0.3111111111111111],[0.159375,-0.3111111111111111],[0.159375,-0.3111111111111111],[0.159375,-0.3111111111111111],[0.159375,-0.3111111111111111],[0.159375,-0.3111111111111111],[0.159375,-0.3111111111111111],[0.159375,-0.3111111111111111],[0.159375,-0.3111111111111111],[0.159375,-0.3111111111111111],[0.159375,-0.3111111111111111],[0.159375,-0.3111111111111111],[0.159375,-0.3111111111111111],[0.159375,-0.3111111111111111],[0.159375,-0.3111111111111111],[0.159375,-0.3111111111111111],[0.159375,-0.3111111111111111],[0.159375,-0.3111111111111111],[0.159375,-0.3111111111111111],[0.159375,-0.3111111111111111],[0.159375,-0.3111111111111111],[0.159375,-0.3111111111111111],[0.16041666666666668,-0.31296296296296294],[0.16041666666666668,-0.31851851851851853],[0.16041666666666668,-0.3296296296296296],[0.16354166666666667,-0.3425925925925926],[0.16354166666666667,-0.35555555555555557],[0.16354166666666667,-0.3685185185185185],[0.165625,-0.38333333333333336],[0.16666666666666666,-0.3925925925925926],[0.16770833333333332,-0.40555555555555556],[0.16770833333333332,-0.4148148148148148],[0.16875,-0.42407407407407405],[0.16875,-0.42962962962962964],[0.16875,-0.4351851851851852],[0.16875,-0.4388888888888889],[0.17083333333333334,-0.44074074074074077],[0.17083333333333334,-0.44074074074074077],[0.17083333333333334,-0.44074074074074077],[0.17083333333333334,-0.44074074074074077],[0.17083333333333334,-0.44074074074074077],[0.17083333333333334,-0.44074074074074077],[0.17083333333333334,-0.44074074074074077],[0.17083333333333334,-0.44074074074074077],[0.17083333333333334,-0.44074074074074077],[0.17083333333333334,-0.44074074074074077],[0.17083333333333334,-0.44074074074074077],[0.17083333333333334,-0.44074074074074077],[0.17083333333333334,-0.44074074074074077],[0.17083333333333334,-0.44074074074074077],[0.17083333333333334,-0.44074074074074077],[0.17083333333333334,-0.44074074074074077],[0.17083333333333334,-0.44074074074074077],[0.17083333333333334,-0.44074074074074077],[0.17083333333333334,-0.44074074074074077],[0.17083333333333334,-0.44074074074074077],[0.17083333333333334,-0.44074074074074077],[0.17083333333333334,-0.44074074074074077],[0.17083333333333334,-0.44074074074074077],[0.17083333333333334,-0.44074074074074077],[0.17083333333333334,-0.44074074074074077],[0.17083333333333334,-0.44074074074074077],[0.17083333333333334,-0.44074074074074077],[0.17083333333333334,-0.44074074074074077],[0.17083333333333334,-0.44074074074074077],[0.17083333333333334,-0.44074074074074077],[0.17083333333333334,-0.44074074074074077],[0.17083333333333334,-0.44074074074074077],[0.17083333333333334,-0.4425925925925926],[0.17083333333333334,-0.3055555555555556],[0.17083333333333334,-0.17407407407407408],[0.16145833333333334,-0.014814814814814815],[0.140625,0.16296296296296298],[0.109375,0.36666666666666664],[0.08125,0.5462962962962963],[0.07395833333333333,0.6055555555555555],[0.071875,0.6425925925925926],[0.06875,0.6666666666666666],[0.06875,0.674074074074074],[0.06875,0.674074074074074],[0.06875,0.674074074074074],[0.06875,0.674074074074074],[0.06875,0.674074074074074],[0.065625,0.6703703703703704],[0.06354166666666666,0.6592592592592592],[0.06145833333333333,0.6407407407407407],[0.06041666666666667,0.6148148148148148],[0.06041666666666667,0.5833333333333334],[0.06145833333333333,0.5574074074074075],[0.06666666666666667,0.5296296296296297],[0.07395833333333333,0.5],[0.08125,0.4740740740740741],[0.08854166666666667,0.4537037037037037],[0.09270833333333334,0.44814814814814813],[0.09375,0.4444444444444444],[0.09375,0.4444444444444444],[0.09375,0.4444444444444444],[0.09375,0.4444444444444444],[0.09375,0.4444444444444444],[0.09375,0.4444444444444444],[0.09375,0.4444444444444444],[0.09375,0.4444444444444444],[0.09375,0.4444444444444444],[0.09375,0.4444444444444444],[0.09375,0.4444444444444444],[0.09375,0.4444444444444444],[0.09375,0.4444444444444444],[0.09375,0.4444444444444444],[0.09375,0.4444444444444444],[0.09375,0.4444444444444444],[0.09375,0.4444444444444444],[0.09375,0.4444444444444444],[0.09375,0.4444444444444444],[0.09375,0.4444444444444444],[0.09375,0.4444444444444444],[0.09375,0.4444444444444444],[0.09375,0.4444444444444444],[0.09375,0.4444444444444444],[0.09375,0.4444444444444444],[0.09375,0.4444444444444444],[0.09375,0.4444444444444444],[0.09375,0.4444444444444444],[0.09375,0.4444444444444444],[0.09375,0.4444444444444444],[0.09479166666666666,0.4444444444444444],[0.09479166666666666,0.4351851851851852],[0.09479166666666666,0.4222222222222222],[0.09479166666666666,0.40925925925925927],[0.096875,0.39444444444444443],[0.09895833333333333,0.38333333333333336],[0.09895833333333333,0.3814814814814815],[0.1,0.37777777777777777],[0.1,0.37777777777777777],[0.1,0.37777777777777777],[0.1,0.37777777777777777],[0.1,0.37777777777777777],[0.1,0.37777777777777777],[0.1,0.37777777777777777],[0.1,0.37777777777777777],[0.1,0.37777777777777777],[0.1,0.37777777777777777],[0.1,0.37777777777777777],[0.1,0.37777777777777777],[0.1,0.37777777777777777],[0.1,0.37777777777777777],[0.1,0.37777777777777777],[0.1,0.37777777777777777],[0.1,0.37777777777777777],[0.1,0.37777777777777777],[0.1,0.37777777777777777],[0.1,0.37777777777777777],[0.1,0.37777777777777777],[0.1,0.37777777777777777],[0.1,0.37777777777777777],[0.1,0.37777777777777777],[0.1,0.37777777777777777],[0.1,0.37777777777777777],[0.1,0.37777777777777777],[0.1,0.37777777777777777],[0.1,0.37777777777777777],[0.1,0.37777777777777777],[0.1,0.37777777777777777],[0.1,0.37777777777777777],[0.1,0.37777777777777777],[0.1,0.37777777777777777],[0.1,0.37777777777777777]]","[[0.2555208333333333,0.8472222222222222],[0.2555208333333333,0.8472222222222222],[0.2078125,0.7344444444444445],[0.16656250000000009,0.6124074074074075],[0.16656250000000009,0.6124074074074075],[0.128125,0.4485185185185186],[0.08145833333333338,0.3705555555555556],[0.08145833333333338,0.3705555555555556],[0.04906250000000002,0.29259259259259257],[0.014687500000000023,0.16074074074074066],[-0.002916666666666619,0.06388888888888888],[-0.002916666666666619,0.06388888888888888],[-0.012812499999999952,-0.06611111111111109],[-0.03708333333333336,-0.14944444444444444],[-0.06229166666666662,-0.2505555555555556],[-0.07374999999999995,-0.3327777777777778],[-0.09916666666666671,-0.3968518518518519],[-0.09916666666666671,-0.3968518518518519],[-0.13010416666666663,-0.4440740740740741],[-0.13010416666666663,-0.4440740740740741],[-0.1554166666666667,-0.48870370370370364],[-0.16604166666666664,-0.5225925925925926],[-0.17864583333333334,-0.508888888888889],[-0.196875,-0.5303703703703704],[-0.2111458333333334,-0.5181481481481481],[-0.2111458333333334,-0.5181481481481481],[-0.21375000000000005,-0.5025925925925926],[-0.22687499999999997,-0.48277777777777775],[-0.23541666666666666,-0.46407407407407414],[-0.22999999999999995,-0.46351851851851855],[-0.22875000000000004,-0.4705555555555556],[-0.22791666666666663,-0.47759259259259257],[-0.26291666666666663,-0.4992592592592593],[-0.28781249999999997,-0.5048148148148148],[-0.30437500000000006,-0.5098148148148148],[-0.3282291666666667,-0.542037037037037],[-0.3282291666666667,-0.542037037037037],[-0.3490625,-0.5570370370370371],[-0.3541666666666667,-0.5770370370370371],[-0.3680208333333333,-0.5735185185185185],[-0.3680208333333333,-0.5735185185185185],[-0.381875,-0.5700000000000001],[-0.39385416666666667,-0.5762962962962963],[-0.4058333333333334,-0.5825925925925927],[-0.4022916666666667,-0.5896296296296296],[-0.39874999999999994,-0.5966666666666667],[-0.4010416666666667,-0.582037037037037],[-0.39343750000000005,-0.5455555555555556],[-0.40656249999999994,-0.5533333333333333],[-0.431875,-0.5648148148148148],[-0.4352083333333333,-0.5801851851851852],[-0.43854166666666666,-0.5955555555555556],[-0.4467708333333333,-0.6038888888888889],[-0.45499999999999996,-0.6122222222222222],[-0.4444791666666667,-0.6222222222222222],[-0.43395833333333333,-0.6322222222222221],[-0.4203125,-0.6314814814814815],[-0.4066666666666666,-0.6307407407407408],[-0.39093749999999994,-0.6301851851851852],[-0.37520833333333337,-0.6296296296296297],[-0.368125,-0.6172222222222222],[-0.34562499999999996,-0.6229629629629629],[-0.3159374999999999,-0.6183333333333333],[-0.28624999999999995,-0.6137037037037036],[-0.26968749999999997,-0.6027777777777777],[-0.26187499999999997,-0.5905555555555555],[-0.2546875,-0.5907407407407408],[-0.24874999999999994,-0.5987037037037037],[-0.2203125,-0.5557407407407408],[-0.19187500000000005,-0.5127777777777778],[-0.17854166666666665,-0.4946296296296297],[-0.18062499999999998,-0.4583333333333333],[-0.1798958333333334,-0.43],[-0.17916666666666667,-0.4016666666666666],[-0.1658333333333334,-0.37407407407407406],[-0.14375,-0.3477777777777778],[-0.11427083333333338,-0.3512962962962963],[-0.11427083333333338,-0.3512962962962963],[-0.08354166666666671,-0.347037037037037],[-0.06666666666666667,-0.34296296296296297],[-0.06666666666666667,-0.34296296296296297],[-0.04229166666666669,-0.36574074074074076],[-0.02333333333333331,-0.40018518518518525],[-0.004375000000000047,-0.4346296296296296],[0.012395833333333309,-0.447037037037037],[0.029166666666666667,-0.4594444444444445],[0.036354166666666646,-0.47388888888888886],[0.04354166666666662,-0.4883333333333333],[0.04208333333333331,-0.4948148148148148],[0.04052083333333331,-0.5053703703703704],[0.0609375,-0.5061111111111112],[0.07385416666666676,-0.48],[0.08145833333333338,-0.4485185185185185],[0.10072916666666672,-0.4096296296296296],[0.11916666666666677,-0.41518518518518516],[0.13697916666666668,-0.4148148148148148],[0.1390625,-0.4137037037037037],[0.1430208333333333,-0.4022222222222222],[0.146875,-0.4014814814814815],[0.1508333333333333,-0.39666666666666667],[0.15072916666666672,-0.41222222222222227],[0.15239583333333329,-0.4153703703703704],[0.1642708333333334,-0.44092592592592594],[0.1664583333333333,-0.45555555555555555],[0.14249999999999996,-0.45685185185185184],[0.12145833333333324,-0.47092592592592597],[0.1267708333333334,-0.4677777777777778],[0.1271874999999999,-0.49537037037037035],[0.12166666666666662,-0.49370370370370376],[0.11614583333333334,-0.492037037037037],[0.09187500000000005,-0.49537037037037035],[0.06583333333333338,-0.5111111111111111],[0.05520833333333333,-0.49314814814814817],[0.042604166666666644,-0.4935185185185185],[0.05593750000000005,-0.48944444444444446],[0.06697916666666662,-0.47851851851851845],[0.058124999999999954,-0.4866666666666667],[0.06895833333333339,-0.45796296296296296],[0.05916666666666662,-0.4831481481481481],[0.049374999999999974,-0.5083333333333333],[0.04770833333333328,-0.5338888888888889],[0.04604166666666672,-0.5594444444444445],[0.04604166666666672,-0.5594444444444445],[0.03458333333333338,-0.570925925925926],[0.01229166666666662,-0.6057407407407408],[-0.009583333333333381,-0.6279629629629631],[-0.036249999999999956,-0.6335185185185186],[-0.05666666666666664,-0.6351851851851852],[-0.08062499999999997,-0.6801851851851852],[-0.08166666666666664,-0.6885185185185185],[-0.08770833333333337,-0.6796296296296296],[-0.09604166666666672,-0.6712962962962963],[-0.10260416666666666,-0.6777777777777778],[-0.11062500000000004,-0.659074074074074],[-0.1078125,-0.617037037037037],[-0.10499999999999995,-0.575],[-0.10072916666666672,-0.5666666666666667],[-0.09645833333333335,-0.5583333333333333],[-0.09645833333333335,-0.5583333333333333],[-0.09572916666666664,-0.525],[-0.09520833333333331,-0.5070370370370371],[-0.08968750000000002,-0.5062962962962962],[-0.07781250000000005,-0.48759259259259263],[-0.06770833333333333,-0.4540740740740741],[-0.05489583333333338,-0.45444444444444443],[-0.05135416666666662,-0.4270370370370371],[-0.042604166666666644,-0.43796296296296294],[-0.03156249999999995,-0.4396296296296296],[-0.03114583333333331,-0.4414814814814814],[-0.036666666666666715,-0.44611111111111107],[-0.03770833333333338,-0.4372222222222223],[-0.03875000000000005,-0.42833333333333334],[-0.06375000000000004,-0.44518518518518513],[-0.08072916666666667,-0.4583333333333333],[-0.08312499999999995,-0.47388888888888886],[-0.07291666666666667,-0.504074074074074],[-0.08947916666666664,-0.5225925925925926],[-0.10499999999999995,-0.5333333333333333],[-0.09781249999999998,-0.5357407407407407],[-0.09427083333333333,-0.5335185185185186],[-0.10343749999999995,-0.5174074074074073],[-0.11260416666666669,-0.5012962962962962],[-0.0936458333333333,-0.4987037037037037],[-0.0936458333333333,-0.4987037037037037],[-0.08270833333333331,-0.49981481481481477],[-0.0780208333333333,-0.4757407407407407],[-0.09239583333333339,-0.47092592592592597],[-0.08729166666666661,-0.45111111111111113],[-0.07718750000000002,-0.42685185185185187],[-0.07916666666666666,-0.41074074074074074],[-0.08218749999999998,-0.382962962962963],[-0.07677083333333339,-0.3672222222222222],[-0.06395833333333331,-0.34888888888888886],[-0.06166666666666672,-0.30925925925925923],[-0.06697916666666662,-0.2766666666666666],[-0.06697916666666662,-0.2766666666666666],[-0.08104166666666662,-0.28277777777777774],[-0.07291666666666667,-0.27018518518518514],[-0.04510416666666662,-0.27148148148148155],[-0.022291666666666644,-0.2772222222222222],[0.0013541666666666192,-0.24870370370370373],[0.0013541666666666192,-0.24870370370370373],[0.013333333333333286,-0.2116666666666667],[0.02687499999999995,-0.17314814814814813],[0.03302083333333338,-0.13722222222222227],[0.03083333333333336,-0.10481481481481486],[0.027604166666666666,-0.053703703703703705],[0.022604166666666713,-0.025370370370370456],[0.022604166666666713,-0.025370370370370456],[0.017812500000000023,0.016111111111111194],[-0.0125,0.07555555555555547],[-0.042812500000000024,0.13499999999999995],[-0.042812500000000024,0.13499999999999995],[-0.05427083333333336,0.15203703703703708],[-0.07354166666666669,0.16888888888888898],[-0.08833333333333329,0.1766666666666666],[-0.08833333333333329,0.1766666666666666],[-0.11645833333333329,0.16870370370370374],[-0.13510416666666672,0.1735185185185186],[-0.13510416666666672,0.1735185185185186],[-0.13177083333333334,0.16888888888888898],[-0.1234375,0.22444444444444453],[-0.13447916666666668,0.2361111111111111],[-0.1376041666666667,0.2553703703703703],[-0.1376041666666667,0.2553703703703703],[-0.15552083333333327,0.27518518518518525],[-0.1859375,0.3037037037037037],[-0.19583333333333333,0.3122222222222223],[-0.19583333333333333,0.3122222222222223],[-0.2117708333333333,0.32833333333333325],[-0.21927083333333333,0.3116666666666666],[-0.22791666666666663,0.2857407407407407],[-0.23500000000000001,0.28111111111111103],[-0.2453125,0.2390740740740741],[-0.27072916666666663,0.19870370370370363],[-0.28635416666666663,0.17481481481481478],[-0.28635416666666663,0.17481481481481478],[-0.2734375,0.12888888888888894],[-0.26541666666666663,0.07388888888888885],[-0.2621875000000001,0.01574074074074074],[-0.2669791666666666,-0.03759259259259251],[-0.26687500000000003,-0.042407407407407366],[-0.2642708333333334,-0.044444444444444446],[-0.27625000000000005,-0.07629629629629628],[-0.2826041666666666,-0.09425925925925922],[-0.2569791666666667,-0.05092592592592592],[-0.24479166666666666,-0.06388888888888888],[-0.24312499999999998,-0.012037037037037037],[-0.24312499999999998,-0.012037037037037037],[-0.23989583333333328,0.041666666666666664],[-0.23927083333333338,0.04518518518518514],[-0.23062499999999997,0.04388888888888897],[-0.21062500000000003,0.09685185185185177],[-0.21062500000000003,0.09685185185185177],[-0.19312499999999996,0.147037037037037],[-0.16020833333333329,0.20907407407407402],[-0.1313541666666667,0.24981481481481477],[-0.10666666666666665,0.24574074074074082],[-0.10666666666666665,0.24574074074074082],[-0.07958333333333331,0.2822222222222222],[-0.04666666666666662,0.2861111111111111],[-0.017604166666666643,0.29666666666666675],[0.0109375,0.322037037037037],[0.034791666666666644,0.3374074074074075],[0.036145833333333384,0.31740740740740736],[0.036145833333333384,0.31740740740740736],[0.058124999999999954,0.3098148148148147],[0.05770833333333331,0.28407407407407403],[0.057500000000000044,0.282037037037037],[0.057500000000000044,0.282037037037037],[0.0678124999999999,0.28648148148148156],[0.06854166666666663,0.2757407407407407],[0.04864583333333338,0.2946296296296297],[0.04864583333333338,0.2946296296296297],[0.07552083333333333,0.3287037037037037],[0.10656249999999995,0.4005555555555555],[0.13875000000000004,0.522037037037037],[0.13875000000000004,0.522037037037037],[0.1765625,0.6209259259259259],[0.2181250000000001,0.7329629629629629],[0.26291666666666674,0.8162962962962962],[0.2977083333333333,0.8629629629629629],[0.31885416666666655,0.9068518518518519],[0.35614583333333344,0.950925925925926],[0.3929166666666667,0.9603703703703702],[0.3936458333333334,0.9522222222222223],[0.3779166666666666,0.9446296296296295],[0.36572916666666655,0.8974074074074072],[0.3625,0.8496296296296295],[0.3408333333333334,0.7835185185185186],[0.30750000000000005,0.7483333333333334],[0.28239583333333323,0.7335185185185186],[0.25270833333333326,0.7496296296296295],[0.21770833333333334,0.7800000000000001],[0.1955208333333334,0.7692592592592592],[0.16260416666666658,0.7609259259259259],[0.12937500000000005,0.7861111111111111],[0.09614583333333329,0.8112962962962963],[0.05479166666666669,0.8005555555555555],[0.007500000000000047,0.7825925925925926],[-0.02677083333333338,0.7468518518518518],[-0.044375000000000026,0.7387037037037036],[-0.07239583333333334,0.7262962962962963],[-0.10041666666666664,0.7138888888888889],[-0.1336458333333333,0.6994444444444445],[-0.16479166666666673,0.6829629629629629],[-0.17395833333333333,0.6603703703703704],[-0.18312499999999995,0.6377777777777778],[-0.17385416666666664,0.625],[-0.16458333333333333,0.6122222222222222],[-0.1502083333333334,0.6451851851851852],[-0.15249999999999997,0.6505555555555554],[-0.14583333333333334,0.6066666666666667],[-0.1391666666666667,0.5627777777777777],[-0.1391666666666667,0.5627777777777777],[-0.11447916666666665,0.5496296296296296],[-0.08166666666666664,0.5324074074074074],[-0.050312499999999954,0.487962962962963],[-0.050312499999999954,0.487962962962963],[-0.028125,0.4422222222222221],[-0.02000000000000005,0.4007407407407407],[-0.011874999999999976,0.3592592592592593],[0.008437500000000023,0.2762962962962964],[0.028750000000000022,0.1933333333333333],[0.05239583333333329,0.14018518518518527],[0.0756249999999999,0.08462962962962971],[0.0962500000000001,0.09462962962962967],[0.10666666666666676,0.11074074074074065],[0.12072916666666676,0.07611111111111116],[0.13781249999999995,0.05907407407407403],[0.1544791666666666,0.062037037037037036],[0.17114583333333327,0.06500000000000004],[0.16937499999999991,0.10833333333333334],[0.16760416666666675,0.15166666666666662],[0.17177083333333343,0.17018518518518513],[0.17635416666666662,0.1911111111111112],[0.16958333333333328,0.13555555555555565],[0.16958333333333328,0.13555555555555565],[0.16281249999999994,0.08000000000000008],[0.16281249999999994,0.08000000000000008],[0.16479166666666673,0.09759259259259268],[0.16906249999999995,0.10277777777777777],[0.16875,0.105925925925926],[0.16875,0.105925925925926],[0.1580208333333334,0.09518518518518514],[0.15052083333333333,0.06796296296296304],[0.16458333333333333,0.02388888888888885],[0.16458333333333333,0.02388888888888885],[0.17854166666666677,-0.006296296296296254],[0.19072916666666656,-0.06296296296296296],[0.19072916666666656,-0.06296296296296296],[0.19947916666666668,-0.08407407407407404],[0.18781249999999997,-0.10388888888888893],[0.16635416666666672,-0.13796296296296295],[0.1415625000000001,-0.18777777777777774],[0.12208333333333338,-0.2294444444444444],[0.11791666666666671,-0.26500000000000007],[0.11375000000000005,-0.3005555555555556],[0.09708333333333338,-0.30351851851851847],[0.09708333333333338,-0.30351851851851847],[0.08041666666666672,-0.30648148148148147],[0.0625,-0.31129629629629635],[0.03604166666666669,-0.32629629629629625],[0.03604166666666669,-0.32629629629629625],[0.029999999999999954,-0.3425925925925926],[0.01583333333333338,-0.3911111111111111],[0.022395833333333334,-0.40555555555555556],[0.028958333333333287,-0.42000000000000004],[0.029375000000000047,-0.34203703703703703],[0.03322916666666664,-0.2442592592592592],[0.02802083333333331,-0.16222222222222227],[0.03260416666666662,-0.10499999999999998],[0.03260416666666662,-0.10499999999999998],[0.04645833333333336,-0.023148148148148147],[0.07479166666666662,0.08055555555555556],[0.07479166666666662,0.08055555555555556],[0.10916666666666662,0.13833333333333342],[0.14208333333333342,0.2116666666666666],[0.17260416666666673,0.27518518518518525],[0.18520833333333328,0.3633333333333334],[0.20666666666666675,0.33907407407407414],[0.21864583333333343,0.3088888888888888],[0.22541666666666677,0.297037037037037],[0.22177083333333342,0.3031481481481482],[0.2224999999999999,0.31370370370370365],[0.21624999999999991,0.2946296296296297],[0.21541666666666662,0.2953703703703704],[0.22156250000000005,0.30462962962962964],[0.2165625000000001,0.3131481481481482],[0.22947916666666662,0.297037037037037],[0.22364583333333338,0.3133333333333334],[0.22385416666666677,0.31574074074074077],[0.23479166666666676,0.2946296296296297],[0.24343750000000006,0.29240740740740734],[0.25281250000000005,0.31259259259259253],[0.26708333333333345,0.33277777777777784],[0.25270833333333326,0.35703703703703693],[0.25270833333333326,0.35703703703703693],[0.2491666666666667,0.38351851851851854],[0.24072916666666658,0.38925925925925936],[0.23718750000000005,0.41444444444444434],[0.24479166666666666,0.43499999999999994],[0.24718749999999995,0.43333333333333335],[0.24406249999999996,0.4368518518518518],[0.24406249999999996,0.4368518518518518],[0.24072916666666658,0.4142592592592593],[0.21885416666666657,0.37888888888888894],[0.19697916666666657,0.3435185185185185],[0.18479166666666677,0.33277777777777784],[0.16177083333333328,0.3198148148148149],[0.1460416666666667,0.3146296296296296],[0.12156250000000005,0.2996296296296295],[0.109375,0.2755555555555555],[0.10239583333333328,0.2737037037037036],[0.0953125,0.29000000000000004],[0.09135416666666671,0.32037037037037036],[0.10031249999999996,0.3344444444444445],[0.10031249999999996,0.3344444444444445],[0.09645833333333324,0.3148148148148148],[0.10927083333333343,0.2975925925925927],[0.12208333333333338,0.2803703703703703],[0.11885416666666657,0.230925925925926],[0.1271874999999999,0.14518518518518514],[0.12322916666666663,0.06851851851851852],[0.1203125,0.062407407407407495],[0.11416666666666657,0.02111111111111107],[0.09895833333333333,-0.02907407407407416],[0.08562500000000005,-0.07296296296296292],[0.07916666666666666,-0.11351851851851855],[0.07916666666666666,-0.11351851851851855],[0.06958333333333329,-0.19185185185185188],[0.06312500000000003,-0.2712962962962963],[0.06270833333333338,-0.3162962962962963],[0.06270833333333338,-0.3162962962962963],[0.058541666666666714,-0.32592592592592595],[0.05135416666666662,-0.3381481481481482],[0.04708333333333338,-0.4305555555555556],[0.04729166666666664,-0.48277777777777775],[0.05489583333333338,-0.5153703703703704],[0.05437500000000005,-0.5444444444444444],[0.06489583333333329,-0.5681481481481482],[0.06489583333333329,-0.5681481481481482],[0.06072916666666662,-0.5796296296296296],[0.05343749999999995,-0.5900000000000001],[0.05375000000000003,-0.6012962962962963],[0.05375000000000003,-0.6012962962962963],[0.0375,-0.6103703703703705],[0.03770833333333338,-0.6033333333333334],[0.03989583333333328,-0.600925925925926],[0.04093749999999995,-0.6216666666666667],[0.041666666666666664,-0.6718518518518519],[0.042916666666666714,-0.725925925925926],[0.02833333333333338,-0.7338888888888889],[0.022395833333333334,-0.7212962962962963],[0.018020833333333285,-0.7174074074074074],[0.018020833333333285,-0.7174074074074074],[0.025,-0.6835185185185185],[0.025,-0.6835185185185185],[0.04052083333333331,-0.6433333333333333],[0.04052083333333331,-0.6433333333333333],[0.04010416666666667,-0.6624074074074073],[0.035520833333333356,-0.6783333333333333],[0.03968750000000002,-0.6835185185185185],[0.04583333333333333,-0.67],[0.041979166666666616,-0.6481481481481481],[0.04885416666666664,-0.6474074074074074],[0.05510416666666664,-0.6437037037037038],[0.059791666666666646,-0.6312962962962962],[0.053125,-0.6488888888888888],[0.05552083333333328,-0.7090740740740741],[0.05552083333333328,-0.7090740740740741],[0.06979166666666667,-0.6566666666666667],[0.07270833333333329,-0.6314814814814815],[0.06687500000000005,-0.617037037037037],[0.05333333333333338,-0.5816666666666667],[0.049791666666666616,-0.5546296296296296],[0.051145833333333356,-0.5218518518518519],[0.058437500000000024,-0.49740740740740746],[0.058437500000000024,-0.49740740740740746],[0.051145833333333356,-0.4770370370370371],[0.06802083333333328,-0.4301851851851852],[0.06927083333333334,-0.38185185185185183],[0.06927083333333334,-0.38185185185185183],[0.04708333333333338,-0.4],[0.04635416666666667,-0.36629629629629634],[0.04562499999999995,-0.33259259259259266],[0.05145833333333331,-0.3207407407407407],[0.05385416666666672,-0.34870370370370374],[0.05135416666666662,-0.3824074074074074],[0.04385416666666669,-0.40851851851851856],[0.04385416666666669,-0.40851851851851856],[0.06187499999999998,-0.37888888888888894],[0.05572916666666667,-0.3757407407407407],[0.059791666666666646,-0.3672222222222222],[0.07614583333333323,-0.3661111111111111],[0.0806250000000001,-0.3785185185185185],[0.09020833333333324,-0.3853703703703704],[0.09333333333333324,-0.40129629629629626],[0.1040625000000001,-0.38129629629629624],[0.11479166666666671,-0.36129629629629634],[0.12083333333333333,-0.3374074074074074],[0.11593749999999996,-0.36518518518518517],[0.11635416666666672,-0.3875925925925926],[0.11427083333333338,-0.3896296296296296],[0.13572916666666662,-0.2953703703703704],[0.1571875000000001,-0.20111111111111116],[0.1875,-0.10037037037037035],[0.22958333333333342,-0.0014814814814813973],[0.27885416666666674,0.08814814814814818],[0.33177083333333335,0.18074074074074079],[0.36916666666666675,0.2614814814814816]]","[[0.2555208333333333,0.8472222222222222,0.00019999998807662678],[0.2555208333333333,0.8472222222222222,0.05119999998807856],[0.2078125,0.7344444444444445,0.057299999952313385],[0.16656250000000009,0.6124074074074075,0.07839999997615621],[0.16656250000000009,0.6124074074074075,0.09029999995231464],[0.128125,0.4485185185185186,0.10699999999999932],[0.08145833333333338,0.3705555555555556,0.12569999998807901],[0.08145833333333338,0.3705555555555556,0.14039999997616093],[0.04906250000000002,0.29259259259259257,0.15700000000000358],[0.014687500000000023,0.16074074074074066,0.17600000000000193],[-0.002916666666666619,0.06388888888888888,0.19609999996423966],[-0.002916666666666619,0.06388888888888888,0.20709999996423534],[-0.012812499999999952,-0.06611111111111109,0.223699999988078],[-0.03708333333333336,-0.14944444444444444,0.2423999999761577],[-0.06229166666666662,-0.2505555555555556,0.26029999995231634],[-0.07374999999999995,-0.3327777777777778,0.27839999997615905],[-0.09916666666666671,-0.3968518518518519,0.29650000000000176],[-0.09916666666666671,-0.3968518518518519,0.30759999996423915],[-0.13010416666666663,-0.4440740740740741,0.32389999997615604],[-0.13010416666666663,-0.4440740740740741,0.34039999997615666],[-0.1554166666666667,-0.48870370370370364,0.3569999999999993],[-0.16604166666666664,-0.5225925925925926,0.375],[-0.17864583333333334,-0.508888888888889,0.3906999999880796],[-0.196875,-0.5303703703703704,0.40749999999999886],[-0.2111458333333334,-0.5181481481481481,0.42889999997616],[-0.2111458333333334,-0.5181481481481481,0.4461999999880817],[-0.21375000000000005,-0.5025925925925926,0.4601999999880775],[-0.22687499999999997,-0.48277777777777775,0.473699999988078],[-0.23541666666666666,-0.46407407407407414,0.4911999999880763],[-0.22999999999999995,-0.46351851851851855,0.5069999999999979],[-0.22875000000000004,-0.4705555555555556,0.5235999999642402],[-0.22791666666666663,-0.47759259259259257,0.5402999999523175],[-0.26291666666666663,-0.4992592592592593,0.5570000000000022],[-0.28781249999999997,-0.5048148148148148,0.5735999999642374],[-0.30437500000000006,-0.5098148148148148,0.5903999999761567],[-0.3282291666666667,-0.542037037037037,0.6068999999761573],[-0.3282291666666667,-0.542037037037037,0.6236999999880766],[-0.3490625,-0.5570370370370371,0.6402999999523189],[-0.3541666666666667,-0.5770370370370371,0.6570000000000036],[-0.3680208333333333,-0.5735185185185185,0.6736999999880808],[-0.3680208333333333,-0.5735185185185185,0.6905000000000001],[-0.381875,-0.5700000000000001,0.7068999999761587],[-0.39385416666666667,-0.5762962962962963,0.723699999988078],[-0.4058333333333334,-0.5825925925925927,0.7402999999523132],[-0.4022916666666667,-0.5896296296296296,0.7568999999761559],[-0.39874999999999994,-0.5966666666666667,0.7735999999642402],[-0.4010416666666667,-0.582037037037037,0.7902999999523175],[-0.39343750000000005,-0.5455555555555556,0.8094999999999999],[-0.40656249999999994,-0.5533333333333333,0.8257999999523165],[-0.431875,-0.5648148148148148,0.8402999999523146],[-0.4352083333333333,-0.5801851851851852,0.8569999999999993],[-0.43854166666666666,-0.5955555555555556,0.8735999999642345],[-0.4467708333333333,-0.6038888888888889,0.8902999999523189],[-0.45499999999999996,-0.6122222222222222,0.9068999999761616],[-0.4444791666666667,-0.6222222222222222,0.9235999999642388],[-0.43395833333333333,-0.6322222222222221,0.9402999999523161],[-0.4203125,-0.6314814814814815,0.9575999999642377],[-0.4066666666666666,-0.6307407407407408,0.973699999988078],[-0.39093749999999994,-0.6301851851851852,0.9903999999761552],[-0.37520833333333337,-0.6296296296296297,1.006999999999998],[-0.368125,-0.6172222222222222,1.02769999998808],[-0.34562499999999996,-0.6229629629629629,1.0430999999642339],[-0.3159374999999999,-0.6183333333333333,1.0575999999642391],[-0.28624999999999995,-0.6137037037037036,1.0735999999642374],[-0.26968749999999997,-0.6027777777777777,1.0903999999761567],[-0.26187499999999997,-0.5905555555555555,1.1069999999999993],[-0.2546875,-0.5907407407407408,1.1235999999642345],[-0.24874999999999994,-0.5987037037037037,1.140299999952319],[-0.2203125,-0.5557407407407408,1.1570000000000036],[-0.19187500000000005,-0.5127777777777778,1.1735999999642388],[-0.17854166666666665,-0.4946296296296297,1.1906999999880767],[-0.18062499999999998,-0.4583333333333333,1.2070000000000007],[-0.1798958333333334,-0.43,1.223599999964236],[-0.17916666666666667,-0.4016666666666666,1.2431999999880787],[-0.1658333333333334,-0.37407407407407406,1.256999999999998],[-0.14375,-0.3477777777777778,1.2736999999880823],[-0.11427083333333338,-0.3512962962962963,1.2905000000000015],[-0.11427083333333338,-0.3512962962962963,1.3070000000000022],[-0.08354166666666671,-0.347037037037037,1.3236999999880794],[-0.06666666666666667,-0.34296296296296297,1.3417999999523147],[-0.06666666666666667,-0.34296296296296297,1.3568999999761573],[-0.04229166666666669,-0.36574074074074076,1.3737999999523183],[-0.02333333333333331,-0.40018518518518525,1.390299999952319],[-0.004375000000000047,-0.4346296296296296,1.4070000000000036],[0.012395833333333309,-0.447037037037037,1.4235999999642388],[0.029166666666666667,-0.4594444444444445,1.440299999952316],[0.036354166666666646,-0.47388888888888886,1.4568999999761587],[0.04354166666666662,-0.4883333333333333,1.473599999964236],[0.04208333333333331,-0.4948148148148148,1.4902999999523132],[0.04052083333333331,-0.5053703703703704,1.5073999999761583],[0.0609375,-0.5061111111111112,1.5263999999761566],[0.07385416666666676,-0.48,1.5402999999523175],[0.08145833333333338,-0.4485185185185185,1.5570000000000022],[0.10072916666666672,-0.4096296296296296,1.5735999999642374],[0.11916666666666677,-0.41518518518518516,1.5902999999523146],[0.13697916666666668,-0.4148148148148148,1.6068999999761573],[0.1390625,-0.4137037037037037,1.6235999999642345],[0.1430208333333333,-0.4022222222222222,1.6401999999880772],[0.146875,-0.4014814814814815,1.6582999999523196],[0.1508333333333333,-0.39666666666666667,1.6735999999642388],[0.15072916666666672,-0.41222222222222227,1.6905999999642347],[0.15239583333333329,-0.4153703703703704,1.7075999999642377],[0.1642708333333334,-0.44092592592592594,1.724299999952315],[0.1664583333333333,-0.45555555555555555,1.7402999999523132],[0.14249999999999996,-0.45685185185185184,1.7568999999761559],[0.12145833333333324,-0.47092592592592597,1.7735999999642402],[0.1267708333333334,-0.4677777777777778,1.7908999999761548],[0.1271874999999999,-0.49537037037037035,1.8068999999761601],[0.12166666666666662,-0.49370370370370376,1.8235999999642374],[0.11614583333333334,-0.492037037037037,1.8402999999523146],[0.09187500000000005,-0.49537037037037035,1.8588999999761597],[0.06583333333333338,-0.5111111111111111,1.8782999999523184],[0.05520833333333333,-0.49314814814814817,1.8950999999642377],[0.042604166666666644,-0.4935185185185185,1.9115999999642384],[0.05593750000000005,-0.48944444444444446,1.9275999999642366],[0.06697916666666662,-0.47851851851851845,1.9415999999642395],[0.058124999999999954,-0.4866666666666667,1.9568999999761587],[0.06895833333333339,-0.45796296296296296,1.973599999964236],[0.05916666666666662,-0.4831481481481481,1.9907999999523156],[0.049374999999999974,-0.5083333333333333,2.006899999976156],[0.04770833333333328,-0.5338888888888889,2.023899999976159],[0.04604166666666672,-0.5594444444444445,2.0402999999523175],[0.04604166666666672,-0.5594444444444445,2.057000000000002],[0.03458333333333338,-0.570925925925926,2.0735999999642374],[0.01229166666666662,-0.6057407407407408,2.0904999999999987],[-0.009583333333333381,-0.6279629629629631,2.1072999999523176],[-0.036249999999999956,-0.6335185185185186,2.124099999964237],[-0.05666666666666664,-0.6351851851851852,2.140299999952319],[-0.08062499999999997,-0.6801851851851852,2.1568999999761616],[-0.08166666666666664,-0.6885185185185185,2.173599999964239],[-0.08770833333333337,-0.6796296296296296,2.193599999964235],[-0.09604166666666672,-0.6712962962962963,2.2109999999999985],[-0.10260416666666666,-0.6777777777777778,2.226599999964236],[-0.11062500000000004,-0.659074074074074,2.2425999999642343],[-0.1078125,-0.617037037037037,2.2603999999761584],[-0.10499999999999995,-0.575,2.2766999999880824],[-0.10072916666666672,-0.5666666666666667,2.293999999999997],[-0.09645833333333335,-0.5583333333333333,2.3120999999642393],[-0.09645833333333335,-0.5583333333333333,2.3236999999880794],[-0.09572916666666664,-0.525,2.3402999999523146],[-0.09520833333333331,-0.5070370370370371,2.3568999999761573],[-0.08968750000000002,-0.5062962962962962,2.3735],[-0.07781250000000005,-0.48759259259259263,2.392000000000003],[-0.06770833333333333,-0.4540740740740741,2.407099999964238],[-0.05489583333333338,-0.45444444444444443,2.423599999964239],[-0.05135416666666662,-0.4270370370370371,2.440299999952316],[-0.042604166666666644,-0.43796296296296294,2.4570999999642353],[-0.03156249999999995,-0.4396296296296296,2.4740999999642384],[-0.03114583333333331,-0.4414814814814814,2.492799999952318],[-0.036666666666666715,-0.44611111111111107,2.5071999999880816],[-0.03770833333333338,-0.4372222222222223,2.5236999999880823],[-0.03875000000000005,-0.42833333333333334,2.542799999952315],[-0.06375000000000004,-0.44518518518518513,2.5572999999523134],[-0.08072916666666667,-0.4583333333333333,2.5735999999642374],[-0.08312499999999995,-0.47388888888888886,2.5905999999642404],[-0.07291666666666667,-0.504074074074074,2.6084999999999994],[-0.08947916666666664,-0.5225925925925926,2.6235999999642345],[-0.10499999999999995,-0.5333333333333333,2.640199999988077],[-0.09781249999999998,-0.5357407407407407,2.6570000000000036],[-0.09427083333333333,-0.5335185185185186,2.6776999999880786],[-0.10343749999999995,-0.5174074074074073,2.6937999999523186],[-0.11260416666666669,-0.5012962962962962,2.708199999988082],[-0.0936458333333333,-0.4987037037037037,2.725199999988078],[-0.0936458333333333,-0.4987037037037037,2.740299999952313],[-0.08270833333333331,-0.49981481481481477,2.756999999999998],[-0.0780208333333333,-0.4757407407407407,2.7735999999642402],[-0.09239583333333339,-0.47092592592592597,2.7902999999523175],[-0.08729166666666661,-0.45111111111111113,2.807000000000002],[-0.07718750000000002,-0.42685185185185187,2.823999999999998],[-0.07916666666666666,-0.41074074074074074,2.84019999998808],[-0.08218749999999998,-0.382962962962963,2.8568999999761573],[-0.07677083333333339,-0.3672222222222222,2.8781999999880767],[-0.06395833333333331,-0.34888888888888886,2.8945000000000007],[-0.06166666666666672,-0.30925925925925923,2.909599999964236],[-0.06697916666666662,-0.2766666666666666,2.925099999964239],[-0.06697916666666662,-0.2766666666666666,2.940299999952316],[-0.08104166666666662,-0.28277777777777774,2.9568999999761587],[-0.07291666666666667,-0.27018518518518514,2.9735000000000014],[-0.04510416666666662,-0.27148148148148155,2.990299999952313],[-0.022291666666666644,-0.2772222222222222,3.0095999999642373],[0.0013541666666666192,-0.24870370370370373,3.030000000000001],[0.0013541666666666192,-0.24870370370370373,3.0403999999761595],[0.013333333333333286,-0.2116666666666667,3.0570999999642368],[0.02687499999999995,-0.17314814814814813,3.0740999999642398],[0.03302083333333338,-0.13722222222222227,3.094999999999999],[0.03083333333333336,-0.10481481481481486,3.11039999997616],[0.027604166666666666,-0.053703703703703705,3.125],[0.022604166666666713,-0.025370370370370456,3.1469999999999985],[0.022604166666666713,-0.025370370370370456,3.1570000000000036],[0.017812500000000023,0.016111111111111194,3.1738999999761575],[-0.0125,0.07555555555555547,3.1910000000000025],[-0.042812500000000024,0.13499999999999995,3.213000000000001],[-0.042812500000000024,0.13499999999999995,3.223699999988078],[-0.05427083333333336,0.15203703703703708,3.2403999999761552],[-0.07354166666666669,0.16888888888888898,3.2571999999880816],[-0.08833333333333329,0.1766666666666666,3.2787999999523194],[-0.08833333333333329,0.1766666666666666,3.29079999995232],[-0.11645833333333329,0.16870370370370374,3.3072999999523134],[-0.13510416666666672,0.1735185185185186,3.330199999988082],[-0.13510416666666672,0.1735185185185186,3.3404999999999987],[-0.13177083333333334,0.16888888888888898,3.357199999988076],[-0.1234375,0.22444444444444453,3.3738999999761603],[-0.13447916666666668,0.2361111111111111,3.390299999952319],[-0.1376041666666667,0.2553703703703703,3.4127999999523198],[-0.1376041666666667,0.2553703703703703,3.423499999999997],[-0.15552083333333327,0.27518518518518525,3.440299999952316],[-0.1859375,0.3037037037037037,3.4568999999761587],[-0.19583333333333333,0.3122222222222223,3.473599999964236],[-0.19583333333333333,0.3122222222222223,3.490299999952313],[-0.2117708333333333,0.32833333333333325,3.506999999999998],[-0.21927083333333333,0.3116666666666666,3.5235999999642402],[-0.22791666666666663,0.2857407407407407,3.5402999999523175],[-0.23500000000000001,0.28111111111111103,3.5570999999642368],[-0.2453125,0.2390740740740741,3.5735999999642374],[-0.27072916666666663,0.19870370370370363,3.5903999999761567],[-0.28635416666666663,0.17481481481481478,3.6068999999761573],[-0.28635416666666663,0.17481481481481478,3.6235999999642345],[-0.2734375,0.12888888888888894,3.640399999976161],[-0.26541666666666663,0.07388888888888885,3.6568999999761616],[-0.2621875000000001,0.01574074074074074,3.673599999964239],[-0.2669791666666666,-0.03759259259259251,3.6912999999523137],[-0.26687500000000003,-0.042407407407407366,3.7094999999999985],[-0.2642708333333334,-0.044444444444444446,3.7271999999880805],[-0.27625000000000005,-0.07629629629629628,3.7416999999880787],[-0.2826041666666666,-0.09425925925925922,3.762399999976161],[-0.2569791666666667,-0.05092592592592592,3.7773999999761614],[-0.24479166666666666,-0.06388888888888888,3.794699999988076],[-0.24312499999999998,-0.012037037037037037,3.8128999999761604],[-0.24312499999999998,-0.012037037037037037,3.824199999988082],[-0.23989583333333328,0.041666666666666664,3.8403999999761567],[-0.23927083333333338,0.04518518518518514,3.857099999964234],[-0.23062499999999997,0.04388888888888897,3.8773999999761557],[-0.21062500000000003,0.09685185185185177,3.8960999999642354],[-0.21062500000000003,0.09685185185185177,3.90719999998808],[-0.19312499999999996,0.147037037037037,3.927299999952318],[-0.16020833333333329,0.20907407407407402,3.9435000000000002],[-0.1313541666666667,0.24981481481481477,3.9608999999761565],[-0.10666666666666665,0.24574074074074082,3.979999999999997],[-0.10666666666666665,0.24574074074074082,3.990599999964239],[-0.07958333333333331,0.2822222222222222,4.007199999988082],[-0.04666666666666662,0.2861111111111111,4.023899999976159],[-0.017604166666666643,0.29666666666666675,4.043999999999997],[0.0109375,0.322037037037037,4.059099999964239],[0.034791666666666644,0.3374074074074075,4.074299999952316],[0.036145833333333384,0.31740740740740736,4.096899999976159],[0.036145833333333384,0.31740740740740736,4.107099999964234],[0.058124999999999954,0.3098148148148147,4.123799999952318],[0.05770833333333331,0.28407407407407403,4.140399999976161],[0.057500000000000044,0.282037037037037,4.15979999995232],[0.057500000000000044,0.282037037037037,4.173699999988081],[0.0678124999999999,0.28648148148148156,4.190299999952316],[0.06854166666666663,0.2757407407407407,4.208299999952317],[0.04864583333333338,0.2946296296296297,4.227299999952315],[0.04864583333333338,0.2946296296296297,4.246599999964239],[0.07552083333333333,0.3287037037037037,4.262799999952314],[0.10656249999999995,0.4005555555555555,4.276399999976157],[0.13875000000000004,0.522037037037037,4.294799999952318],[0.13875000000000004,0.522037037037037,4.307099999964237],[0.1765625,0.6209259259259259,4.323699999988079],[0.2181250000000001,0.7329629629629629,4.340699999988082],[0.26291666666666674,0.8162962962962962,4.357299999952318],[0.2977083333333333,0.8629629629629629,4.373699999988077],[0.31885416666666655,0.9068518518518519,4.390199999988077],[0.35614583333333344,0.950925925925926,4.4068999999761616],[0.3929166666666667,0.9603703703703702,4.423599999964239],[0.3936458333333334,0.9522222222222223,4.440299999952316],[0.3779166666666666,0.9446296296296295,4.457099999964235],[0.36572916666666655,0.8974074074074072,4.473599999964236],[0.3625,0.8496296296296295,4.4925],[0.3408333333333334,0.7835185185185186,4.508199999988079],[0.30750000000000005,0.7483333333333334,4.523699999988082],[0.28239583333333323,0.7335185185185186,4.540199999988076],[0.25270833333333326,0.7496296296296295,4.55689999997616],[0.21770833333333334,0.7800000000000001,4.573500000000003],[0.1955208333333334,0.7692592592592592,4.59059999996424],[0.16260416666666658,0.7609259259259259,4.606899999976157],[0.12937500000000005,0.7861111111111111,4.6235999999642345],[0.09614583333333329,0.8112962962962963,4.640199999988077],[0.05479166666666669,0.8005555555555555,4.6568999999761616],[0.007500000000000047,0.7825925925925926,4.673599999964239],[-0.02677083333333338,0.7468518518518518,4.690399999976158],[-0.044375000000000026,0.7387037037037036,4.707000000000001],[-0.07239583333333334,0.7262962962962963,4.724799999952317],[-0.10041666666666664,0.7138888888888889,4.740299999952313],[-0.1336458333333333,0.6994444444444445,4.756799999952314],[-0.16479166666666673,0.6829629629629629,4.77359999996424],[-0.17395833333333333,0.6603703703703704,4.792499999999997],[-0.18312499999999995,0.6377777777777778,4.806799999952318],[-0.17385416666666664,0.625,4.823599999964237],[-0.16458333333333333,0.6122222222222222,4.840299999952315],[-0.1502083333333334,0.6451851851851852,4.856899999976157],[-0.15249999999999997,0.6505555555555554,4.8735],[-0.14583333333333334,0.6066666666666667,4.890199999988077],[-0.1391666666666667,0.5627777777777777,4.9067999999523195],[-0.1391666666666667,0.5627777777777777,4.923599999964239],[-0.11447916666666665,0.5496296296296296,4.9401999999880815],[-0.08166666666666664,0.5324074074074074,4.956899999976159],[-0.050312499999999954,0.487962962962963,4.976299999952317],[-0.050312499999999954,0.487962962962963,4.990299999952313],[-0.028125,0.4422222222222221,5.006899999976156],[-0.02000000000000005,0.4007407407407407,5.02359999996424],[-0.011874999999999976,0.3592592592592593,5.040199999988076],[0.008437500000000023,0.2762962962962964,5.060899999976158],[0.028750000000000022,0.1933333333333333,5.075499999999998],[0.05239583333333329,0.14018518518518527,5.091799999952315],[0.0756249999999999,0.08462962962962971,5.106799999952315],[0.0962500000000001,0.09462962962962967,5.1235],[0.10666666666666676,0.11074074074074065,5.140299999952319],[0.12072916666666676,0.07611111111111116,5.1568999999761616],[0.13781249999999995,0.05907407407407403,5.173499999999997],[0.1544791666666666,0.062037037037037036,5.191099999964237],[0.17114583333333327,0.06500000000000004,5.207599999964238],[0.16937499999999991,0.10833333333333334,5.223599999964236],[0.16760416666666675,0.15166666666666662,5.240299999952313],[0.17177083333333343,0.17018518518518513,5.256899999976156],[0.17635416666666662,0.1911111111111112,5.27359999996424],[0.16958333333333328,0.13555555555555565,5.2902999999523175],[0.16958333333333328,0.13555555555555565,5.30689999997616],[0.16281249999999994,0.08000000000000008,5.323599999964237],[0.16281249999999994,0.08000000000000008,5.340299999952315],[0.16479166666666673,0.09759259259259268,5.356999999999999],[0.16906249999999995,0.10277777777777777,5.3735999999642345],[0.16875,0.105925925925926,5.395000000000003],[0.16875,0.105925925925926,5.4068999999761616],[0.1580208333333334,0.09518518518518514,5.423599999964239],[0.15052083333333333,0.06796296296296304,5.4435],[0.16458333333333333,0.02388888888888885,5.462899999976159],[0.16458333333333333,0.02388888888888885,5.473500000000001],[0.17854166666666677,-0.006296296296296254,5.490599999964239],[0.19072916666666656,-0.06296296296296296,5.510899999976161],[0.19072916666666656,-0.06296296296296296,5.52359999996424],[0.19947916666666668,-0.08407407407407404,5.540199999988076],[0.18781249999999997,-0.10388888888888893,5.55689999997616],[0.16635416666666672,-0.13796296296296295,5.573500000000003],[0.1415625000000001,-0.18777777777777774,5.590299999952315],[0.12208333333333338,-0.2294444444444444,5.607699999988078],[0.11791666666666671,-0.26500000000000007,5.6235],[0.11375000000000005,-0.3005555555555556,5.640299999952319],[0.09708333333333338,-0.30351851851851847,5.657000000000004],[0.09708333333333338,-0.30351851851851847,5.673499999999997],[0.08041666666666672,-0.30648148148148147,5.690299999952316],[0.0625,-0.31129629629629635,5.706799999952317],[0.03604166666666669,-0.32629629629629625,5.723500000000001],[0.03604166666666669,-0.32629629629629625,5.740299999952313],[0.029999999999999954,-0.3425925925925926,5.756899999976156],[0.01583333333333338,-0.3911111111111111,5.77359999996424],[0.022395833333333334,-0.40555555555555556,5.7917999999523175],[0.028958333333333287,-0.42000000000000004,5.8110999999642345],[0.029375000000000047,-0.34203703703703703,5.826999999999998],[0.03322916666666664,-0.2442592592592592,5.843099999964238],[0.02802083333333331,-0.16222222222222227,5.8620999999642365],[0.03260416666666662,-0.10499999999999998,5.8783999999761605],[0.03260416666666662,-0.10499999999999998,5.8905999999642376],[0.04645833333333336,-0.023148148148148147,5.90719999998808],[0.07479166666666662,0.08055555555555556,5.928299999952316],[0.07479166666666662,0.08055555555555556,5.940399999976158],[0.10916666666666662,0.13833333333333342,5.957099999964235],[0.14208333333333342,0.2116666666666666,5.973699999988078],[0.17260416666666673,0.27518518518518525,5.99439999997616],[0.18520833333333328,0.3633333333333334,6.0105],[0.20666666666666675,0.33907407407407414,6.026499999999999],[0.21864583333333343,0.3088888888888888,6.0403999999761595],[0.22541666666666677,0.297037037037037,6.056799999952318],[0.22177083333333342,0.3031481481481482,6.073799999952314],[0.2224999999999999,0.31370370370370365,6.0921999999880825],[0.21624999999999991,0.2946296296296297,6.107099999964234],[0.21541666666666662,0.2953703703703704,6.12539999997616],[0.22156250000000005,0.30462962962962964,6.141299999952317],[0.2165625000000001,0.3131481481481482,6.159199999988083],[0.22947916666666662,0.297037037037037,6.174299999952318],[0.22364583333333338,0.3133333333333334,6.190599999964235],[0.22385416666666677,0.31574074074074077,6.206899999976159],[0.23479166666666676,0.2946296296296297,6.225799999952315],[0.24343750000000006,0.29240740740740734,6.244299999952318],[0.25281250000000005,0.31259259259259253,6.259999999999998],[0.26708333333333345,0.33277777777777784,6.274999999999999],[0.25270833333333326,0.35703703703703693,6.296099999964234],[0.25270833333333326,0.35703703703703693,6.307000000000002],[0.2491666666666667,0.38351851851851854,6.323599999964237],[0.24072916666666658,0.38925925925925936,6.3442999999523195],[0.23718750000000005,0.41444444444444434,6.360500000000002],[0.24479166666666666,0.43499999999999994,6.374899999976158],[0.24718749999999995,0.43333333333333335,6.390299999952319],[0.24406249999999996,0.4368518518518518,6.4068999999761616],[0.24406249999999996,0.4368518518518518,6.423699999988081],[0.24072916666666658,0.4142592592592593,6.440299999952316],[0.21885416666666657,0.37888888888888894,6.456799999952317],[0.19697916666666657,0.3435185185185185,6.473599999964236],[0.18479166666666677,0.33277777777777784,6.49289999997616],[0.16177083333333328,0.3198148148148149,6.510599999964235],[0.1460416666666667,0.3146296296296296,6.526699999988082],[0.12156250000000005,0.2996296296296295,6.5402999999523175],[0.109375,0.2755555555555555,6.55689999997616],[0.10239583333333328,0.2737037037037036,6.5765999999642375],[0.0953125,0.29000000000000004,6.593399999976157],[0.09135416666666671,0.32037037037037036,6.609199999988078],[0.10031249999999996,0.3344444444444445,6.633099999964237],[0.10031249999999996,0.3344444444444445,6.640299999952319],[0.09645833333333324,0.3148148148148148,6.657000000000004],[0.10927083333333343,0.2975925925925927,6.673799999952315],[0.12208333333333338,0.2803703703703703,6.695799999952314],[0.11885416666666657,0.230925925925926,6.710599999964238],[0.1271874999999999,0.14518518518518514,6.726199999988076],[0.12322916666666663,0.06851851851851852,6.740699999988081],[0.1203125,0.062407407407407495,6.756999999999998],[0.11416666666666657,0.02111111111111107,6.77359999996424],[0.09895833333333333,-0.02907407407407416,6.790599999964236],[0.08562500000000005,-0.07296296296296292,6.806799999952318],[0.07916666666666666,-0.11351851851851855,6.82859999996424],[0.07916666666666666,-0.11351851851851855,6.840299999952315],[0.06958333333333329,-0.19185185185185188,6.857099999964234],[0.06312500000000003,-0.2712962962962963,6.873699999988077],[0.06270833333333338,-0.3162962962962963,6.895399999976156],[0.06270833333333338,-0.3162962962962963,6.907000000000004],[0.058541666666666714,-0.32592592592592595,6.923799999952315],[0.05135416666666662,-0.3381481481481482,6.940399999976158],[0.04708333333333338,-0.4305555555555556,6.9616999999880775],[0.04729166666666664,-0.48277777777777775,6.9771999999880805],[0.05489583333333338,-0.5153703703703704,6.993000000000002],[0.05437500000000005,-0.5444444444444444,7.011699999988082],[0.06489583333333329,-0.5681481481481482,7.028599999964236],[0.06489583333333329,-0.5681481481481482,7.040199999988076],[0.06072916666666662,-0.5796296296296296,7.05689999997616],[0.05343749999999995,-0.5900000000000001,7.073599999964237],[0.05375000000000003,-0.6012962962962963,7.091899999976157],[0.05375000000000003,-0.6012962962962963,7.106899999976157],[0.0375,-0.6103703703703705,7.1235999999642345],[0.03770833333333338,-0.6033333333333334,7.140500000000003],[0.03989583333333328,-0.600925925925926,7.1567999999523195],[0.04093749999999995,-0.6216666666666667,7.17439999997616],[0.041666666666666664,-0.6718518518518519,7.191799999952316],[0.042916666666666714,-0.725925925925926,7.206899999976159],[0.02833333333333338,-0.7338888888888889,7.227499999999999],[0.022395833333333334,-0.7212962962962963,7.244],[0.018020833333333285,-0.7174074074074074,7.260399999976158],[0.018020833333333285,-0.7174074074074074,7.273799999952317],[0.025,-0.6835185185185185,7.2902999999523175],[0.025,-0.6835185185185185,7.30689999997616],[0.04052083333333331,-0.6433333333333333,7.323699999988079],[0.04052083333333331,-0.6433333333333333,7.340299999952315],[0.04010416666666667,-0.6624074074074073,7.356899999976157],[0.035520833333333356,-0.6783333333333333,7.374599999964239],[0.03968750000000002,-0.6835185185185185,7.392899999976159],[0.04583333333333333,-0.67,7.409399999976159],[0.041979166666666616,-0.6481481481481481,7.4239999999999995],[0.04885416666666664,-0.6474074074074074,7.4410000000000025],[0.05510416666666664,-0.6437037037037038,7.459299999952314],[0.059791666666666646,-0.6312962962962962,7.473699999988078],[0.053125,-0.6488888888888888,7.490299999952313],[0.05552083333333328,-0.7090740740740741,7.512299999952319],[0.05552083333333328,-0.7090740740740741,7.523699999988082],[0.06979166666666667,-0.6566666666666667,7.5403999999761595],[0.07270833333333329,-0.6314814814814815,7.557099999964237],[0.06687500000000005,-0.617037037037037,7.577799999952319],[0.05333333333333338,-0.5816666666666667,7.594999999999999],[0.049791666666666616,-0.5546296296296296,7.610299999952318],[0.051145833333333356,-0.5218518518518519,7.6290999999642395],[0.058437500000000024,-0.49740740740740746,7.644899999976161],[0.058437500000000024,-0.49740740740740746,7.6568999999761616],[0.051145833333333356,-0.4770370370370371,7.673599999964239],[0.06802083333333328,-0.4301851851851852,7.6905],[0.06927083333333334,-0.38185185185185183,7.706899999976159],[0.06927083333333334,-0.38185185185185183,7.723500000000001],[0.04708333333333338,-0.4,7.740199999988079],[0.04635416666666667,-0.36629629629629634,7.756799999952314],[0.04562499999999995,-0.33259259259259266,7.7734999999999985],[0.05145833333333331,-0.3207407407407407,7.794699999988076],[0.05385416666666672,-0.34870370370370374,7.80989999997616],[0.05135416666666662,-0.3824074074074074,7.826500000000003],[0.04385416666666669,-0.40851851851851856,7.842599999964236],[0.04385416666666669,-0.40851851851851856,7.856899999976157],[0.06187499999999998,-0.37888888888888894,7.8735],[0.05572916666666667,-0.3757407407407407,7.890500000000003],[0.059791666666666646,-0.3672222222222222,7.9067999999523195],[0.07614583333333323,-0.3661111111111111,7.92589999997616],[0.0806250000000001,-0.3785185185185185,7.9416999999880815],[0.09020833333333324,-0.3853703703703704,7.959099999964238],[0.09333333333333324,-0.40129629629629626,7.97379999995232],[0.1040625000000001,-0.38129629629629624,7.994199999988076],[0.11479166666666671,-0.36129629629629634,8.009899999976156],[0.12083333333333333,-0.3374074074074074,8.026299999952315],[0.11593749999999996,-0.36518518518518517,8.0415],[0.11635416666666672,-0.3875925925925926,8.058899999976155],[0.11427083333333338,-0.3896296296296296,8.075799999952316],[0.13572916666666662,-0.2953703703703704,8.092299999952317],[0.1571875000000001,-0.20111111111111116,8.107199999988076],[0.1875,-0.10037037037037035,8.12389999997616],[0.22958333333333342,-0.0014814814814813973,8.140199999988077],[0.27885416666666674,0.08814814814814818,8.15679999995232],[0.33177083333333335,0.18074074074074079,8.173499999999997],[0.36916666666666675,0.2614814814814816,8.192199999988077]]","[0.00019999998807662678,0.05119999998807856,0.057299999952313385,0.07839999997615621,0.09029999995231464,0.10699999999999932,0.12569999998807901,0.14039999997616093,0.15700000000000358,0.17600000000000193,0.19609999996423966,0.20709999996423534,0.223699999988078,0.2423999999761577,0.26029999995231634,0.27839999997615905,0.29650000000000176,0.30759999996423915,0.32389999997615604,0.34039999997615666,0.3569999999999993,0.375,0.3906999999880796,0.40749999999999886,0.42889999997616,0.4461999999880817,0.4601999999880775,0.473699999988078,0.4911999999880763,0.5069999999999979,0.5235999999642402,0.5402999999523175,0.5570000000000022,0.5735999999642374,0.5903999999761567,0.6068999999761573,0.6236999999880766,0.6402999999523189,0.6570000000000036,0.6736999999880808,0.6905000000000001,0.7068999999761587,0.723699999988078,0.7402999999523132,0.7568999999761559,0.7735999999642402,0.7902999999523175,0.8094999999999999,0.8257999999523165,0.8402999999523146,0.8569999999999993,0.8735999999642345,0.8902999999523189,0.9068999999761616,0.9235999999642388,0.9402999999523161,0.9575999999642377,0.973699999988078,0.9903999999761552,1.006999999999998,1.02769999998808,1.0430999999642339,1.0575999999642391,1.0735999999642374,1.0903999999761567,1.1069999999999993,1.1235999999642345,1.140299999952319,1.1570000000000036,1.1735999999642388,1.1906999999880767,1.2070000000000007,1.223599999964236,1.2431999999880787,1.256999999999998,1.2736999999880823,1.2905000000000015,1.3070000000000022,1.3236999999880794,1.3417999999523147,1.3568999999761573,1.3737999999523183,1.390299999952319,1.4070000000000036,1.4235999999642388,1.440299999952316,1.4568999999761587,1.473599999964236,1.4902999999523132,1.5073999999761583,1.5263999999761566,1.5402999999523175,1.5570000000000022,1.5735999999642374,1.5902999999523146,1.6068999999761573,1.6235999999642345,1.6401999999880772,1.6582999999523196,1.6735999999642388,1.6905999999642347,1.7075999999642377,1.724299999952315,1.7402999999523132,1.7568999999761559,1.7735999999642402,1.7908999999761548,1.8068999999761601,1.8235999999642374,1.8402999999523146,1.8588999999761597,1.8782999999523184,1.8950999999642377,1.9115999999642384,1.9275999999642366,1.9415999999642395,1.9568999999761587,1.973599999964236,1.9907999999523156,2.006899999976156,2.023899999976159,2.0402999999523175,2.057000000000002,2.0735999999642374,2.0904999999999987,2.1072999999523176,2.124099999964237,2.140299999952319,2.1568999999761616,2.173599999964239,2.193599999964235,2.2109999999999985,2.226599999964236,2.2425999999642343,2.2603999999761584,2.2766999999880824,2.293999999999997,2.3120999999642393,2.3236999999880794,2.3402999999523146,2.3568999999761573,2.3735,2.392000000000003,2.407099999964238,2.423599999964239,2.440299999952316,2.4570999999642353,2.4740999999642384,2.492799999952318,2.5071999999880816,2.5236999999880823,2.542799999952315,2.5572999999523134,2.5735999999642374,2.5905999999642404,2.6084999999999994,2.6235999999642345,2.640199999988077,2.6570000000000036,2.6776999999880786,2.6937999999523186,2.708199999988082,2.725199999988078,2.740299999952313,2.756999999999998,2.7735999999642402,2.7902999999523175,2.807000000000002,2.823999999999998,2.84019999998808,2.8568999999761573,2.8781999999880767,2.8945000000000007,2.909599999964236,2.925099999964239,2.940299999952316,2.9568999999761587,2.9735000000000014,2.990299999952313,3.0095999999642373,3.030000000000001,3.0403999999761595,3.0570999999642368,3.0740999999642398,3.094999999999999,3.11039999997616,3.125,3.1469999999999985,3.1570000000000036,3.1738999999761575,3.1910000000000025,3.213000000000001,3.223699999988078,3.2403999999761552,3.2571999999880816,3.2787999999523194,3.29079999995232,3.3072999999523134,3.330199999988082,3.3404999999999987,3.357199999988076,3.3738999999761603,3.390299999952319,3.4127999999523198,3.423499999999997,3.440299999952316,3.4568999999761587,3.473599999964236,3.490299999952313,3.506999999999998,3.5235999999642402,3.5402999999523175,3.5570999999642368,3.5735999999642374,3.5903999999761567,3.6068999999761573,3.6235999999642345,3.640399999976161,3.6568999999761616,3.673599999964239,3.6912999999523137,3.7094999999999985,3.7271999999880805,3.7416999999880787,3.762399999976161,3.7773999999761614,3.794699999988076,3.8128999999761604,3.824199999988082,3.8403999999761567,3.857099999964234,3.8773999999761557,3.8960999999642354,3.90719999998808,3.927299999952318,3.9435000000000002,3.9608999999761565,3.979999999999997,3.990599999964239,4.007199999988082,4.023899999976159,4.043999999999997,4.059099999964239,4.074299999952316,4.096899999976159,4.107099999964234,4.123799999952318,4.140399999976161,4.15979999995232,4.173699999988081,4.190299999952316,4.208299999952317,4.227299999952315,4.246599999964239,4.262799999952314,4.276399999976157,4.294799999952318,4.307099999964237,4.323699999988079,4.340699999988082,4.357299999952318,4.373699999988077,4.390199999988077,4.4068999999761616,4.423599999964239,4.440299999952316,4.457099999964235,4.473599999964236,4.4925,4.508199999988079,4.523699999988082,4.540199999988076,4.55689999997616,4.573500000000003,4.59059999996424,4.606899999976157,4.6235999999642345,4.640199999988077,4.6568999999761616,4.673599999964239,4.690399999976158,4.707000000000001,4.724799999952317,4.740299999952313,4.756799999952314,4.77359999996424,4.792499999999997,4.806799999952318,4.823599999964237,4.840299999952315,4.856899999976157,4.8735,4.890199999988077,4.9067999999523195,4.923599999964239,4.9401999999880815,4.956899999976159,4.976299999952317,4.990299999952313,5.006899999976156,5.02359999996424,5.040199999988076,5.060899999976158,5.075499999999998,5.091799999952315,5.106799999952315,5.1235,5.140299999952319,5.1568999999761616,5.173499999999997,5.191099999964237,5.207599999964238,5.223599999964236,5.240299999952313,5.256899999976156,5.27359999996424,5.2902999999523175,5.30689999997616,5.323599999964237,5.340299999952315,5.356999999999999,5.3735999999642345,5.395000000000003,5.4068999999761616,5.423599999964239,5.4435,5.462899999976159,5.473500000000001,5.490599999964239,5.510899999976161,5.52359999996424,5.540199999988076,5.55689999997616,5.573500000000003,5.590299999952315,5.607699999988078,5.6235,5.640299999952319,5.657000000000004,5.673499999999997,5.690299999952316,5.706799999952317,5.723500000000001,5.740299999952313,5.756899999976156,5.77359999996424,5.7917999999523175,5.8110999999642345,5.826999999999998,5.843099999964238,5.8620999999642365,5.8783999999761605,5.8905999999642376,5.90719999998808,5.928299999952316,5.940399999976158,5.957099999964235,5.973699999988078,5.99439999997616,6.0105,6.026499999999999,6.0403999999761595,6.056799999952318,6.073799999952314,6.0921999999880825,6.107099999964234,6.12539999997616,6.141299999952317,6.159199999988083,6.174299999952318,6.190599999964235,6.206899999976159,6.225799999952315,6.244299999952318,6.259999999999998,6.274999999999999,6.296099999964234,6.307000000000002,6.323599999964237,6.3442999999523195,6.360500000000002,6.374899999976158,6.390299999952319,6.4068999999761616,6.423699999988081,6.440299999952316,6.456799999952317,6.473599999964236,6.49289999997616,6.510599999964235,6.526699999988082,6.5402999999523175,6.55689999997616,6.5765999999642375,6.593399999976157,6.609199999988078,6.633099999964237,6.640299999952319,6.657000000000004,6.673799999952315,6.695799999952314,6.710599999964238,6.726199999988076,6.740699999988081,6.756999999999998,6.77359999996424,6.790599999964236,6.806799999952318,6.82859999996424,6.840299999952315,6.857099999964234,6.873699999988077,6.895399999976156,6.907000000000004,6.923799999952315,6.940399999976158,6.9616999999880775,6.9771999999880805,6.993000000000002,7.011699999988082,7.028599999964236,7.040199999988076,7.05689999997616,7.073599999964237,7.091899999976157,7.106899999976157,7.1235999999642345,7.140500000000003,7.1567999999523195,7.17439999997616,7.191799999952316,7.206899999976159,7.227499999999999,7.244,7.260399999976158,7.273799999952317,7.2902999999523175,7.30689999997616,7.323699999988079,7.340299999952315,7.356899999976157,7.374599999964239,7.392899999976159,7.409399999976159,7.4239999999999995,7.4410000000000025,7.459299999952314,7.473699999988078,7.490299999952313,7.512299999952319,7.523699999988082,7.5403999999761595,7.557099999964237,7.577799999952319,7.594999999999999,7.610299999952318,7.6290999999642395,7.644899999976161,7.6568999999761616,7.673599999964239,7.6905,7.706899999976159,7.723500000000001,7.740199999988079,7.756799999952314,7.7734999999999985,7.794699999988076,7.80989999997616,7.826500000000003,7.842599999964236,7.856899999976157,7.8735,7.890500000000003,7.9067999999523195,7.92589999997616,7.9416999999880815,7.959099999964238,7.97379999995232,7.994199999988076,8.009899999976156,8.026299999952315,8.0415,8.058899999976155,8.075799999952316,8.092299999952317,8.107199999988076,8.12389999997616,8.140199999988077,8.15679999995232,8.173499999999997,8.192199999988077]","[1732876358110,1732876358151,1732876358157,1732876358178,1732876358190,1732876358207,1732876358225,1732876358240,1732876358256,1732876358276,1732876358296,1732876358307,1732876358323,1732876358342,1732876358360,1732876358378,1732876358396,1732876358407,1732876358423,1732876358440,1732876358457,1732876358474,1732876358490,1732876358507,1732876358530,1732876358548,1732876358562,1732876358575,1732876358593,1732876358608,1732876358625,1732876358642,1732876358658,1732876358675,1732876358692,1732876358708,1732876358725,1732876358742,1732876358758,1732876358775,1732876358792,1732876358808,1732876358825,1732876358842,1732876358858,1732876358875,1732876358892,1732876358911,1732876358927,1732876358942,1732876358958,1732876358975,1732876358992,1732876359008,1732876359025,1732876359042,1732876359059,1732876359075,1732876359092,1732876359108,1732876359129,1732876359145,1732876359159,1732876359175,1732876359192,1732876359208,1732876359225,1732876359242,1732876359258,1732876359275,1732876359292,1732876359308,1732876359325,1732876359345,1732876359358,1732876359375,1732876359392,1732876359408,1732876359425,1732876359443,1732876359458,1732876359475,1732876359492,1732876359508,1732876359525,1732876359542,1732876359558,1732876359575,1732876359592,1732876359609,1732876359628,1732876359642,1732876359658,1732876359675,1732876359692,1732876359708,1732876359725,1732876359742,1732876359760,1732876359775,1732876359792,1732876359809,1732876359826,1732876359842,1732876359858,1732876359875,1732876359892,1732876359908,1732876359925,1732876359942,1732876359960,1732876359980,1732876359996,1732876360013,1732876360029,1732876360043,1732876360058,1732876360075,1732876360092,1732876360108,1732876360125,1732876360142,1732876360158,1732876360175,1732876360192,1732876360209,1732876360226,1732876360242,1732876360258,1732876360275,1732876360295,1732876360312,1732876360328,1732876360344,1732876360362,1732876360378,1732876360395,1732876360414,1732876360425,1732876360442,1732876360458,1732876360475,1732876360493,1732876360509,1732876360525,1732876360542,1732876360558,1732876360576,1732876360594,1732876360609,1732876360625,1732876360644,1732876360659,1732876360675,1732876360692,1732876360710,1732876360725,1732876360742,1732876360758,1732876360779,1732876360795,1732876360810,1732876360827,1732876360842,1732876360858,1732876360875,1732876360892,1732876360908,1732876360925,1732876360942,1732876360958,1732876360980,1732876360996,1732876361011,1732876361027,1732876361042,1732876361058,1732876361075,1732876361092,1732876361111,1732876361131,1732876361142,1732876361159,1732876361176,1732876361196,1732876361212,1732876361226,1732876361248,1732876361258,1732876361275,1732876361292,1732876361314,1732876361325,1732876361342,1732876361359,1732876361380,1732876361392,1732876361409,1732876361432,1732876361442,1732876361459,1732876361475,1732876361492,1732876361514,1732876361525,1732876361542,1732876361558,1732876361575,1732876361592,1732876361608,1732876361625,1732876361642,1732876361658,1732876361675,1732876361692,1732876361708,1732876361725,1732876361742,1732876361758,1732876361775,1732876361793,1732876361811,1732876361829,1732876361843,1732876361864,1732876361879,1732876361896,1732876361914,1732876361926,1732876361942,1732876361959,1732876361979,1732876361998,1732876362009,1732876362029,1732876362045,1732876362062,1732876362081,1732876362092,1732876362109,1732876362125,1732876362145,1732876362161,1732876362176,1732876362198,1732876362208,1732876362225,1732876362242,1732876362261,1732876362275,1732876362292,1732876362310,1732876362329,1732876362348,1732876362364,1732876362378,1732876362396,1732876362409,1732876362425,1732876362442,1732876362459,1732876362475,1732876362492,1732876362508,1732876362525,1732876362542,1732876362558,1732876362575,1732876362594,1732876362610,1732876362625,1732876362642,1732876362658,1732876362675,1732876362692,1732876362708,1732876362725,1732876362742,1732876362758,1732876362775,1732876362792,1732876362808,1732876362826,1732876362842,1732876362858,1732876362875,1732876362894,1732876362908,1732876362925,1732876362942,1732876362958,1732876362975,1732876362992,1732876363008,1732876363025,1732876363042,1732876363058,1732876363078,1732876363092,1732876363108,1732876363125,1732876363142,1732876363162,1732876363177,1732876363193,1732876363208,1732876363225,1732876363242,1732876363258,1732876363275,1732876363293,1732876363309,1732876363325,1732876363342,1732876363358,1732876363375,1732876363392,1732876363408,1732876363425,1732876363442,1732876363458,1732876363475,1732876363496,1732876363508,1732876363525,1732876363545,1732876363564,1732876363575,1732876363592,1732876363612,1732876363625,1732876363642,1732876363658,1732876363675,1732876363692,1732876363709,1732876363725,1732876363742,1732876363758,1732876363775,1732876363792,1732876363808,1732876363825,1732876363842,1732876363858,1732876363875,1732876363893,1732876363913,1732876363929,1732876363945,1732876363963,1732876363980,1732876363992,1732876364009,1732876364030,1732876364042,1732876364059,1732876364075,1732876364096,1732876364112,1732876364128,1732876364142,1732876364158,1732876364175,1732876364194,1732876364209,1732876364227,1732876364243,1732876364261,1732876364276,1732876364292,1732876364308,1732876364327,1732876364346,1732876364361,1732876364376,1732876364398,1732876364408,1732876364425,1732876364446,1732876364462,1732876364476,1732876364492,1732876364508,1732876364525,1732876364542,1732876364558,1732876364575,1732876364594,1732876364612,1732876364628,1732876364642,1732876364658,1732876364678,1732876364695,1732876364711,1732876364734,1732876364742,1732876364759,1732876364775,1732876364797,1732876364812,1732876364828,1732876364842,1732876364859,1732876364875,1732876364892,1732876364908,1732876364930,1732876364942,1732876364959,1732876364975,1732876364997,1732876365008,1732876365025,1732876365042,1732876365063,1732876365079,1732876365094,1732876365113,1732876365130,1732876365142,1732876365158,1732876365175,1732876365193,1732876365208,1732876365225,1732876365242,1732876365258,1732876365276,1732876365293,1732876365308,1732876365329,1732876365345,1732876365362,1732876365375,1732876365392,1732876365408,1732876365425,1732876365442,1732876365458,1732876365476,1732876365494,1732876365511,1732876365525,1732876365542,1732876365561,1732876365575,1732876365592,1732876365614,1732876365625,1732876365642,1732876365659,1732876365679,1732876365696,1732876365712,1732876365731,1732876365746,1732876365758,1732876365775,1732876365792,1732876365808,1732876365825,1732876365842,1732876365858,1732876365875,1732876365896,1732876365911,1732876365928,1732876365944,1732876365958,1732876365975,1732876365992,1732876366008,1732876366027,1732876366043,1732876366061,1732876366075,1732876366096,1732876366111,1732876366128,1732876366143,1732876366160,1732876366177,1732876366194,1732876366209,1732876366225,1732876366242,1732876366258,1732876366275,1732876366294]","[[1205.3,997.5],[1205.3,997.5],[1159.5,936.6],[1119.9,870.7],[1119.9,870.7],[1083,782.2],[1038.2,740.1],[1038.2,740.1],[1007.1,698],[974.1,626.8],[957.2,574.5],[957.2,574.5],[947.7,504.3],[924.4,459.3],[900.2,404.7],[889.2,360.3],[864.8,325.7],[864.8,325.7],[835.1,300.2],[835.1,300.2],[810.8,276.1],[800.6,257.8],[788.5,265.2],[771,253.6],[757.3,260.2],[757.3,260.2],[754.8,268.6],[742.2,279.3],[734,289.4],[739.2,289.7],[740.4,285.9],[741.2,282.1],[707.6,270.4],[683.7,267.4],[667.8,264.7],[644.9,247.3],[644.9,247.3],[624.9,239.2],[620,228.4],[606.7,230.3],[606.7,230.3],[593.4,232.2],[581.9,228.8],[570.4,225.4],[573.8,221.6],[577.2,217.8],[575,225.7],[582.3,245.4],[569.7,241.2],[545.4,235],[542.2,226.7],[539,218.4],[531.1,213.9],[523.2,209.4],[533.3,204],[543.4,198.6],[556.5,199],[569.6,199.4],[584.7,199.7],[599.8,200],[606.6,206.7],[628.2,203.6],[656.7,206.1],[685.2,208.6],[701.1,214.5],[708.6,221.1],[715.5,221],[721.2,216.7],[748.5,239.9],[775.8,263.1],[788.6,272.9],[786.6,292.5],[787.3,307.8],[788,323.1],[800.8,338],[822,352.2],[850.3,350.3],[850.3,350.3],[879.8,352.6],[896,354.8],[896,354.8],[919.4,342.5],[937.6,323.9],[955.8,305.3],[971.9,298.6],[988,291.9],[994.9,284.1],[1001.8,276.3],[1000.4,272.8],[998.9,267.1],[1018.5,266.7],[1030.9,280.8],[1038.2,297.8],[1056.7,318.8],[1074.4,315.8],[1091.5,316],[1093.5,316.6],[1097.3,322.8],[1101,323.2],[1104.8,325.8],[1104.7,317.4],[1106.3,315.7],[1117.7,301.9],[1119.8,294],[1096.8,293.3],[1076.6,285.7],[1081.7,287.4],[1082.1,272.5],[1076.8,273.4],[1071.5,274.3],[1048.2,272.5],[1023.2,264],[1013,273.7],[1000.9,273.5],[1013.7,275.7],[1024.3,281.6],[1015.8,277.2],[1026.2,292.7],[1016.8,279.1],[1007.4,265.5],[1005.8,251.7],[1004.2,237.9],[1004.2,237.9],[993.2,231.7],[971.8,212.9],[950.8,200.9],[925.2,197.9],[905.6,197],[882.6,172.7],[881.6,168.2],[875.8,173],[867.8,177.5],[861.5,174],[853.8,184.1],[856.5,206.8],[859.2,229.5],[863.3,234],[867.4,238.5],[867.4,238.5],[868.1,256.5],[868.6,266.2],[873.9,266.6],[885.3,276.7],[895,294.8],[907.3,294.6],[910.7,309.4],[919.1,303.5],[929.7,302.6],[930.1,301.6],[924.8,299.1],[923.8,303.9],[922.8,308.7],[898.8,299.6],[882.5,292.5],[880.2,284.1],[890,267.8],[874.1,257.8],[859.2,252],[866.1,250.7],[869.5,251.9],[860.7,260.6],[851.9,269.3],[870.1,270.7],[870.1,270.7],[880.6,270.1],[885.1,283.1],[871.3,285.7],[876.2,296.4],[885.9,309.5],[884,318.2],[881.1,333.2],[886.3,341.7],[898.6,351.6],[900.8,373],[895.7,390.6],[895.7,390.6],[882.2,387.3],[890,394.1],[916.7,393.4],[938.6,390.3],[961.3,405.7],[961.3,405.7],[972.8,425.7],[985.8,446.5],[991.7,465.9],[989.6,483.4],[986.5,511],[981.7,526.3],[981.7,526.3],[977.1,548.7],[948,580.8],[918.9,612.9],[918.9,612.9],[907.9,622.1],[889.4,631.2],[875.2,635.4],[875.2,635.4],[848.2,631.1],[830.3,633.7],[830.3,633.7],[833.5,631.2],[841.5,661.2],[830.9,667.5],[827.9,677.9],[827.9,677.9],[810.7,688.6],[781.5,704],[772,708.6],[772,708.6],[756.7,717.3],[749.5,708.3],[741.2,694.3],[734.4,691.8],[724.5,669.1],[700.1,647.3],[685.1,634.4],[685.1,634.4],[697.5,609.6],[705.2,579.9],[708.3,548.5],[703.7,519.7],[703.8,517.1],[706.3,516],[694.8,498.8],[688.7,489.1],[713.3,512.5],[725,505.5],[726.6,533.5],[726.6,533.5],[729.7,562.5],[730.3,564.4],[738.6,563.7],[757.8,592.3],[757.8,592.3],[774.6,619.4],[806.2,652.9],[833.9,674.9],[857.6,672.7],[857.6,672.7],[883.6,692.4],[915.2,694.5],[943.1,700.2],[970.5,713.9],[993.4,722.2],[994.7,711.4],[994.7,711.4],[1015.8,707.3],[1015.4,693.4],[1015.2,692.3],[1015.2,692.3],[1025.1,694.7],[1025.8,688.9],[1006.7,699.1],[1006.7,699.1],[1032.5,717.5],[1062.3,756.3],[1093.2,821.9],[1093.2,821.9],[1129.5,875.3],[1169.4,935.8],[1212.4,980.8],[1245.8,1006],[1266.1,1029.7],[1301.9,1053.5],[1337.2,1058.6],[1337.9,1054.2],[1322.8,1050.1],[1311.1,1024.6],[1308,998.8],[1287.2,963.1],[1255.2,944.1],[1231.1,936.1],[1202.6,944.8],[1169,961.2],[1147.7,955.4],[1116.1,950.9],[1084.2,964.5],[1052.3,978.1],[1012.6,972.3],[967.2,962.6],[934.3,943.3],[917.4,938.9],[890.5,932.2],[863.6,925.5],[831.7,917.7],[801.8,908.8],[793,896.6],[784.2,884.4],[793.1,877.5],[802,870.6],[815.8,888.4],[813.6,891.3],[820,867.6],[826.4,843.9],[826.4,843.9],[850.1,836.8],[881.6,827.5],[911.7,803.5],[911.7,803.5],[933,778.8],[940.8,756.4],[948.6,734],[968.1,689.2],[987.6,644.4],[1010.3,615.7],[1032.6,585.7],[1052.4,591.1],[1062.4,599.8],[1075.9,581.1],[1092.3,571.9],[1108.3,573.5],[1124.3,575.1],[1122.6,598.5],[1120.9,621.9],[1124.9,631.9],[1129.3,643.2],[1122.8,613.2],[1122.8,613.2],[1116.3,583.2],[1116.3,583.2],[1118.2,592.7],[1122.3,595.5],[1122,597.2],[1122,597.2],[1111.7,591.4],[1104.5,576.7],[1118,552.9],[1118,552.9],[1131.4,536.6],[1143.1,506],[1143.1,506],[1151.5,494.6],[1140.3,483.9],[1119.7,465.5],[1095.9,438.6],[1077.2,416.1],[1073.2,396.9],[1069.2,377.7],[1053.2,376.1],[1053.2,376.1],[1037.2,374.5],[1020,371.9],[994.6,363.8],[994.6,363.8],[988.8,355],[975.2,328.8],[981.5,321],[987.8,313.2],[988.2,355.3],[991.9,408.1],[986.9,452.4],[991.3,483.3],[991.3,483.3],[1004.6,527.5],[1031.8,583.5],[1031.8,583.5],[1064.8,614.7],[1096.4,654.3],[1125.7,688.6],[1137.8,736.2],[1158.4,723.1],[1169.9,706.8],[1176.4,700.4],[1172.9,703.7],[1173.6,709.4],[1167.6,699.1],[1166.8,699.5],[1172.7,704.5],[1167.9,709.1],[1180.3,700.4],[1174.7,709.2],[1174.9,710.5],[1185.4,699.1],[1193.7,697.9],[1202.7,708.8],[1216.4,719.7],[1202.6,732.8],[1202.6,732.8],[1199.2,747.1],[1191.1,750.2],[1187.7,763.8],[1195,774.9],[1197.3,774],[1194.3,775.9],[1194.3,775.9],[1191.1,763.7],[1170.1,744.6],[1149.1,725.5],[1137.4,719.7],[1115.3,712.7],[1100.2,709.9],[1076.7,701.8],[1065,688.8],[1058.3,687.8],[1051.5,696.6],[1047.7,713],[1056.3,720.6],[1056.3,720.6],[1052.6,710],[1064.9,700.7],[1077.2,691.4],[1074.1,664.7],[1082.1,618.4],[1078.3,577],[1075.5,573.7],[1069.6,551.4],[1055,524.3],[1042.2,500.6],[1036,478.7],[1036,478.7],[1026.8,436.4],[1020.6,393.5],[1020.2,369.2],[1020.2,369.2],[1016.2,364],[1009.3,357.4],[1005.2,307.5],[1005.4,279.3],[1012.7,261.7],[1012.2,246],[1022.3,233.2],[1022.3,233.2],[1018.3,227],[1011.3,221.4],[1011.6,215.3],[1011.6,215.3],[996,210.4],[996.2,214.2],[998.3,215.5],[999.3,204.3],[1000,177.2],[1001.2,148],[987.2,143.7],[981.5,150.5],[977.3,152.6],[977.3,152.6],[984,170.9],[984,170.9],[998.9,192.6],[998.9,192.6],[998.5,182.3],[994.1,173.7],[998.1,170.9],[1004,178.2],[1000.3,190],[1006.9,190.4],[1012.9,192.4],[1017.4,199.1],[1011,189.6],[1013.3,157.1],[1013.3,157.1],[1027,185.4],[1029.8,199],[1024.2,206.8],[1011.2,225.9],[1007.8,240.5],[1009.1,258.2],[1016.1,271.4],[1016.1,271.4],[1009.1,282.4],[1025.3,307.7],[1026.5,333.8],[1026.5,333.8],[1005.2,324],[1004.5,342.2],[1003.8,360.4],[1009.4,366.8],[1011.7,351.7],[1009.3,333.5],[1002.1,319.4],[1002.1,319.4],[1019.4,335.4],[1013.5,337.1],[1017.4,341.7],[1033.1,342.3],[1037.4,335.6],[1046.6,331.9],[1049.6,323.3],[1059.9,334.1],[1070.2,344.9],[1076,357.8],[1071.3,342.8],[1071.7,330.7],[1069.7,329.6],[1090.3,380.5],[1110.9,431.4],[1140,485.8],[1180.4,539.2],[1227.7,587.6],[1278.5,637.6],[1314.4,681.2]]","[-0.142,0.42599999999999993]","[0.142,0.42599999999999993]","[0.42599999999999993,0.42599999999999993]","[-0.42599999999999993,-0.142]","[-0.42599999999999993,-0.42599999999999993]","[-0.42599999999999993,0.142]","[-0.142,-0.142]","[0.142,-0.142]","[0.42599999999999993,-0.142]","[-0.142,-0.42599999999999993]","[0.142,-0.42599999999999993]","[0.42599999999999993,-0.42599999999999993]","[-0.142,0.142]","[0.142,0.142]","[0.42599999999999993,0.142]",0,0,0,0,1,2,Laptop,15,20,8,3,70,4,3,60,4
