inst1_resp.keys,inst1_resp.rt,calibrationMouse.x,calibrationMouse.y,calibrationMouse.leftButton,calibrationMouse.midButton,calibrationMouse.rightButton,calibrationClick.x,calibrationClick.y,calibrationClick.leftButton,calibrationClick.midButton,calibrationClick.rightButton,calibrationClick.clicked_name,trialsc.thisRepN,trialsc.thisTrialN,trialsc.thisN,trialsc.thisIndex,trialsc.ran,calibration_x,calibration_y,participant,session,date,expName,psychopyVersion,OS,frameRate,ScreenRes_pixels,mouse_2.x,mouse_2.y,mouse_2.leftButton,mouse_2.midButton,mouse_2.rightButton,mouse_2.time,mouse_2.clicked_name,Camera_pixels,mouse.x,mouse.y,mouse.leftButton,mouse.midButton,mouse.rightButton,mouse.time,mouse.clicked_name,Choice,Trial,TrialDuration,MOUSE_GAZE,ET_GAZE,ET_GAZE_x_T,time,unixTime,ET_GAZE_NF,Loc_Bus_label,Loc_Metro_label,Loc_RH_label,Loc_Cost_label,Loc_Travel_label,Loc_Comfort_label,Loc_Bus_cost,Loc_Metro_cost,Loc_RH_cost,Loc_Bus_travel,Loc_Metro_travel,Loc_RH_travel,Loc_Bus_comfort,Loc_Metro_comfort,Loc_RH_comfort,trials.thisRepN,trials.thisTrialN,trials.thisN,trials.thisIndex,trials.ran,Block,Device,RH_cost,RH_travel_time,RH_Comfort,metro_cost,metro_travel_time,metro_Comfort,Bus_cost,Bus_travel_time,Bus_Comfort
space,1.6496,0.141666667,0.101851852,1,0,0,-0.663541667,0.325925926,1,0,0,calibration_square,0,0,0,3,1,-0.67,0.33,05,001,2024-11-26_15h13.12.224,Attention_exp_legacy,2023.1.0,Win32,60.24096386,,,,,,,,,,,,,,,,,,,,,,,,,,,,,,,,,,,,,,,,,,,,,,,,,,,,,,,,
,,,,,,,0.334375,0.661111111,1,0,0,calibration_square,0,1,1,18,1,0.33,0.67,05,001,2024-11-26_15h13.12.224,Attention_exp_legacy,2023.1.0,Win32,60.24096386,,,,,,,,,,,,,,,,,,,,,,,,,,,,,,,,,,,,,,,,,,,,,,,,,,,,,,,,
,,,,,,,-0.328125,-0.677777778,1,0,0,calibration_square,0,2,2,4,1,-0.33,-0.67,05,001,2024-11-26_15h13.12.224,Attention_exp_legacy,2023.1.0,Win32,60.24096386,,,,,,,,,,,,,,,,,,,,,,,,,,,,,,,,,,,,,,,,,,,,,,,,,,,,,,,,
,,,,,,,-0.002083333,0.67037037,1,0,0,calibration_square,0,3,3,13,1,0,0.67,05,001,2024-11-26_15h13.12.224,Attention_exp_legacy,2023.1.0,Win32,60.24096386,,,,,,,,,,,,,,,,,,,,,,,,,,,,,,,,,,,,,,,,,,,,,,,,,,,,,,,,
,,,,,,,-0.682291667,-0.331481481,1,0,0,,0,4,4,1,1,-0.67,-0.33,05,001,2024-11-26_15h13.12.224,Attention_exp_legacy,2023.1.0,Win32,60.24096386,,,,,,,,,,,,,,,,,,,,,,,,,,,,,,,,,,,,,,,,,,,,,,,,,,,,,,,,
,,,,,,,0.001041667,0.32962963,1,0,0,calibration_square,0,5,5,12,1,0,0.33,05,001,2024-11-26_15h13.12.224,Attention_exp_legacy,2023.1.0,Win32,60.24096386,,,,,,,,,,,,,,,,,,,,,,,,,,,,,,,,,,,,,,,,,,,,,,,,,,,,,,,,
,,,,,,,-0.001041667,-0.681481481,1,0,0,,0,6,6,9,1,0,-0.67,05,001,2024-11-26_15h13.12.224,Attention_exp_legacy,2023.1.0,Win32,60.24096386,,,,,,,,,,,,,,,,,,,,,,,,,,,,,,,,,,,,,,,,,,,,,,,,,,,,,,,,
,,,,,,,0.009375,0.003703704,1,0,0,calibration_square,0,7,7,11,1,0,0,05,001,2024-11-26_15h13.12.224,Attention_exp_legacy,2023.1.0,Win32,60.24096386,,,,,,,,,,,,,,,,,,,,,,,,,,,,,,,,,,,,,,,,,,,,,,,,,,,,,,,,
,,,,,,,-0.678125,-0.655555556,1,0,0,,0,8,8,0,1,-0.67,-0.67,05,001,2024-11-26_15h13.12.224,Attention_exp_legacy,2023.1.0,Win32,60.24096386,,,,,,,,,,,,,,,,,,,,,,,,,,,,,,,,,,,,,,,,,,,,,,,,,,,,,,,,
,,,,,,,0.328125,-0.014814815,1,0,0,,0,9,9,16,1,0.33,0,05,001,2024-11-26_15h13.12.224,Attention_exp_legacy,2023.1.0,Win32,60.24096386,,,,,,,,,,,,,,,,,,,,,,,,,,,,,,,,,,,,,,,,,,,,,,,,,,,,,,,,
,,,,,,,0.317708333,-0.662962963,1,0,0,,0,10,10,14,1,0.33,-0.67,05,001,2024-11-26_15h13.12.224,Attention_exp_legacy,2023.1.0,Win32,60.24096386,,,,,,,,,,,,,,,,,,,,,,,,,,,,,,,,,,,,,,,,,,,,,,,,,,,,,,,,
,,,,,,,0.330208333,-0.351851852,1,0,0,,0,11,11,15,1,0.33,-0.33,05,001,2024-11-26_15h13.12.224,Attention_exp_legacy,2023.1.0,Win32,60.24096386,,,,,,,,,,,,,,,,,,,,,,,,,,,,,,,,,,,,,,,,,,,,,,,,,,,,,,,,
,,,,,,,0.663541667,0.662962963,1,0,0,calibration_square,0,12,12,19,1,0.67,0.67,05,001,2024-11-26_15h13.12.224,Attention_exp_legacy,2023.1.0,Win32,60.24096386,,,,,,,,,,,,,,,,,,,,,,,,,,,,,,,,,,,,,,,,,,,,,,,,,,,,,,,,
,,,,,,,-0.00625,-0.32037037,1,0,0,calibration_square,0,13,13,10,1,0,-0.33,05,001,2024-11-26_15h13.12.224,Attention_exp_legacy,2023.1.0,Win32,60.24096386,,,,,,,,,,,,,,,,,,,,,,,,,,,,,,,,,,,,,,,,,,,,,,,,,,,,,,,,
,,,,,,,-0.344791667,-0.324074074,1,0,0,,0,14,14,5,1,-0.33,-0.33,05,001,2024-11-26_15h13.12.224,Attention_exp_legacy,2023.1.0,Win32,60.24096386,,,,,,,,,,,,,,,,,,,,,,,,,,,,,,,,,,,,,,,,,,,,,,,,,,,,,,,,
,,,,,,,-0.646875,-0.018518519,1,0,0,,0,15,15,2,1,-0.67,0,05,001,2024-11-26_15h13.12.224,Attention_exp_legacy,2023.1.0,Win32,60.24096386,,,,,,,,,,,,,,,,,,,,,,,,,,,,,,,,,,,,,,,,,,,,,,,,,,,,,,,,
,,,,,,,0.335416667,0.346296296,1,0,0,,0,16,16,17,1,0.33,0.33,05,001,2024-11-26_15h13.12.224,Attention_exp_legacy,2023.1.0,Win32,60.24096386,,,,,,,,,,,,,,,,,,,,,,,,,,,,,,,,,,,,,,,,,,,,,,,,,,,,,,,,
,,,,,,,-0.340625,0.318518519,1,0,0,,0,17,17,7,1,-0.33,0.33,05,001,2024-11-26_15h13.12.224,Attention_exp_legacy,2023.1.0,Win32,60.24096386,,,,,,,,,,,,,,,,,,,,,,,,,,,,,,,,,,,,,,,,,,,,,,,,,,,,,,,,
,,,,,,,0.658333333,-0.648148148,1,0,0,,0,18,18,20,1,0.67,-0.67,05,001,2024-11-26_15h13.12.224,Attention_exp_legacy,2023.1.0,Win32,60.24096386,,,,,,,,,,,,,,,,,,,,,,,,,,,,,,,,,,,,,,,,,,,,,,,,,,,,,,,,
,,,,,,,-0.348958333,0.001851852,1,0,0,,0,19,19,6,1,-0.33,0,05,001,2024-11-26_15h13.12.224,Attention_exp_legacy,2023.1.0,Win32,60.24096386,,,,,,,,,,,,,,,,,,,,,,,,,,,,,,,,,,,,,,,,,,,,,,,,,,,,,,,,
,,,,,,,-0.332291667,0.672222222,1,0,0,calibration_square,0,20,20,8,1,-0.33,0.67,05,001,2024-11-26_15h13.12.224,Attention_exp_legacy,2023.1.0,Win32,60.24096386,,,,,,,,,,,,,,,,,,,,,,,,,,,,,,,,,,,,,,,,,,,,,,,,,,,,,,,,
,,,,,,,,,,,,,,,,,,,,05,001,2024-11-26_15h13.12.224,Attention_exp_legacy,2023.1.0,Win32,60.24096386,"[1920,1080]",[0.04895833333333333],[-0.45185185185185184],[1],[0],[0],[0.9789000000059644],"[""StartButton""]","[640,480]","[0.359375,0.359375]","[0.37592592592592594,0.37592592592592594]","[1,1]","[0,0]","[0,0]","[5.314100000008942,5.749200000002979]","[""RH_label"",""RH_label""]",RH_label,1,6.328,"[[0.03125,0.6555555555555556],[0.030208333333333334,0.65],[0.030208333333333334,0.65],[0.030208333333333334,0.65],[0.030208333333333334,0.65],[0.030208333333333334,0.65],[0.030208333333333334,0.65],[0.030208333333333334,0.65],[0.030208333333333334,0.65],[0.030208333333333334,0.65],[0.030208333333333334,0.65],[0.030208333333333334,0.65],[0.030208333333333334,0.65],[0.030208333333333334,0.65],[0.030208333333333334,0.65],[0.030208333333333334,0.65],[0.030208333333333334,0.65],[0.030208333333333334,0.65],[0.030208333333333334,0.65],[0.030208333333333334,0.65],[0.030208333333333334,0.65],[0.030208333333333334,0.65],[0.030208333333333334,0.65],[0.030208333333333334,0.65],[0.030208333333333334,0.65],[0.030208333333333334,0.65],[0.030208333333333334,0.65],[0.030208333333333334,0.65],[0.030208333333333334,0.65],[0.030208333333333334,0.65],[0.030208333333333334,0.65],[0.030208333333333334,0.65],[0.030208333333333334,0.65],[0.030208333333333334,0.65],[0.030208333333333334,0.65],[0.030208333333333334,0.65],[0.030208333333333334,0.65],[0.030208333333333334,0.65],[0.030208333333333334,0.65],[0.030208333333333334,0.65],[0.030208333333333334,0.65],[0.030208333333333334,0.65],[0.030208333333333334,0.65],[0.030208333333333334,0.65],[0.030208333333333334,0.65],[0.030208333333333334,0.65],[0.030208333333333334,0.65],[0.030208333333333334,0.65],[0.030208333333333334,0.65],[0.030208333333333334,0.65],[0.030208333333333334,0.65],[0.030208333333333334,0.65],[0.030208333333333334,0.65],[0.030208333333333334,0.65],[0.030208333333333334,0.65],[0.030208333333333334,0.65],[0.030208333333333334,0.65],[0.030208333333333334,0.65],[0.030208333333333334,0.65],[0.030208333333333334,0.65],[0.030208333333333334,0.65],[0.030208333333333334,0.65],[0.030208333333333334,0.65],[0.030208333333333334,0.65],[0.030208333333333334,0.65],[0.030208333333333334,0.65],[0.030208333333333334,0.65],[0.030208333333333334,0.65],[0.030208333333333334,0.65],[0.030208333333333334,0.65],[0.030208333333333334,0.65],[0.030208333333333334,0.65],[0.030208333333333334,0.65],[0.030208333333333334,0.65],[0.030208333333333334,0.65],[0.030208333333333334,0.65],[0.030208333333333334,0.65],[0.030208333333333334,0.65],[0.030208333333333334,0.65],[0.030208333333333334,0.65],[0.030208333333333334,0.65],[0.030208333333333334,0.65],[0.030208333333333334,0.65],[0.030208333333333334,0.65],[0.030208333333333334,0.65],[0.030208333333333334,0.65],[0.030208333333333334,0.65],[0.030208333333333334,0.65],[0.030208333333333334,0.65],[0.030208333333333334,0.65],[0.030208333333333334,0.65],[0.030208333333333334,0.65],[0.030208333333333334,0.65],[0.030208333333333334,0.65],[0.030208333333333334,0.65],[0.030208333333333334,0.65],[0.030208333333333334,0.65],[0.030208333333333334,0.65],[0.030208333333333334,0.65],[0.030208333333333334,0.65],[0.030208333333333334,0.65],[0.030208333333333334,0.65],[0.030208333333333334,0.65],[0.030208333333333334,0.65],[0.030208333333333334,0.65],[0.030208333333333334,0.65],[0.030208333333333334,0.65],[0.030208333333333334,0.65],[0.030208333333333334,0.65],[0.030208333333333334,0.65],[0.030208333333333334,0.65],[0.030208333333333334,0.65],[0.030208333333333334,0.65],[0.030208333333333334,0.65],[0.030208333333333334,0.65],[0.030208333333333334,0.65],[0.030208333333333334,0.65],[0.030208333333333334,0.65],[0.030208333333333334,0.65],[0.030208333333333334,0.65],[0.030208333333333334,0.65],[0.030208333333333334,0.65],[0.030208333333333334,0.65],[0.030208333333333334,0.65],[0.030208333333333334,0.65],[0.030208333333333334,0.65],[0.030208333333333334,0.65],[0.030208333333333334,0.65],[0.030208333333333334,0.65],[0.030208333333333334,0.65],[0.030208333333333334,0.65],[0.030208333333333334,0.65],[0.030208333333333334,0.65],[0.030208333333333334,0.65],[0.030208333333333334,0.65],[0.030208333333333334,0.65],[0.030208333333333334,0.65],[0.030208333333333334,0.65],[0.030208333333333334,0.65],[0.030208333333333334,0.65],[0.030208333333333334,0.65],[0.030208333333333334,0.65],[0.030208333333333334,0.65],[0.030208333333333334,0.65],[0.030208333333333334,0.65],[0.030208333333333334,0.65],[0.030208333333333334,0.65],[0.030208333333333334,0.65],[0.030208333333333334,0.65],[0.030208333333333334,0.65],[0.030208333333333334,0.65],[0.030208333333333334,0.65],[0.030208333333333334,0.65],[0.030208333333333334,0.65],[0.030208333333333334,0.65],[0.030208333333333334,0.65],[0.030208333333333334,0.65],[0.030208333333333334,0.65],[0.030208333333333334,0.65],[0.030208333333333334,0.65],[0.030208333333333334,0.65],[0.030208333333333334,0.65],[0.030208333333333334,0.65],[0.030208333333333334,0.65],[0.030208333333333334,0.65],[0.030208333333333334,0.65],[0.030208333333333334,0.65],[0.030208333333333334,0.65],[0.030208333333333334,0.65],[0.030208333333333334,0.65],[0.030208333333333334,0.65],[0.030208333333333334,0.65],[0.03229166666666667,0.65],[0.035416666666666666,0.65],[0.0375,0.65],[0.04479166666666667,0.65],[0.07083333333333333,0.65],[0.08958333333333333,0.65],[0.1,0.6481481481481481],[0.10416666666666667,0.6462962962962963],[0.109375,0.6462962962962963],[0.115625,0.6462962962962963],[0.12083333333333333,0.6444444444444445],[0.12708333333333333,0.6425925925925926],[0.128125,0.6425925925925926],[0.13020833333333334,0.6425925925925926],[0.13125,0.6407407407407407],[0.134375,0.6407407407407407],[0.13645833333333332,0.6407407407407407],[0.13958333333333334,0.6351851851851852],[0.14791666666666667,0.6240740740740741],[0.16041666666666668,0.6074074074074074],[0.18125,0.5851851851851851],[0.20625,0.5574074074074075],[0.23125,0.5333333333333333],[0.25729166666666664,0.5111111111111111],[0.2760416666666667,0.4962962962962963],[0.2864583333333333,0.4888888888888889],[0.290625,0.48518518518518516],[0.290625,0.48518518518518516],[0.2916666666666667,0.48518518518518516],[0.29375,0.4777777777777778],[0.3,0.4666666666666667],[0.3104166666666667,0.45],[0.31875,0.4351851851851852],[0.33125,0.4185185185185185],[0.340625,0.4074074074074074],[0.3489583333333333,0.3907407407407407],[0.35625,0.37962962962962965],[0.359375,0.37777777777777777],[0.359375,0.37777777777777777],[0.359375,0.37777777777777777],[0.359375,0.37777777777777777],[0.359375,0.37777777777777777],[0.359375,0.37777777777777777],[0.359375,0.37777777777777777],[0.359375,0.37777777777777777],[0.359375,0.37777777777777777],[0.359375,0.37777777777777777],[0.359375,0.37777777777777777],[0.359375,0.37777777777777777],[0.359375,0.37777777777777777],[0.359375,0.37777777777777777],[0.359375,0.37777777777777777],[0.359375,0.37777777777777777],[0.359375,0.37777777777777777],[0.359375,0.37777777777777777],[0.359375,0.37777777777777777],[0.359375,0.37777777777777777],[0.359375,0.37777777777777777],[0.359375,0.37777777777777777],[0.359375,0.37777777777777777],[0.359375,0.37777777777777777],[0.359375,0.37777777777777777],[0.359375,0.37777777777777777],[0.359375,0.37777777777777777],[0.359375,0.37777777777777777],[0.359375,0.37777777777777777],[0.359375,0.37777777777777777],[0.359375,0.37777777777777777],[0.359375,0.37777777777777777],[0.359375,0.37777777777777777],[0.359375,0.37777777777777777],[0.359375,0.37777777777777777],[0.359375,0.37777777777777777],[0.359375,0.37777777777777777],[0.359375,0.37777777777777777],[0.359375,0.37777777777777777],[0.359375,0.37777777777777777],[0.359375,0.37777777777777777],[0.359375,0.37777777777777777],[0.359375,0.37777777777777777],[0.359375,0.37777777777777777],[0.359375,0.37777777777777777],[0.359375,0.37777777777777777],[0.359375,0.37777777777777777],[0.359375,0.37777777777777777],[0.359375,0.37777777777777777],[0.359375,0.37777777777777777],[0.359375,0.37777777777777777],[0.359375,0.37777777777777777],[0.359375,0.37777777777777777],[0.359375,0.37777777777777777],[0.359375,0.37777777777777777],[0.359375,0.37777777777777777],[0.359375,0.37777777777777777],[0.359375,0.37777777777777777],[0.359375,0.37777777777777777],[0.359375,0.37777777777777777],[0.359375,0.37777777777777777],[0.359375,0.37777777777777777],[0.359375,0.37777777777777777],[0.359375,0.37777777777777777],[0.359375,0.37777777777777777],[0.359375,0.37777777777777777],[0.359375,0.37777777777777777],[0.359375,0.37777777777777777],[0.359375,0.37777777777777777],[0.359375,0.37777777777777777],[0.359375,0.37777777777777777],[0.359375,0.37777777777777777],[0.359375,0.37777777777777777],[0.359375,0.37777777777777777],[0.359375,0.37777777777777777],[0.359375,0.37777777777777777],[0.359375,0.37777777777777777],[0.359375,0.37777777777777777],[0.359375,0.37777777777777777],[0.359375,0.37777777777777777],[0.359375,0.37777777777777777],[0.359375,0.37777777777777777],[0.359375,0.37777777777777777],[0.359375,0.37777777777777777],[0.359375,0.37777777777777777],[0.359375,0.37777777777777777],[0.359375,0.37777777777777777],[0.359375,0.37777777777777777],[0.359375,0.37777777777777777],[0.359375,0.37777777777777777],[0.359375,0.37777777777777777],[0.359375,0.37777777777777777],[0.359375,0.37777777777777777],[0.359375,0.37777777777777777],[0.359375,0.37777777777777777],[0.359375,0.37777777777777777],[0.359375,0.37777777777777777],[0.359375,0.37777777777777777],[0.359375,0.37777777777777777],[0.359375,0.37777777777777777],[0.359375,0.37777777777777777],[0.359375,0.37777777777777777],[0.359375,0.37777777777777777],[0.359375,0.37592592592592594],[0.359375,0.37592592592592594],[0.359375,0.37592592592592594],[0.359375,0.37592592592592594],[0.359375,0.37592592592592594],[0.359375,0.37592592592592594],[0.359375,0.37592592592592594],[0.359375,0.37592592592592594],[0.359375,0.37592592592592594],[0.359375,0.37592592592592594],[0.359375,0.37592592592592594],[0.359375,0.37592592592592594],[0.359375,0.37592592592592594],[0.359375,0.37592592592592594],[0.359375,0.37592592592592594],[0.359375,0.37592592592592594],[0.359375,0.37592592592592594],[0.359375,0.37592592592592594],[0.359375,0.37592592592592594],[0.359375,0.37592592592592594],[0.359375,0.37592592592592594],[0.359375,0.37592592592592594],[0.359375,0.37592592592592594],[0.359375,0.37592592592592594],[0.359375,0.37592592592592594],[0.359375,0.37592592592592594],[0.359375,0.37592592592592594],[0.359375,0.37592592592592594],[0.359375,0.37592592592592594],[0.359375,0.37592592592592594],[0.359375,0.37592592592592594],[0.359375,0.37592592592592594],[0.359375,0.37592592592592594],[0.359375,0.37592592592592594],[0.359375,0.37592592592592594],[0.359375,0.37592592592592594],[0.359375,0.37592592592592594],[0.359375,0.37592592592592594],[0.359375,0.37592592592592594],[0.359375,0.37592592592592594],[0.359375,0.37592592592592594],[0.359375,0.37592592592592594],[0.359375,0.37592592592592594],[0.359375,0.37592592592592594],[0.359375,0.37592592592592594],[0.359375,0.37592592592592594],[0.359375,0.37592592592592594],[0.359375,0.37592592592592594],[0.359375,0.37592592592592594],[0.359375,0.37592592592592594],[0.359375,0.37592592592592594],[0.359375,0.37592592592592594],[0.359375,0.37592592592592594],[0.359375,0.37592592592592594],[0.359375,0.37592592592592594],[0.359375,0.37592592592592594],[0.359375,0.37592592592592594],[0.359375,0.37592592592592594],[0.359375,0.37592592592592594],[0.359375,0.37592592592592594],[0.359375,0.37592592592592594],[0.359375,0.37592592592592594],[0.359375,0.37592592592592594],[0.359375,0.37592592592592594],[0.359375,0.37592592592592594],[0.359375,0.37592592592592594],[0.3614583333333333,0.37962962962962965]]","[[-0.03791666666666664,-0.35648148148148145],[-0.03791666666666664,-0.35648148148148145],[-0.01427083333333338,-0.4190740740740741],[0.0016666666666666904,-0.48777777777777775],[0.024687500000000046,-0.5353703703703704],[0.007083333333333286,-0.5425925925925926],[0.007083333333333286,-0.5425925925925926],[0.000833333333333286,-0.571111111111111],[-0.013020833333333334,-0.6037037037037037],[-0.036249999999999956,-0.6385185185185185],[-0.0421875,-0.6370370370370371],[-0.07760416666666667,-0.64],[-0.10135416666666662,-0.6687037037037038],[-0.10677083333333333,-0.6622222222222223],[-0.10677083333333333,-0.6622222222222223],[-0.09437500000000003,-0.6438888888888888],[-0.10656249999999995,-0.6531481481481481],[-0.08718750000000004,-0.6527777777777778],[-0.07999999999999995,-0.6518518518518519],[-0.06302083333333333,-0.647962962962963],[-0.051770833333333384,-0.6318518518518518],[-0.06208333333333336,-0.6331481481481481],[-0.05947916666666669,-0.6344444444444445],[-0.03885416666666662,-0.6337037037037037],[-0.08333333333333333,-0.6483333333333334],[-0.13291666666666668,-0.6561111111111111],[-0.16937500000000003,-0.6068518518518519],[-0.22687499999999997,-0.5488888888888889],[-0.2635416666666667,-0.5],[-0.30020833333333335,-0.45111111111111113],[-0.346875,-0.422037037037037],[-0.3935416666666666,-0.39296296296296296],[-0.419375,-0.3466666666666666],[-0.4580208333333334,-0.3042592592592593],[-0.45364583333333336,-0.2753703703703704],[-0.4492708333333333,-0.23425925925925925],[-0.4492708333333333,-0.23425925925925925],[-0.4413541666666667,-0.2190740740740741],[-0.4584375,-0.18055555555555555],[-0.493125,-0.1383333333333333],[-0.49916666666666665,-0.13925925925925925],[-0.511875,-0.0883333333333333],[-0.4975,-0.11888888888888886],[-0.5004166666666666,-0.11666666666666667],[-0.50375,-0.12314814814814815],[-0.5260416666666666,-0.08518518518518518],[-0.5536458333333333,-0.09574074074074072],[-0.58,-0.1014814814814815],[-0.584375,-0.1374074074074074],[-0.5616666666666668,-0.1896296296296296],[-0.5727083333333333,-0.14907407407407408],[-0.5628124999999999,-0.15129629629629626],[-0.6038541666666667,-0.072037037037037],[-0.6038541666666667,-0.072037037037037],[-0.6318750000000001,-0.03833333333333342],[-0.6478125,0.010370370370370412],[-0.6426041666666666,0.0001851851851852273],[-0.6320833333333333,0.02629629629629638],[-0.6121875,0.02907407407407416],[-0.5922916666666667,0.03185185185185194],[-0.5966666666666666,0.06092592592592588],[-0.5966666666666666,0.06092592592592588],[-0.5959375,0.040370370370370286],[-0.6047916666666667,0.036666666666666584],[-0.6047916666666667,0.036666666666666584],[-0.5942708333333333,0.05],[-0.5722916666666666,0.054074074074074156],[-0.5619791666666667,0.05185185185185185],[-0.5532291666666667,0.09277777777777782],[-0.5521875,0.127962962962963],[-0.5539583333333333,0.16629629629629622],[-0.5557291666666667,0.20462962962962963],[-0.559375,0.2442592592592592],[-0.5716666666666667,0.30351851851851847],[-0.5751041666666666,0.3087037037037038],[-0.5655208333333334,0.28166666666666673],[-0.5772916666666668,0.2837037037037038],[-0.5890625,0.2857407407407407],[-0.60625,0.2551851851851851],[-0.6157291666666667,0.23037037037037034],[-0.625625,0.21444444444444435],[-0.6372916666666666,0.1962962962962963],[-0.6517708333333334,0.12537037037037047],[-0.6567708333333333,0.03518518518518519],[-0.6715625000000001,0.009814814814814731],[-0.6948958333333334,-0.0003703703703704546],[-0.6857291666666666,-0.019259259259259216],[-0.6765625,-0.03814814814814819],[-0.6692708333333334,-0.044444444444444446],[-0.6619791666666667,-0.0507407407407407],[-0.6467708333333333,-0.06925925925925921],[-0.6297916666666666,-0.08555555555555554],[-0.6285416666666667,-0.03425925925925926],[-0.625625,0.011481481481481566],[-0.6169791666666666,0.04740740740740745],[-0.6083333333333333,0.08333333333333333],[-0.6083333333333333,0.08333333333333333],[-0.6222916666666667,0.1081481481481481],[-0.6336458333333332,0.13444444444444448],[-0.6357291666666666,0.1648148148148148],[-0.6505208333333333,0.1948148148148149],[-0.6728124999999999,0.22814814814814824],[-0.6739583333333333,0.23351851851851857],[-0.6701041666666666,0.24222222222222214],[-0.63,0.23259259259259263],[-0.63,0.23259259259259263],[-0.5775,0.19185185185185188],[-0.4921875,0.17388888888888884],[-0.40208333333333335,0.13240740740740742],[-0.3145833333333333,0.08944444444444435],[-0.23770833333333338,0.046481481481481526],[-0.1482291666666666,0.0257407407407407],[-0.057291666666666664,0.009629629629629714],[0.0125,0.021481481481481525],[0.09718749999999995,-0.014074074074074116],[0.14312500000000009,-0.026111111111111154],[0.17552083333333332,-0.005555555555555556],[0.17510416666666656,-0.007777777777777862],[0.14333333333333323,0.00722222222222218],[0.11156249999999991,0.022222222222222223],[0.08697916666666666,0.05555555555555555],[0.0625,0.06703703703703712],[0.03812500000000003,0.08037037037037033],[0.013750000000000047,0.09370370370370375],[-0.024374999999999977,0.11351851851851844],[-0.0625,0.13333333333333333],[-0.08322916666666665,0.11925925925925922],[-0.10395833333333329,0.1051851851851851],[-0.10041666666666664,0.1014814814814814],[-0.096875,0.0977777777777777],[-0.10510416666666664,0.09185185185185189],[-0.11333333333333329,0.08592592592592588],[-0.12072916666666664,0.09370370370370375],[-0.128125,0.1014814814814814],[-0.128125,0.1014814814814814],[-0.12395833333333334,0.10740740740740741],[-0.10114583333333335,0.09722222222222222],[-0.08833333333333329,0.10018518518518522],[-0.07479166666666662,0.11185185185185181],[-0.058958333333333356,0.11944444444444445],[-0.05520833333333333,0.10444444444444441],[-0.05520833333333333,0.10444444444444441],[-0.04541666666666669,0.08129629629629626],[-0.029062499999999977,0.07296296296296292],[-0.029062499999999977,0.07296296296296292],[-0.0078125,0.04092592592592597],[0.013750000000000047,0.02240740740740745],[0.035208333333333286,0.01722222222222214],[0.019270833333333334,0.003888888888888931],[0.019270833333333334,-0.026666666666666623],[0.010208333333333286,-0.04981481481481477],[0.010208333333333286,-0.04981481481481477],[-0.002395833333333286,-0.08388888888888892],[0.0009374999999999763,-0.08296296296296299],[0.0015625,-0.07481481481481478],[0.0015625,-0.07481481481481478],[-0.004375000000000047,-0.08148148148148149],[-0.008020833333333382,-0.08925925925925923],[-0.018229166666666668,-0.10907407407407403],[-0.028437499999999952,-0.12888888888888894],[-0.018333333333333358,-0.1227777777777778],[-0.018333333333333358,-0.1227777777777778],[-0.024166666666666715,-0.09944444444444442],[-0.024895833333333308,-0.08611111111111111],[-0.024895833333333308,-0.08611111111111111],[-0.007500000000000047,-0.0507407407407407],[-0.0007291666666667141,-0.03777777777777774],[0.008749999999999977,-0.032037037037036954],[0.018229166666666668,-0.02629629629629638],[0.019895833333333356,-0.01444444444444436],[0.019895833333333356,-0.01444444444444436],[0.02000000000000005,-0.009074074074074031],[0.016250000000000025,0.007037037037036953],[0.019895833333333356,-0.0514814814814814],[0.027604166666666666,-0.0977777777777778],[0.03854166666666667,-0.15018518518518523],[0.04645833333333336,-0.19388888888888886],[0.050625000000000024,-0.25277777777777777],[0.06729166666666657,-0.30037037037037034],[0.07322916666666662,-0.365925925925926],[0.07322916666666662,-0.365925925925926],[0.08104166666666662,-0.3792592592592593],[0.08916666666666657,-0.402962962962963],[0.10697916666666671,-0.47537037037037033],[0.12000000000000005,-0.44814814814814813],[0.12895833333333329,-0.4331481481481481],[0.14135416666666673,-0.4418518518518519],[0.1421875,-0.4703703703703704],[0.1421875,-0.4703703703703704],[0.16177083333333328,-0.4646296296296296],[0.1640625,-0.47833333333333333],[0.17708333333333334,-0.4740740740740741],[0.19718749999999996,-0.5588888888888889],[0.19718749999999996,-0.5588888888888889],[0.2091666666666666,-0.5911111111111111],[0.19822916666666662,-0.5574074074074075],[0.19500000000000003,-0.5531481481481482],[0.18822916666666673,-0.5638888888888889],[0.17041666666666658,-0.5712962962962963],[0.15260416666666668,-0.5787037037037037],[0.13947916666666677,-0.5898148148148148],[0.14552083333333338,-0.577962962962963],[0.13781249999999995,-0.5822222222222222],[0.11937499999999991,-0.5511111111111111],[0.11937499999999991,-0.5511111111111111],[0.10291666666666661,-0.547037037037037],[0.12406249999999991,-0.5564814814814815],[0.13333333333333333,-0.5631481481481482],[0.13781249999999995,-0.5996296296296296],[0.17479166666666662,-0.5790740740740741],[0.2046875,-0.5625925925925926],[0.22166666666666662,-0.5514814814814815],[0.20583333333333323,-0.5338888888888889],[0.20062499999999991,-0.5042592592592593],[0.21593749999999995,-0.4962962962962963],[0.2384375000000001,-0.4812962962962963],[0.2404166666666666,-0.4807407407407408],[0.22447916666666667,-0.5094444444444445],[0.22791666666666663,-0.47611111111111115],[0.20645833333333338,-0.4794444444444444],[0.17552083333333332,-0.46296296296296297],[0.14885416666666676,-0.4540740740740741],[0.13250000000000003,-0.4337037037037037],[0.09770833333333329,-0.41444444444444445],[-0.008229166666666643,-0.3207407407407407],[-0.10770833333333331,-0.2442592592592592],[-0.19260416666666663,-0.1905555555555555],[-0.26583333333333337,-0.10481481481481486],[-0.34968750000000004,-0.0477777777777777],[-0.4335416666666667,0.009259259259259259],[-0.4996875,0.062407407407407495],[-0.5701041666666666,0.12314814814814815],[-0.6279166666666666,0.13240740740740742],[-0.6682291666666667,0.13740740740740748],[-0.6584375,0.11944444444444445],[-0.6507291666666667,0.08814814814814818],[-0.6507291666666667,0.08814814814814818],[-0.6544791666666666,0.07444444444444454],[-0.6567708333333333,0.06444444444444436],[-0.654375,0.0544444444444444],[-0.6545833333333333,0.062037037037037036],[-0.6559375000000001,0.057777777777777865],[-0.6433333333333333,0.03166666666666671],[-0.6429166666666667,0.034444444444444486],[-0.635,0.027222222222222307],[-0.6265625,-0.009814814814814731],[-0.6103124999999999,-0.00851851851851856],[-0.5970833333333334,0.014074074074074116],[-0.5761458333333334,0.000925925925925926],[-0.5603125,-0.0007407407407406986],[-0.5510416666666667,-0.04092592592592597],[-0.5355208333333333,-0.04055555555555551],[-0.5195833333333334,-0.02962962962962963],[-0.49354166666666666,-0.028703703703703703],[-0.49354166666666666,-0.028703703703703703],[-0.471875,-0.0014814814814813973],[-0.4689583333333333,0.06222222222222226],[-0.47791666666666666,0.09703703703703699],[-0.47791666666666666,0.09703703703703699],[-0.4766666666666667,0.14351851851851852],[-0.48322916666666665,0.1977777777777777],[-0.4903125,0.2522222222222223],[-0.49645833333333333,0.31851851851851853],[-0.5088541666666667,0.3442592592592592],[-0.5389583333333333,0.4016666666666666],[-0.5714583333333334,0.4588888888888888],[-0.596875,0.4872222222222223],[-0.6035416666666666,0.47907407407407415],[-0.6107291666666667,0.475],[-0.6262500000000001,0.44000000000000006],[-0.6452083333333333,0.4235185185185186],[-0.6636458333333334,0.4068518518518519],[-0.6680208333333333,0.407037037037037],[-0.6608333333333333,0.3937037037037037],[-0.6564583333333334,0.3696296296296297],[-0.6520833333333333,0.3455555555555556],[-0.6571874999999999,0.3427777777777778],[-0.6622916666666666,0.34],[-0.6619791666666667,0.3362962962962963],[-0.6636458333333334,0.3357407407407407],[-0.6636458333333334,0.3357407407407407],[-0.6611458333333334,0.3322222222222222],[-0.6469791666666667,0.3357407407407407],[-0.6382291666666667,0.33833333333333343],[-0.6413541666666667,0.34092592592592597],[-0.6383333333333333,0.3338888888888888],[-0.638125,0.3346296296296297],[-0.62875,0.3066666666666667],[-0.6248958333333333,0.2962962962962963],[-0.6176041666666666,0.28648148148148156],[-0.6176041666666666,0.28648148148148156],[-0.59875,0.26370370370370366],[-0.5590625,0.23296296296296287],[-0.5310416666666666,0.19518518518518516],[-0.525625,0.21296296296296297],[-0.5198958333333333,0.2442592592592592],[-0.5019791666666666,0.2390740740740741],[-0.48125,0.22611111111111115],[-0.4844791666666667,0.24962962962962953],[-0.4821875,0.25555555555555554],[-0.45854166666666674,0.23481481481481473],[-0.45854166666666674,0.23481481481481473],[-0.44645833333333335,0.2270370370370371],[-0.4327083333333333,0.247037037037037],[-0.39114583333333336,0.2807407407407408],[-0.3567708333333333,0.22870370370370371],[-0.28885416666666663,0.15722222222222218],[-0.23312499999999994,0.12222222222222222],[-0.17625000000000005,0.11481481481481481],[-0.09041666666666662,0.08037037037037033],[-0.09041666666666662,0.08037037037037033],[-0.0140625,0.07796296296296301],[0.04822916666666662,0.07037037037037037],[0.1078125,0.024814814814814772],[0.1078125,0.024814814814814772],[0.14375,-0.016111111111111194],[0.16291666666666677,-0.08037037037037033],[0.2150000000000001,-0.10111111111111115],[0.24479166666666666,-0.1235185185185185],[0.2660416666666668,-0.12814814814814812],[0.2855208333333332,-0.1668518518518519],[0.29416666666666674,-0.18555555555555553],[0.28635416666666674,-0.2212962962962963],[0.26145833333333335,-0.2322222222222222],[0.23624999999999996,-0.1935185185185185],[0.23624999999999996,-0.1935185185185185],[0.2163541666666667,-0.17333333333333337],[0.2037499999999999,-0.16259259259259262],[0.18854166666666666,-0.17444444444444443],[0.16239583333333343,-0.16666666666666666],[0.1564583333333334,-0.17240740740740745],[0.1564583333333334,-0.17240740740740745],[0.14989583333333342,-0.16074074074074077],[0.1453125,-0.17462962962962966],[0.15854166666666672,-0.19425925925925921],[0.1875,-0.19962962962962966],[0.21135416666666676,-0.22370370370370374],[0.2508333333333333,-0.2548148148148149],[0.26416666666666655,-0.29370370370370374],[0.28093750000000006,-0.3037037037037037],[0.3016666666666666,-0.33648148148148144],[0.3016666666666666,-0.33648148148148144],[0.3107291666666666,-0.37351851851851847],[0.32229166666666675,-0.42240740740740745],[0.3458333333333333,-0.4412962962962963],[0.3775000000000001,-0.46944444444444444],[0.39562499999999995,-0.5046296296296297],[0.42000000000000004,-0.5433333333333333],[0.4210416666666667,-0.5672222222222223],[0.4271874999999999,-0.5435185185185185],[0.4332291666666668,-0.5507407407407408],[0.4444791666666667,-0.5522222222222222],[0.45416666666666666,-0.5485185185185185],[0.4638541666666666,-0.5472222222222223],[0.453125,-0.5451851851851851],[0.4423958333333334,-0.5431481481481482],[0.4314583333333334,-0.525],[0.42239583333333336,-0.4962962962962963],[0.42520833333333335,-0.4957407407407407],[0.43072916666666666,-0.515925925925926],[0.44406249999999997,-0.5287037037037037],[0.44406249999999997,-0.5287037037037037],[0.43125,-0.5064814814814815],[0.4232291666666666,-0.512962962962963],[0.4232291666666666,-0.512962962962963],[0.4037499999999999,-0.5162962962962964],[0.4040625000000001,-0.5116666666666667],[0.40437500000000004,-0.5070370370370371],[0.40864583333333326,-0.5096296296296297],[0.41291666666666677,-0.5122222222222222],[0.42958333333333343,-0.5164814814814814],[0.4462500000000001,-0.5207407407407407],[0.446875,-0.5270370370370371],[0.4683333333333332,-0.5483333333333333],[0.4683333333333332,-0.5483333333333333],[0.48635416666666675,-0.5357407407407407],[0.5098958333333333,-0.5316666666666667],[0.5132291666666667,-0.5316666666666667],[0.5077083333333334,-0.5225925925925926]]","[[-0.03791666666666664,-0.35648148148148145,0.0003000000119186552],[-0.03791666666666664,-0.35648148148148145,0.05330000001192303],[-0.01427083333333338,-0.4190740740740741,0.058600000008944164],[0.0016666666666666904,-0.48777777777777775,0.07760000000894252],[0.024687500000000046,-0.5353703703703704,0.09260000000894308],[0.007083333333333286,-0.5425925925925926,0.10699999999999932],[0.007083333333333286,-0.5425925925925926,0.12340000000595808],[0.000833333333333286,-0.571111111111111,0.14000000000000057],[-0.013020833333333334,-0.6037037037037037,0.15660000000894314],[-0.036249999999999956,-0.6385185185185185,0.17549999999999955],[-0.0421875,-0.6370370370370371,0.19090000000596064],[-0.07760416666666667,-0.64,0.20670000000298216],[-0.10135416666666662,-0.6687037037037038,0.22330000001192474],[-0.10677083333333333,-0.6622222222222223,0.24060000000893922],[-0.10677083333333333,-0.6622222222222223,0.25680000001192127],[-0.09437500000000003,-0.6438888888888888,0.2733000000119219],[-0.10656249999999995,-0.6531481481481481,0.28999999999999915],[-0.08718750000000004,-0.6527777777777778,0.3066000000089417],[-0.07999999999999995,-0.6518518518518519,0.3235000000000028],[-0.06302083333333333,-0.647962962962963,0.3421000000089407],[-0.051770833333333384,-0.6318518518518518,0.35650000000000404],[-0.06208333333333336,-0.6331481481481481,0.3764000000059582],[-0.05947916666666669,-0.6344444444444445,0.39230000001192167],[-0.03885416666666662,-0.6337037037037037,0.40660000000894314],[-0.08333333333333333,-0.6483333333333334,0.42670000000298103],[-0.13291666666666668,-0.6561111111111111,0.4424000000059607],[-0.16937500000000003,-0.6068518518518519,0.4578000000119218],[-0.22687499999999997,-0.5488888888888889,0.47330000001192474],[-0.2635416666666667,-0.5,0.4899000000059601],[-0.30020833333333335,-0.45111111111111113,0.509300000011919],[-0.346875,-0.422037037037037,0.5256000000089429],[-0.3935416666666666,-0.39296296296296296,0.5411000000089388],[-0.419375,-0.3466666666666666,0.5571000000089441],[-0.4580208333333334,-0.3042592592592593,0.573300000011919],[-0.45364583333333336,-0.2753703703703704,0.5919999999999987],[-0.4492708333333333,-0.23425925925925925,0.6066000000089389],[-0.4492708333333333,-0.23425925925925925,0.6234000000059581],[-0.4413541666666667,-0.2190740740740741,0.6400000000000006],[-0.4584375,-0.18055555555555555,0.6566000000089431],[-0.493125,-0.1383333333333333,0.6759000000059601],[-0.49916666666666665,-0.13925925925925925,0.689900000005963],[-0.511875,-0.0883333333333333,0.7066000000089403],[-0.4975,-0.11888888888888886,0.7233000000119247],[-0.5004166666666666,-0.11666666666666667,0.7399000000059601],[-0.50375,-0.12314814814814815,0.7588000000119237],[-0.5260416666666666,-0.08518518518518518,0.7734000000059638],[-0.5536458333333333,-0.09574074074074072,0.7901000000089411],[-0.58,-0.1014814814814815,0.8066000000089417],[-0.584375,-0.1374074074074074,0.823300000011919],[-0.5616666666666668,-0.1896296296296296,0.8429000000059617],[-0.5727083333333333,-0.14907407407407408,0.8587000000029832],[-0.5628124999999999,-0.15129629629629626,0.875],[-0.6038541666666667,-0.072037037037037,0.8961000000089427],[-0.6038541666666667,-0.072037037037037,0.9112000000029781],[-0.6318750000000001,-0.03833333333333342,0.9233000000119205],[-0.6478125,0.010370370370370412,0.939900000005963],[-0.6426041666666666,0.0001851851851852273,0.9593000000119218],[-0.6320833333333333,0.02629629629629638,0.9733000000119247],[-0.6121875,0.02907407407407416,0.9899000000059601],[-0.5922916666666667,0.03185185185185194,1.008499999999998],[-0.5966666666666666,0.06092592592592588,1.0244000000059614],[-0.5966666666666666,0.06092592592592588,1.0399999999999991],[-0.5959375,0.040370370370370286,1.0567000000029836],[-0.6047916666666667,0.036666666666666584,1.0776000000089425],[-0.6047916666666667,0.036666666666666584,1.0900000000000034],[-0.5942708333333333,0.05,1.1067000000029807],[-0.5722916666666666,0.054074074074074156,1.1271000000089444],[-0.5619791666666667,0.05185185185185185,1.1423000000119217],[-0.5532291666666667,0.09277777777777782,1.1608000000119247],[-0.5521875,0.127962962962963,1.1757000000029834],[-0.5539583333333333,0.16629629629629622,1.189900000005963],[-0.5557291666666667,0.20462962962962963,1.2066000000089403],[-0.559375,0.2442592592592592,1.2232000000029828],[-0.5716666666666667,0.30351851851851847,1.240700000002981],[-0.5751041666666666,0.3087037037037038,1.2599000000059632],[-0.5655208333333334,0.28166666666666673,1.2749999999999986],[-0.5772916666666668,0.2837037037037038,1.290100000008941],[-0.5890625,0.2857407407407407,1.3066000000089417],[-0.60625,0.2551851851851851,1.327200000002982],[-0.6157291666666667,0.23037037037037034,1.341900000005964],[-0.625625,0.21444444444444435,1.3567000000029807],[-0.6372916666666666,0.1962962962962963,1.373400000005958],[-0.6517708333333334,0.12537037037037047,1.3899000000059587],[-0.6567708333333333,0.03518518518518519,1.4065000000000012],[-0.6715625000000001,0.009814814814814731,1.4258000000119182],[-0.6948958333333334,-0.0003703703703704546,1.4399999999999977],[-0.6857291666666666,-0.019259259259259216,1.4594999999999985],[-0.6765625,-0.03814814814814819,1.4744000000059643],[-0.6692708333333334,-0.044444444444444446,1.4899000000059601],[-0.6619791666666667,-0.0507407407407407,1.5087000000029818],[-0.6467708333333333,-0.06925925925925921,1.525400000005959],[-0.6297916666666666,-0.08555555555555554,1.5413000000119226],[-0.6285416666666667,-0.03425925925925926,1.5567000000029836],[-0.625625,0.011481481481481566,1.573400000005961],[-0.6169791666666666,0.04740740740740745,1.5928000000119198],[-0.6083333333333333,0.08333333333333333,1.6069000000059646],[-0.6083333333333333,0.08333333333333333,1.623400000005958],[-0.6222916666666667,0.1081481481481481,1.6400000000000006],[-0.6336458333333332,0.13444444444444448,1.6609000000059595],[-0.6357291666666666,0.1648148148148148,1.6762000000029786],[-0.6505208333333333,0.1948148148148149,1.6936000000089422],[-0.6728124999999999,0.22814814814814824,1.7079000000059636],[-0.6739583333333333,0.23351851851851857,1.72530000001192],[-0.6701041666666666,0.24222222222222214,1.7399000000059601],[-0.63,0.23259259259259263,1.7587000000029818],[-0.63,0.23259259259259263,1.773300000011922],[-0.5775,0.19185185185185188,1.7899000000059644],[-0.4921875,0.17388888888888884,1.8064999999999998],[-0.40208333333333335,0.13240740740740742,1.823300000011919],[-0.3145833333333333,0.08944444444444435,1.8419999999999987],[-0.23770833333333338,0.046481481481481526,1.8566000000089389],[-0.1482291666666666,0.0257407407407407,1.876600000008942],[-0.057291666666666664,0.009629629629629714,1.892100000008945],[0.0125,0.021481481481481525,1.9065000000000012],[0.09718749999999995,-0.014074074074074116,1.9258000000119182],[0.14312500000000009,-0.026111111111111154,1.939800000011921],[0.17552083333333332,-0.005555555555555556,1.9564999999999984],[0.17510416666666656,-0.007777777777777862,1.9733000000119247],[0.14333333333333323,0.00722222222222218,1.9899000000059601],[0.11156249999999991,0.022222222222222223,2.0089000000059585],[0.08697916666666666,0.05555555555555555,2.025600000008943],[0.0625,0.06703703703703712,2.0399000000059644],[0.03812500000000003,0.08037037037037033,2.0569000000059603],[0.013750000000000047,0.09370370370370375,2.073400000005961],[-0.024374999999999977,0.11351851851851844,2.092500000000001],[-0.0625,0.13333333333333333,2.106600000008939],[-0.08322916666666665,0.11925925925925922,2.1270000000000024],[-0.10395833333333329,0.1051851851851851,2.1422000000029797],[-0.10041666666666664,0.1014814814814814,2.156600000008943],[-0.096875,0.0977777777777777,2.1754000000059577],[-0.10510416666666664,0.09185185185185189,2.189900000005963],[-0.11333333333333329,0.08592592592592588,2.2066000000089403],[-0.12072916666666664,0.09370370370370375,2.2234000000059595],[-0.128125,0.1014814814814814,2.2441000000089417],[-0.128125,0.1014814814814814,2.2566000000089446],[-0.12395833333333334,0.10740740740740741,2.273300000011922],[-0.10114583333333335,0.09722222222222222,2.2929999999999993],[-0.08833333333333329,0.10018518518518522,2.3064999999999998],[-0.07479166666666662,0.11185185185185181,2.3237000000029795],[-0.058958333333333356,0.11944444444444445,2.3419999999999987],[-0.05520833333333333,0.10444444444444441,2.3576000000089437],[-0.05520833333333333,0.10444444444444441,2.3733000000119233],[-0.04541666666666669,0.08129629629629626,2.3899000000059587],[-0.029062499999999977,0.07296296296296292,2.412300000011925],[-0.029062499999999977,0.07296296296296292,2.4233000000119205],[-0.0078125,0.04092592592592597,2.439900000005963],[0.013750000000000047,0.02240740740740745,2.457800000011922],[0.035208333333333286,0.01722222222222214,2.473200000002983],[0.019270833333333334,0.003888888888888931,2.48990000000596],[0.019270833333333334,-0.026666666666666623,2.5090000000000003],[0.010208333333333286,-0.04981481481481477,2.5244000000059614],[0.010208333333333286,-0.04981481481481477,2.5399000000059644],[-0.002395833333333286,-0.08388888888888892,2.5566000000089417],[0.0009374999999999763,-0.08296296296296299,2.573400000005961],[0.0015625,-0.07481481481481478,2.593499999999999],[0.0015625,-0.07481481481481478,2.606500000000004],[-0.004375000000000047,-0.08148148148148149,2.6233000000119233],[-0.008020833333333382,-0.08925925925925923,2.6399000000059587],[-0.018229166666666668,-0.10907407407407403,2.656600000008943],[-0.028437499999999952,-0.12888888888888894,2.675300000011923],[-0.018333333333333358,-0.1227777777777778,2.6910000000000025],[-0.018333333333333358,-0.1227777777777778,2.7066000000089403],[-0.024166666666666715,-0.09944444444444442,2.7233000000119247],[-0.024895833333333308,-0.08611111111111111,2.73990000000596],[-0.024895833333333308,-0.08611111111111111,2.7565000000000026],[-0.007500000000000047,-0.0507407407407407,2.773300000011922],[-0.0007291666666667141,-0.03777777777777774,2.789999999999999],[0.008749999999999977,-0.032037037037036954,2.8064999999999998],[0.018229166666666668,-0.02629629629629638,2.82710000000894],[0.019895833333333356,-0.01444444444444436,2.8432000000029802],[0.019895833333333356,-0.01444444444444436,2.856600000008939],[0.02000000000000005,-0.009074074074074031,2.8732000000029814],[0.016250000000000025,0.007037037037036953,2.8926000000089402],[0.019895833333333356,-0.0514814814814814,2.9069000000059617],[0.027604166666666666,-0.0977777777777778,2.926100000008944],[0.03854166666666667,-0.15018518518518523,2.943700000002984],[0.04645833333333336,-0.19388888888888886,2.9594999999999985],[0.050625000000000024,-0.25277777777777777,2.9759000000059643],[0.06729166666666657,-0.30037037037037034,2.9964000000059627],[0.07322916666666662,-0.365925925925926,3.01010000000894],[0.07322916666666662,-0.365925925925926,3.0234999999999985],[0.08104166666666662,-0.3792592592592593,3.040100000008941],[0.08916666666666657,-0.402962962962963,3.0589000000059627],[0.10697916666666671,-0.47537037037037033,3.0736000000089447],[0.12000000000000005,-0.44814814814814813,3.092500000000001],[0.12895833333333329,-0.4331481481481481,3.1101000000089414],[0.14135416666666673,-0.4418518518518519,3.126600000008942],[0.1421875,-0.4703703703703704,3.142900000005959],[0.1421875,-0.4703703703703704,3.156700000002978],[0.16177083333333328,-0.4646296296296296,3.176499999999997],[0.1640625,-0.47833333333333333,3.193700000002984],[0.17708333333333334,-0.4740740740740741,3.210100000008943],[0.19718749999999996,-0.5588888888888889,3.230100000008939],[0.19718749999999996,-0.5588888888888889,3.2421000000089393],[0.2091666666666666,-0.5911111111111111,3.256999999999998],[0.19822916666666662,-0.5574074074074075,3.2734000000059638],[0.19500000000000003,-0.5531481481481482,3.2923000000119202],[0.18822916666666673,-0.5638888888888889,3.3067000000029836],[0.17041666666666658,-0.5712962962962963,3.3269000000059634],[0.15260416666666668,-0.5787037037037037,3.341900000005964],[0.13947916666666677,-0.5898148148148148,3.3616000000089414],[0.14552083333333338,-0.577962962962963,3.3759999999999977],[0.13781249999999995,-0.5822222222222222,3.39110000000894],[0.11937499999999991,-0.5511111111111111,3.4073000000119222],[0.11937499999999991,-0.5511111111111111,3.438400000005963],[0.10291666666666661,-0.547037037037037,3.4443000000119213],[0.12406249999999991,-0.5564814814814815,3.459100000008938],[0.13333333333333333,-0.5631481481481482,3.4734000000059595],[0.13781249999999995,-0.5996296296296296,3.494700000002979],[0.17479166666666662,-0.5790740740740741,3.50860000000894],[0.2046875,-0.5625925925925926,3.5238000000119243],[0.22166666666666662,-0.5514814814814815,3.542400000005962],[0.20583333333333323,-0.5338888888888889,3.5577000000029813],[0.20062499999999991,-0.5042592592592593,3.573200000002984],[0.21593749999999995,-0.4962962962962963,3.591900000005964],[0.2384375000000001,-0.4812962962962963,3.606600000008939],[0.2404166666666666,-0.4807407407407408,3.625200000002984],[0.22447916666666667,-0.5094444444444445,3.639800000011924],[0.22791666666666663,-0.47611111111111115,3.6569000000059617],[0.20645833333333338,-0.4794444444444444,3.6754999999999995],[0.17552083333333332,-0.46296296296296297,3.6909000000059606],[0.14885416666666676,-0.4540740740740741,3.709100000008938],[0.13250000000000003,-0.4337037037037037,3.7250000000000014],[0.09770833333333329,-0.41444444444444445,3.73990000000596],[-0.008229166666666643,-0.3207407407407407,3.7583000000119213],[-0.10770833333333331,-0.2442592592592592,3.77320000000298],[-0.19260416666666663,-0.1905555555555555,3.7899000000059644],[-0.26583333333333337,-0.10481481481481486,3.8066000000089417],[-0.34968750000000004,-0.0477777777777777,3.823200000002984],[-0.4335416666666667,0.009259259259259259,3.841000000000001],[-0.4996875,0.062407407407407495,3.856600000008939],[-0.5701041666666666,0.12314814814814815,3.8759999999999977],[-0.6279166666666666,0.13240740740740742,3.8899000000059587],[-0.6682291666666667,0.13740740740740748,3.906500000000001],[-0.6584375,0.11944444444444445,3.9264000000059625],[-0.6507291666666667,0.08814814814814818,3.9409000000059606],[-0.6507291666666667,0.08814814814814818,3.9566000000089403],[-0.6544791666666666,0.07444444444444454,3.9734000000059595],[-0.6567708333333333,0.06444444444444436,3.9898000000119183],[-0.654375,0.0544444444444444,4.008200000002979],[-0.6545833333333333,0.062037037037037036,4.02320000000298],[-0.6559375000000001,0.057777777777777865,4.043200000002983],[-0.6433333333333333,0.03166666666666671,4.058700000002979],[-0.6429166666666667,0.034444444444444486,4.073300000011919],[-0.635,0.027222222222222307,4.092400000005959],[-0.6265625,-0.009814814814814731,4.106500000000004],[-0.6103124999999999,-0.00851851851851856,4.123200000002981],[-0.5970833333333334,0.014074074074074116,4.139800000011924],[-0.5761458333333334,0.000925925925925926,4.156600000008943],[-0.5603125,-0.0007407407407406986,4.175200000002981],[-0.5510416666666667,-0.04092592592592597,4.189900000005963],[-0.5355208333333333,-0.04055555555555551,4.209100000008938],[-0.5195833333333334,-0.02962962962962963,4.223500000000001],[-0.49354166666666666,-0.028703703703703703,4.240800000011923],[-0.49354166666666666,-0.028703703703703703,4.256600000008945],[-0.471875,-0.0014814814814813973,4.27320000000298],[-0.4689583333333333,0.06222222222222226,4.289900000005964],[-0.47791666666666666,0.09703703703703699,4.309700000002984],[-0.47791666666666666,0.09703703703703699,4.323500000000003],[-0.4766666666666667,0.14351851851851852,4.3399000000059615],[-0.48322916666666665,0.1977777777777777,4.356500000000004],[-0.4903125,0.2522222222222223,4.375800000011921],[-0.49645833333333333,0.31851851851851853,4.390300000011919],[-0.5088541666666667,0.3442592592592592,4.406500000000001],[-0.5389583333333333,0.4016666666666666,4.425700000002983],[-0.5714583333333334,0.4588888888888888,4.439900000005963],[-0.596875,0.4872222222222223,4.45660000000894],[-0.6035416666666666,0.47907407407407415,4.473200000002983],[-0.6107291666666667,0.475,4.48990000000596],[-0.6262500000000001,0.44000000000000006,4.508700000002982],[-0.6452083333333333,0.4235185185185186,4.525600000008943],[-0.6636458333333334,0.4068518518518519,4.541600000008941],[-0.6680208333333333,0.407037037037037,4.556800000011918],[-0.6608333333333333,0.3937037037037037,4.573300000011919],[-0.6564583333333334,0.3696296296296297,4.5930000000000035],[-0.6520833333333333,0.3455555555555556,4.608600000008941],[-0.6571874999999999,0.3427777777777778,4.626600000008942],[-0.6622916666666666,0.34,4.642100000008945],[-0.6619791666666667,0.3362962962962963,4.6617000000029805],[-0.6636458333333334,0.3357407407407407,4.676200000002979],[-0.6636458333333334,0.3357407407407407,4.689900000005963],[-0.6611458333333334,0.3322222222222222,4.70660000000894],[-0.6469791666666667,0.3357407407407407,4.723200000002983],[-0.6382291666666667,0.33833333333333343,4.73990000000596],[-0.6413541666666667,0.34092592592592597,4.759300000011919],[-0.6383333333333333,0.3338888888888888,4.7734999999999985],[-0.638125,0.3346296296296297,4.792800000011923],[-0.62875,0.3066666666666667,4.806600000008942],[-0.6248958333333333,0.2962962962962963,4.823200000002984],[-0.6176041666666666,0.28648148148148156,4.843600000008941],[-0.6176041666666666,0.28648148148148156,4.856600000008939],[-0.59875,0.26370370370370366,4.873300000011923],[-0.5590625,0.23296296296296287,4.889900000005959],[-0.5310416666666666,0.19518518518518516,4.906500000000001],[-0.525625,0.21296296296296297,4.9256000000089415],[-0.5198958333333333,0.2442592592592592,4.939900000005963],[-0.5019791666666666,0.2390740740740741,4.956499999999998],[-0.48125,0.22611111111111115,4.973300000011925],[-0.4844791666666667,0.24962962962962953,4.98990000000596],[-0.4821875,0.25555555555555554,5.00860000000894],[-0.45854166666666674,0.23481481481481473,5.0282000000029825],[-0.45854166666666674,0.23481481481481473,5.044600000008941],[-0.44645833333333335,0.2270370370370371,5.056600000008942],[-0.4327083333333333,0.247037037037037,5.073200000002984],[-0.39114583333333336,0.2807407407407408,5.092200000002983],[-0.3567708333333333,0.22870370370370371,5.106600000008939],[-0.28885416666666663,0.15722222222222218,5.123200000002981],[-0.23312499999999994,0.12222222222222222,5.139900000005959],[-0.17625000000000005,0.11481481481481481,5.156600000008943],[-0.09041666666666662,0.08037037037037033,5.176000000000002],[-0.09041666666666662,0.08037037037037033,5.189999999999998],[-0.0140625,0.07796296296296301,5.206700000002982],[0.04822916666666662,0.07037037037037037,5.22530000001192],[0.1078125,0.024814814814814772,5.244200000002984],[0.1078125,0.024814814814814772,5.256600000008945],[0.14375,-0.016111111111111194,5.273300000011922],[0.16291666666666677,-0.08037037037037033,5.289900000005964],[0.2150000000000001,-0.10111111111111115,5.3065],[0.24479166666666666,-0.1235185185185185,5.323300000011919],[0.2660416666666668,-0.12814814814814812,5.341600000008938],[0.2855208333333332,-0.1668518518518519,5.356500000000004],[0.29416666666666674,-0.18555555555555553,5.373200000002981],[0.28635416666666674,-0.2212962962962963,5.389900000005959],[0.26145833333333335,-0.2322222222222222,5.406500000000001],[0.23624999999999996,-0.1935185185185185,5.426300000011921],[0.23624999999999996,-0.1935185185185185,5.439900000005963],[0.2163541666666667,-0.17333333333333337,5.45660000000894],[0.2037499999999999,-0.16259259259259262,5.473300000011925],[0.18854166666666666,-0.17444444444444443,5.48990000000596],[0.16239583333333343,-0.16666666666666666,5.507900000005961],[0.1564583333333334,-0.17240740740740745,5.523700000002982],[0.1564583333333334,-0.17240740740740745,5.539900000005964],[0.14989583333333342,-0.16074074074074077,5.5565],[0.1453125,-0.17462962962962966,5.578100000008945],[0.15854166666666672,-0.19425925925925921,5.592400000005959],[0.1875,-0.19962962962962966,5.606500000000004],[0.21135416666666676,-0.22370370370370374,5.627100000008944],[0.2508333333333333,-0.2548148148148149,5.6432000000029845],[0.26416666666666655,-0.29370370370370374,5.661600000008939],[0.28093750000000006,-0.3037037037037037,5.675700000002983],[0.3016666666666666,-0.33648148148148144,5.690900000005961],[0.3016666666666666,-0.33648148148148144,5.70660000000894],[0.3107291666666666,-0.37351851851851847,5.723300000011925],[0.32229166666666675,-0.42240740740740745,5.73990000000596],[0.3458333333333333,-0.4412962962962963,5.75860000000894],[0.3775000000000001,-0.46944444444444444,5.773300000011922],[0.39562499999999995,-0.5046296296296297,5.792999999999999],[0.42000000000000004,-0.5433333333333333,5.807700000002981],[0.4210416666666667,-0.5672222222222223,5.82710000000894],[0.4271874999999999,-0.5435185185185185,5.841999999999999],[0.4332291666666668,-0.5507407407407408,5.858499999999999],[0.4444791666666667,-0.5522222222222222,5.873300000011923],[0.45416666666666666,-0.5485185185185185,5.889800000011924],[0.4638541666666666,-0.5472222222222223,5.906500000000001],[0.453125,-0.5451851851851851,5.9264000000059625],[0.4423958333333334,-0.5431481481481482,5.941300000011921],[0.4314583333333334,-0.525,5.958300000011924],[0.42239583333333336,-0.4962962962962963,5.973100000008941],[0.42520833333333335,-0.4957407407407407,5.98990000000596],[0.43072916666666666,-0.515925925925926,6.0089000000059585],[0.44406249999999997,-0.5287037037037037,6.025200000002982],[0.44406249999999997,-0.5287037037037037,6.039999999999999],[0.43125,-0.5064814814814815,6.056600000008942],[0.4232291666666666,-0.512962962962963,6.073200000002984],[0.4232291666666666,-0.512962962962963,6.0899000000059615],[0.4037499999999999,-0.5162962962962964,6.106500000000004],[0.4040625000000001,-0.5116666666666667,6.123200000002981],[0.40437500000000004,-0.5070370370370371,6.139900000005959],[0.40864583333333326,-0.5096296296296297,6.156600000008943],[0.41291666666666677,-0.5122222222222222,6.175200000002981],[0.42958333333333343,-0.5164814814814814,6.19010000000894],[0.4462500000000001,-0.5207407407407407,6.206499999999998],[0.446875,-0.5270370370370371,6.224400000005964],[0.4683333333333332,-0.5483333333333333,6.244],[0.4683333333333332,-0.5483333333333333,6.256500000000003],[0.48635416666666675,-0.5357407407407407,6.273300000011922],[0.5098958333333333,-0.5316666666666667,6.2898000000119225],[0.5132291666666667,-0.5316666666666667,6.3065],[0.5077083333333334,-0.5225925925925926,6.328000000000003]]","[0.0003000000119186552,0.05330000001192303,0.058600000008944164,0.07760000000894252,0.09260000000894308,0.10699999999999932,0.12340000000595808,0.14000000000000057,0.15660000000894314,0.17549999999999955,0.19090000000596064,0.20670000000298216,0.22330000001192474,0.24060000000893922,0.25680000001192127,0.2733000000119219,0.28999999999999915,0.3066000000089417,0.3235000000000028,0.3421000000089407,0.35650000000000404,0.3764000000059582,0.39230000001192167,0.40660000000894314,0.42670000000298103,0.4424000000059607,0.4578000000119218,0.47330000001192474,0.4899000000059601,0.509300000011919,0.5256000000089429,0.5411000000089388,0.5571000000089441,0.573300000011919,0.5919999999999987,0.6066000000089389,0.6234000000059581,0.6400000000000006,0.6566000000089431,0.6759000000059601,0.689900000005963,0.7066000000089403,0.7233000000119247,0.7399000000059601,0.7588000000119237,0.7734000000059638,0.7901000000089411,0.8066000000089417,0.823300000011919,0.8429000000059617,0.8587000000029832,0.875,0.8961000000089427,0.9112000000029781,0.9233000000119205,0.939900000005963,0.9593000000119218,0.9733000000119247,0.9899000000059601,1.008499999999998,1.0244000000059614,1.0399999999999991,1.0567000000029836,1.0776000000089425,1.0900000000000034,1.1067000000029807,1.1271000000089444,1.1423000000119217,1.1608000000119247,1.1757000000029834,1.189900000005963,1.2066000000089403,1.2232000000029828,1.240700000002981,1.2599000000059632,1.2749999999999986,1.290100000008941,1.3066000000089417,1.327200000002982,1.341900000005964,1.3567000000029807,1.373400000005958,1.3899000000059587,1.4065000000000012,1.4258000000119182,1.4399999999999977,1.4594999999999985,1.4744000000059643,1.4899000000059601,1.5087000000029818,1.525400000005959,1.5413000000119226,1.5567000000029836,1.573400000005961,1.5928000000119198,1.6069000000059646,1.623400000005958,1.6400000000000006,1.6609000000059595,1.6762000000029786,1.6936000000089422,1.7079000000059636,1.72530000001192,1.7399000000059601,1.7587000000029818,1.773300000011922,1.7899000000059644,1.8064999999999998,1.823300000011919,1.8419999999999987,1.8566000000089389,1.876600000008942,1.892100000008945,1.9065000000000012,1.9258000000119182,1.939800000011921,1.9564999999999984,1.9733000000119247,1.9899000000059601,2.0089000000059585,2.025600000008943,2.0399000000059644,2.0569000000059603,2.073400000005961,2.092500000000001,2.106600000008939,2.1270000000000024,2.1422000000029797,2.156600000008943,2.1754000000059577,2.189900000005963,2.2066000000089403,2.2234000000059595,2.2441000000089417,2.2566000000089446,2.273300000011922,2.2929999999999993,2.3064999999999998,2.3237000000029795,2.3419999999999987,2.3576000000089437,2.3733000000119233,2.3899000000059587,2.412300000011925,2.4233000000119205,2.439900000005963,2.457800000011922,2.473200000002983,2.48990000000596,2.5090000000000003,2.5244000000059614,2.5399000000059644,2.5566000000089417,2.573400000005961,2.593499999999999,2.606500000000004,2.6233000000119233,2.6399000000059587,2.656600000008943,2.675300000011923,2.6910000000000025,2.7066000000089403,2.7233000000119247,2.73990000000596,2.7565000000000026,2.773300000011922,2.789999999999999,2.8064999999999998,2.82710000000894,2.8432000000029802,2.856600000008939,2.8732000000029814,2.8926000000089402,2.9069000000059617,2.926100000008944,2.943700000002984,2.9594999999999985,2.9759000000059643,2.9964000000059627,3.01010000000894,3.0234999999999985,3.040100000008941,3.0589000000059627,3.0736000000089447,3.092500000000001,3.1101000000089414,3.126600000008942,3.142900000005959,3.156700000002978,3.176499999999997,3.193700000002984,3.210100000008943,3.230100000008939,3.2421000000089393,3.256999999999998,3.2734000000059638,3.2923000000119202,3.3067000000029836,3.3269000000059634,3.341900000005964,3.3616000000089414,3.3759999999999977,3.39110000000894,3.4073000000119222,3.438400000005963,3.4443000000119213,3.459100000008938,3.4734000000059595,3.494700000002979,3.50860000000894,3.5238000000119243,3.542400000005962,3.5577000000029813,3.573200000002984,3.591900000005964,3.606600000008939,3.625200000002984,3.639800000011924,3.6569000000059617,3.6754999999999995,3.6909000000059606,3.709100000008938,3.7250000000000014,3.73990000000596,3.7583000000119213,3.77320000000298,3.7899000000059644,3.8066000000089417,3.823200000002984,3.841000000000001,3.856600000008939,3.8759999999999977,3.8899000000059587,3.906500000000001,3.9264000000059625,3.9409000000059606,3.9566000000089403,3.9734000000059595,3.9898000000119183,4.008200000002979,4.02320000000298,4.043200000002983,4.058700000002979,4.073300000011919,4.092400000005959,4.106500000000004,4.123200000002981,4.139800000011924,4.156600000008943,4.175200000002981,4.189900000005963,4.209100000008938,4.223500000000001,4.240800000011923,4.256600000008945,4.27320000000298,4.289900000005964,4.309700000002984,4.323500000000003,4.3399000000059615,4.356500000000004,4.375800000011921,4.390300000011919,4.406500000000001,4.425700000002983,4.439900000005963,4.45660000000894,4.473200000002983,4.48990000000596,4.508700000002982,4.525600000008943,4.541600000008941,4.556800000011918,4.573300000011919,4.5930000000000035,4.608600000008941,4.626600000008942,4.642100000008945,4.6617000000029805,4.676200000002979,4.689900000005963,4.70660000000894,4.723200000002983,4.73990000000596,4.759300000011919,4.7734999999999985,4.792800000011923,4.806600000008942,4.823200000002984,4.843600000008941,4.856600000008939,4.873300000011923,4.889900000005959,4.906500000000001,4.9256000000089415,4.939900000005963,4.956499999999998,4.973300000011925,4.98990000000596,5.00860000000894,5.0282000000029825,5.044600000008941,5.056600000008942,5.073200000002984,5.092200000002983,5.106600000008939,5.123200000002981,5.139900000005959,5.156600000008943,5.176000000000002,5.189999999999998,5.206700000002982,5.22530000001192,5.244200000002984,5.256600000008945,5.273300000011922,5.289900000005964,5.3065,5.323300000011919,5.341600000008938,5.356500000000004,5.373200000002981,5.389900000005959,5.406500000000001,5.426300000011921,5.439900000005963,5.45660000000894,5.473300000011925,5.48990000000596,5.507900000005961,5.523700000002982,5.539900000005964,5.5565,5.578100000008945,5.592400000005959,5.606500000000004,5.627100000008944,5.6432000000029845,5.661600000008939,5.675700000002983,5.690900000005961,5.70660000000894,5.723300000011925,5.73990000000596,5.75860000000894,5.773300000011922,5.792999999999999,5.807700000002981,5.82710000000894,5.841999999999999,5.858499999999999,5.873300000011923,5.889800000011924,5.906500000000001,5.9264000000059625,5.941300000011921,5.958300000011924,5.973100000008941,5.98990000000596,6.0089000000059585,6.025200000002982,6.039999999999999,6.056600000008942,6.073200000002984,6.0899000000059615,6.106500000000004,6.123200000002981,6.139900000005959,6.156600000008943,6.175200000002981,6.19010000000894,6.206499999999998,6.224400000005964,6.244,6.256500000000003,6.273300000011922,6.2898000000119225,6.3065,6.328000000000003]","[1732605233742,1732605233786,1732605233791,1732605233810,1732605233825,1732605233840,1732605233856,1732605233873,1732605233889,1732605233908,1732605233923,1732605233939,1732605233956,1732605233973,1732605233989,1732605234006,1732605234022,1732605234039,1732605234056,1732605234075,1732605234089,1732605234109,1732605234125,1732605234139,1732605234159,1732605234175,1732605234190,1732605234206,1732605234222,1732605234242,1732605234258,1732605234274,1732605234290,1732605234306,1732605234325,1732605234339,1732605234356,1732605234372,1732605234389,1732605234408,1732605234422,1732605234439,1732605234456,1732605234472,1732605234491,1732605234506,1732605234523,1732605234539,1732605234556,1732605234575,1732605234591,1732605234608,1732605234629,1732605234644,1732605234656,1732605234672,1732605234692,1732605234706,1732605234722,1732605234741,1732605234757,1732605234772,1732605234789,1732605234810,1732605234823,1732605234839,1732605234860,1732605234875,1732605234893,1732605234908,1732605234922,1732605234939,1732605234956,1732605234973,1732605234992,1732605235007,1732605235023,1732605235039,1732605235060,1732605235074,1732605235089,1732605235106,1732605235122,1732605235139,1732605235158,1732605235172,1732605235192,1732605235207,1732605235222,1732605235241,1732605235258,1732605235274,1732605235289,1732605235306,1732605235325,1732605235339,1732605235356,1732605235373,1732605235393,1732605235409,1732605235426,1732605235440,1732605235458,1732605235472,1732605235491,1732605235506,1732605235522,1732605235539,1732605235556,1732605235575,1732605235589,1732605235609,1732605235625,1732605235639,1732605235658,1732605235672,1732605235689,1732605235706,1732605235722,1732605235741,1732605235758,1732605235772,1732605235789,1732605235806,1732605235825,1732605235839,1732605235860,1732605235875,1732605235889,1732605235908,1732605235922,1732605235939,1732605235956,1732605235977,1732605235989,1732605236006,1732605236025,1732605236039,1732605236056,1732605236074,1732605236090,1732605236106,1732605236122,1732605236145,1732605236156,1732605236172,1732605236190,1732605236206,1732605236222,1732605236242,1732605236257,1732605236272,1732605236289,1732605236306,1732605236326,1732605236339,1732605236356,1732605236372,1732605236389,1732605236408,1732605236423,1732605236439,1732605236456,1732605236472,1732605236489,1732605236506,1732605236523,1732605236539,1732605236560,1732605236576,1732605236589,1732605236606,1732605236625,1732605236639,1732605236659,1732605236676,1732605236692,1732605236708,1732605236729,1732605236743,1732605236756,1732605236773,1732605236791,1732605236806,1732605236825,1732605236843,1732605236859,1732605236875,1732605236889,1732605236909,1732605236926,1732605236943,1732605236963,1732605236975,1732605236989,1732605237006,1732605237025,1732605237039,1732605237060,1732605237074,1732605237094,1732605237109,1732605237124,1732605237140,1732605237171,1732605237177,1732605237192,1732605237206,1732605237227,1732605237241,1732605237256,1732605237275,1732605237290,1732605237306,1732605237324,1732605237339,1732605237358,1732605237372,1732605237389,1732605237408,1732605237423,1732605237442,1732605237458,1732605237472,1732605237491,1732605237506,1732605237522,1732605237539,1732605237556,1732605237574,1732605237589,1732605237609,1732605237622,1732605237639,1732605237659,1732605237673,1732605237689,1732605237706,1732605237722,1732605237741,1732605237756,1732605237776,1732605237791,1732605237806,1732605237825,1732605237839,1732605237856,1732605237872,1732605237889,1732605237908,1732605237922,1732605237942,1732605237956,1732605237973,1732605237989,1732605238006,1732605238022,1732605238042,1732605238056,1732605238072,1732605238089,1732605238108,1732605238123,1732605238139,1732605238158,1732605238172,1732605238189,1732605238206,1732605238222,1732605238241,1732605238258,1732605238274,1732605238289,1732605238306,1732605238326,1732605238341,1732605238359,1732605238375,1732605238394,1732605238409,1732605238422,1732605238439,1732605238456,1732605238472,1732605238492,1732605238506,1732605238525,1732605238539,1732605238556,1732605238576,1732605238589,1732605238606,1732605238622,1732605238639,1732605238658,1732605238672,1732605238689,1732605238706,1732605238722,1732605238741,1732605238761,1732605238777,1732605238789,1732605238806,1732605238825,1732605238839,1732605238856,1732605238872,1732605238889,1732605238909,1732605238923,1732605238939,1732605238958,1732605238977,1732605238989,1732605239006,1732605239022,1732605239039,1732605239056,1732605239074,1732605239089,1732605239106,1732605239122,1732605239139,1732605239159,1732605239172,1732605239189,1732605239206,1732605239222,1732605239240,1732605239256,1732605239272,1732605239289,1732605239311,1732605239325,1732605239339,1732605239360,1732605239376,1732605239394,1732605239408,1732605239423,1732605239439,1732605239456,1732605239472,1732605239491,1732605239506,1732605239525,1732605239540,1732605239560,1732605239574,1732605239591,1732605239606,1732605239622,1732605239639,1732605239659,1732605239674,1732605239691,1732605239706,1732605239722,1732605239741,1732605239758,1732605239773,1732605239789,1732605239806,1732605239822,1732605239839,1732605239856,1732605239872,1732605239889,1732605239908,1732605239923,1732605239939,1732605239957,1732605239976,1732605239989,1732605240006,1732605240022,1732605240039,1732605240060]","[[923.6,347.5],[923.6,347.5],[946.3,313.7],[961.6,276.6],[983.7,250.9],[966.8,247],[966.8,247],[960.8,231.6],[947.5,214],[925.2,195.2],[919.5,196],[885.5,194.4],[862.7,178.9],[857.5,182.4],[857.5,182.4],[869.4,192.3],[857.7,187.3],[876.3,187.5],[883.2,188],[899.5,190.1],[910.3,198.8],[900.4,198.1],[902.9,197.4],[922.7,197.8],[880,189.9],[832.4,185.7],[797.4,212.3],[742.2,243.6],[707,270],[671.8,296.4],[627,312.1],[582.2,327.8],[557.4,352.8],[520.3,375.7],[524.5,391.3],[528.7,413.5],[528.7,413.5],[536.3,421.7],[519.9,442.5],[486.6,465.3],[480.8,464.8],[468.6,492.3],[482.4,475.8],[479.6,477],[476.4,473.5],[455,494],[428.5,488.3],[403.2,485.2],[399,465.8],[420.8,437.6],[410.2,459.5],[419.7,458.3],[380.3,501.1],[380.3,501.1],[353.4,519.3],[338.1,545.6],[343.1,540.1],[353.2,554.2],[372.3,555.7],[391.4,557.2],[387.2,572.9],[387.2,572.9],[387.9,561.8],[379.4,559.8],[379.4,559.8],[389.5,567],[410.6,569.2],[420.5,568],[428.9,590.1],[429.9,609.1],[428.2,629.8],[426.5,650.5],[423,671.9],[411.2,703.9],[407.9,706.7],[417.1,692.1],[405.8,693.2],[394.5,694.3],[378,677.8],[368.9,664.4],[359.4,655.8],[348.2,646],[334.3,607.7],[329.5,559],[315.3,545.3],[292.9,539.8],[301.7,529.6],[310.5,519.4],[317.5,516],[324.5,512.6],[339.1,502.6],[355.4,493.8],[356.6,521.5],[359.4,546.2],[367.7,565.6],[376,585],[376,585],[362.6,598.4],[351.7,612.6],[349.7,629],[335.5,645.2],[314.1,663.2],[313,666.1],[316.7,670.8],[355.2,665.6],[355.2,665.6],[405.6,643.6],[487.5,633.9],[574,611.5],[658,588.3],[731.8,565.1],[817.7,553.9],[905,545.2],[972,551.6],[1053.3,532.4],[1097.4,525.9],[1128.5,537],[1128.1,535.8],[1097.6,543.9],[1067.1,552],[1043.5,570],[1020,576.2],[996.6,583.4],[973.2,590.6],[936.6,601.3],[900,612],[880.1,604.4],[860.2,596.8],[863.6,594.8],[867,592.8],[859.1,589.6],[851.2,586.4],[844.1,590.6],[837,594.8],[837,594.8],[841,598],[862.9,592.5],[875.2,594.1],[888.2,600.4],[903.4,604.5],[907,596.4],[907,596.4],[916.4,583.9],[932.1,579.4],[932.1,579.4],[952.5,562.1],[973.2,552.1],[993.8,549.3],[978.5,542.1],[978.5,525.6],[969.8,513.1],[969.8,513.1],[957.7,494.7],[960.9,495.2],[961.5,499.6],[961.5,499.6],[955.8,496],[952.3,491.8],[942.5,481.1],[932.7,470.4],[942.4,473.7],[942.4,473.7],[936.8,486.3],[936.1,493.5],[936.1,493.5],[952.8,512.6],[959.3,519.6],[968.4,522.7],[977.5,525.8],[979.1,532.2],[979.1,532.2],[979.2,535.1],[975.6,543.8],[979.1,512.2],[986.5,487.2],[997,458.9],[1004.6,435.3],[1008.6,403.5],[1024.6,377.8],[1030.3,342.4],[1030.3,342.4],[1037.8,335.2],[1045.6,322.4],[1062.7,283.3],[1075.2,298],[1083.8,306.1],[1095.7,301.4],[1096.5,286],[1096.5,286],[1115.3,289.1],[1117.5,281.7],[1130,284],[1149.3,238.2],[1149.3,238.2],[1160.8,220.8],[1150.3,239],[1147.2,241.3],[1140.7,235.5],[1123.6,231.5],[1106.5,227.5],[1093.9,221.5],[1099.7,227.9],[1092.3,225.6],[1074.6,242.4],[1074.6,242.4],[1058.8,244.6],[1079.1,239.5],[1088,235.9],[1092.3,216.2],[1127.8,227.3],[1156.5,236.2],[1172.8,242.2],[1157.6,251.7],[1152.6,267.7],[1167.3,272],[1188.9,280.1],[1190.8,280.4],[1175.5,264.9],[1178.8,282.9],[1158.2,281.1],[1128.5,290],[1102.9,294.8],[1087.2,305.8],[1053.8,316.2],[952.1,366.8],[856.6,408.1],[775.1,437.1],[704.8,483.4],[624.3,514.2],[543.8,545],[480.3,573.7],[412.7,606.5],[357.2,611.5],[318.5,614.2],[327.9,604.5],[335.3,587.6],[335.3,587.6],[331.7,580.2],[329.5,574.8],[331.8,569.4],[331.6,573.5],[330.3,571.2],[342.4,557.1],[342.8,558.6],[350.4,554.7],[358.5,534.7],[374.1,535.4],[386.8,547.6],[406.9,540.5],[422.1,539.6],[431,517.9],[445.9,518.1],[461.2,524],[486.2,524.5],[486.2,524.5],[507,539.2],[509.8,573.6],[501.2,592.4],[501.2,592.4],[502.4,617.5],[496.1,646.8],[489.3,676.2],[483.4,712],[471.5,725.9],[442.6,756.9],[411.4,787.8],[387,803.1],[380.6,798.7],[373.7,796.5],[358.8,777.6],[340.6,768.7],[322.9,759.7],[318.7,759.8],[325.6,752.6],[329.8,739.6],[334,726.6],[329.1,725.1],[324.2,723.6],[324.5,721.6],[322.9,721.3],[322.9,721.3],[325.3,719.4],[338.9,721.3],[347.3,722.7],[344.3,724.1],[347.2,720.3],[347.4,720.7],[356.4,705.6],[360.1,700],[367.1,694.7],[367.1,694.7],[385.2,682.4],[423.3,665.8],[450.2,645.4],[455.4,655],[460.9,671.9],[478.1,669.1],[498,662.1],[494.9,674.8],[497.1,678],[519.8,666.8],[519.8,666.8],[531.4,662.6],[544.6,673.4],[584.5,691.6],[617.5,663.5],[682.7,624.9],[736.2,606],[790.8,602],[873.2,583.4],[873.2,583.4],[946.5,582.1],[1006.3,578],[1063.5,553.4],[1063.5,553.4],[1098,531.3],[1116.4,496.6],[1166.4,485.4],[1195,473.3],[1215.4,470.8],[1234.1,449.9],[1242.4,439.8],[1234.9,420.5],[1211,414.6],[1186.8,435.5],[1186.8,435.5],[1167.7,446.4],[1155.6,452.2],[1141,445.8],[1115.9,450],[1110.2,446.9],[1110.2,446.9],[1103.9,453.2],[1099.5,445.7],[1112.2,435.1],[1140,432.2],[1162.9,419.2],[1200.8,402.4],[1213.6,381.4],[1229.7,376],[1249.6,358.3],[1249.6,358.3],[1258.3,338.3],[1269.4,311.9],[1292,301.7],[1322.4,286.5],[1339.8,267.5],[1363.2,246.6],[1364.2,233.7],[1370.1,246.5],[1375.9,242.6],[1386.7,241.8],[1396,243.8],[1405.3,244.5],[1395,245.6],[1384.7,246.7],[1374.2,256.5],[1365.5,272],[1368.2,272.3],[1373.5,261.4],[1386.3,254.5],[1386.3,254.5],[1374,266.5],[1366.3,263],[1366.3,263],[1347.6,261.2],[1347.9,263.7],[1348.2,266.2],[1352.3,264.8],[1356.4,263.4],[1372.4,261.1],[1388.4,258.8],[1389,255.4],[1409.6,243.9],[1409.6,243.9],[1426.9,250.7],[1449.5,252.9],[1452.7,252.9],[1447.4,257.8]]","[-0.132282,0.39684600000000003]","[0.132282,0.39684600000000003]","[0.39684600000000003,0.39684600000000003]","[-0.39684600000000003,0.132282]","[-0.39684600000000003,-0.132282]","[-0.39684600000000003,-0.39684600000000003]","[-0.132282,0.132282]","[0.132282,0.132282]","[0.39684600000000003,0.132282]","[-0.132282,-0.132282]","[0.132282,-0.132282]","[0.39684600000000003,-0.132282]","[-0.132282,-0.39684600000000003]","[0.132282,-0.39684600000000003]","[0.39684600000000003,-0.39684600000000003]",0,0,0,0,1,1,Tablet,20,20,7,2,70,4,2,70,4
