inst1_resp.keys,inst1_resp.rt,calibrationMouse.x,calibrationMouse.y,calibrationMouse.leftButton,calibrationMouse.midButton,calibrationMouse.rightButton,calibrationClick.x,calibrationClick.y,calibrationClick.leftButton,calibrationClick.midButton,calibrationClick.rightButton,calibrationClick.clicked_name,trialsc.thisRepN,trialsc.thisTrialN,trialsc.thisN,trialsc.thisIndex,trialsc.ran,calibration_x,calibration_y,participant,session,date,expName,psychopyVersion,OS,frameRate,ScreenRes_pixels,mouse_2.x,mouse_2.y,mouse_2.leftButton,mouse_2.midButton,mouse_2.rightButton,mouse_2.time,mouse_2.clicked_name,Camera_pixels,mouse.x,mouse.y,mouse.leftButton,mouse.midButton,mouse.rightButton,mouse.time,mouse.clicked_name,Choice,Trial,TrialDuration,MOUSE_GAZE,ET_GAZE,ET_GAZE_x_T,time,unixTime,ET_GAZE_NF,Loc_Bus_label,Loc_Metro_label,Loc_RH_label,Loc_Cost_label,Loc_Travel_label,Loc_Comfort_label,Loc_Bus_cost,Loc_Metro_cost,Loc_RH_cost,Loc_Bus_travel,Loc_Metro_travel,Loc_RH_travel,Loc_Bus_comfort,Loc_Metro_comfort,Loc_RH_comfort,trials.thisRepN,trials.thisTrialN,trials.thisN,trials.thisIndex,trials.ran,Block,Device,RH_cost,RH_travel_time,RH_Comfort,metro_cost,metro_travel_time,metro_Comfort,Bus_cost,Bus_travel_time,Bus_Comfort
space,0.8477,-0.027083333,-0.292592593,1,0,0,0.002083333,0.327777778,1,0,0,calibration_square,0,0,0,12,1,0,0.33,02,001,2024-11-26_11h32.50.300,Attention_exp_legacy,2023.1.0,Win32,60.24096386,,,,,,,,,,,,,,,,,,,,,,,,,,,,,,,,,,,,,,,,,,,,,,,,,,,,,,,,
,,,,,,,-0.325,-0.312962963,1,0,0,,0,1,1,5,1,-0.33,-0.33,02,001,2024-11-26_11h32.50.300,Attention_exp_legacy,2023.1.0,Win32,60.24096386,,,,,,,,,,,,,,,,,,,,,,,,,,,,,,,,,,,,,,,,,,,,,,,,,,,,,,,,
,,,,,,,-0.3125,0.331481481,1,0,0,,0,2,2,7,1,-0.33,0.33,02,001,2024-11-26_11h32.50.300,Attention_exp_legacy,2023.1.0,Win32,60.24096386,,,,,,,,,,,,,,,,,,,,,,,,,,,,,,,,,,,,,,,,,,,,,,,,,,,,,,,,
,,,,,,,0.330208333,-0.325925926,1,0,0,calibration_square,0,3,3,15,1,0.33,-0.33,02,001,2024-11-26_11h32.50.300,Attention_exp_legacy,2023.1.0,Win32,60.24096386,,,,,,,,,,,,,,,,,,,,,,,,,,,,,,,,,,,,,,,,,,,,,,,,,,,,,,,,
,,,,,,,0.670833333,0.657407407,1,0,0,,0,4,4,19,1,0.67,0.67,02,001,2024-11-26_11h32.50.300,Attention_exp_legacy,2023.1.0,Win32,60.24096386,,,,,,,,,,,,,,,,,,,,,,,,,,,,,,,,,,,,,,,,,,,,,,,,,,,,,,,,
,,,,,,,-0.330208333,0.67962963,1,0,0,calibration_square,0,5,5,8,1,-0.33,0.67,02,001,2024-11-26_11h32.50.300,Attention_exp_legacy,2023.1.0,Win32,60.24096386,,,,,,,,,,,,,,,,,,,,,,,,,,,,,,,,,,,,,,,,,,,,,,,,,,,,,,,,
,,,,,,,-0.040625,0.048148148,1,0,0,,0,6,6,11,1,0,0,02,001,2024-11-26_11h32.50.300,Attention_exp_legacy,2023.1.0,Win32,60.24096386,,,,,,,,,,,,,,,,,,,,,,,,,,,,,,,,,,,,,,,,,,,,,,,,,,,,,,,,
,,,,,,,-0.669791667,-0.651851852,1,0,0,,0,7,7,0,1,-0.67,-0.67,02,001,2024-11-26_11h32.50.300,Attention_exp_legacy,2023.1.0,Win32,60.24096386,,,,,,,,,,,,,,,,,,,,,,,,,,,,,,,,,,,,,,,,,,,,,,,,,,,,,,,,
,,,,,,,0.007291667,-0.314814815,1,0,0,,0,8,8,10,1,0,-0.33,02,001,2024-11-26_11h32.50.300,Attention_exp_legacy,2023.1.0,Win32,60.24096386,,,,,,,,,,,,,,,,,,,,,,,,,,,,,,,,,,,,,,,,,,,,,,,,,,,,,,,,
,,,,,,,-0.676041667,-0.32037037,1,0,0,calibration_square,0,9,9,1,1,-0.67,-0.33,02,001,2024-11-26_11h32.50.300,Attention_exp_legacy,2023.1.0,Win32,60.24096386,,,,,,,,,,,,,,,,,,,,,,,,,,,,,,,,,,,,,,,,,,,,,,,,,,,,,,,,
,,,,,,,0.340625,0.662962963,1,0,0,,0,10,10,18,1,0.33,0.67,02,001,2024-11-26_11h32.50.300,Attention_exp_legacy,2023.1.0,Win32,60.24096386,,,,,,,,,,,,,,,,,,,,,,,,,,,,,,,,,,,,,,,,,,,,,,,,,,,,,,,,
,,,,,,,0.257291667,0.283333333,1,0,0,,0,11,11,17,1,0.33,0.33,02,001,2024-11-26_11h32.50.300,Attention_exp_legacy,2023.1.0,Win32,60.24096386,,,,,,,,,,,,,,,,,,,,,,,,,,,,,,,,,,,,,,,,,,,,,,,,,,,,,,,,
,,,,,,,-0.66875,0.038888889,1,0,0,,0,12,12,2,1,-0.67,0,02,001,2024-11-26_11h32.50.300,Attention_exp_legacy,2023.1.0,Win32,60.24096386,,,,,,,,,,,,,,,,,,,,,,,,,,,,,,,,,,,,,,,,,,,,,,,,,,,,,,,,
,,,,,,,0.3125,0.014814815,1,0,0,,0,13,13,16,1,0.33,0,02,001,2024-11-26_11h32.50.300,Attention_exp_legacy,2023.1.0,Win32,60.24096386,,,,,,,,,,,,,,,,,,,,,,,,,,,,,,,,,,,,,,,,,,,,,,,,,,,,,,,,
,,,,,,,0.634375,-0.62962963,1,0,0,,0,14,14,20,1,0.67,-0.67,02,001,2024-11-26_11h32.50.300,Attention_exp_legacy,2023.1.0,Win32,60.24096386,,,,,,,,,,,,,,,,,,,,,,,,,,,,,,,,,,,,,,,,,,,,,,,,,,,,,,,,
,,,,,,,-0.661458333,0.325925926,1,0,0,calibration_square,0,15,15,3,1,-0.67,0.33,02,001,2024-11-26_11h32.50.300,Attention_exp_legacy,2023.1.0,Win32,60.24096386,,,,,,,,,,,,,,,,,,,,,,,,,,,,,,,,,,,,,,,,,,,,,,,,,,,,,,,,
,,,,,,,0.294791667,-0.674074074,1,0,0,,0,16,16,14,1,0.33,-0.67,02,001,2024-11-26_11h32.50.300,Attention_exp_legacy,2023.1.0,Win32,60.24096386,,,,,,,,,,,,,,,,,,,,,,,,,,,,,,,,,,,,,,,,,,,,,,,,,,,,,,,,
,,,,,,,-0.317708333,-0.037037037,1,0,0,,0,17,17,6,1,-0.33,0,02,001,2024-11-26_11h32.50.300,Attention_exp_legacy,2023.1.0,Win32,60.24096386,,,,,,,,,,,,,,,,,,,,,,,,,,,,,,,,,,,,,,,,,,,,,,,,,,,,,,,,
,,,,,,,0.008333333,0.685185185,1,0,0,,0,18,18,13,1,0,0.67,02,001,2024-11-26_11h32.50.300,Attention_exp_legacy,2023.1.0,Win32,60.24096386,,,,,,,,,,,,,,,,,,,,,,,,,,,,,,,,,,,,,,,,,,,,,,,,,,,,,,,,
,,,,,,,0.002083333,-0.683333333,1,0,0,,0,19,19,9,1,0,-0.67,02,001,2024-11-26_11h32.50.300,Attention_exp_legacy,2023.1.0,Win32,60.24096386,,,,,,,,,,,,,,,,,,,,,,,,,,,,,,,,,,,,,,,,,,,,,,,,,,,,,,,,
,,,,,,,-0.335416667,-0.635185185,1,0,0,,0,20,20,4,1,-0.33,-0.67,02,001,2024-11-26_11h32.50.300,Attention_exp_legacy,2023.1.0,Win32,60.24096386,,,,,,,,,,,,,,,,,,,,,,,,,,,,,,,,,,,,,,,,,,,,,,,,,,,,,,,,
,,,,,,,,,,,,,,,,,,,,02,001,2024-11-26_11h32.50.300,Attention_exp_legacy,2023.1.0,Win32,60.24096386,"[1920,1080]",[-0.011458333333333333],[-0.47962962962962963],[1],[0],[0],[0.730700000002976],"[""StartButton""]","[640,480]",[0.22395833333333334],[0.4],[1],[0],[0],[6.918200000002983],"[""Metro_label""]",Metro_label,1,7.9409,"[[-0.7604166666666666,-0.5648148148148148],[-0.7072916666666667,-0.44074074074074077],[-0.70625,-0.43703703703703706],[-0.7052083333333333,-0.43333333333333335],[-0.7052083333333333,-0.43333333333333335],[-0.7052083333333333,-0.43333333333333335],[-0.7041666666666667,-0.42592592592592593],[-0.7010416666666667,-0.3907407407407407],[-0.6875,-0.32222222222222224],[-0.6708333333333333,-0.26666666666666666],[-0.6395833333333333,-0.1685185185185185],[-0.6083333333333333,-0.06666666666666667],[-0.5541666666666667,0.11851851851851852],[-0.48333333333333334,0.3055555555555556],[-0.48333333333333334,0.3055555555555556],[-0.4083333333333333,0.4166666666666667],[-0.3145833333333333,0.5],[-0.234375,0.5611111111111111],[-0.234375,0.5611111111111111],[-0.234375,0.5611111111111111],[-0.234375,0.5611111111111111],[-0.234375,0.5611111111111111],[-0.234375,0.5611111111111111],[-0.234375,0.5611111111111111],[-0.234375,0.5611111111111111],[-0.234375,0.5611111111111111],[-0.234375,0.5611111111111111],[-0.234375,0.5611111111111111],[-0.234375,0.5611111111111111],[-0.234375,0.5611111111111111],[-0.234375,0.5611111111111111],[-0.234375,0.5611111111111111],[-0.234375,0.5611111111111111],[-0.234375,0.5611111111111111],[-0.234375,0.5611111111111111],[-0.234375,0.5611111111111111],[-0.234375,0.5611111111111111],[-0.234375,0.5611111111111111],[-0.234375,0.5611111111111111],[-0.234375,0.5611111111111111],[-0.234375,0.5611111111111111],[-0.234375,0.5611111111111111],[-0.234375,0.5537037037037037],[-0.23541666666666666,0.5370370370370371],[-0.2375,0.5259259259259259],[-0.2375,0.5259259259259259],[-0.2375,0.5259259259259259],[-0.2375,0.5259259259259259],[-0.2375,0.5259259259259259],[-0.23541666666666666,0.5259259259259259],[-0.22916666666666666,0.5166666666666667],[-0.20729166666666668,0.47962962962962963],[-0.19895833333333332,0.4666666666666667],[-0.16875,0.44814814814814813],[-0.14166666666666666,0.4444444444444444],[-0.11145833333333334,0.4444444444444444],[-0.08020833333333334,0.44074074074074077],[-0.051041666666666666,0.44074074074074077],[-0.025,0.43333333333333335],[0,0.42777777777777776],[0.028125,0.42592592592592593],[0.04895833333333333,0.42592592592592593],[0.06458333333333334,0.42592592592592593],[0.075,0.42592592592592593],[0.09270833333333334,0.42592592592592593],[0.096875,0.42592592592592593],[0.10833333333333334,0.42592592592592593],[0.128125,0.42592592592592593],[0.1375,0.42592592592592593],[0.14479166666666668,0.42592592592592593],[0.153125,0.4203703703703704],[0.16145833333333334,0.4166666666666667],[0.175,0.4111111111111111],[0.18645833333333334,0.4074074074074074],[0.20729166666666668,0.40185185185185185],[0.21770833333333334,0.4],[0.22395833333333334,0.39814814814814814],[0.234375,0.39444444444444443],[0.24375,0.39444444444444443],[0.246875,0.39444444444444443],[0.25,0.39444444444444443],[0.25,0.39444444444444443],[0.25,0.39444444444444443],[0.25,0.39444444444444443],[0.25,0.39444444444444443],[0.25,0.39444444444444443],[0.25,0.39444444444444443],[0.25,0.39444444444444443],[0.25,0.39444444444444443],[0.25,0.39444444444444443],[0.25,0.39444444444444443],[0.25,0.39444444444444443],[0.25,0.39444444444444443],[0.25,0.39444444444444443],[0.25,0.39444444444444443],[0.25,0.39444444444444443],[0.25,0.39444444444444443],[0.25,0.39444444444444443],[0.25,0.39444444444444443],[0.25,0.3925925925925926],[0.25,0.3907407407407407],[0.25,0.3888888888888889],[0.25,0.387037037037037],[0.25,0.387037037037037],[0.25,0.387037037037037],[0.25,0.387037037037037],[0.25,0.387037037037037],[0.25,0.387037037037037],[0.25104166666666666,0.387037037037037],[0.25104166666666666,0.387037037037037],[0.25104166666666666,0.387037037037037],[0.25104166666666666,0.387037037037037],[0.25104166666666666,0.3851851851851852],[0.253125,0.3851851851851852],[0.25416666666666665,0.3851851851851852],[0.25625,0.3851851851851852],[0.25625,0.3851851851851852],[0.25729166666666664,0.3851851851851852],[0.25833333333333336,0.38333333333333336],[0.25833333333333336,0.38333333333333336],[0.25833333333333336,0.38333333333333336],[0.25833333333333336,0.38333333333333336],[0.25833333333333336,0.38333333333333336],[0.259375,0.38333333333333336],[0.259375,0.38333333333333336],[0.259375,0.38333333333333336],[0.259375,0.38333333333333336],[0.259375,0.38333333333333336],[0.259375,0.38333333333333336],[0.26145833333333335,0.38333333333333336],[0.2635416666666667,0.38333333333333336],[0.2677083333333333,0.38333333333333336],[0.2708333333333333,0.3814814814814815],[0.27291666666666664,0.3814814814814815],[0.27291666666666664,0.3814814814814815],[0.27291666666666664,0.3814814814814815],[0.27291666666666664,0.3814814814814815],[0.27291666666666664,0.3814814814814815],[0.27291666666666664,0.3814814814814815],[0.27291666666666664,0.3814814814814815],[0.27291666666666664,0.3814814814814815],[0.27291666666666664,0.3814814814814815],[0.27291666666666664,0.3814814814814815],[0.27291666666666664,0.3814814814814815],[0.27291666666666664,0.3814814814814815],[0.27291666666666664,0.3814814814814815],[0.27291666666666664,0.3814814814814815],[0.27291666666666664,0.3814814814814815],[0.27291666666666664,0.3814814814814815],[0.27291666666666664,0.3814814814814815],[0.27291666666666664,0.3814814814814815],[0.27291666666666664,0.3814814814814815],[0.27291666666666664,0.3814814814814815],[0.27291666666666664,0.3814814814814815],[0.27291666666666664,0.3814814814814815],[0.27291666666666664,0.3814814814814815],[0.27291666666666664,0.3814814814814815],[0.27291666666666664,0.3814814814814815],[0.27291666666666664,0.3814814814814815],[0.27291666666666664,0.3814814814814815],[0.27291666666666664,0.3814814814814815],[0.27291666666666664,0.3814814814814815],[0.27291666666666664,0.3814814814814815],[0.27291666666666664,0.3814814814814815],[0.27291666666666664,0.3814814814814815],[0.27291666666666664,0.3814814814814815],[0.27291666666666664,0.3814814814814815],[0.27291666666666664,0.3814814814814815],[0.27291666666666664,0.3814814814814815],[0.27291666666666664,0.3814814814814815],[0.27291666666666664,0.3814814814814815],[0.27291666666666664,0.3814814814814815],[0.27291666666666664,0.3814814814814815],[0.27291666666666664,0.3814814814814815],[0.27291666666666664,0.3814814814814815],[0.27291666666666664,0.3814814814814815],[0.27291666666666664,0.3814814814814815],[0.27291666666666664,0.3814814814814815],[0.27291666666666664,0.3814814814814815],[0.27291666666666664,0.3814814814814815],[0.27291666666666664,0.3814814814814815],[0.27291666666666664,0.3814814814814815],[0.27291666666666664,0.3814814814814815],[0.27291666666666664,0.3814814814814815],[0.27291666666666664,0.3814814814814815],[0.27291666666666664,0.3814814814814815],[0.27291666666666664,0.3814814814814815],[0.27291666666666664,0.3814814814814815],[0.27291666666666664,0.3814814814814815],[0.27291666666666664,0.3814814814814815],[0.27291666666666664,0.3814814814814815],[0.27291666666666664,0.3814814814814815],[0.27291666666666664,0.3814814814814815],[0.27291666666666664,0.3814814814814815],[0.27291666666666664,0.3814814814814815],[0.27291666666666664,0.3814814814814815],[0.27291666666666664,0.3814814814814815],[0.27291666666666664,0.3814814814814815],[0.27291666666666664,0.3814814814814815],[0.27291666666666664,0.3814814814814815],[0.27291666666666664,0.3814814814814815],[0.27291666666666664,0.3814814814814815],[0.27291666666666664,0.3814814814814815],[0.27291666666666664,0.3814814814814815],[0.27291666666666664,0.3814814814814815],[0.27291666666666664,0.3814814814814815],[0.27291666666666664,0.3814814814814815],[0.27291666666666664,0.3814814814814815],[0.27291666666666664,0.3814814814814815],[0.27291666666666664,0.3814814814814815],[0.27291666666666664,0.3814814814814815],[0.27291666666666664,0.3814814814814815],[0.27291666666666664,0.3814814814814815],[0.27291666666666664,0.3814814814814815],[0.27291666666666664,0.3814814814814815],[0.27291666666666664,0.3814814814814815],[0.27291666666666664,0.3814814814814815],[0.27291666666666664,0.3814814814814815],[0.27291666666666664,0.3814814814814815],[0.27291666666666664,0.3814814814814815],[0.27291666666666664,0.3814814814814815],[0.27291666666666664,0.3814814814814815],[0.27291666666666664,0.3814814814814815],[0.27291666666666664,0.3814814814814815],[0.27291666666666664,0.3814814814814815],[0.27291666666666664,0.3814814814814815],[0.27291666666666664,0.3814814814814815],[0.27291666666666664,0.3814814814814815],[0.27291666666666664,0.3814814814814815],[0.27291666666666664,0.3814814814814815],[0.27291666666666664,0.3814814814814815],[0.27291666666666664,0.3814814814814815],[0.27291666666666664,0.3814814814814815],[0.27291666666666664,0.3814814814814815],[0.27291666666666664,0.3814814814814815],[0.27291666666666664,0.3814814814814815],[0.27291666666666664,0.3814814814814815],[0.27291666666666664,0.3814814814814815],[0.27291666666666664,0.37962962962962965],[0.27291666666666664,0.37962962962962965],[0.27291666666666664,0.37962962962962965],[0.27291666666666664,0.37777777777777777],[0.27291666666666664,0.37592592592592594],[0.27291666666666664,0.37407407407407406],[0.26979166666666665,0.37407407407407406],[0.26979166666666665,0.37222222222222223],[0.26979166666666665,0.37222222222222223],[0.26979166666666665,0.37222222222222223],[0.26979166666666665,0.37222222222222223],[0.26979166666666665,0.37222222222222223],[0.26666666666666666,0.37037037037037035],[0.2635416666666667,0.37037037037037035],[0.2604166666666667,0.37037037037037035],[0.25833333333333336,0.3685185185185185],[0.25729166666666664,0.3685185185185185],[0.2552083333333333,0.36666666666666664],[0.2552083333333333,0.36666666666666664],[0.2552083333333333,0.36666666666666664],[0.25416666666666665,0.36666666666666664],[0.2520833333333333,0.3648148148148148],[0.25,0.3648148148148148],[0.24791666666666667,0.3648148148148148],[0.24583333333333332,0.3648148148148148],[0.24375,0.3648148148148148],[0.24270833333333333,0.3648148148148148],[0.240625,0.3648148148148148],[0.240625,0.3648148148148148],[0.23958333333333334,0.3648148148148148],[0.23854166666666668,0.3648148148148148],[0.23854166666666668,0.3648148148148148],[0.23854166666666668,0.3648148148148148],[0.23854166666666668,0.3648148148148148],[0.23854166666666668,0.3648148148148148],[0.23854166666666668,0.3648148148148148],[0.23854166666666668,0.3648148148148148],[0.23854166666666668,0.3648148148148148],[0.23854166666666668,0.3648148148148148],[0.2375,0.3648148148148148],[0.23645833333333333,0.3648148148148148],[0.23541666666666666,0.36666666666666664],[0.23541666666666666,0.36666666666666664],[0.23333333333333334,0.3685185185185185],[0.23125,0.37037037037037035],[0.23125,0.37037037037037035],[0.23125,0.37037037037037035],[0.23125,0.37037037037037035],[0.23125,0.37037037037037035],[0.23125,0.37037037037037035],[0.23125,0.37037037037037035],[0.23125,0.37037037037037035],[0.23125,0.37037037037037035],[0.23125,0.37037037037037035],[0.23125,0.37037037037037035],[0.23125,0.37037037037037035],[0.23125,0.37037037037037035],[0.23020833333333332,0.37037037037037035],[0.228125,0.37222222222222223],[0.22708333333333333,0.37222222222222223],[0.225,0.37222222222222223],[0.225,0.37222222222222223],[0.225,0.37222222222222223],[0.225,0.37222222222222223],[0.225,0.37222222222222223],[0.225,0.37222222222222223],[0.225,0.37222222222222223],[0.22395833333333334,0.37407407407407406],[0.22395833333333334,0.37407407407407406],[0.22395833333333334,0.37407407407407406],[0.22395833333333334,0.37407407407407406],[0.22395833333333334,0.37407407407407406],[0.22395833333333334,0.37407407407407406],[0.22395833333333334,0.37407407407407406],[0.22395833333333334,0.37407407407407406],[0.22395833333333334,0.37407407407407406],[0.22395833333333334,0.37407407407407406],[0.22395833333333334,0.37407407407407406],[0.22395833333333334,0.37407407407407406],[0.22395833333333334,0.37407407407407406],[0.22395833333333334,0.37407407407407406],[0.22395833333333334,0.37407407407407406],[0.22395833333333334,0.37407407407407406],[0.22395833333333334,0.37407407407407406],[0.22395833333333334,0.37407407407407406],[0.22395833333333334,0.37407407407407406],[0.22395833333333334,0.37407407407407406],[0.22395833333333334,0.37407407407407406],[0.22395833333333334,0.37407407407407406],[0.22395833333333334,0.37407407407407406],[0.22395833333333334,0.37407407407407406],[0.22395833333333334,0.37407407407407406],[0.22291666666666668,0.37407407407407406],[0.22291666666666668,0.37407407407407406],[0.22291666666666668,0.37407407407407406],[0.22291666666666668,0.37407407407407406],[0.22291666666666668,0.37407407407407406],[0.22291666666666668,0.37407407407407406],[0.22291666666666668,0.37407407407407406],[0.22291666666666668,0.37407407407407406],[0.22291666666666668,0.37407407407407406],[0.22291666666666668,0.37407407407407406],[0.22291666666666668,0.37407407407407406],[0.22291666666666668,0.37592592592592594],[0.22395833333333334,0.3851851851851852],[0.22604166666666667,0.3907407407407407],[0.228125,0.3962962962962963],[0.228125,0.3962962962962963],[0.22916666666666666,0.39814814814814814],[0.22916666666666666,0.39814814814814814],[0.22916666666666666,0.39814814814814814],[0.22916666666666666,0.39814814814814814],[0.22916666666666666,0.39814814814814814],[0.22916666666666666,0.39814814814814814],[0.22916666666666666,0.39814814814814814],[0.22916666666666666,0.39814814814814814],[0.22916666666666666,0.39814814814814814],[0.22916666666666666,0.39814814814814814],[0.22916666666666666,0.39814814814814814],[0.22916666666666666,0.39814814814814814],[0.23125,0.3962962962962963],[0.23229166666666667,0.39444444444444443],[0.23229166666666667,0.39444444444444443],[0.234375,0.39444444444444443],[0.23541666666666666,0.39444444444444443],[0.23645833333333333,0.39444444444444443],[0.23645833333333333,0.39444444444444443],[0.23645833333333333,0.39444444444444443],[0.23645833333333333,0.39444444444444443],[0.23645833333333333,0.39444444444444443],[0.23645833333333333,0.39444444444444443],[0.23645833333333333,0.39444444444444443],[0.23645833333333333,0.39444444444444443],[0.23645833333333333,0.39444444444444443],[0.23645833333333333,0.39444444444444443],[0.23645833333333333,0.39444444444444443],[0.23645833333333333,0.39444444444444443],[0.23645833333333333,0.39444444444444443],[0.23645833333333333,0.39444444444444443],[0.23645833333333333,0.39444444444444443],[0.23645833333333333,0.39444444444444443],[0.23645833333333333,0.39444444444444443],[0.23645833333333333,0.39444444444444443],[0.23645833333333333,0.39444444444444443],[0.23645833333333333,0.39444444444444443],[0.23645833333333333,0.39444444444444443],[0.23645833333333333,0.39444444444444443],[0.23645833333333333,0.39444444444444443],[0.23645833333333333,0.39444444444444443],[0.23541666666666666,0.39444444444444443],[0.23541666666666666,0.39444444444444443],[0.23541666666666666,0.39444444444444443],[0.23541666666666666,0.39444444444444443],[0.23541666666666666,0.39444444444444443],[0.23541666666666666,0.39444444444444443],[0.23541666666666666,0.39444444444444443],[0.23541666666666666,0.39444444444444443],[0.23541666666666666,0.39444444444444443],[0.23333333333333334,0.39444444444444443],[0.23125,0.3962962962962963],[0.23020833333333332,0.39814814814814814],[0.23020833333333332,0.39814814814814814],[0.22916666666666666,0.4],[0.22916666666666666,0.4],[0.228125,0.4],[0.228125,0.4],[0.22708333333333333,0.4],[0.22604166666666667,0.4],[0.225,0.4],[0.22395833333333334,0.4],[0.22395833333333334,0.4],[0.22395833333333334,0.4],[0.22395833333333334,0.4],[0.22395833333333334,0.4],[0.22395833333333334,0.4],[0.22395833333333334,0.4],[0.22395833333333334,0.4],[0.22395833333333334,0.4],[0.22395833333333334,0.4],[0.22395833333333334,0.4],[0.22395833333333334,0.4],[0.22395833333333334,0.4],[0.22395833333333334,0.4],[0.22395833333333334,0.4],[0.22395833333333334,0.4],[0.22395833333333334,0.4],[0.22395833333333334,0.4],[0.22395833333333334,0.4],[0.22395833333333334,0.4],[0.22395833333333334,0.4],[0.22395833333333334,0.4],[0.22395833333333334,0.4],[0.22395833333333334,0.4],[0.22395833333333334,0.4],[0.22395833333333334,0.4],[0.22395833333333334,0.4],[0.22395833333333334,0.4],[0.22395833333333334,0.4],[0.22395833333333334,0.4],[0.22395833333333334,0.4],[0.22395833333333334,0.4],[0.22291666666666668,0.4],[0.22291666666666668,0.4],[0.22291666666666668,0.4],[0.22291666666666668,0.4],[0.22291666666666668,0.4],[0.22291666666666668,0.4],[0.22291666666666668,0.4],[0.22291666666666668,0.4],[0.22291666666666668,0.4],[0.22083333333333333,0.40185185185185185],[0.21875,0.40370370370370373],[0.21145833333333333,0.4166666666666667],[0.20416666666666666,0.43148148148148147],[0.19583333333333333,0.44814814814814813],[0.19375,0.45925925925925926],[0.19270833333333334,0.46111111111111114],[0.19270833333333334,0.46111111111111114],[0.19270833333333334,0.46111111111111114],[0.19166666666666668,0.46296296296296297],[0.19166666666666668,0.46296296296296297],[0.19166666666666668,0.46296296296296297],[0.19166666666666668,0.46296296296296297],[0.19270833333333334,0.46296296296296297],[0.19270833333333334,0.46296296296296297],[0.19270833333333334,0.4648148148148148],[0.19270833333333334,0.4666666666666667],[0.19270833333333334,0.4685185185185185],[0.19270833333333334,0.4685185185185185],[0.19270833333333334,0.4703703703703704],[0.19270833333333334,0.4722222222222222],[0.19270833333333334,0.4722222222222222],[0.19270833333333334,0.4722222222222222],[0.19270833333333334,0.4722222222222222],[0.19270833333333334,0.4722222222222222],[0.19270833333333334,0.4722222222222222],[0.19270833333333334,0.4722222222222222],[0.19270833333333334,0.4722222222222222]]","[[-0.8696875,0.5140740740740741],[-0.8696875,0.5140740740740741],[-0.8528125000000001,0.5137037037037037],[-0.8528125000000001,0.5137037037037037],[-0.8522916666666667,0.5085185185185186],[-0.8341666666666666,0.5222222222222223],[-0.8341666666666666,0.5222222222222223],[-0.8334375,0.5116666666666666],[-0.8465625,0.48648148148148157],[-0.8611458333333334,0.5005555555555554],[-0.88875,0.5540740740740742],[-0.88875,0.5540740740740742],[-0.8914583333333332,0.5361111111111111],[-0.8914583333333332,0.5361111111111111],[-0.8914583333333332,0.5361111111111111],[-0.8734375,0.4975925925925927],[-0.7929166666666667,0.48574074074074064],[-0.7309375,0.37296296296296294],[-0.6615625,0.2564814814814815],[-0.5933333333333334,0.11925925925925922],[-0.5044791666666667,0.020740740740740823],[-0.40572916666666664,-0.041666666666666664],[-0.30489583333333337,-0.10259259259259255],[-0.2586458333333333,-0.15537037037037033],[-0.190625,-0.19037037037037038],[-0.14968750000000006,-0.22407407407407406],[-0.1516666666666667,-0.30111111111111116],[-0.1516666666666667,-0.30111111111111116],[-0.16072916666666662,-0.24759259259259256],[-0.15187499999999995,-0.2192592592592592],[-0.18999999999999997,-0.18870370370370365],[-0.19489583333333335,-0.1824074074074074],[-0.2163541666666667,-0.1559259259259259],[-0.24343750000000006,-0.1527777777777778],[-0.2313541666666667,-0.16944444444444445],[-0.2313541666666667,-0.16944444444444445],[-0.21312500000000004,-0.17407407407407408],[-0.22645833333333332,-0.1588888888888889],[-0.2376041666666667,-0.14166666666666666],[-0.2376041666666667,-0.14166666666666666],[-0.2345833333333334,-0.16518518518518516],[-0.2345833333333334,-0.16518518518518516],[-0.21864583333333332,-0.24166666666666667],[-0.1892708333333334,-0.2644444444444445],[-0.24593750000000003,-0.2611111111111111],[-0.23885416666666662,-0.3059259259259259],[-0.24406249999999996,-0.3225925925925926],[-0.25833333333333336,-0.3568518518518518],[-0.2773958333333333,-0.4074074074074074],[-0.2904166666666666,-0.43388888888888894],[-0.2751041666666667,-0.4764814814814815],[-0.27364583333333337,-0.5437037037037038],[-0.3225,-0.5268518518518519],[-0.34125,-0.5212962962962963],[-0.32135416666666666,-0.5138888888888888],[-0.35489583333333335,-0.48703703703703705],[-0.3366666666666667,-0.542962962962963],[-0.2919791666666666,-0.5798148148148149],[-0.2842708333333333,-0.5987037037037037],[-0.2677083333333333,-0.6325925925925926],[-0.25416666666666665,-0.6548148148148148],[-0.24114583333333334,-0.6568518518518518],[-0.19968750000000005,-0.6562962962962963],[-0.17677083333333338,-0.6659259259259259],[-0.14312499999999997,-0.6709259259259259],[-0.14312499999999997,-0.6709259259259259],[-0.1252083333333334,-0.7268518518518519],[-0.12458333333333335,-0.6274074074074074],[-0.14437500000000003,-0.5301851851851852],[-0.05489583333333338,-0.48055555555555557],[-0.007500000000000047,-0.4324074074074074],[-0.007500000000000047,-0.4324074074074074],[0.02833333333333338,-0.38481481481481483],[0.05572916666666667,-0.34870370370370374],[0.058229166666666644,-0.322037037037037],[0.08427083333333343,-0.3296296296296296],[0.08427083333333343,-0.3296296296296296],[0.12979166666666658,-0.3109259259259259],[0.20083333333333328,-0.287962962962963],[0.25770833333333343,-0.3387037037037037],[0.2947916666666667,-0.39037037037037037],[0.2582291666666668,-0.4081481481481481],[0.2582291666666668,-0.4081481481481481],[0.26927083333333335,-0.4309259259259259],[0.24614583333333329,-0.4225925925925926],[0.25031249999999994,-0.4044444444444444],[0.27937500000000004,-0.3768518518518518],[0.28239583333333323,-0.3803703703703703],[0.2951041666666666,-0.3972222222222222],[0.2847916666666668,-0.3990740740740741],[0.2751041666666666,-0.4361111111111111],[0.29885416666666675,-0.45611111111111113],[0.29885416666666675,-0.45611111111111113],[0.3226041666666667,-0.47611111111111115],[0.3273958333333333,-0.452962962962963],[0.35739583333333325,-0.4696296296296297],[0.35739583333333325,-0.4696296296296297],[0.36083333333333345,-0.48111111111111116],[0.3642708333333334,-0.4925925925925926],[0.36864583333333345,-0.5140740740740741],[0.3207291666666668,-0.5444444444444444],[0.2913541666666667,-0.5561111111111111],[0.24989583333333343,-0.5366666666666667],[0.24989583333333343,-0.5366666666666667],[0.20989583333333334,-0.49296296296296294],[0.16677083333333323,-0.4505555555555556],[0.16677083333333323,-0.4505555555555556],[0.13489583333333333,-0.45740740740740743],[0.11447916666666676,-0.46703703703703703],[0.11427083333333338,-0.47481481481481475],[0.1140625,-0.48259259259259263],[0.10020833333333339,-0.44611111111111107],[0.10020833333333339,-0.44611111111111107],[0.09854166666666657,-0.4242592592592593],[0.1318749999999999,-0.387037037037037],[0.1765625,-0.3087037037037037],[0.1765625,-0.3087037037037037],[0.19520833333333343,-0.3266666666666666],[0.21760416666666677,-0.2905555555555555],[0.2730208333333332,-0.25851851851851854],[0.2730208333333332,-0.25851851851851854],[0.3099999999999999,-0.21203703703703702],[0.3099999999999999,-0.21203703703703702],[0.3229166666666667,-0.18203703703703705],[0.30270833333333325,-0.1346296296296296],[0.30270833333333325,-0.1346296296296296],[0.28135416666666657,-0.09018518518518516],[0.27312500000000006,-0.06425925925925924],[0.23875000000000005,-0.05907407407407403],[0.2,-0.09611111111111106],[0.2,-0.09611111111111106],[0.2196875000000001,-0.06518518518518517],[0.22291666666666668,-0.08888888888888889],[0.1915625000000001,-0.09759259259259258],[0.16749999999999995,-0.12740740740740744],[0.16749999999999995,-0.12740740740740744],[0.16635416666666672,-0.1514814814814815],[0.19718749999999996,-0.2051851851851852],[0.24989583333333343,-0.2574074074074074],[0.2998958333333334,-0.2722222222222222],[0.340625,-0.29870370370370375],[0.3858333333333334,-0.31148148148148147],[0.3835416666666667,-0.3362962962962963],[0.4025000000000001,-0.3635185185185185],[0.41072916666666665,-0.37481481481481477],[0.41166666666666674,-0.36500000000000005],[0.41166666666666674,-0.36500000000000005],[0.3723958333333333,-0.3461111111111111],[0.3037499999999999,-0.30462962962962964],[0.2445833333333333,-0.2566666666666667],[0.17958333333333343,-0.21500000000000005],[0.1412499999999999,-0.18629629629629635],[0.1412499999999999,-0.18629629629629635],[0.0962500000000001,-0.15722222222222218],[0.05,-0.16148148148148145],[-0.002499999999999976,-0.14444444444444443],[-0.042499999999999954,-0.13055555555555556],[-0.042499999999999954,-0.13055555555555556],[-0.07260416666666672,-0.11685185185185189],[-0.10031249999999996,-0.10351851851851848],[-0.08718750000000004,-0.09537037037037037],[-0.08718750000000004,-0.09537037037037037],[-0.10239583333333328,-0.11388888888888889],[-0.0967708333333333,-0.11481481481481481],[-0.13031250000000003,-0.11407407407407412],[-0.15197916666666664,-0.11629629629629631],[-0.15197916666666664,-0.11629629629629631],[-0.17999999999999997,-0.08629629629629634],[-0.18760416666666668,-0.05240740740740743],[-0.15416666666666667,-0.07851851851851847],[-0.13385416666666666,-0.10555555555555556],[-0.08645833333333333,-0.11074074074074076],[-0.05645833333333338,-0.12333333333333338],[0.0017708333333333807,-0.1388888888888889],[0.029999999999999954,-0.19296296296296295],[0.029999999999999954,-0.19296296296296295],[0.08364583333333328,-0.21444444444444447],[0.11479166666666671,-0.2381481481481482],[0.15750000000000006,-0.2727777777777778],[0.15750000000000006,-0.2727777777777778],[0.1806250000000001,-0.32833333333333337],[0.18093750000000006,-0.3331481481481481],[0.18093750000000006,-0.3331481481481481],[0.18447916666666658,-0.3368518518518518],[0.1709374999999999,-0.365925925925926],[0.17458333333333323,-0.40129629629629626],[0.16020833333333329,-0.4166666666666667],[0.15031249999999996,-0.4192592592592592],[0.14343750000000005,-0.4559259259259259],[0.15552083333333327,-0.4705555555555556],[0.1634375000000001,-0.4540740740740741],[0.1634375000000001,-0.4540740740740741],[0.1554166666666667,-0.44296296296296295],[0.1349999999999999,-0.4264814814814815],[0.11687500000000005,-0.4088888888888889],[0.10770833333333343,-0.35703703703703704],[0.10770833333333343,-0.35703703703703704],[0.053125,-0.31444444444444447],[0.003125,-0.2640740740740741],[-0.0265625,-0.2064814814814815],[-0.065625,-0.12629629629629627],[-0.11083333333333331,-0.07703703703703708],[-0.11083333333333331,-0.07703703703703708],[-0.1514583333333333,-0.06351851851851854],[-0.17562500000000003,-0.04055555555555551],[-0.20375000000000001,-0.02444444444444453],[-0.2341666666666666,-0.009444444444444486],[-0.2241666666666667,-0.010185185185185186],[-0.19249999999999995,-0.0003703703703704546],[-0.13927083333333337,-0.021851851851851768],[-0.09187500000000005,-0.05277777777777778],[-0.06979166666666667,-0.07240740740740745],[-0.06979166666666667,-0.07240740740740745],[-0.04770833333333328,-0.09203703703703701],[-0.01270833333333338,-0.1175925925925926],[0.014374999999999952,-0.12388888888888884],[0.03239583333333336,-0.13370370370370369],[0.050416666666666644,-0.14351851851851852],[0.035104166666666714,-0.1609259259259259],[0.03343750000000002,-0.17111111111111107],[0.009062500000000048,-0.17166666666666663],[-0.008229166666666643,-0.1772222222222222],[-0.00604166666666662,-0.1588888888888889],[-0.003854166666666714,-0.14055555555555552],[-0.018229166666666668,-0.11962962962962967],[-0.02520833333333338,-0.122037037037037],[-0.02166666666666662,-0.08185185185185183],[-0.02166666666666662,-0.08185185185185183],[-0.018124999999999978,-0.041666666666666664],[-0.011354166666666643,-0.02629629629629638],[0.01427083333333338,-0.03777777777777774],[0.03937499999999995,-0.025185185185185227],[0.057395833333333354,-0.007592592592592635],[0.0859375,-0.02962962962962963],[0.10458333333333343,-0.051111111111111156],[0.11260416666666657,-0.02092592592592584],[0.11937499999999991,-0.02444444444444453],[0.12427083333333329,-0.07537037037037035],[0.14072916666666657,-0.1264814814814815],[0.14072916666666657,-0.1264814814814815],[0.15281250000000005,-0.1735185185185185],[0.15281250000000005,-0.1735185185185185],[0.16072916666666662,-0.17185185185185187],[0.16333333333333327,-0.20314814814814813],[0.16875,-0.21481481481481482],[0.16375000000000003,-0.2192592592592592],[0.16375000000000003,-0.2192592592592592],[0.16760416666666675,-0.21277777777777773],[0.20083333333333328,-0.23962962962962958],[0.2353125000000001,-0.23277777777777775],[0.2742708333333333,-0.1992592592592593],[0.2742708333333333,-0.1992592592592593],[0.28364583333333326,-0.20833333333333334],[0.2868750000000001,-0.22259259259259256],[0.27541666666666675,-0.25870370370370366],[0.27333333333333343,-0.26888888888888884],[0.26843750000000005,-0.29870370370370375],[0.2709374999999999,-0.3111111111111111],[0.28395833333333326,-0.3248148148148148],[0.2626041666666666,-0.32944444444444443],[0.2412499999999999,-0.334074074074074],[0.2150000000000001,-0.3562962962962963],[0.21302083333333333,-0.3557407407407408],[0.23333333333333334,-0.3542592592592593],[0.25364583333333335,-0.3527777777777778],[0.25364583333333335,-0.3527777777777778],[0.2621875000000001,-0.3516666666666666],[0.2613541666666668,-0.3303703703703703],[0.24583333333333332,-0.35351851851851845],[0.23927083333333338,-0.37833333333333335],[0.23541666666666666,-0.40629629629629627],[0.23156249999999995,-0.43425925925925923],[0.25447916666666665,-0.47074074074074074],[0.2711458333333333,-0.4872222222222223],[0.26875,-0.48277777777777775],[0.26895833333333335,-0.4792592592592593],[0.2669791666666666,-0.47129629629629627],[0.2669791666666666,-0.47129629629629627],[0.2742708333333333,-0.4770370370370371],[0.30583333333333323,-0.4644444444444445],[0.3189583333333334,-0.46037037037037043],[0.3189583333333334,-0.46037037037037043],[0.3132291666666667,-0.4742592592592593],[0.31260416666666657,-0.4842592592592593],[0.2860416666666666,-0.48648148148148146],[0.25770833333333343,-0.4824074074074074],[0.23385416666666667,-0.48499999999999993],[0.23385416666666667,-0.48499999999999993],[0.2211458333333333,-0.4770370370370371],[0.22989583333333338,-0.465],[0.20895833333333325,-0.44666666666666666],[0.18270833333333342,-0.4346296296296296],[0.15625,-0.41222222222222227],[0.16083333333333344,-0.3761111111111112],[0.14645833333333325,-0.33351851851851855],[0.14645833333333325,-0.33351851851851855],[0.15458333333333343,-0.3153703703703704],[0.13166666666666677,-0.3148148148148148],[0.1,-0.28962962962962957],[0.09520833333333342,-0.27240740740740743],[0.06822916666666666,-0.2625925925925926],[0.07104166666666671,-0.2655555555555555],[0.06020833333333329,-0.24148148148148144],[0.06364583333333336,-0.2403703703703704],[0.06322916666666671,-0.23962962962962958],[0.05427083333333336,-0.29240740740740734],[0.04864583333333338,-0.3085185185185186],[0.07197916666666657,-0.2783333333333334],[0.10802083333333339,-0.26962962962962966],[0.06593749999999995,-0.2675925925925926],[0.03947916666666664,-0.2561111111111111],[0.017499999999999953,-0.24444444444444444],[0.0034374999999999527,-0.25148148148148153],[-0.0125,-0.23925925925925923],[-0.04083333333333338,-0.23055555555555557],[-0.027708333333333356,-0.1690740740740741],[-0.0421875,-0.13296296296296298],[-0.07208333333333337,-0.12629629629629627],[-0.0733333333333333,-0.12999999999999998],[-0.03229166666666667,-0.10907407407407403],[0.013541666666666667,-0.11574074074074074],[0.027291666666666714,-0.11722222222222224],[0.03968750000000002,-0.1227777777777778],[0.03197916666666671,-0.12685185185185185],[0.050729166666666714,-0.12222222222222222],[0.04906250000000002,-0.10240740740740743],[0.05302083333333331,-0.07314814814814814],[0.08114583333333343,-0.06444444444444447],[0.0655208333333333,-0.03148148148148148],[0.06458333333333334,-0.060555555555555536],[0.05375000000000003,-0.05814814814814811],[0.05375000000000003,-0.05814814814814811],[0.08177083333333333,-0.09537037037037037],[0.10052083333333334,-0.08814814814814818],[0.12625000000000006,-0.11777777777777781],[0.12625000000000006,-0.11777777777777781],[0.1408333333333334,-0.18111111111111114],[0.17000000000000004,-0.2814814814814815],[0.19979166666666662,-0.42407407407407405],[0.21281249999999996,-0.524074074074074],[0.21260416666666657,-0.6270370370370371],[0.22916666666666666,-0.7437037037037038],[0.20572916666666666,-0.7683333333333333],[0.2009375000000001,-0.7451851851851852],[0.20145833333333343,-0.7505555555555555],[0.20145833333333343,-0.7505555555555555],[0.20437500000000006,-0.7468518518518519],[0.2078125,-0.6948148148148148],[0.21479166666666671,-0.665],[0.21083333333333343,-0.5403703703703704],[0.21875,-0.4433333333333333],[0.25635416666666655,-0.4094444444444445],[0.25635416666666655,-0.4094444444444445],[0.26572916666666657,-0.2892592592592592],[0.30437500000000006,-0.26351851851851854],[0.309375,-0.21888888888888886],[0.3182291666666667,-0.17462962962962966],[0.3182291666666667,-0.17462962962962966],[0.30708333333333326,-0.11185185185185181],[0.3109375,-0.1096296296296296],[0.32270833333333326,-0.07814814814814813],[0.32270833333333326,-0.07814814814814813],[0.3064583333333334,-0.07537037037037035],[0.3004166666666668,-0.10981481481481484],[0.27843749999999995,-0.08203703703703706],[0.24749999999999991,-0.057777777777777754],[0.22041666666666657,-0.08259259259259263],[0.19000000000000009,-0.125],[0.16437499999999997,-0.14648148148148152],[0.1423958333333334,-0.175],[0.13989583333333327,-0.16129629629629633],[0.05697916666666671,-0.09018518518518516],[0.043020833333333286,-0.09222222222222225],[0.043020833333333286,-0.09222222222222225],[0.034687499999999954,-0.11129629629629634],[0.06322916666666671,-0.1287037037037037],[0.08052083333333329,-0.13240740740740742],[0.10125000000000005,-0.0764814814814815],[0.12687499999999996,-0.0787037037037037],[0.15656249999999997,-0.10907407407407403],[0.20114583333333325,-0.13129629629629624],[0.20114583333333325,-0.13129629629629624],[0.20656249999999995,-0.17518518518518522],[0.24093749999999994,-0.2512962962962963],[0.24364583333333342,-0.27685185185185185],[0.24364583333333342,-0.27685185185185185],[0.2365624999999999,-0.27981481481481485],[0.2365624999999999,-0.27981481481481485],[0.1990624999999999,-0.2646296296296296],[0.1961458333333333,-0.317037037037037],[0.20677083333333332,-0.36944444444444446],[0.21479166666666671,-0.3731481481481482],[0.21479166666666671,-0.3731481481481482],[0.20031249999999995,-0.3901851851851852],[0.19635416666666666,-0.35537037037037034],[0.21218750000000006,-0.3362962962962963],[0.25031249999999994,-0.3118518518518518],[0.2685416666666666,-0.3207407407407407],[0.28072916666666664,-0.29796296296296293],[0.30281250000000004,-0.3177777777777778],[0.2865624999999999,-0.272037037037037],[0.3033333333333334,-0.2770370370370371],[0.3232291666666666,-0.29870370370370375],[0.3234375,-0.2764814814814815],[0.3081249999999999,-0.30481481481481487],[0.3081249999999999,-0.30481481481481487],[0.28854166666666664,-0.29018518518518516],[0.2711458333333333,-0.30351851851851847],[0.2711458333333333,-0.30351851851851847],[0.28843750000000007,-0.31666666666666665],[0.321875,-0.34444444444444444],[0.3492708333333333,-0.3638888888888889],[0.39072916666666657,-0.4359259259259259],[0.3914583333333333,-0.4892592592592592],[0.4010416666666667,-0.49796296296296294],[0.4010416666666667,-0.49796296296296294],[0.43947916666666675,-0.5348148148148149],[0.44468750000000007,-0.5322222222222222],[0.4415625000000001,-0.5216666666666666],[0.43875000000000003,-0.5020370370370371],[0.43562500000000004,-0.47092592592592597],[0.43562500000000004,-0.47092592592592597],[0.42697916666666674,-0.43851851851851853],[0.37958333333333344,-0.3531481481481481],[0.3311458333333334,-0.2807407407407408],[0.3311458333333334,-0.2807407407407408],[0.2838541666666667,-0.20925925925925926],[0.23937499999999995,-0.18037037037037032],[0.1868750000000001,-0.13092592592592592],[0.19041666666666662,-0.1411111111111111],[0.18447916666666658,-0.15185185185185185],[0.15791666666666657,-0.15722222222222218],[0.12145833333333324,-0.16444444444444448],[0.07833333333333338,-0.14148148148148143],[0.0740624999999999,-0.19611111111111107],[0.0765625,-0.19370370370370374],[0.05385416666666672,-0.2088888888888889],[0.05562499999999997,-0.207962962962963],[0.044270833333333336,-0.19037037037037038],[0.04239583333333338,-0.14870370370370373],[0.02666666666666669,-0.1646296296296296],[0.05552083333333328,-0.18870370370370365],[0.08729166666666661,-0.2264814814814815],[0.1337500000000001,-0.2729629629629629],[0.175,-0.2718518518518519],[0.2397916666666667,-0.3044444444444444],[0.3320833333333333,-0.3087037037037037],[0.3459374999999999,-0.33240740740740743],[0.38125,-0.3931481481481482],[0.38125,-0.3931481481481482],[0.3892708333333334,-0.5442592592592592],[0.4048958333333334,-0.5887037037037036],[0.3910416666666668,-0.6394444444444445],[0.3728125000000001,-0.6103703703703705],[0.33697916666666666,-0.612037037037037],[0.33697916666666666,-0.612037037037037],[0.3081249999999999,-0.6088888888888889],[0.28062500000000007,-0.5996296296296296],[0.2021874999999999,-0.5957407407407407],[0.15989583333333332,-0.5794444444444444],[0.13635416666666675,-0.5414814814814815],[0.11864583333333342,-0.4287037037037037],[0.11770833333333333,-0.3972222222222222],[0.14541666666666658,-0.3507407407407407],[0.12302083333333323,-0.35481481481481486],[0.12302083333333323,-0.35481481481481486],[0.12854166666666675,-0.32222222222222224],[0.12854166666666675,-0.32222222222222224],[0.13427083333333342,-0.3007407407407407],[0.10114583333333324,-0.3081481481481481],[0.11510416666666666,-0.31148148148148147],[0.12479166666666662,-0.33296296296296296],[0.12479166666666662,-0.33296296296296296],[0.1345833333333334,-0.3531481481481481],[0.13781249999999995,-0.35833333333333334],[0.1430208333333333,-0.36796296296296294]]","[[-0.8696875,0.5140740740740741,0.00020000000297670795],[-0.8696875,0.5140740740740741,0.057100000001490514],[-0.8528125000000001,0.5137037037037037,0.06260000000148835],[-0.8528125000000001,0.5137037037037037,0.07310000000148875],[-0.8522916666666667,0.5085185185185186,0.08960000000148938],[-0.8341666666666666,0.5222222222222223,0.10990000000595757],[-0.8341666666666666,0.5222222222222223,0.12650000000000006],[-0.8334375,0.5116666666666666,0.1399000000059587],[-0.8465625,0.48648148148148157,0.15680000000446626],[-0.8611458333333334,0.5005555555555554,0.17810000000148563],[-0.88875,0.5540740740740742,0.19330000000447],[-0.88875,0.5540740740740742,0.20649999999999835],[-0.8914583333333332,0.5361111111111111,0.2453000000044696],[-0.8914583333333332,0.5361111111111111,0.2524999999999977],[-0.8914583333333332,0.5361111111111111,0.2563000000044653],[-0.8734375,0.4975925925925927,0.27320000000297995],[-0.7929166666666667,0.48574074074074064,0.2919000000059597],[-0.7309375,0.37296296296296294,0.3088000000044673],[-0.6615625,0.2564814814814815,0.32290000000595853],[-0.5933333333333334,0.11925925925925922,0.33970000000297773],[-0.5044791666666667,0.020740740740740823,0.35760000000149006],[-0.40572916666666664,-0.041666666666666664,0.37320000000298137],[-0.30489583333333337,-0.10259259259259255,0.38960000000148653],[-0.2586458333333333,-0.15537037037037033,0.406300000004471],[-0.190625,-0.19037037037037038,0.4230000000000018],[-0.14968750000000006,-0.22407407407407406,0.44090000000596064],[-0.1516666666666667,-0.30111111111111116,0.4562000000029798],[-0.1516666666666667,-0.30111111111111116,0.4732000000029757],[-0.16072916666666662,-0.24759259259259256,0.4897000000029763],[-0.15187499999999995,-0.2192592592592592,0.5064000000059607],[-0.18999999999999997,-0.18870370370370365,0.5242000000029776],[-0.19489583333333335,-0.1824074074074074,0.5397000000029806],[-0.2163541666666667,-0.1559259259259259,0.5588000000044673],[-0.24343750000000006,-0.1527777777777778,0.574900000005961],[-0.2313541666666667,-0.16944444444444445,0.5942000000029779],[-0.2313541666666667,-0.16944444444444445,0.6064000000059622],[-0.21312500000000004,-0.17407407407407408,0.6231000000014859],[-0.22645833333333332,-0.1588888888888889,0.6396000000014865],[-0.2376041666666667,-0.14166666666666666,0.6562000000029755],[-0.2376041666666667,-0.14166666666666666,0.6732000000029785],[-0.2345833333333334,-0.16518518518518516,0.6896000000014908],[-0.2345833333333334,-0.16518518518518516,0.7064000000059565],[-0.21864583333333332,-0.24166666666666667,0.7264000000059596],[-0.1892708333333334,-0.2644444444444445,0.7413000000044718],[-0.24593750000000003,-0.2611111111111111,0.7564999999999955],[-0.23885416666666662,-0.3059259259259259,0.774300000004466],[-0.24406249999999996,-0.3225925925925926,0.7896000000014851],[-0.25833333333333336,-0.3568518518518518,0.8078000000044696],[-0.2773958333333333,-0.4074074074074074,0.8230000000000004],[-0.2904166666666666,-0.43388888888888894,0.8440000000000012],[-0.2751041666666667,-0.4764814814814815,0.8596000000014854],[-0.27364583333333337,-0.5437037037037038,0.8764000000059582],[-0.3225,-0.5268518518518519,0.8930000000000007],[-0.34125,-0.5212962962962963,0.9089999999999989],[-0.32135416666666666,-0.5138888888888888,0.9284999999999997],[-0.35489583333333335,-0.48703703703703705,0.9442000000029793],[-0.3366666666666667,-0.542962962962963,0.9587000000029775],[-0.2919791666666666,-0.5798148148148149,0.9732000000029757],[-0.2842708333333333,-0.5987037037037037,0.9901000000014903],[-0.2677083333333333,-0.6325925925925926,1.0118000000044702],[-0.25416666666666665,-0.6548148148148148,1.0259000000059615],[-0.24114583333333334,-0.6568518518518518,1.0397000000029806],[-0.19968750000000005,-0.6562962962962963,1.059400000005958],[-0.17677083333333338,-0.6659259259259259,1.0754999999999981],[-0.14312499999999997,-0.6709259259259259,1.0941000000014895],[-0.14312499999999997,-0.6709259259259259,1.1094000000059623],[-0.1252083333333334,-0.7268518518518519,1.123100000001486],[-0.12458333333333335,-0.6274074074074074,1.141200000002982],[-0.14437500000000003,-0.5301851851851852,1.1565000000000012],[-0.05489583333333338,-0.48055555555555557,1.1776000000014903],[-0.007500000000000047,-0.4324074074074074,1.1927000000029793],[-0.007500000000000047,-0.4324074074074074,1.2066000000014867],[0.02833333333333338,-0.38481481481481483,1.2231000000014873],[0.05572916666666667,-0.34870370370370374,1.2424999999999997],[0.058229166666666644,-0.322037037037037,1.2619000000059586],[0.08427083333333343,-0.3296296296296296,1.2768000000044708],[0.08427083333333343,-0.3296296296296296,1.2929999999999993],[0.12979166666666658,-0.3109259259259259,1.306999999999995],[0.20083333333333328,-0.287962962962963,1.3231000000014888],[0.25770833333333343,-0.3387037037037037,1.345300000004471],[0.2947916666666667,-0.39037037037037037,1.3590000000000018],[0.2582291666666668,-0.4081481481481481,1.3733000000044697],[0.2582291666666668,-0.4081481481481481,1.3896000000014865],[0.26927083333333335,-0.4309259259259259,1.406300000004471],[0.24614583333333329,-0.4225925925925926,1.4230000000000018],[0.25031249999999994,-0.4044444444444444,1.4409000000059606],[0.27937500000000004,-0.3768518518518518,1.4562000000029798],[0.28239583333333323,-0.3803703703703703,1.4757000000029805],[0.2951041666666666,-0.3972222222222222,1.491499999999995],[0.2847916666666668,-0.3990740740740741,1.5111000000014911],[0.2751041666666666,-0.4361111111111111,1.525400000005959],[0.29885416666666675,-0.45611111111111113,1.539800000004469],[0.29885416666666675,-0.45611111111111113,1.556400000005958],[0.3226041666666667,-0.47611111111111115,1.5731000000014888],[0.3273958333333333,-0.452962962962963,1.5896000000014894],[0.35739583333333325,-0.4696296296296297,1.609499999999997],[0.35739583333333325,-0.4696296296296297,1.6229999999999976],[0.36083333333333345,-0.48111111111111116,1.639700000002982],[0.3642708333333334,-0.4925925925925926,1.6562000000029755],[0.36864583333333345,-0.5140740740740741,1.6784000000059578],[0.3207291666666668,-0.5444444444444444,1.69330000000447],[0.2913541666666667,-0.5561111111111111,1.7104999999999961],[0.24989583333333343,-0.5366666666666667,1.7329000000059622],[0.24989583333333343,-0.5366666666666667,1.739600000001488],[0.20989583333333334,-0.49296296296296294,1.7564000000059607],[0.16677083333333323,-0.4505555555555556,1.77620000000298],[0.16677083333333323,-0.4505555555555556,1.7897000000029806],[0.13489583333333333,-0.45740740740740743,1.8063000000044696],[0.11447916666666676,-0.46703703703703703,1.8252000000029796],[0.11427083333333338,-0.47481481481481475,1.8396000000014894],[0.1140625,-0.48259259259259263,1.8584999999999994],[0.10020833333333339,-0.44611111111111107,1.8729999999999976],[0.10020833333333339,-0.44611111111111107,1.892700000002982],[0.09854166666666657,-0.4242592592592593,1.9068000000044663],[0.1318749999999999,-0.387037037037037,1.9232000000029785],[0.1765625,-0.3087037037037037,1.9442000000029793],[0.1765625,-0.3087037037037037,1.9562000000029798],[0.19520833333333343,-0.3266666666666666,1.9734000000059595],[0.21760416666666677,-0.2905555555555555,1.9898000000044718],[0.2730208333333332,-0.25851851851851854,2.0068000000044677],[0.2730208333333332,-0.25851851851851854,2.0229000000059614],[0.3099999999999999,-0.21203703703703702,2.039800000004469],[0.3099999999999999,-0.21203703703703702,2.056200000002981],[0.3229166666666667,-0.18203703703703705,2.0784000000059564],[0.30270833333333325,-0.1346296296296296,2.0954000000059594],[0.30270833333333325,-0.1346296296296296,2.1063000000044667],[0.28135416666666657,-0.09018518518518516,2.1229000000059557],[0.27312500000000006,-0.06425925925925924,2.140100000001489],[0.23875000000000005,-0.05907407407407403,2.1564000000059593],[0.2,-0.09611111111111106,2.1779000000059554],[0.2,-0.09611111111111106,2.1899999999999977],[0.2196875000000001,-0.06518518518518517,2.2066000000014867],[0.22291666666666668,-0.08888888888888889,2.223700000002978],[0.1915625000000001,-0.09759259259259258,2.242200000002981],[0.16749999999999995,-0.12740740740740744,2.262100000001489],[0.16749999999999995,-0.12740740740740744,2.2731000000014916],[0.16635416666666672,-0.1514814814814815,2.2894999999999968],[0.19718749999999996,-0.2051851851851852,2.309100000001486],[0.24989583333333343,-0.2574074074074074,2.3229000000059585],[0.2998958333333334,-0.2722222222222222,2.3397000000029777],[0.340625,-0.29870370370370375,2.3592000000029785],[0.3858333333333334,-0.31148148148148147,2.3736000000014883],[0.3835416666666667,-0.3362962962962963,2.390100000001489],[0.4025000000000001,-0.3635185185185185,2.4094000000059594],[0.41072916666666665,-0.37481481481481477,2.428800000004472],[0.41166666666666674,-0.36500000000000005,2.4432000000029817],[0.41166666666666674,-0.36500000000000005,2.4562000000029798],[0.3723958333333333,-0.3461111111111111,2.4731000000014873],[0.3037499999999999,-0.30462962962962964,2.489600000001488],[0.2445833333333333,-0.2566666666666667,2.5067000000029793],[0.17958333333333343,-0.21500000000000005,2.5257000000029777],[0.1412499999999999,-0.18629629629629635,2.5403000000044713],[0.1412499999999999,-0.18629629629629635,2.556400000005958],[0.0962500000000001,-0.15722222222222218,2.5729000000059585],[0.05,-0.16148148148148145,2.5897000000029777],[-0.002499999999999976,-0.14444444444444443,2.609800000004469],[-0.042499999999999954,-0.13055555555555556,2.624200000002979],[-0.042499999999999954,-0.13055555555555556,2.6396000000014865],[-0.07260416666666672,-0.11685185185185189,2.6562000000029755],[-0.10031249999999996,-0.10351851851851848,2.673000000000002],[-0.08718750000000004,-0.09537037037037037,2.6917000000029816],[-0.08718750000000004,-0.09537037037037037,2.7064000000059565],[-0.10239583333333328,-0.11388888888888889,2.722900000005957],[-0.0967708333333333,-0.11481481481481481,2.7397000000029763],[-0.13031250000000003,-0.11407407407407412,2.756200000002977],[-0.15197916666666664,-0.11629629629629631,2.776800000004471],[-0.15197916666666664,-0.11629629629629631,2.7897000000029806],[-0.17999999999999997,-0.08629629629629634,2.8064999999999998],[-0.18760416666666668,-0.05240740740740743,2.8230000000000004],[-0.15416666666666667,-0.07851851851851847,2.8397000000029777],[-0.13385416666666666,-0.10555555555555556,2.8594000000059623],[-0.08645833333333333,-0.11074074074074076,2.8752000000029767],[-0.05645833333333338,-0.12333333333333338,2.8922000000029797],[0.0017708333333333807,-0.1388888888888889,2.908999999999999],[0.029999999999999954,-0.19296296296296295,2.928600000001488],[0.029999999999999954,-0.19296296296296295,2.939600000001491],[0.08364583333333328,-0.21444444444444447,2.9566000000014867],[0.11479166666666671,-0.2381481481481482,2.977100000001485],[0.15750000000000006,-0.2727777777777778,2.992999999999995],[0.15750000000000006,-0.2727777777777778,3.006200000002977],[0.1806250000000001,-0.32833333333333337,3.022999999999996],[0.18093750000000006,-0.3331481481481481,3.0394999999999968],[0.18093750000000006,-0.3331481481481481,3.056200000002981],[0.18447916666666658,-0.3368518518518518,3.0731000000014888],[0.1709374999999999,-0.365925925925926,3.0896000000014894],[0.17458333333333323,-0.40129629629629626,3.109499999999997],[0.16020833333333329,-0.4166666666666667,3.123100000001486],[0.15031249999999996,-0.4192592592592592,3.140100000001489],[0.14343750000000005,-0.4559259259259259,3.1562000000029755],[0.15552083333333327,-0.4705555555555556,3.173000000000002],[0.1634375000000001,-0.4540740740740741,3.192600000001491],[0.1634375000000001,-0.4540740740740741,3.2064000000059565],[0.1554166666666667,-0.44296296296296295,3.222900000005957],[0.1349999999999999,-0.4264814814814815,3.239600000001488],[0.11687500000000005,-0.4088888888888889,3.2563000000044653],[0.10770833333333343,-0.35703703703703704,3.2761000000014917],[0.10770833333333343,-0.35703703703703704,3.2897000000029806],[0.053125,-0.31444444444444447,3.306600000001488],[0.003125,-0.2640740740740741,3.3229000000059585],[-0.0265625,-0.2064814814814815,3.339500000000001],[-0.065625,-0.12629629629629627,3.3594000000059623],[-0.11083333333333331,-0.07703703703703708,3.3736000000014883],[-0.11083333333333331,-0.07703703703703708,3.389700000002982],[-0.1514583333333333,-0.06351851851851854,3.406300000004471],[-0.17562500000000003,-0.04055555555555551,3.4279999999999973],[-0.20375000000000001,-0.02444444444444453,3.4428000000044676],[-0.2341666666666666,-0.009444444444444486,3.456300000004468],[-0.2241666666666667,-0.010185185185185186,3.476900000005962],[-0.19249999999999995,-0.0003703703703704546,3.4901000000014903],[-0.13927083333333337,-0.021851851851851768,3.5063000000044653],[-0.09187500000000005,-0.05277777777777778,3.524300000004466],[-0.06979166666666667,-0.07240740740740745,3.540900000005962],[-0.06979166666666667,-0.07240740740740745,3.556200000002981],[-0.04770833333333328,-0.09203703703703701,3.5731000000014888],[-0.01270833333333338,-0.1175925925925926,3.5896000000014894],[0.014374999999999952,-0.12388888888888884,3.609700000002981],[0.03239583333333336,-0.13370370370370369,3.6266000000014884],[0.050416666666666644,-0.14351851851851852,3.641900000005961],[0.035104166666666714,-0.1609259259259259,3.6583000000044663],[0.03343750000000002,-0.17111111111111107,3.673000000000002],[0.009062500000000048,-0.17166666666666663,3.691499999999998],[-0.008229166666666643,-0.1772222222222222,3.7087000000029775],[-0.00604166666666662,-0.1588888888888889,3.7232000000029757],[-0.003854166666666714,-0.14055555555555552,3.7401000000014903],[-0.018229166666666668,-0.11962962962962967,3.7563000000044653],[-0.02520833333333338,-0.122037037037037,3.7753000000044707],[-0.02166666666666662,-0.08185185185185183,3.789999999999999],[-0.02166666666666662,-0.08185185185185183,3.806400000005958],[-0.018124999999999978,-0.041666666666666664,3.8233000000044655],[-0.011354166666666643,-0.02629629629629638,3.8396000000014894],[0.01427083333333338,-0.03777777777777774,3.8581000000014853],[0.03937499999999995,-0.025185185185185227,3.8729999999999976],[0.057395833333333354,-0.007592592592592635,3.8896000000014865],[0.0859375,-0.02962962962962963,3.9069999999999965],[0.10458333333333343,-0.051111111111111156,3.9228000000044716],[0.11260416666666657,-0.02092592592592584,3.943100000001486],[0.11937499999999991,-0.02444444444444453,3.9576000000014915],[0.12427083333333329,-0.07537037037037035,3.9736000000014897],[0.14072916666666657,-0.1264814814814815,3.9924999999999997],[0.14072916666666657,-0.1264814814814815,4.0064999999999955],[0.15281250000000005,-0.1735185185185185,4.028500000000001],[0.15281250000000005,-0.1735185185185185,4.04810000000149],[0.16072916666666662,-0.17185185185185187,4.056400000005958],[0.16333333333333327,-0.20314814814814813,4.073400000005961],[0.16875,-0.21481481481481482,4.089700000002978],[0.16375000000000003,-0.2192592592592592,4.110100000001488],[0.16375000000000003,-0.2192592592592592,4.122900000005956],[0.16760416666666675,-0.21277777777777773,4.1396000000014865],[0.20083333333333328,-0.23962962962962958,4.156300000004471],[0.2353125000000001,-0.23277777777777775,4.178400000005958],[0.2742708333333333,-0.1992592592592593,4.1935],[0.2742708333333333,-0.1992592592592593,4.2064000000059565],[0.28364583333333326,-0.20833333333333334,4.223200000002976],[0.2868750000000001,-0.22259259259259256,4.239800000004472],[0.27541666666666675,-0.25870370370370366,4.261400000005956],[0.27333333333333343,-0.26888888888888884,4.275700000002978],[0.26843750000000005,-0.29870370370370375,4.289600000001485],[0.2709374999999999,-0.3111111111111111,4.3067000000029765],[0.28395833333333326,-0.3248148148148148,4.325300000004468],[0.2626041666666666,-0.32944444444444443,4.342999999999996],[0.2412499999999999,-0.334074074074074,4.3584000000059575],[0.2150000000000001,-0.3562962962962963,4.376100000001486],[0.21302083333333333,-0.3557407407407408,4.389700000002982],[0.23333333333333334,-0.3542592592592593,4.4084999999999965],[0.25364583333333335,-0.3527777777777778,4.428800000004472],[0.25364583333333335,-0.3527777777777778,4.439900000005956],[0.2621875000000001,-0.3516666666666666,4.45620000000298],[0.2613541666666668,-0.3303703703703703,4.476200000002976],[0.24583333333333332,-0.35351851851851845,4.492200000002981],[0.23927083333333338,-0.37833333333333335,4.510600000001489],[0.23541666666666666,-0.40629629629629627,4.525200000002975],[0.23156249999999995,-0.43425925925925923,4.539700000002981],[0.25447916666666665,-0.47074074074074074,4.559100000001486],[0.2711458333333333,-0.4872222222222223,4.5729000000059585],[0.26875,-0.48277777777777775,4.589600000001489],[0.26895833333333335,-0.4792592592592593,4.608499999999999],[0.2669791666666666,-0.47129629629629627,4.6229999999999976],[0.2669791666666666,-0.47129629629629627,4.641999999999996],[0.2742708333333333,-0.4770370370370371,4.656300000004471],[0.30583333333333323,-0.4644444444444445,4.6732000000029785],[0.3189583333333334,-0.46037037037037043,4.691200000002979],[0.3189583333333334,-0.46037037037037043,4.709300000004468],[0.3132291666666667,-0.4742592592592593,4.722999999999999],[0.31260416666666657,-0.4842592592592593,4.739600000001488],[0.2860416666666666,-0.48648148148148146,4.756200000002977],[0.25770833333333343,-0.4824074074074074,4.775700000002978],[0.23385416666666667,-0.48499999999999993,4.789499999999997],[0.23385416666666667,-0.48499999999999993,4.8065],[0.2211458333333333,-0.4770370370370371,4.823],[0.22989583333333338,-0.465,4.839600000001489],[0.20895833333333325,-0.44666666666666666,4.8592000000029785],[0.18270833333333342,-0.4346296296296296,4.8729999999999976],[0.15625,-0.41222222222222227,4.889499999999998],[0.16083333333333344,-0.3761111111111112,4.906400000005959],[0.14645833333333325,-0.33351851851851855,4.92290000000596],[0.14645833333333325,-0.33351851851851855,4.942600000001491],[0.15458333333333343,-0.3153703703703704,4.956499999999998],[0.13166666666666677,-0.3148148148148148,4.976200000002976],[0.1,-0.28962962962962957,4.99140000000596],[0.09520833333333342,-0.27240740740740743,5.006100000001489],[0.06822916666666666,-0.2625925925925926,5.025200000002975],[0.07104166666666671,-0.2655555555555555,5.039499999999997],[0.06020833333333329,-0.24148148148148144,5.0563000000044696],[0.06364583333333336,-0.2403703703703704,5.073],[0.06322916666666671,-0.23962962962962958,5.089500000000001],[0.05427083333333336,-0.29240740740740734,5.110999999999997],[0.04864583333333338,-0.3085185185185186,5.126100000001486],[0.07197916666666657,-0.2783333333333334,5.141800000004466],[0.10802083333333339,-0.26962962962962966,5.1562000000029755],[0.06593749999999995,-0.2675925925925926,5.173000000000002],[0.03947916666666664,-0.2561111111111111,5.191400000005956],[0.017499999999999953,-0.24444444444444444,5.2076000000014915],[0.0034374999999999527,-0.25148148148148153,5.222800000004469],[-0.0125,-0.23925925925925923,5.24010000000149],[-0.04083333333333338,-0.23055555555555557,5.256200000002977],[-0.027708333333333356,-0.1690740740740741,5.275400000005959],[-0.0421875,-0.13296296296296298,5.289700000002981],[-0.07208333333333337,-0.12629629629629627,5.30690000000596],[-0.0733333333333333,-0.12999999999999998,5.32280000000447],[-0.03229166666666667,-0.10907407407407403,5.339600000001489],[0.013541666666666667,-0.11574074074074074,5.358300000004469],[0.027291666666666714,-0.11722222222222224,5.372900000005956],[0.03968750000000002,-0.1227777777777778,5.389700000002982],[0.03197916666666671,-0.12685185185185185,5.4062000000029755],[0.050729166666666714,-0.12222222222222222,5.42310000000149],[0.04906250000000002,-0.10240740740740743,5.44180000000447],[0.05302083333333331,-0.07314814814814814,5.456100000001491],[0.08114583333333343,-0.06444444444444447,5.4768000000044665],[0.0655208333333333,-0.03148148148148148,5.4919000000059555],[0.06458333333333334,-0.060555555555555536,5.510700000002977],[0.05375000000000003,-0.05814814814814811,5.526900000005959],[0.05375000000000003,-0.05814814814814811,5.539700000002981],[0.08177083333333333,-0.09537037037037037,5.556200000002981],[0.10052083333333334,-0.08814814814814818,5.575100000001491],[0.12625000000000006,-0.11777777777777781,5.589600000001489],[0.12625000000000006,-0.11777777777777781,5.606300000004467],[0.1408333333333334,-0.18111111111111114,5.622900000005956],[0.17000000000000004,-0.2814814814814815,5.6396000000014865],[0.19979166666666662,-0.42407407407407405,5.6562000000029755],[0.21281249999999996,-0.524074074074074,5.67290000000596],[0.21260416666666657,-0.6270370370370371,5.692600000001491],[0.22916666666666666,-0.7437037037037038,5.711500000000001],[0.20572916666666666,-0.7683333333333333,5.725900000005957],[0.2009375000000001,-0.7451851851851852,5.7419000000059555],[0.20145833333333343,-0.7505555555555555,5.7635000000000005],[0.20145833333333343,-0.7505555555555555,5.772900000005961],[0.20437500000000006,-0.7468518518518519,5.789800000004469],[0.2078125,-0.6948148148148148,5.806200000002981],[0.21479166666666671,-0.665,5.823],[0.21083333333333343,-0.5403703703703704,5.839600000001489],[0.21875,-0.4433333333333333,5.857999999999997],[0.25635416666666655,-0.4094444444444445,5.874200000002979],[0.25635416666666655,-0.4094444444444445,5.889499999999998],[0.26572916666666657,-0.2892592592592592,5.906300000004471],[0.30437500000000006,-0.26351851851851854,5.92290000000596],[0.309375,-0.21888888888888886,5.9421000000014885],[0.3182291666666667,-0.17462962962962966,5.95620000000298],[0.3182291666666667,-0.17462962962962966,5.972999999999999],[0.30708333333333326,-0.11185185185185181,5.99290000000596],[0.3109375,-0.1096296296296296,6.010999999999996],[0.32270833333333326,-0.07814814814814813,6.026100000001492],[0.32270833333333326,-0.07814814814814813,6.043200000002976],[0.3064583333333334,-0.07537037037037035,6.056400000005958],[0.3004166666666668,-0.10981481481481484,6.073100000001489],[0.27843749999999995,-0.08203703703703706,6.089500000000001],[0.24749999999999991,-0.057777777777777754,6.109300000004467],[0.22041666666666657,-0.08259259259259263,6.123600000001488],[0.19000000000000009,-0.125,6.14220000000298],[0.16437499999999997,-0.14648148148148152,6.156300000004471],[0.1423958333333334,-0.175,6.173499999999997],[0.13989583333333327,-0.16129629629629633,6.192600000001491],[0.05697916666666671,-0.09018518518518516,6.208600000001489],[0.043020833333333286,-0.09222222222222225,6.222900000005957],[0.043020833333333286,-0.09222222222222225,6.239600000001488],[0.034687499999999954,-0.11129629629629634,6.256200000002977],[0.06322916666666671,-0.1287037037037037,6.275700000002978],[0.08052083333333329,-0.13240740740740742,6.289800000004469],[0.10125000000000005,-0.0764814814814815,6.3089999999999975],[0.12687499999999996,-0.0787037037037037,6.324999999999996],[0.15656249999999997,-0.10907407407407403,6.3444999999999965],[0.20114583333333325,-0.13129629629629624,6.359600000001485],[0.20114583333333325,-0.13129629629629624,6.372900000005956],[0.20656249999999995,-0.17518518518518522,6.389499999999998],[0.24093749999999994,-0.2512962962962963,6.407600000001487],[0.24364583333333342,-0.27685185185185185,6.4285],[0.24364583333333342,-0.27685185185185185,6.4398000000044675],[0.2365624999999999,-0.27981481481481485,6.45620000000298],[0.2365624999999999,-0.27981481481481485,6.47790000000596],[0.1990624999999999,-0.2646296296296296,6.4895],[0.1961458333333333,-0.317037037037037,6.509499999999996],[0.20677083333333332,-0.36944444444444446,6.524499999999996],[0.21479166666666671,-0.3731481481481482,6.539499999999997],[0.21479166666666671,-0.3731481481481482,6.556400000005958],[0.20031249999999995,-0.3901851851851852,6.57280000000447],[0.19635416666666666,-0.35537037037037034,6.589700000002978],[0.21218750000000006,-0.3362962962962963,6.609499999999997],[0.25031249999999994,-0.3118518518518518,6.626999999999995],[0.2685416666666666,-0.3207407407407407,6.643000000000001],[0.28072916666666664,-0.29796296296296293,6.65720000000298],[0.30281250000000004,-0.3177777777777778,6.673000000000002],[0.2865624999999999,-0.272037037037037,6.693800000004465],[0.3033333333333334,-0.2770370370370371,6.709900000005959],[0.3232291666666666,-0.29870370370370375,6.725000000000001],[0.3234375,-0.2764814814814815,6.739800000004472],[0.3081249999999999,-0.30481481481481487,6.76180000000447],[0.3081249999999999,-0.30481481481481487,6.773100000001492],[0.28854166666666664,-0.29018518518518516,6.789700000002981],[0.2711458333333333,-0.30351851851851847,6.811300000004472],[0.2711458333333333,-0.30351851851851847,6.8229000000059585],[0.28843750000000007,-0.31666666666666665,6.839700000002978],[0.321875,-0.34444444444444444,6.859300000004467],[0.3492708333333333,-0.3638888888888889,6.8762000000029815],[0.39072916666666657,-0.4359259259259259,6.889900000005959],[0.3914583333333333,-0.4892592592592592,6.908000000000001],[0.4010416666666667,-0.49796296296296294,6.928700000002976],[0.4010416666666667,-0.49796296296296294,6.939499999999995],[0.43947916666666675,-0.5348148148148149,6.95620000000298],[0.44468750000000007,-0.5322222222222222,6.9765000000000015],[0.4415625000000001,-0.5216666666666666,6.991100000001488],[0.43875000000000003,-0.5020370370370371,7.0064999999999955],[0.43562500000000004,-0.47092592592592597,7.0274000000059615],[0.43562500000000004,-0.47092592592592597,7.040999999999997],[0.42697916666666674,-0.43851851851851853,7.056400000005958],[0.37958333333333344,-0.3531481481481481,7.0752000000029796],[0.3311458333333334,-0.2807407407407408,7.093800000004471],[0.3311458333333334,-0.2807407407407408,7.106300000004467],[0.2838541666666667,-0.20925925925925926,7.122800000004467],[0.23937499999999995,-0.18037037037037032,7.142100000001491],[0.1868750000000001,-0.13092592592592592,7.156300000004471],[0.19041666666666662,-0.1411111111111111,7.173000000000002],[0.18447916666666658,-0.15185185185185185,7.191700000002982],[0.15791666666666657,-0.15722222222222218,7.207499999999996],[0.12145833333333324,-0.16444444444444448,7.222800000004469],[0.07833333333333338,-0.14148148148148143,7.239600000001488],[0.0740624999999999,-0.19611111111111107,7.256300000004465],[0.0765625,-0.19370370370370374,7.277100000001489],[0.05385416666666672,-0.2088888888888889,7.293100000001488],[0.05562499999999997,-0.207962962962963,7.30990000000596],[0.044270833333333336,-0.19037037037037038,7.324100000001486],[0.04239583333333338,-0.14870370370370373,7.345200000002976],[0.02666666666666669,-0.1646296296296296,7.359300000004467],[0.05552083333333328,-0.18870370370370365,7.37330000000447],[0.08729166666666661,-0.2264814814814815,7.3896000000014865],[0.1337500000000001,-0.2729629629629629,7.4062000000029755],[0.175,-0.2718518518518519,7.42290000000596],[0.2397916666666667,-0.3044444444444444,7.441600000001486],[0.3320833333333333,-0.3087037037037037,7.456100000001491],[0.3459374999999999,-0.33240740740740743,7.475900000005957],[0.38125,-0.3931481481481482,7.495200000002981],[0.38125,-0.3931481481481482,7.5064999999999955],[0.3892708333333334,-0.5442592592592592,7.522999999999996],[0.4048958333333334,-0.5887037037037036,7.539999999999999],[0.3910416666666668,-0.6394444444444445,7.5595],[0.3728125000000001,-0.6103703703703705,7.5748000000044655],[0.33697916666666666,-0.612037037037037,7.589800000004466],[0.33697916666666666,-0.612037037037037,7.606300000004467],[0.3081249999999999,-0.6088888888888889,7.622800000004467],[0.28062500000000007,-0.5996296296296296,7.6428000000044705],[0.2021874999999999,-0.5957407407407407,7.656700000002978],[0.15989583333333332,-0.5794444444444444,7.67290000000596],[0.13635416666666675,-0.5414814814814815,7.692700000002979],[0.11864583333333342,-0.4287037037037037,7.712100000001492],[0.11770833333333333,-0.3972222222222222,7.725800000004469],[0.14541666666666658,-0.3507407407407407,7.741100000001488],[0.12302083333333323,-0.35481481481481486,7.763700000002977],[0.12302083333333323,-0.35481481481481486,7.774100000001489],[0.12854166666666675,-0.32222222222222224,7.790999999999997],[0.12854166666666675,-0.32222222222222224,7.8063000000044696],[0.13427083333333342,-0.3007407407407407,7.825499999999998],[0.10114583333333324,-0.3081481481481481,7.843499999999999],[0.11510416666666666,-0.31148148148148147,7.858300000004469],[0.12479166666666662,-0.33296296296296296,7.872900000005956],[0.12479166666666662,-0.33296296296296296,7.889499999999998],[0.1345833333333334,-0.3531481481481481,7.906400000005959],[0.13781249999999995,-0.35833333333333334,7.92290000000596],[0.1430208333333333,-0.36796296296296294,7.940900000005961]]","[0.00020000000297670795,0.057100000001490514,0.06260000000148835,0.07310000000148875,0.08960000000148938,0.10990000000595757,0.12650000000000006,0.1399000000059587,0.15680000000446626,0.17810000000148563,0.19330000000447,0.20649999999999835,0.2453000000044696,0.2524999999999977,0.2563000000044653,0.27320000000297995,0.2919000000059597,0.3088000000044673,0.32290000000595853,0.33970000000297773,0.35760000000149006,0.37320000000298137,0.38960000000148653,0.406300000004471,0.4230000000000018,0.44090000000596064,0.4562000000029798,0.4732000000029757,0.4897000000029763,0.5064000000059607,0.5242000000029776,0.5397000000029806,0.5588000000044673,0.574900000005961,0.5942000000029779,0.6064000000059622,0.6231000000014859,0.6396000000014865,0.6562000000029755,0.6732000000029785,0.6896000000014908,0.7064000000059565,0.7264000000059596,0.7413000000044718,0.7564999999999955,0.774300000004466,0.7896000000014851,0.8078000000044696,0.8230000000000004,0.8440000000000012,0.8596000000014854,0.8764000000059582,0.8930000000000007,0.9089999999999989,0.9284999999999997,0.9442000000029793,0.9587000000029775,0.9732000000029757,0.9901000000014903,1.0118000000044702,1.0259000000059615,1.0397000000029806,1.059400000005958,1.0754999999999981,1.0941000000014895,1.1094000000059623,1.123100000001486,1.141200000002982,1.1565000000000012,1.1776000000014903,1.1927000000029793,1.2066000000014867,1.2231000000014873,1.2424999999999997,1.2619000000059586,1.2768000000044708,1.2929999999999993,1.306999999999995,1.3231000000014888,1.345300000004471,1.3590000000000018,1.3733000000044697,1.3896000000014865,1.406300000004471,1.4230000000000018,1.4409000000059606,1.4562000000029798,1.4757000000029805,1.491499999999995,1.5111000000014911,1.525400000005959,1.539800000004469,1.556400000005958,1.5731000000014888,1.5896000000014894,1.609499999999997,1.6229999999999976,1.639700000002982,1.6562000000029755,1.6784000000059578,1.69330000000447,1.7104999999999961,1.7329000000059622,1.739600000001488,1.7564000000059607,1.77620000000298,1.7897000000029806,1.8063000000044696,1.8252000000029796,1.8396000000014894,1.8584999999999994,1.8729999999999976,1.892700000002982,1.9068000000044663,1.9232000000029785,1.9442000000029793,1.9562000000029798,1.9734000000059595,1.9898000000044718,2.0068000000044677,2.0229000000059614,2.039800000004469,2.056200000002981,2.0784000000059564,2.0954000000059594,2.1063000000044667,2.1229000000059557,2.140100000001489,2.1564000000059593,2.1779000000059554,2.1899999999999977,2.2066000000014867,2.223700000002978,2.242200000002981,2.262100000001489,2.2731000000014916,2.2894999999999968,2.309100000001486,2.3229000000059585,2.3397000000029777,2.3592000000029785,2.3736000000014883,2.390100000001489,2.4094000000059594,2.428800000004472,2.4432000000029817,2.4562000000029798,2.4731000000014873,2.489600000001488,2.5067000000029793,2.5257000000029777,2.5403000000044713,2.556400000005958,2.5729000000059585,2.5897000000029777,2.609800000004469,2.624200000002979,2.6396000000014865,2.6562000000029755,2.673000000000002,2.6917000000029816,2.7064000000059565,2.722900000005957,2.7397000000029763,2.756200000002977,2.776800000004471,2.7897000000029806,2.8064999999999998,2.8230000000000004,2.8397000000029777,2.8594000000059623,2.8752000000029767,2.8922000000029797,2.908999999999999,2.928600000001488,2.939600000001491,2.9566000000014867,2.977100000001485,2.992999999999995,3.006200000002977,3.022999999999996,3.0394999999999968,3.056200000002981,3.0731000000014888,3.0896000000014894,3.109499999999997,3.123100000001486,3.140100000001489,3.1562000000029755,3.173000000000002,3.192600000001491,3.2064000000059565,3.222900000005957,3.239600000001488,3.2563000000044653,3.2761000000014917,3.2897000000029806,3.306600000001488,3.3229000000059585,3.339500000000001,3.3594000000059623,3.3736000000014883,3.389700000002982,3.406300000004471,3.4279999999999973,3.4428000000044676,3.456300000004468,3.476900000005962,3.4901000000014903,3.5063000000044653,3.524300000004466,3.540900000005962,3.556200000002981,3.5731000000014888,3.5896000000014894,3.609700000002981,3.6266000000014884,3.641900000005961,3.6583000000044663,3.673000000000002,3.691499999999998,3.7087000000029775,3.7232000000029757,3.7401000000014903,3.7563000000044653,3.7753000000044707,3.789999999999999,3.806400000005958,3.8233000000044655,3.8396000000014894,3.8581000000014853,3.8729999999999976,3.8896000000014865,3.9069999999999965,3.9228000000044716,3.943100000001486,3.9576000000014915,3.9736000000014897,3.9924999999999997,4.0064999999999955,4.028500000000001,4.04810000000149,4.056400000005958,4.073400000005961,4.089700000002978,4.110100000001488,4.122900000005956,4.1396000000014865,4.156300000004471,4.178400000005958,4.1935,4.2064000000059565,4.223200000002976,4.239800000004472,4.261400000005956,4.275700000002978,4.289600000001485,4.3067000000029765,4.325300000004468,4.342999999999996,4.3584000000059575,4.376100000001486,4.389700000002982,4.4084999999999965,4.428800000004472,4.439900000005956,4.45620000000298,4.476200000002976,4.492200000002981,4.510600000001489,4.525200000002975,4.539700000002981,4.559100000001486,4.5729000000059585,4.589600000001489,4.608499999999999,4.6229999999999976,4.641999999999996,4.656300000004471,4.6732000000029785,4.691200000002979,4.709300000004468,4.722999999999999,4.739600000001488,4.756200000002977,4.775700000002978,4.789499999999997,4.8065,4.823,4.839600000001489,4.8592000000029785,4.8729999999999976,4.889499999999998,4.906400000005959,4.92290000000596,4.942600000001491,4.956499999999998,4.976200000002976,4.99140000000596,5.006100000001489,5.025200000002975,5.039499999999997,5.0563000000044696,5.073,5.089500000000001,5.110999999999997,5.126100000001486,5.141800000004466,5.1562000000029755,5.173000000000002,5.191400000005956,5.2076000000014915,5.222800000004469,5.24010000000149,5.256200000002977,5.275400000005959,5.289700000002981,5.30690000000596,5.32280000000447,5.339600000001489,5.358300000004469,5.372900000005956,5.389700000002982,5.4062000000029755,5.42310000000149,5.44180000000447,5.456100000001491,5.4768000000044665,5.4919000000059555,5.510700000002977,5.526900000005959,5.539700000002981,5.556200000002981,5.575100000001491,5.589600000001489,5.606300000004467,5.622900000005956,5.6396000000014865,5.6562000000029755,5.67290000000596,5.692600000001491,5.711500000000001,5.725900000005957,5.7419000000059555,5.7635000000000005,5.772900000005961,5.789800000004469,5.806200000002981,5.823,5.839600000001489,5.857999999999997,5.874200000002979,5.889499999999998,5.906300000004471,5.92290000000596,5.9421000000014885,5.95620000000298,5.972999999999999,5.99290000000596,6.010999999999996,6.026100000001492,6.043200000002976,6.056400000005958,6.073100000001489,6.089500000000001,6.109300000004467,6.123600000001488,6.14220000000298,6.156300000004471,6.173499999999997,6.192600000001491,6.208600000001489,6.222900000005957,6.239600000001488,6.256200000002977,6.275700000002978,6.289800000004469,6.3089999999999975,6.324999999999996,6.3444999999999965,6.359600000001485,6.372900000005956,6.389499999999998,6.407600000001487,6.4285,6.4398000000044675,6.45620000000298,6.47790000000596,6.4895,6.509499999999996,6.524499999999996,6.539499999999997,6.556400000005958,6.57280000000447,6.589700000002978,6.609499999999997,6.626999999999995,6.643000000000001,6.65720000000298,6.673000000000002,6.693800000004465,6.709900000005959,6.725000000000001,6.739800000004472,6.76180000000447,6.773100000001492,6.789700000002981,6.811300000004472,6.8229000000059585,6.839700000002978,6.859300000004467,6.8762000000029815,6.889900000005959,6.908000000000001,6.928700000002976,6.939499999999995,6.95620000000298,6.9765000000000015,6.991100000001488,7.0064999999999955,7.0274000000059615,7.040999999999997,7.056400000005958,7.0752000000029796,7.093800000004471,7.106300000004467,7.122800000004467,7.142100000001491,7.156300000004471,7.173000000000002,7.191700000002982,7.207499999999996,7.222800000004469,7.239600000001488,7.256300000004465,7.277100000001489,7.293100000001488,7.30990000000596,7.324100000001486,7.345200000002976,7.359300000004467,7.37330000000447,7.3896000000014865,7.4062000000029755,7.42290000000596,7.441600000001486,7.456100000001491,7.475900000005957,7.495200000002981,7.5064999999999955,7.522999999999996,7.539999999999999,7.5595,7.5748000000044655,7.589800000004466,7.606300000004467,7.622800000004467,7.6428000000044705,7.656700000002978,7.67290000000596,7.692700000002979,7.712100000001492,7.725800000004469,7.741100000001488,7.763700000002977,7.774100000001489,7.790999999999997,7.8063000000044696,7.825499999999998,7.843499999999999,7.858300000004469,7.872900000005956,7.889499999999998,7.906400000005959,7.92290000000596,7.940900000005961]","[1732592004801,1732592004847,1732592004853,1732592004863,1732592004880,1732592004900,1732592004917,1732592004930,1732592004947,1732592004968,1732592004983,1732592004997,1732592005035,1732592005043,1732592005046,1732592005063,1732592005082,1732592005099,1732592005113,1732592005130,1732592005148,1732592005163,1732592005180,1732592005196,1732592005213,1732592005231,1732592005246,1732592005263,1732592005280,1732592005296,1732592005314,1732592005330,1732592005349,1732592005365,1732592005384,1732592005396,1732592005413,1732592005430,1732592005446,1732592005463,1732592005480,1732592005497,1732592005517,1732592005531,1732592005546,1732592005564,1732592005580,1732592005598,1732592005613,1732592005634,1732592005650,1732592005666,1732592005683,1732592005699,1732592005719,1732592005734,1732592005749,1732592005763,1732592005780,1732592005802,1732592005816,1732592005830,1732592005850,1732592005866,1732592005884,1732592005900,1732592005913,1732592005931,1732592005947,1732592005968,1732592005983,1732592005997,1732592006013,1732592006033,1732592006052,1732592006067,1732592006083,1732592006097,1732592006113,1732592006135,1732592006149,1732592006163,1732592006180,1732592006196,1732592006213,1732592006231,1732592006246,1732592006266,1732592006282,1732592006301,1732592006315,1732592006330,1732592006347,1732592006363,1732592006380,1732592006400,1732592006413,1732592006430,1732592006446,1732592006469,1732592006483,1732592006501,1732592006523,1732592006530,1732592006547,1732592006566,1732592006580,1732592006596,1732592006615,1732592006630,1732592006649,1732592006663,1732592006683,1732592006697,1732592006713,1732592006734,1732592006746,1732592006763,1732592006780,1732592006797,1732592006813,1732592006830,1732592006846,1732592006869,1732592006886,1732592006897,1732592006913,1732592006930,1732592006946,1732592006968,1732592006980,1732592006997,1732592007014,1732592007032,1732592007052,1732592007063,1732592007080,1732592007099,1732592007113,1732592007130,1732592007149,1732592007164,1732592007180,1732592007199,1732592007219,1732592007233,1732592007246,1732592007263,1732592007280,1732592007297,1732592007316,1732592007330,1732592007346,1732592007363,1732592007380,1732592007400,1732592007414,1732592007430,1732592007446,1732592007463,1732592007482,1732592007496,1732592007513,1732592007530,1732592007546,1732592007567,1732592007580,1732592007597,1732592007613,1732592007630,1732592007649,1732592007665,1732592007682,1732592007699,1732592007719,1732592007730,1732592007747,1732592007767,1732592007783,1732592007796,1732592007813,1732592007830,1732592007846,1732592007863,1732592007880,1732592007900,1732592007913,1732592007930,1732592007946,1732592007963,1732592007983,1732592007996,1732592008013,1732592008030,1732592008046,1732592008066,1732592008080,1732592008097,1732592008113,1732592008130,1732592008149,1732592008164,1732592008180,1732592008196,1732592008218,1732592008233,1732592008246,1732592008267,1732592008280,1732592008296,1732592008314,1732592008331,1732592008346,1732592008363,1732592008380,1732592008400,1732592008417,1732592008432,1732592008448,1732592008463,1732592008482,1732592008499,1732592008513,1732592008530,1732592008546,1732592008565,1732592008580,1732592008596,1732592008613,1732592008630,1732592008648,1732592008663,1732592008680,1732592008697,1732592008713,1732592008733,1732592008748,1732592008764,1732592008783,1732592008797,1732592008819,1732592008838,1732592008846,1732592008864,1732592008880,1732592008900,1732592008913,1732592008930,1732592008946,1732592008968,1732592008984,1732592008996,1732592009013,1732592009030,1732592009052,1732592009066,1732592009080,1732592009097,1732592009115,1732592009133,1732592009149,1732592009166,1732592009180,1732592009199,1732592009219,1732592009230,1732592009246,1732592009266,1732592009282,1732592009301,1732592009315,1732592009330,1732592009349,1732592009363,1732592009380,1732592009399,1732592009413,1732592009432,1732592009446,1732592009463,1732592009481,1732592009499,1732592009513,1732592009530,1732592009546,1732592009566,1732592009580,1732592009597,1732592009613,1732592009630,1732592009649,1732592009663,1732592009680,1732592009696,1732592009713,1732592009733,1732592009747,1732592009766,1732592009781,1732592009796,1732592009815,1732592009830,1732592009846,1732592009863,1732592009880,1732592009901,1732592009916,1732592009932,1732592009946,1732592009963,1732592009981,1732592009998,1732592010013,1732592010030,1732592010046,1732592010065,1732592010080,1732592010097,1732592010113,1732592010130,1732592010148,1732592010163,1732592010180,1732592010196,1732592010213,1732592010232,1732592010246,1732592010267,1732592010282,1732592010301,1732592010317,1732592010330,1732592010346,1732592010365,1732592010380,1732592010396,1732592010413,1732592010430,1732592010446,1732592010463,1732592010483,1732592010502,1732592010516,1732592010532,1732592010554,1732592010563,1732592010580,1732592010596,1732592010613,1732592010630,1732592010648,1732592010664,1732592010680,1732592010696,1732592010713,1732592010732,1732592010746,1732592010763,1732592010783,1732592010801,1732592010816,1732592010833,1732592010846,1732592010863,1732592010880,1732592010899,1732592010914,1732592010932,1732592010946,1732592010964,1732592010983,1732592010999,1732592011013,1732592011030,1732592011046,1732592011066,1732592011080,1732592011099,1732592011115,1732592011135,1732592011150,1732592011163,1732592011180,1732592011198,1732592011219,1732592011230,1732592011246,1732592011268,1732592011280,1732592011300,1732592011315,1732592011330,1732592011346,1732592011363,1732592011380,1732592011400,1732592011417,1732592011433,1732592011447,1732592011463,1732592011484,1732592011500,1732592011515,1732592011530,1732592011552,1732592011563,1732592011580,1732592011601,1732592011613,1732592011630,1732592011649,1732592011666,1732592011680,1732592011698,1732592011719,1732592011730,1732592011746,1732592011767,1732592011781,1732592011797,1732592011817,1732592011831,1732592011847,1732592011865,1732592011884,1732592011896,1732592011913,1732592011932,1732592011946,1732592011963,1732592011982,1732592011998,1732592012013,1732592012030,1732592012046,1732592012067,1732592012083,1732592012100,1732592012114,1732592012135,1732592012149,1732592012163,1732592012180,1732592012196,1732592012213,1732592012232,1732592012246,1732592012266,1732592012285,1732592012296,1732592012313,1732592012330,1732592012350,1732592012365,1732592012380,1732592012396,1732592012413,1732592012433,1732592012447,1732592012463,1732592012483,1732592012502,1732592012516,1732592012531,1732592012554,1732592012564,1732592012581,1732592012596,1732592012616,1732592012634,1732592012648,1732592012663,1732592012680,1732592012696,1732592012713,1732592012731]","[[125.1,817.6],[125.1,817.6],[141.3,817.4],[141.3,817.4],[141.8,814.6],[159.2,822],[159.2,822],[159.9,816.3],[147.3,802.7],[133.3,810.3],[106.8,839.2],[106.8,839.2],[104.2,829.5],[104.2,829.5],[104.2,829.5],[121.5,808.7],[198.8,802.3],[258.3,741.4],[324.9,678.5],[390.4,604.4],[475.7,551.2],[570.5,517.5],[667.3,484.6],[711.7,456.1],[777,437.2],[816.3,419],[814.4,377.4],[814.4,377.4],[805.7,406.3],[814.2,421.6],[777.6,438.1],[772.9,441.5],[752.3,455.8],[726.3,457.5],[737.9,448.5],[737.9,448.5],[755.4,446],[742.6,454.2],[731.9,463.5],[731.9,463.5],[734.8,450.8],[734.8,450.8],[750.1,409.5],[778.3,397.2],[723.9,399],[730.7,374.8],[725.7,365.8],[712,347.3],[693.7,320],[681.2,305.7],[695.9,282.7],[697.3,246.4],[650.4,255.5],[632.4,258.5],[651.5,262.5],[619.3,277],[636.8,246.8],[679.7,226.9],[687.1,216.7],[703,198.4],[716,186.4],[728.5,185.3],[768.3,185.6],[790.3,180.4],[822.6,177.7],[822.6,177.7],[839.8,147.5],[840.4,201.2],[821.4,253.7],[907.3,280.5],[952.8,306.5],[952.8,306.5],[987.2,332.2],[1013.5,351.7],[1015.9,366.1],[1040.9,362],[1040.9,362],[1084.6,372.1],[1152.8,384.5],[1207.4,357.1],[1243,329.2],[1207.9,319.6],[1207.9,319.6],[1218.5,307.3],[1196.3,311.8],[1200.3,321.6],[1228.2,336.5],[1231.1,334.6],[1243.3,325.5],[1233.4,324.5],[1224.1,304.5],[1246.9,293.7],[1246.9,293.7],[1269.7,282.9],[1274.3,295.4],[1303.1,286.4],[1303.1,286.4],[1306.4,280.2],[1309.7,274],[1313.9,262.4],[1267.9,246],[1239.7,239.7],[1199.9,250.2],[1199.9,250.2],[1161.5,273.8],[1120.1,296.7],[1120.1,296.7],[1089.5,293],[1069.9,287.8],[1069.7,283.6],[1069.5,279.4],[1056.2,299.1],[1056.2,299.1],[1054.6,310.9],[1086.6,331],[1129.5,373.3],[1129.5,373.3],[1147.4,363.6],[1168.9,383.1],[1222.1,400.4],[1222.1,400.4],[1257.6,425.5],[1257.6,425.5],[1270,441.7],[1250.6,467.3],[1250.6,467.3],[1230.1,491.3],[1222.2,505.3],[1189.2,508.1],[1152,488.1],[1152,488.1],[1170.9,504.8],[1174,492],[1143.9,487.3],[1120.8,471.2],[1120.8,471.2],[1119.7,458.2],[1149.3,429.2],[1199.9,401],[1247.9,393],[1287,378.7],[1330.4,371.8],[1328.2,358.4],[1346.4,343.7],[1354.3,337.6],[1355.2,342.9],[1355.2,342.9],[1317.5,353.1],[1251.6,375.5],[1194.8,401.4],[1132.4,423.9],[1095.6,439.4],[1095.6,439.4],[1052.4,455.1],[1008,452.8],[957.6,462],[919.2,469.5],[919.2,469.5],[890.3,476.9],[863.7,484.1],[876.3,488.5],[876.3,488.5],[861.7,478.5],[867.1,478],[834.9,478.4],[814.1,477.2],[814.1,477.2],[787.2,493.4],[779.9,511.7],[812,497.6],[831.5,483],[877,480.2],[905.8,473.4],[961.7,465],[988.8,435.8],[988.8,435.8],[1040.3,424.2],[1070.2,411.4],[1111.2,392.7],[1111.2,392.7],[1133.4,362.7],[1133.7,360.1],[1133.7,360.1],[1137.1,358.1],[1124.1,342.4],[1127.6,323.3],[1113.8,315],[1104.3,313.6],[1097.7,293.8],[1109.3,285.9],[1116.9,294.8],[1116.9,294.8],[1109.2,300.8],[1089.6,309.7],[1072.2,319.2],[1063.4,347.2],[1063.4,347.2],[1011,370.2],[963,397.4],[934.5,428.5],[897,471.8],[853.6,498.4],[853.6,498.4],[814.6,505.7],[791.4,518.1],[764.4,526.8],[735.2,534.9],[744.8,534.5],[775.2,539.8],[826.3,528.2],[871.8,511.5],[893,500.9],[893,500.9],[914.2,490.3],[947.8,476.5],[973.8,473.1],[991.1,467.8],[1008.4,462.5],[993.7,453.1],[992.1,447.6],[968.7,447.3],[952.1,444.3],[954.2,454.2],[956.3,464.1],[942.5,475.4],[935.8,474.1],[939.2,495.8],[939.2,495.8],[942.6,517.5],[949.1,525.8],[973.7,519.6],[997.8,526.4],[1015.1,535.9],[1042.5,524],[1060.4,512.4],[1068.1,528.7],[1074.6,526.8],[1079.3,499.3],[1095.1,471.7],[1095.1,471.7],[1106.7,446.3],[1106.7,446.3],[1114.3,447.2],[1116.8,430.3],[1122,424],[1117.2,421.6],[1117.2,421.6],[1120.9,425.1],[1152.8,410.6],[1185.9,414.3],[1223.3,432.4],[1223.3,432.4],[1232.3,427.5],[1235.4,419.8],[1224.4,400.3],[1222.4,394.8],[1217.7,378.7],[1220.1,372],[1232.6,364.6],[1212.1,362.1],[1191.6,359.6],[1166.4,347.6],[1164.5,347.9],[1184,348.7],[1203.5,349.5],[1203.5,349.5],[1211.7,350.1],[1210.9,361.6],[1196,349.1],[1189.7,335.7],[1186,320.6],[1182.3,305.5],[1204.3,285.8],[1220.3,276.9],[1218,279.3],[1218.2,281.2],[1216.3,285.5],[1216.3,285.5],[1223.3,282.4],[1253.6,289.2],[1266.2,291.4],[1266.2,291.4],[1260.7,283.9],[1260.1,278.5],[1234.6,277.3],[1207.4,279.5],[1184.5,278.1],[1184.5,278.1],[1172.3,282.4],[1180.7,288.9],[1160.6,298.8],[1135.4,305.3],[1110,317.4],[1114.4,336.9],[1100.6,359.9],[1100.6,359.9],[1108.4,369.7],[1086.4,370],[1056,383.6],[1051.4,392.9],[1025.5,398.2],[1028.2,396.6],[1017.8,409.6],[1021.1,410.2],[1020.7,410.6],[1012.1,382.1],[1006.7,373.4],[1029.1,389.7],[1063.7,394.4],[1023.3,395.5],[997.9,401.7],[976.8,408],[963.3,404.2],[948,410.8],[920.8,415.5],[933.4,448.7],[919.5,468.2],[890.8,471.8],[889.6,469.8],[929,481.1],[973,477.5],[986.2,476.7],[998.1,473.7],[990.7,471.5],[1008.7,474],[1007.1,484.7],[1010.9,500.5],[1037.9,505.2],[1022.9,523],[1022,507.3],[1011.6,508.6],[1011.6,508.6],[1038.5,488.5],[1056.5,492.4],[1081.2,476.4],[1081.2,476.4],[1095.2,442.2],[1123.2,388],[1151.8,311],[1164.3,257],[1164.1,201.4],[1180,138.4],[1157.5,125.1],[1152.9,137.6],[1153.4,134.7],[1153.4,134.7],[1156.2,136.7],[1159.5,164.8],[1166.2,180.9],[1162.4,248.2],[1170,300.6],[1206.1,318.9],[1206.1,318.9],[1215.1,383.8],[1252.2,397.7],[1257,421.8],[1265.5,445.7],[1265.5,445.7],[1254.8,479.6],[1258.5,480.8],[1269.8,497.8],[1269.8,497.8],[1254.2,499.3],[1248.4,480.7],[1227.3,495.7],[1197.6,508.8],[1171.6,495.4],[1142.4,472.5],[1117.8,460.9],[1096.7,445.5],[1094.3,452.9],[1014.7,491.3],[1001.3,490.2],[1001.3,490.2],[993.3,479.9],[1020.7,470.5],[1037.3,468.5],[1057.2,498.7],[1081.8,497.5],[1110.3,481.1],[1153.1,469.1],[1153.1,469.1],[1158.3,445.4],[1191.3,404.3],[1193.9,390.5],[1193.9,390.5],[1187.1,388.9],[1187.1,388.9],[1151.1,397.1],[1148.3,368.8],[1158.5,340.5],[1166.2,338.5],[1166.2,338.5],[1152.3,329.3],[1148.5,348.1],[1163.7,358.4],[1200.3,371.6],[1217.8,366.8],[1229.5,379.1],[1250.7,368.4],[1235.1,393.1],[1251.2,390.4],[1270.3,378.7],[1270.5,390.7],[1255.8,375.4],[1255.8,375.4],[1237,383.3],[1220.3,376.1],[1220.3,376.1],[1236.9,369],[1269,354],[1295.3,343.5],[1335.1,304.6],[1335.8,275.8],[1345,271.1],[1345,271.1],[1381.9,251.2],[1386.9,252.6],[1383.9,258.3],[1381.2,268.9],[1378.2,285.7],[1378.2,285.7],[1369.9,303.2],[1324.4,349.3],[1277.9,388.4],[1277.9,388.4],[1232.5,427],[1189.8,442.6],[1139.4,469.3],[1142.8,463.8],[1137.1,458],[1111.6,455.1],[1076.6,451.2],[1035.2,463.6],[1031.1,434.1],[1033.5,435.4],[1011.7,427.2],[1013.4,427.7],[1002.5,437.2],[1000.7,459.7],[985.6,451.1],[1013.3,438.1],[1043.8,417.7],[1088.4,392.6],[1128,393.2],[1190.2,375.6],[1278.8,373.3],[1292.1,360.5],[1326,327.7],[1326,327.7],[1333.7,246.1],[1348.7,222.1],[1335.4,194.7],[1317.9,210.4],[1283.5,209.5],[1283.5,209.5],[1255.8,211.2],[1229.4,216.2],[1154.1,218.3],[1113.5,227.1],[1090.9,247.6],[1073.9,308.5],[1073,325.5],[1099.6,350.6],[1078.1,348.4],[1078.1,348.4],[1083.4,366],[1083.4,366],[1088.9,377.6],[1057.1,373.6],[1070.5,371.8],[1079.8,360.2],[1079.8,360.2],[1089.2,349.3],[1092.3,346.5],[1097.3,341.3]]","[-0.132282,0.39684600000000003]","[0.132282,0.39684600000000003]","[0.39684600000000003,0.39684600000000003]","[-0.39684600000000003,-0.39684600000000003]","[-0.39684600000000003,0.132282]","[-0.39684600000000003,-0.132282]","[-0.132282,-0.39684600000000003]","[0.132282,-0.39684600000000003]","[0.39684600000000003,-0.39684600000000003]","[-0.132282,0.132282]","[0.132282,0.132282]","[0.39684600000000003,0.132282]","[-0.132282,-0.132282]","[0.132282,-0.132282]","[0.39684600000000003,-0.132282]",0,0,0,0,1,3,Tablet,25,40,9,1,50,4,1,60,5
