inst1_resp.keys,inst1_resp.rt,calibrationMouse.x,calibrationMouse.y,calibrationMouse.leftButton,calibrationMouse.midButton,calibrationMouse.rightButton,calibrationClick.x,calibrationClick.y,calibrationClick.leftButton,calibrationClick.midButton,calibrationClick.rightButton,trialsc.thisRepN,trialsc.thisTrialN,trialsc.thisN,trialsc.thisIndex,trialsc.ran,calibration_x,calibration_y,participant,session,date,expName,psychopyVersion,OS,frameRate,calibrationClick.clicked_name,ScreenRes_pixels,Camera_pixels,mouse_2.x,mouse_2.y,mouse_2.leftButton,mouse_2.midButton,mouse_2.rightButton,mouse_2.time,mouse_2.clicked_name,mouse.x,mouse.y,mouse.leftButton,mouse.midButton,mouse.rightButton,mouse.time,mouse.clicked_name,Choice,Trial,TrialDuration,MOUSE_GAZE,ET_GAZE,ET_GAZE_x_T,time,unixTime,ET_GAZE_NF,Loc_Bus_label,Loc_Metro_label,Loc_RH_label,Loc_Cost_label,Loc_Travel_label,Loc_Comfort_label,Loc_Bus_cost,Loc_Metro_cost,Loc_RH_cost,Loc_Bus_travel,Loc_Metro_travel,Loc_RH_travel,Loc_Bus_comfort,Loc_Metro_comfort,Loc_RH_comfort,trials.thisRepN,trials.thisTrialN,trials.thisN,trials.thisIndex,trials.ran,Block,Device,RH_cost,RH_travel_time,RH_Comfort,metro_cost,metro_travel_time,metro_Comfort,Bus_cost,Bus_travel_time,Bus_Comfort
space,2.2631,-0.054166667,-0.112962963,1,0,0,-0.002083333,0.681481481,1,0,0,0,0,0,13,1,0,0.67,38,001,2024-11-27_15h07.07.686,Attention_exp_legacy,2023.1.0,Win32,59.88023952,,,,,,,,,,,,,,,,,,,,,,,,,,,,,,,,,,,,,,,,,,,,,,,,,,,,,,,,,
,,,,,,,0.007291667,-0.664814815,1,0,0,0,1,1,9,1,0,-0.67,38,001,2024-11-27_15h07.07.686,Attention_exp_legacy,2023.1.0,Win32,59.88023952,calibration_square,,,,,,,,,,,,,,,,,,,,,,,,,,,,,,,,,,,,,,,,,,,,,,,,,,,,,,,,
,,,,,,,-0.666666667,0.324074074,1,0,0,0,2,2,3,1,-0.67,0.33,38,001,2024-11-27_15h07.07.686,Attention_exp_legacy,2023.1.0,Win32,59.88023952,calibration_square,,,,,,,,,,,,,,,,,,,,,,,,,,,,,,,,,,,,,,,,,,,,,,,,,,,,,,,,
,,,,,,,0.003125,-0.009259259,1,0,0,0,3,3,11,1,0,0,38,001,2024-11-27_15h07.07.686,Attention_exp_legacy,2023.1.0,Win32,59.88023952,calibration_square,,,,,,,,,,,,,,,,,,,,,,,,,,,,,,,,,,,,,,,,,,,,,,,,,,,,,,,,
,,,,,,,0.345833333,0.016666667,1,0,0,0,4,4,16,1,0.33,0,38,001,2024-11-27_15h07.07.686,Attention_exp_legacy,2023.1.0,Win32,59.88023952,,,,,,,,,,,,,,,,,,,,,,,,,,,,,,,,,,,,,,,,,,,,,,,,,,,,,,,,,
,,,,,,,0.675,0.696296296,1,0,0,0,5,5,19,1,0.67,0.67,38,001,2024-11-27_15h07.07.686,Attention_exp_legacy,2023.1.0,Win32,59.88023952,,,,,,,,,,,,,,,,,,,,,,,,,,,,,,,,,,,,,,,,,,,,,,,,,,,,,,,,,
,,,,,,,0.322916667,0.685185185,1,0,0,0,6,6,18,1,0.33,0.67,38,001,2024-11-27_15h07.07.686,Attention_exp_legacy,2023.1.0,Win32,59.88023952,,,,,,,,,,,,,,,,,,,,,,,,,,,,,,,,,,,,,,,,,,,,,,,,,,,,,,,,,
,,,,,,,-0.00625,-0.337037037,1,0,0,0,7,7,10,1,0,-0.33,38,001,2024-11-27_15h07.07.686,Attention_exp_legacy,2023.1.0,Win32,59.88023952,calibration_square,,,,,,,,,,,,,,,,,,,,,,,,,,,,,,,,,,,,,,,,,,,,,,,,,,,,,,,,
,,,,,,,-0.33125,0.675925926,1,0,0,0,8,8,8,1,-0.33,0.67,38,001,2024-11-27_15h07.07.686,Attention_exp_legacy,2023.1.0,Win32,59.88023952,calibration_square,,,,,,,,,,,,,,,,,,,,,,,,,,,,,,,,,,,,,,,,,,,,,,,,,,,,,,,,
,,,,,,,-0.6875,-0.681481481,1,0,0,0,9,9,0,1,-0.67,-0.67,38,001,2024-11-27_15h07.07.686,Attention_exp_legacy,2023.1.0,Win32,59.88023952,,,,,,,,,,,,,,,,,,,,,,,,,,,,,,,,,,,,,,,,,,,,,,,,,,,,,,,,,
,,,,,,,-0.333333333,0.014814815,1,0,0,0,10,10,6,1,-0.33,0,38,001,2024-11-27_15h07.07.686,Attention_exp_legacy,2023.1.0,Win32,59.88023952,,,,,,,,,,,,,,,,,,,,,,,,,,,,,,,,,,,,,,,,,,,,,,,,,,,,,,,,,
,,,,,,,-0.65,-0.012962963,1,0,0,0,11,11,2,1,-0.67,0,38,001,2024-11-27_15h07.07.686,Attention_exp_legacy,2023.1.0,Win32,59.88023952,,,,,,,,,,,,,,,,,,,,,,,,,,,,,,,,,,,,,,,,,,,,,,,,,,,,,,,,,
,,,,,,,-0.346875,-0.703703704,1,0,0,0,12,12,4,1,-0.33,-0.67,38,001,2024-11-27_15h07.07.686,Attention_exp_legacy,2023.1.0,Win32,59.88023952,,,,,,,,,,,,,,,,,,,,,,,,,,,,,,,,,,,,,,,,,,,,,,,,,,,,,,,,,
,,,,,,,-0.333333333,-0.333333333,1,0,0,0,13,13,5,1,-0.33,-0.33,38,001,2024-11-27_15h07.07.686,Attention_exp_legacy,2023.1.0,Win32,59.88023952,calibration_square,,,,,,,,,,,,,,,,,,,,,,,,,,,,,,,,,,,,,,,,,,,,,,,,,,,,,,,,
,,,,,,,-0.685416667,-0.342592593,1,0,0,0,14,14,1,1,-0.67,-0.33,38,001,2024-11-27_15h07.07.686,Attention_exp_legacy,2023.1.0,Win32,59.88023952,,,,,,,,,,,,,,,,,,,,,,,,,,,,,,,,,,,,,,,,,,,,,,,,,,,,,,,,,
,,,,,,,0.335416667,0.327777778,1,0,0,0,15,15,17,1,0.33,0.33,38,001,2024-11-27_15h07.07.686,Attention_exp_legacy,2023.1.0,Win32,59.88023952,calibration_square,,,,,,,,,,,,,,,,,,,,,,,,,,,,,,,,,,,,,,,,,,,,,,,,,,,,,,,,
,,,,,,,0.3375,-0.668518519,1,0,0,0,16,16,14,1,0.33,-0.67,38,001,2024-11-27_15h07.07.686,Attention_exp_legacy,2023.1.0,Win32,59.88023952,calibration_square,,,,,,,,,,,,,,,,,,,,,,,,,,,,,,,,,,,,,,,,,,,,,,,,,,,,,,,,
,,,,,,,-0.332291667,0.32962963,1,0,0,0,17,17,7,1,-0.33,0.33,38,001,2024-11-27_15h07.07.686,Attention_exp_legacy,2023.1.0,Win32,59.88023952,calibration_square,,,,,,,,,,,,,,,,,,,,,,,,,,,,,,,,,,,,,,,,,,,,,,,,,,,,,,,,
,,,,,,,0.315625,-0.348148148,1,0,0,0,18,18,15,1,0.33,-0.33,38,001,2024-11-27_15h07.07.686,Attention_exp_legacy,2023.1.0,Win32,59.88023952,,,,,,,,,,,,,,,,,,,,,,,,,,,,,,,,,,,,,,,,,,,,,,,,,,,,,,,,,
,,,,,,,0.670833333,-0.690740741,1,0,0,0,19,19,20,1,0.67,-0.67,38,001,2024-11-27_15h07.07.686,Attention_exp_legacy,2023.1.0,Win32,59.88023952,,,,,,,,,,,,,,,,,,,,,,,,,,,,,,,,,,,,,,,,,,,,,,,,,,,,,,,,,
,,,,,,,-0.004166667,0.311111111,1,0,0,0,20,20,12,1,0,0.33,38,001,2024-11-27_15h07.07.686,Attention_exp_legacy,2023.1.0,Win32,59.88023952,,,,,,,,,,,,,,,,,,,,,,,,,,,,,,,,,,,,,,,,,,,,,,,,,,,,,,,,,
,,,,,,,,,,,,,,,,,,,38,001,2024-11-27_15h07.07.686,Attention_exp_legacy,2023.1.0,Win32,59.88023952,,"[1920,1080]","[640,480]",[0.011458333333333333],[-0.5185185185185185],[1],[0],[0],[5.693599999994035],"[""StartButton""]",[0.12916666666666668],[0.5518518518518518],[1],[0],[0],[5.364099999994039],"[""Metro_label""]",Metro_label,1,6.3901,"[[0.16875,-0.36666666666666664],[0.16875,-0.36666666666666664],[0.16875,-0.36666666666666664],[0.16875,-0.36666666666666664],[0.16875,-0.36666666666666664],[0.16875,-0.36666666666666664],[0.16875,-0.36666666666666664],[0.16875,-0.36666666666666664],[0.16875,-0.36666666666666664],[0.16875,-0.36666666666666664],[0.16875,-0.36666666666666664],[0.16875,-0.36666666666666664],[0.16875,-0.36666666666666664],[0.16875,-0.36666666666666664],[0.16875,-0.36666666666666664],[0.16875,-0.36666666666666664],[0.16875,-0.36666666666666664],[0.16875,-0.36666666666666664],[0.16875,-0.36666666666666664],[0.16875,-0.36666666666666664],[0.16875,-0.36666666666666664],[0.16875,-0.36666666666666664],[0.16875,-0.36666666666666664],[0.16875,-0.36666666666666664],[0.16875,-0.36666666666666664],[0.16875,-0.36666666666666664],[0.16875,-0.36666666666666664],[0.16875,-0.36666666666666664],[0.16875,-0.36666666666666664],[0.16875,-0.36666666666666664],[0.16875,-0.36666666666666664],[0.16875,-0.36666666666666664],[0.16875,-0.36666666666666664],[0.16875,-0.36666666666666664],[0.16875,-0.36666666666666664],[0.16875,-0.36666666666666664],[0.16875,-0.36666666666666664],[0.16875,-0.36666666666666664],[0.16875,-0.36666666666666664],[0.16875,-0.36666666666666664],[0.16875,-0.36666666666666664],[0.16875,-0.36666666666666664],[0.16875,-0.36666666666666664],[0.16875,-0.36666666666666664],[0.16875,-0.36666666666666664],[0.16875,-0.36666666666666664],[0.16875,-0.36666666666666664],[0.16875,-0.36666666666666664],[0.16875,-0.36666666666666664],[0.16875,-0.36666666666666664],[0.16875,-0.36666666666666664],[0.16875,-0.36666666666666664],[0.16875,-0.36666666666666664],[0.16875,-0.36666666666666664],[0.16875,-0.36666666666666664],[0.16875,-0.36666666666666664],[0.16875,-0.36666666666666664],[0.16875,-0.36666666666666664],[0.16875,-0.36666666666666664],[0.16875,-0.36666666666666664],[0.16875,-0.36666666666666664],[0.16875,-0.36666666666666664],[0.16875,-0.36666666666666664],[0.16875,-0.36666666666666664],[0.16875,-0.36666666666666664],[0.16875,-0.36666666666666664],[0.16875,-0.36666666666666664],[0.16875,-0.36666666666666664],[0.16875,-0.36666666666666664],[0.16875,-0.36666666666666664],[0.16875,-0.36666666666666664],[0.16875,-0.36666666666666664],[0.16875,-0.36666666666666664],[0.16875,-0.36666666666666664],[0.16875,-0.36666666666666664],[0.16875,-0.36666666666666664],[0.16875,-0.36666666666666664],[0.16875,-0.36666666666666664],[0.16875,-0.36666666666666664],[0.16875,-0.36666666666666664],[0.16875,-0.36666666666666664],[0.16875,-0.36666666666666664],[0.16875,-0.36666666666666664],[0.16875,-0.36666666666666664],[0.16875,-0.36666666666666664],[0.16875,-0.36666666666666664],[0.16875,-0.36666666666666664],[0.16875,-0.36666666666666664],[0.16875,-0.36666666666666664],[0.16875,-0.36666666666666664],[0.16875,-0.36666666666666664],[0.16875,-0.36666666666666664],[0.16875,-0.36666666666666664],[0.16875,-0.36666666666666664],[0.16875,-0.36666666666666664],[0.16875,-0.36666666666666664],[0.16875,-0.36666666666666664],[0.16875,-0.36666666666666664],[0.16875,-0.36666666666666664],[0.16875,-0.36666666666666664],[0.16875,-0.36666666666666664],[0.16875,-0.36666666666666664],[0.16875,-0.36666666666666664],[0.16875,-0.36666666666666664],[0.16875,-0.36666666666666664],[0.16875,-0.36666666666666664],[0.16875,-0.36666666666666664],[0.16875,-0.36666666666666664],[0.16875,-0.36666666666666664],[0.16875,-0.36666666666666664],[0.16875,-0.36666666666666664],[0.16875,-0.36666666666666664],[0.16875,-0.36666666666666664],[0.16875,-0.36666666666666664],[0.16875,-0.36666666666666664],[0.16875,-0.36666666666666664],[0.16875,-0.36666666666666664],[0.16875,-0.36666666666666664],[0.16875,-0.36666666666666664],[0.16875,-0.36666666666666664],[0.16875,-0.36666666666666664],[0.16875,-0.36666666666666664],[0.16875,-0.3685185185185185],[0.16770833333333332,-0.37037037037037035],[0.16666666666666666,-0.37037037037037035],[0.16458333333333333,-0.37222222222222223],[0.16354166666666667,-0.37407407407407406],[0.16354166666666667,-0.37407407407407406],[0.1625,-0.37592592592592594],[0.16145833333333334,-0.37592592592592594],[0.16145833333333334,-0.37592592592592594],[0.16145833333333334,-0.37592592592592594],[0.16145833333333334,-0.37592592592592594],[0.16145833333333334,-0.37592592592592594],[0.16145833333333334,-0.37592592592592594],[0.16145833333333334,-0.37592592592592594],[0.16145833333333334,-0.37592592592592594],[0.16145833333333334,-0.37592592592592594],[0.16145833333333334,-0.37592592592592594],[0.16145833333333334,-0.37592592592592594],[0.16145833333333334,-0.37592592592592594],[0.16145833333333334,-0.37592592592592594],[0.16145833333333334,-0.37592592592592594],[0.16145833333333334,-0.37592592592592594],[0.16145833333333334,-0.37592592592592594],[0.16145833333333334,-0.37592592592592594],[0.16145833333333334,-0.37592592592592594],[0.16145833333333334,-0.37592592592592594],[0.16145833333333334,-0.37592592592592594],[0.16145833333333334,-0.37592592592592594],[0.16145833333333334,-0.37592592592592594],[0.16145833333333334,-0.37592592592592594],[0.16145833333333334,-0.37592592592592594],[0.16145833333333334,-0.37592592592592594],[0.16145833333333334,-0.37592592592592594],[0.16145833333333334,-0.37592592592592594],[0.16145833333333334,-0.37592592592592594],[0.16145833333333334,-0.37592592592592594],[0.16145833333333334,-0.37592592592592594],[0.16145833333333334,-0.37592592592592594],[0.16145833333333334,-0.37592592592592594],[0.16145833333333334,-0.37592592592592594],[0.16145833333333334,-0.37592592592592594],[0.16145833333333334,-0.37592592592592594],[0.16145833333333334,-0.37592592592592594],[0.16145833333333334,-0.37592592592592594],[0.16145833333333334,-0.37592592592592594],[0.16145833333333334,-0.37592592592592594],[0.16145833333333334,-0.37592592592592594],[0.16145833333333334,-0.37592592592592594],[0.16145833333333334,-0.37592592592592594],[0.16145833333333334,-0.37592592592592594],[0.16145833333333334,-0.37592592592592594],[0.16145833333333334,-0.37592592592592594],[0.16145833333333334,-0.37592592592592594],[0.16145833333333334,-0.37592592592592594],[0.16145833333333334,-0.37592592592592594],[0.16145833333333334,-0.37592592592592594],[0.16145833333333334,-0.37592592592592594],[0.16145833333333334,-0.37592592592592594],[0.16145833333333334,-0.37592592592592594],[0.16145833333333334,-0.37592592592592594],[0.16145833333333334,-0.37592592592592594],[0.16145833333333334,-0.37592592592592594],[0.16145833333333334,-0.37592592592592594],[0.16145833333333334,-0.37592592592592594],[0.16145833333333334,-0.37592592592592594],[0.16145833333333334,-0.37592592592592594],[0.16145833333333334,-0.37592592592592594],[0.16145833333333334,-0.37592592592592594],[0.16145833333333334,-0.37592592592592594],[0.16145833333333334,-0.37592592592592594],[0.16145833333333334,-0.37592592592592594],[0.16145833333333334,-0.37592592592592594],[0.16145833333333334,-0.37592592592592594],[0.16145833333333334,-0.37592592592592594],[0.16145833333333334,-0.37592592592592594],[0.16145833333333334,-0.37592592592592594],[0.16145833333333334,-0.37592592592592594],[0.16145833333333334,-0.37592592592592594],[0.16145833333333334,-0.37592592592592594],[0.16145833333333334,-0.37592592592592594],[0.16145833333333334,-0.37592592592592594],[0.16145833333333334,-0.37592592592592594],[0.16145833333333334,-0.37592592592592594],[0.16145833333333334,-0.37592592592592594],[0.16145833333333334,-0.37592592592592594],[0.16145833333333334,-0.37592592592592594],[0.16145833333333334,-0.37592592592592594],[0.16145833333333334,-0.37592592592592594],[0.16145833333333334,-0.37592592592592594],[0.16145833333333334,-0.37592592592592594],[0.16145833333333334,-0.37592592592592594],[0.16145833333333334,-0.37592592592592594],[0.16145833333333334,-0.37592592592592594],[0.16145833333333334,-0.37592592592592594],[0.16145833333333334,-0.37592592592592594],[0.16145833333333334,-0.37592592592592594],[0.16145833333333334,-0.37592592592592594],[0.16145833333333334,-0.37592592592592594],[0.16145833333333334,-0.37592592592592594],[0.16145833333333334,-0.37592592592592594],[0.16145833333333334,-0.37592592592592594],[0.16145833333333334,-0.37592592592592594],[0.16145833333333334,-0.37592592592592594],[0.16145833333333334,-0.37592592592592594],[0.16145833333333334,-0.37592592592592594],[0.16145833333333334,-0.37592592592592594],[0.16145833333333334,-0.37592592592592594],[0.16145833333333334,-0.37592592592592594],[0.16145833333333334,-0.37592592592592594],[0.16145833333333334,-0.37592592592592594],[0.16145833333333334,-0.37592592592592594],[0.16145833333333334,-0.37592592592592594],[0.16145833333333334,-0.37592592592592594],[0.16145833333333334,-0.37592592592592594],[0.16145833333333334,-0.37592592592592594],[0.16145833333333334,-0.37592592592592594],[0.16145833333333334,-0.37592592592592594],[0.16145833333333334,-0.37592592592592594],[0.16145833333333334,-0.37592592592592594],[0.16145833333333334,-0.37592592592592594],[0.16145833333333334,-0.37592592592592594],[0.16145833333333334,-0.37592592592592594],[0.16145833333333334,-0.37592592592592594],[0.16145833333333334,-0.37592592592592594],[0.16145833333333334,-0.37592592592592594],[0.16145833333333334,-0.37592592592592594],[0.16145833333333334,-0.37592592592592594],[0.16145833333333334,-0.37592592592592594],[0.16145833333333334,-0.37592592592592594],[0.16145833333333334,-0.37592592592592594],[0.16145833333333334,-0.37592592592592594],[0.16145833333333334,-0.37592592592592594],[0.16145833333333334,-0.37592592592592594],[0.16145833333333334,-0.37592592592592594],[0.16145833333333334,-0.37592592592592594],[0.16145833333333334,-0.37592592592592594],[0.16145833333333334,-0.37592592592592594],[0.16145833333333334,-0.37592592592592594],[0.16145833333333334,-0.37592592592592594],[0.16145833333333334,-0.37592592592592594],[0.16145833333333334,-0.37592592592592594],[0.16041666666666668,-0.35555555555555557],[0.16041666666666668,-0.32222222222222224],[0.16041666666666668,-0.2777777777777778],[0.159375,-0.22407407407407406],[0.15208333333333332,-0.14074074074074075],[0.14479166666666668,-0.003703703703703704],[0.14166666666666666,0.08518518518518518],[0.1375,0.1574074074074074],[0.13541666666666666,0.18518518518518517],[0.13333333333333333,0.23148148148148148],[0.13333333333333333,0.2518518518518518],[0.13333333333333333,0.2722222222222222],[0.13333333333333333,0.28703703703703703],[0.13333333333333333,0.3074074074074074],[0.13333333333333333,0.3296296296296296],[0.13333333333333333,0.3425925925925926],[0.13333333333333333,0.35555555555555557],[0.13333333333333333,0.37222222222222223],[0.13333333333333333,0.37407407407407406],[0.13229166666666667,0.3814814814814815],[0.13229166666666667,0.387037037037037],[0.13229166666666667,0.3925925925925926],[0.13229166666666667,0.4],[0.13229166666666667,0.4074074074074074],[0.13229166666666667,0.4185185185185185],[0.13229166666666667,0.42407407407407405],[0.13229166666666667,0.42962962962962964],[0.13229166666666667,0.43333333333333335],[0.13229166666666667,0.43703703703703706],[0.13229166666666667,0.4425925925925926],[0.13229166666666667,0.44814814814814813],[0.13229166666666667,0.45555555555555555],[0.13229166666666667,0.46296296296296297],[0.13229166666666667,0.4703703703703704],[0.13229166666666667,0.4740740740740741],[0.13229166666666667,0.48148148148148145],[0.13229166666666667,0.48333333333333334],[0.13229166666666667,0.48703703703703705],[0.13229166666666667,0.49074074074074076],[0.13229166666666667,0.4925925925925926],[0.13229166666666667,0.4962962962962963],[0.13229166666666667,0.4981481481481482],[0.13125,0.5],[0.13125,0.5018518518518519],[0.13125,0.5018518518518519],[0.13020833333333334,0.5037037037037037],[0.13020833333333334,0.5074074074074074],[0.13020833333333334,0.5111111111111111],[0.12916666666666668,0.512962962962963],[0.12916666666666668,0.512962962962963],[0.12916666666666668,0.512962962962963],[0.12916666666666668,0.5166666666666667],[0.12916666666666668,0.5259259259259259],[0.12916666666666668,0.5407407407407407],[0.12916666666666668,0.5425925925925926],[0.12916666666666668,0.5481481481481482],[0.12916666666666668,0.5518518518518518],[0.12916666666666668,0.5518518518518518],[0.12916666666666668,0.5518518518518518],[0.12916666666666668,0.5518518518518518],[0.12916666666666668,0.5518518518518518],[0.12916666666666668,0.5518518518518518],[0.12916666666666668,0.5518518518518518],[0.12916666666666668,0.5518518518518518],[0.12916666666666668,0.5518518518518518],[0.12916666666666668,0.5518518518518518],[0.12916666666666668,0.5518518518518518],[0.12916666666666668,0.5518518518518518],[0.12916666666666668,0.5518518518518518],[0.12916666666666668,0.5518518518518518],[0.12916666666666668,0.5518518518518518],[0.12916666666666668,0.5518518518518518],[0.12916666666666668,0.5518518518518518],[0.12916666666666668,0.5518518518518518],[0.12916666666666668,0.5518518518518518],[0.12916666666666668,0.5518518518518518],[0.12916666666666668,0.5518518518518518],[0.12916666666666668,0.5518518518518518],[0.12916666666666668,0.5518518518518518],[0.12916666666666668,0.5518518518518518],[0.12916666666666668,0.5518518518518518],[0.12916666666666668,0.5518518518518518],[0.12916666666666668,0.5518518518518518],[0.12916666666666668,0.5518518518518518],[0.12916666666666668,0.5518518518518518],[0.12916666666666668,0.5518518518518518],[0.12916666666666668,0.5518518518518518],[0.12916666666666668,0.5518518518518518],[0.12916666666666668,0.5518518518518518],[0.12916666666666668,0.5518518518518518],[0.12916666666666668,0.5518518518518518],[0.12916666666666668,0.5518518518518518],[0.12916666666666668,0.5518518518518518],[0.12916666666666668,0.5518518518518518],[0.12916666666666668,0.5518518518518518],[0.12916666666666668,0.5518518518518518],[0.12916666666666668,0.5518518518518518],[0.12916666666666668,0.5518518518518518],[0.12916666666666668,0.5518518518518518],[0.12916666666666668,0.5518518518518518],[0.12916666666666668,0.5518518518518518],[0.12916666666666668,0.5518518518518518],[0.12916666666666668,0.5518518518518518],[0.12916666666666668,0.5518518518518518],[0.12916666666666668,0.5518518518518518],[0.12916666666666668,0.5518518518518518],[0.12916666666666668,0.5518518518518518],[0.12916666666666668,0.5518518518518518],[0.12916666666666668,0.5518518518518518],[0.12916666666666668,0.5518518518518518],[0.12916666666666668,0.5518518518518518],[0.12916666666666668,0.5518518518518518],[0.12916666666666668,0.5518518518518518],[0.12916666666666668,0.5518518518518518],[0.12916666666666668,0.5518518518518518],[0.12916666666666668,0.5518518518518518],[0.12916666666666668,0.5518518518518518],[0.12916666666666668,0.5518518518518518],[0.12916666666666668,0.5518518518518518],[0.12916666666666668,0.5518518518518518]]","[[0.22072916666666675,-0.28425925925925927],[0.22072916666666675,-0.28425925925925927],[0.22072916666666675,-0.28425925925925927],[0.2384375000000001,-0.2783333333333334],[0.2430208333333333,-0.27759259259259256],[0.25885416666666666,-0.2985185185185185],[0.25197916666666675,-0.29555555555555557],[0.24510416666666662,-0.29259259259259257],[0.24510416666666662,-0.29259259259259257],[0.25968749999999996,-0.2862962962962963],[0.2742708333333333,-0.27999999999999997],[0.26239583333333344,-0.2898148148148148],[0.2428124999999999,-0.2903703703703704],[0.21906249999999997,-0.2916666666666667],[0.21906249999999997,-0.2916666666666667],[0.19020833333333323,-0.28722222222222227],[0.18416666666666662,-0.2492592592592593],[0.178125,-0.21129629629629634],[0.16822916666666668,-0.20166666666666663],[0.15833333333333333,-0.192037037037037],[0.1053124999999999,-0.19500000000000003],[0.052291666666666715,-0.19796296296296292],[0.008229166666666643,-0.17888888888888893],[0.008229166666666643,-0.17888888888888893],[-0.028125,-0.1690740740740741],[-0.028125,-0.1690740740740741],[-0.06302083333333333,-0.16222222222222227],[-0.09333333333333335,-0.1542592592592593],[-0.15093749999999997,-0.16314814814814818],[-0.15093749999999997,-0.16314814814814818],[-0.2085416666666667,-0.172037037037037],[-0.2641666666666667,-0.16740740740740737],[-0.3233333333333333,-0.14685185185185187],[-0.3477083333333333,-0.11314814814814819],[-0.3720833333333334,-0.0794444444444444],[-0.3853125,-0.06148148148148146],[-0.4001041666666667,-0.05481481481481486],[-0.4163541666666667,-0.04518518518518514],[-0.4163541666666667,-0.04518518518518514],[-0.38406250000000003,-0.05481481481481486],[-0.31604166666666667,-0.08851851851851854],[-0.24718749999999995,-0.12111111111111107],[-0.17406250000000004,-0.1603703703703704],[-0.09739583333333333,-0.2155555555555555],[-0.09739583333333333,-0.2155555555555555],[-0.02666666666666669,-0.2727777777777778],[0.05281250000000005,-0.31740740740740736],[0.12729166666666672,-0.3588888888888889],[0.12729166666666672,-0.3588888888888889],[0.20968749999999994,-0.3979629629629629],[0.2912499999999999,-0.4403703703703704],[0.3167708333333332,-0.46111111111111114],[0.3255208333333333,-0.4668518518518519],[0.3255208333333333,-0.4668518518518519],[0.33479166666666677,-0.4711111111111111],[0.3458333333333333,-0.4677777777777778],[0.3458333333333333,-0.4677777777777778],[0.35187499999999994,-0.4468518518518519],[0.36385416666666665,-0.42388888888888887],[0.34364583333333343,-0.37240740740740746],[0.32791666666666663,-0.3138888888888889],[0.30583333333333323,-0.24648148148148152],[0.2796875,-0.18407407407407403],[0.2598958333333333,-0.10277777777777777],[0.23583333333333342,-0.021851851851851768],[0.21083333333333343,0.052407407407407326],[0.21083333333333343,0.052407407407407326],[0.19343750000000004,0.10500000000000008],[0.19343750000000004,0.10500000000000008],[0.1796875,0.18333333333333332],[0.16989583333333325,0.22925925925925916],[0.1834374999999999,0.24018518518518528],[0.1834374999999999,0.24018518518518528],[0.1929166666666667,0.24740740740740744],[0.20989583333333334,0.2479629629629629],[0.20989583333333334,0.2479629629629629],[0.23177083333333334,0.25685185185185194],[0.2504166666666668,0.23370370370370377],[0.2504166666666668,0.23370370370370377],[0.25510416666666674,0.2331481481481481],[0.2916666666666667,0.2388888888888889],[0.32062499999999994,0.2662962962962962],[0.35093750000000007,0.25037037037037047],[0.35093750000000007,0.25037037037037047],[0.3625,0.28296296296296286],[0.35739583333333325,0.3199999999999999],[0.3316666666666668,0.37703703703703706],[0.3171875,0.42962962962962964],[0.30052083333333335,0.47759259259259257],[0.28072916666666664,0.5387037037037037],[0.28958333333333336,0.587037037037037],[0.26614583333333336,0.6331481481481481],[0.26614583333333336,0.6331481481481481],[0.24354166666666663,0.657037037037037],[0.24354166666666663,0.657037037037037],[0.20343749999999997,0.6885185185185184],[0.17833333333333337,0.6914814814814815],[0.17833333333333337,0.6914814814814815],[0.17000000000000004,0.6838888888888888],[0.18416666666666662,0.6737037037037036],[0.16958333333333328,0.6646296296296296],[0.15229166666666671,0.6646296296296296],[0.13229166666666667,0.6677777777777778],[0.10052083333333334,0.659074074074074],[0.07114583333333328,0.6594444444444445],[0.07114583333333328,0.6594444444444445],[0.044375000000000026,0.6757407407407408],[0.036458333333333336,0.6774074074074073],[0.019166666666666644,0.7151851851851853],[0.019166666666666644,0.7151851851851853],[0.0018749999999999527,0.7529629629629631],[-0.004166666666666667,0.7531481481481482],[0.021354166666666667,0.7709259259259258],[0.05572916666666667,0.7907407407407407],[0.05572916666666667,0.7907407407407407],[0.0775000000000001,0.7853703703703704],[0.10458333333333343,0.7762962962962964],[0.1256249999999999,0.7631481481481482],[0.13572916666666662,0.772037037037037],[0.14343750000000005,0.7787037037037037],[0.18333333333333332,0.7455555555555556],[0.21364583333333323,0.7162962962962962],[0.2283333333333334,0.7264814814814814],[0.21552083333333344,0.6709259259259258],[0.21552083333333344,0.6709259259259258],[0.18947916666666675,0.6601851851851852],[0.1993750000000001,0.6109259259259259],[0.19656250000000006,0.612037037037037],[0.19739583333333333,0.6140740740740741],[0.20385416666666673,0.5877777777777777],[0.20385416666666673,0.5877777777777777],[0.22802083333333342,0.512962962962963],[0.22041666666666657,0.4920370370370371],[0.24614583333333329,0.40925925925925927],[0.24416666666666675,0.3001851851851852],[0.24270833333333333,0.28703703703703703],[0.2760416666666667,0.17185185185185176],[0.2777083333333332,0.16111111111111112],[0.2865624999999999,0.07518518518518523],[0.2865624999999999,0.07518518518518523],[0.3015625,0.000925925925925926],[0.3012500000000001,-0.07962962962962963],[0.2915625000000001,-0.06777777777777783],[0.2915625000000001,-0.06777777777777783],[0.290625,-0.09370370370370375],[0.290625,-0.09370370370370375],[0.24031250000000004,-0.05333333333333336],[0.26447916666666677,-0.04388888888888897],[0.27104166666666674,-0.00851851851851856],[0.27104166666666674,-0.00851851851851856],[0.2520833333333333,0.07759259259259255],[0.2303124999999999,0.10833333333333334],[0.2478125000000001,0.20999999999999996],[0.2595833333333334,0.2831481481481481],[0.2881249999999999,0.3861111111111111],[0.31052083333333325,0.4262962962962964],[0.3165625000000001,0.4353703703703704],[0.34822916666666665,0.4361111111111111],[0.3416666666666667,0.4675925925925926],[0.35812499999999997,0.4353703703703704],[0.3563541666666666,0.39537037037037037],[0.36843750000000003,0.3668518518518519],[0.33447916666666655,0.28777777777777774],[0.29656250000000006,0.2116666666666666],[0.29656250000000006,0.2116666666666666],[0.24385416666666657,0.15851851851851856],[0.1990624999999999,0.10666666666666672],[0.18125,0.12370370370370362],[0.17572916666666671,0.17537037037037045],[0.17572916666666671,0.17537037037037045],[0.1634375000000001,0.22555555555555548],[0.15927083333333342,0.2455555555555556],[0.1646874999999999,0.33185185185185195],[0.1646874999999999,0.33185185185185195],[0.16395833333333343,0.38870370370370366],[0.18447916666666658,0.45092592592592595],[0.18447916666666658,0.45092592592592595],[0.19239583333333338,0.5303703703703704],[0.20677083333333332,0.5459259259259258],[0.20677083333333332,0.5459259259259258],[0.22614583333333324,0.5944444444444444],[0.23927083333333338,0.6007407407407407],[0.21218750000000006,0.5792592592592591],[0.17937500000000003,0.5829629629629629],[0.14770833333333327,0.5933333333333333],[0.13385416666666666,0.5729629629629629],[0.12625000000000006,0.5796296296296296],[0.10395833333333329,0.5896296296296296],[0.10395833333333329,0.5896296296296296],[0.1056250000000001,0.6042592592592592],[0.11687500000000005,0.6281481481481482],[0.11260416666666657,0.6411111111111112],[0.10750000000000005,0.6638888888888889],[0.12552083333333333,0.6761111111111111],[0.12552083333333333,0.6761111111111111],[0.14104166666666676,0.6735185185185186],[0.15677083333333333,0.6842592592592592],[0.16333333333333327,0.6672222222222222],[0.17687499999999995,0.6477777777777777],[0.17687499999999995,0.6477777777777777],[0.19083333333333338,0.6277777777777778],[0.19500000000000003,0.5781481481481482],[0.19833333333333342,0.5492592592592593],[0.19833333333333342,0.5492592592592593],[0.2015625,0.5314814814814814],[0.14968750000000006,0.4638888888888889],[0.1165625000000001,0.41462962962962957],[0.1165625000000001,0.41462962962962957],[0.08447916666666658,0.3611111111111111],[0.05406249999999998,0.3051851851851851],[0.05406249999999998,0.3051851851851851],[0.01729166666666669,0.2512962962962964],[-0.022604166666666713,0.1933333333333333],[-0.0625,0.13537037037037042],[-0.1014583333333333,0.10240740740740732],[-0.13781249999999995,0.06481481481481481],[-0.18364583333333329,0.030000000000000086],[-0.2039583333333333,0.06277777777777774],[-0.23645833333333333,0.05740740740740741],[-0.2795833333333333,0.06759259259259259],[-0.32062499999999994,0.07703703703703708],[-0.35531250000000003,0.08444444444444449],[-0.38010416666666663,0.13555555555555565],[-0.3975,0.16777777777777783],[-0.3975,0.16777777777777783],[-0.4239583333333333,0.18925925925925935],[-0.4530208333333333,0.2153703703703703],[-0.4822916666666667,0.25277777777777777],[-0.4761458333333334,0.2442592592592592],[-0.4761458333333334,0.2442592592592592],[-0.48260416666666667,0.26666666666666666],[-0.4648958333333333,0.2742592592592593],[-0.42510416666666667,0.28351851851851856],[-0.3853125,0.2927777777777778],[-0.3853125,0.2927777777777778],[-0.3467708333333333,0.252962962962963],[-0.3180208333333333,0.25092592592592594],[-0.2791666666666667,0.25037037037037047],[-0.2791666666666667,0.25037037037037047],[-0.23145833333333338,0.24833333333333338],[-0.23145833333333338,0.24833333333333338],[-0.14562499999999995,0.1883333333333334],[-0.07218749999999995,0.15722222222222218],[0.00614583333333331,0.1594444444444445],[0.00614583333333331,0.1594444444444445],[0.08406250000000005,0.15981481481481474],[0.09458333333333328,0.17462962962962955],[0.13562500000000005,0.15148148148148138],[0.16687500000000005,0.16648148148148145],[0.16687500000000005,0.16648148148148145],[0.20062499999999991,0.15777777777777785],[0.2335416666666667,0.1361111111111111],[0.25760416666666663,0.11592592592592597],[0.2609375,0.17240740740740745],[0.2609375,0.17240740740740745],[0.2530208333333334,0.22388888888888886],[0.2459374999999999,0.20166666666666663],[0.22781250000000006,0.1794444444444444],[0.24812500000000004,0.14629629629629629],[0.24812500000000004,0.14629629629629629],[0.22583333333333327,0.14833333333333337],[0.19927083333333329,0.13185185185185194],[0.1865624999999999,0.12907407407407415],[0.17614583333333325,0.15648148148148147],[0.17614583333333325,0.15648148148148147],[0.16458333333333333,0.2051851851851851],[0.1482291666666666,0.21055555555555563],[0.14614583333333328,0.21481481481481482],[0.15374999999999991,0.22240740740740744],[0.16677083333333323,0.23037037037037034],[0.18104166666666663,0.2505555555555555],[0.18104166666666663,0.2505555555555555],[0.19145833333333329,0.23722222222222225],[0.2033333333333334,0.21851851851851853],[0.20125000000000004,0.19092592592592597],[0.20125000000000004,0.19092592592592597],[0.21197916666666666,0.13555555555555565],[0.2048958333333334,0.057037037037036956],[0.2048958333333334,0.057037037037036956],[0.19166666666666668,0.01055555555555564],[0.1820833333333333,-0.020185185185185143],[0.1820833333333333,-0.020185185185185143],[0.18875000000000006,-0.08203703703703706],[0.18312499999999995,-0.13240740740740742],[0.18312499999999995,-0.13240740740740742],[0.16843750000000005,-0.19500000000000003],[0.17541666666666675,-0.20092592592592592],[0.18239583333333323,-0.20685185185185184],[0.18166666666666675,-0.22259259259259256],[0.18166666666666675,-0.22259259259259256],[0.16739583333333338,-0.2403703703703704],[0.17135416666666667,-0.22888888888888892],[0.190625,-0.26592592592592595],[0.190625,-0.26592592592592595],[0.2,-0.3383333333333333],[0.18760416666666657,-0.36314814814814816],[0.18760416666666657,-0.36314814814814816],[0.19041666666666662,-0.3568518518518518],[0.1946875000000001,-0.3424074074074074],[0.1946875000000001,-0.3424074074074074],[0.18697916666666667,-0.31370370370370365],[0.19104166666666675,-0.3320370370370371],[0.18895833333333342,-0.3111111111111111],[0.1898958333333333,-0.2929629629629629],[0.1734375,-0.3296296296296296],[0.1337500000000001,-0.33111111111111113],[0.11739583333333338,-0.37],[0.11739583333333338,-0.37],[0.11229166666666662,-0.3514814814814815],[0.10864583333333329,-0.3931481481481482],[0.10281250000000004,-0.40796296296296297],[0.10281250000000004,-0.40796296296296297],[0.10104166666666667,-0.4674074074074074],[0.09364583333333343,-0.4807407407407408],[0.0962500000000001,-0.5259259259259259],[0.09270833333333334,-0.5531481481481482],[0.11791666666666671,-0.5512962962962963],[0.11791666666666671,-0.5512962962962963],[0.15114583333333323,-0.567037037037037],[0.15114583333333323,-0.567037037037037],[0.17895833333333327,-0.5194444444444445],[0.19635416666666666,-0.5205555555555555],[0.209375,-0.504074074074074],[0.209375,-0.504074074074074],[0.21208333333333323,-0.5298148148148148],[0.24489583333333323,-0.5348148148148149],[0.24614583333333329,-0.5366666666666667],[0.2493750000000001,-0.554074074074074],[0.2633333333333333,-0.5827777777777777],[0.2633333333333333,-0.5827777777777777],[0.25270833333333326,-0.5879629629629629],[0.2513541666666666,-0.585],[0.25770833333333343,-0.5929629629629629],[0.27072916666666674,-0.6151851851851852],[0.2478125000000001,-0.615],[0.23739583333333342,-0.5994444444444444],[0.2053124999999999,-0.615925925925926],[0.19864583333333338,-0.6346296296296297],[0.19864583333333338,-0.6346296296296297],[0.22604166666666667,-0.6294444444444444],[0.22604166666666667,-0.6294444444444444],[0.2193749999999999,-0.605],[0.22260416666666671,-0.5790740740740741],[0.21822916666666667,-0.5855555555555555],[0.21822916666666667,-0.5855555555555555],[0.1951041666666666,-0.5705555555555556],[0.17072916666666677,-0.5475925925925925],[0.17520833333333338,-0.5335185185185186],[0.15208333333333332,-0.542037037037037],[0.15041666666666675,-0.5055555555555555],[0.15041666666666675,-0.5055555555555555],[0.1212500000000001,-0.4925925925925926],[0.0865624999999999,-0.45018518518518524],[0.0865624999999999,-0.45018518518518524],[0.05010416666666669,-0.41648148148148145],[0.023958333333333335,-0.4053703703703703],[0.030104166666666644,-0.3987037037037037],[0.03781249999999995,-0.3942592592592592],[0.03354166666666671,-0.3827777777777778],[0.03093750000000005,-0.384074074074074],[0.03093750000000005,-0.384074074074074],[0.07239583333333334,-0.36796296296296294],[0.08458333333333339,-0.3609259259259259],[0.1267708333333334,-0.3527777777777778],[0.1267708333333334,-0.3527777777777778],[0.11760416666666676,-0.3718518518518519],[0.14447916666666671,-0.3638888888888889],[0.16520833333333323,-0.3598148148148148],[0.13895833333333343,-0.3446296296296297],[0.11052083333333323,-0.3440740740740741],[0.09645833333333324,-0.3181481481481482],[0.0796875,-0.2807407407407408],[0.0796875,-0.2807407407407408],[0.0728125000000001,-0.2675925925925926],[0.07114583333333328,-0.2733333333333334],[0.06583333333333338,-0.25388888888888894],[0.06218750000000005,-0.20611111111111113],[0.05,-0.18722222222222226],[0.058541666666666714,-0.1977777777777778],[0.08354166666666671,-0.1881481481481482],[0.08354166666666671,-0.1881481481481482],[0.09031250000000005,-0.16944444444444445],[0.11437499999999995,-0.1940740740740741]]","[[0.22072916666666675,-0.28425925925925927,0.0002999999821184929],[0.22072916666666675,-0.28425925925925927,0.05390000000596018],[0.22072916666666675,-0.28425925925925927,0.056900000005960294],[0.2384375000000001,-0.2783333333333334,0.07350000000000279],[0.2430208333333333,-0.27759259259259256,0.0902999999821219],[0.25885416666666666,-0.2985185185185185,0.10979999998212264],[0.25197916666666675,-0.29555555555555557,0.12609999999403954],[0.24510416666666662,-0.29259259259259257,0.14590000000595893],[0.24510416666666662,-0.29259259259259257,0.15700000000000358],[0.25968749999999996,-0.2862962962962963,0.17340000000596234],[0.2742708333333333,-0.27999999999999997,0.19169999998808152],[0.26239583333333344,-0.2898148148148148,0.20909999999403794],[0.2428124999999999,-0.2903703703703704,0.2292999999821177],[0.21906249999999997,-0.2916666666666667,0.2435000000000045],[0.21906249999999997,-0.2916666666666667,0.2569999999999979],[0.19020833333333323,-0.28722222222222227,0.2734999999999985],[0.18416666666666662,-0.2492592592592593,0.29050000000000153],[0.178125,-0.21129629629629634,0.30679999998211827],[0.16822916666666668,-0.20166666666666663,0.32709999999404005],[0.15833333333333333,-0.192037037037037,0.34150000000000347],[0.1053124999999999,-0.19500000000000003,0.36019999998808316],[0.052291666666666715,-0.19796296296296292,0.3747999999821161],[0.008229166666666643,-0.17888888888888893,0.39729999998211696],[0.008229166666666643,-0.17888888888888893,0.4067999999821197],[-0.028125,-0.1690740740740741,0.4235000000000042],[-0.028125,-0.1690740740740741,0.4400999999940396],[-0.06302083333333333,-0.16222222222222227,0.4569000000059589],[-0.09333333333333335,-0.1542592592592593,0.47350000000000136],[-0.15093749999999997,-0.16314814814814818,0.493900000005965],[-0.15093749999999997,-0.16314814814814818,0.5067999999821211],[-0.2085416666666667,-0.172037037037037,0.5234999999999985],[-0.2641666666666667,-0.16740740740740737,0.540099999994041],[-0.3233333333333333,-0.14685185185185187,0.5602999999821208],[-0.3477083333333333,-0.11314814814814819,0.5766999999880795],[-0.3720833333333334,-0.0794444444444444,0.5925000000000011],[-0.3853125,-0.06148148148148146,0.6102999999821179],[-0.4001041666666667,-0.05481481481481486,0.6266999999880767],[-0.4163541666666667,-0.04518518518518514,0.6460000000000008],[-0.4163541666666667,-0.04518518518518514,0.6570000000000036],[-0.38406250000000003,-0.05481481481481486,0.6739000000059647],[-0.31604166666666667,-0.08851851851851854,0.6937999999821187],[-0.24718749999999995,-0.12111111111111107,0.7096999999880822],[-0.17406250000000004,-0.1603703703703704,0.7287999999821224],[-0.09739583333333333,-0.2155555555555555,0.7450000000000045],[-0.09739583333333333,-0.2155555555555555,0.7575999999940422],[-0.02666666666666669,-0.2727777777777778,0.7734999999999985],[0.05281250000000005,-0.31740740740740736,0.7920000000000016],[0.12729166666666672,-0.3588888888888889,0.8129000000059605],[0.12729166666666672,-0.3588888888888889,0.8235999999940375],[0.20968749999999994,-0.3979629629629629,0.84019999998808],[0.2912499999999999,-0.4403703703703704,0.8597999999821226],[0.3167708333333332,-0.46111111111111114,0.875],[0.3255208333333333,-0.4668518518518519,0.8980000000000032],[0.3255208333333333,-0.4668518518518519,0.9070999999940383],[0.33479166666666677,-0.4711111111111111,0.9235000000000042],[0.3458333333333333,-0.4677777777777778,0.9406999999880767],[0.3458333333333333,-0.4677777777777778,0.9570000000000007],[0.35187499999999994,-0.4468518518518519,0.9735000000000014],[0.36385416666666665,-0.42388888888888887,0.9947999999821207],[0.34364583333333343,-0.37240740740740746,1.0110999999940375],[0.32791666666666663,-0.3138888888888889,1.0275999999940382],[0.30583333333333323,-0.24648148148148152,1.0420999999940435],[0.2796875,-0.18407407407407403,1.0626999999880766],[0.2598958333333333,-0.10277777777777777,1.0774000000059587],[0.23583333333333342,-0.021851851851851768,1.0946999999880802],[0.21083333333333343,0.052407407407407326,1.110299999982118],[0.21083333333333343,0.052407407407407326,1.123400000005958],[0.19343750000000004,0.10500000000000008,1.1400999999940424],[0.19343750000000004,0.10500000000000008,1.1570999999940383],[0.1796875,0.18333333333333332,1.1735000000000042],[0.16989583333333325,0.22925925925925916,1.1917999999821163],[0.1834374999999999,0.24018518518518528,1.2080999999940403],[0.1834374999999999,0.24018518518518528,1.2235000000000014],[0.1929166666666667,0.24740740740740744,1.2400999999940439],[0.20989583333333334,0.2479629629629629,1.256799999982121],[0.20989583333333334,0.2479629629629629,1.2734000000059638],[0.23177083333333334,0.25685185185185194,1.290099999994041],[0.2504166666666668,0.23370370370370377,1.3127999999821185],[0.2504166666666668,0.23370370370370377,1.3235999999940375],[0.25510416666666674,0.2331481481481481,1.3400999999940382],[0.2916666666666667,0.2388888888888889,1.3574000000059598],[0.32062499999999994,0.2662962962962962,1.3735],[0.35093750000000007,0.25037037037037047,1.3901999999880772],[0.35093750000000007,0.25037037037037047,1.4067999999821197],[0.3625,0.28296296296296286,1.4235000000000042],[0.35739583333333325,0.3199999999999999,1.4419000000059583],[0.3316666666666668,0.37703703703703706,1.458299999982117],[0.3171875,0.42962962962962964,1.4735000000000014],[0.30052083333333335,0.47759259259259257,1.4951999999880812],[0.28072916666666664,0.5387037037037037,1.5100999999940399],[0.28958333333333336,0.587037037037037,1.5262999999821218],[0.26614583333333336,0.6331481481481481,1.5435999999940435],[0.26614583333333336,0.6331481481481481,1.5639000000059582],[0.24354166666666663,0.657037037037037,1.5774000000059587],[0.24354166666666663,0.657037037037037,1.5900999999940382],[0.20343749999999997,0.6885185185185184,1.6066999999880807],[0.17833333333333337,0.6914814814814815,1.6235],[0.17833333333333337,0.6914814814814815,1.6400999999940424],[0.17000000000000004,0.6838888888888888,1.6569000000059617],[0.18416666666666662,0.6737037037037036,1.6734000000059623],[0.16958333333333328,0.6646296296296296,1.6900999999940396],[0.15229166666666671,0.6646296296296296,1.7079999999999984],[0.13229166666666667,0.6677777777777778,1.728400000005962],[0.10052083333333334,0.659074074074074,1.743799999982123],[0.07114583333333328,0.6594444444444445,1.7616999999880818],[0.07114583333333328,0.6594444444444445,1.7734000000059638],[0.044375000000000026,0.6757407407407408,1.790099999994041],[0.036458333333333336,0.6774074074074073,1.8115000000000023],[0.019166666666666644,0.7151851851851853,1.8267999999821214],[0.019166666666666644,0.7151851851851853,1.8400999999940382],[0.0018749999999999527,0.7529629629629631,1.8566999999880807],[-0.004166666666666667,0.7531481481481482,1.8735],[0.021354166666666667,0.7709259259259258,1.8900999999940424],[0.05572916666666667,0.7907407407407407,1.9104000000059642],[0.05572916666666667,0.7907407407407407,1.923599999994039],[0.0775000000000001,0.7853703703703704,1.9400999999940396],[0.10458333333333343,0.7762962962962964,1.9570999999940426],[0.1256249999999999,0.7631481481481482,1.9734000000059595],[0.13572916666666662,0.772037037037037,1.994599999994044],[0.14343750000000005,0.7787037037037037,2.0104000000059585],[0.18333333333333332,0.7455555555555556,2.026900000005959],[0.21364583333333323,0.7162962962962962,2.040099999994041],[0.2283333333333334,0.7264814814814814,2.0611999999880766],[0.21552083333333344,0.6709259259259258,2.076999999999998],[0.21552083333333344,0.6709259259259258,2.090400000005964],[0.18947916666666675,0.6601851851851852,2.1069999999999993],[0.1993750000000001,0.6109259259259259,2.125900000005963],[0.19656250000000006,0.612037037037037,2.1400999999940424],[0.19739583333333333,0.6140740740740741,2.1606999999880827],[0.20385416666666673,0.5877777777777777,2.1795000000000044],[0.20385416666666673,0.5877777777777777,2.1900999999940396],[0.22802083333333342,0.512962962962963,2.206799999982117],[0.22041666666666657,0.4920370370370371,2.2234000000059595],[0.24614583333333329,0.40925925925925927,2.2435000000000045],[0.24416666666666675,0.3001851851851852,2.2605999999940423],[0.24270833333333333,0.28703703703703703,2.276400000005964],[0.2760416666666667,0.17185185185185176,2.2927999999821225],[0.2777083333333332,0.16111111111111112,2.312599999994042],[0.2865624999999999,0.07518518518518523,2.327199999988082],[0.2865624999999999,0.07518518518518523,2.340099999994038],[0.3015625,0.000925925925925926,2.3567999999821225],[0.3012500000000001,-0.07962962962962963,2.373400000005958],[0.2915625000000001,-0.06777777777777783,2.396599999994038],[0.2915625000000001,-0.06777777777777783,2.4067999999821197],[0.290625,-0.09370370370370375,2.423500000000004],[0.290625,-0.09370370370370375,2.4400999999940396],[0.24031250000000004,-0.05333333333333336,2.4570000000000007],[0.26447916666666677,-0.04388888888888897,2.4734000000059595],[0.27104166666666674,-0.00851851851851856,2.4941999999880835],[0.27104166666666674,-0.00851851851851856,2.5066999999880792],[0.2520833333333333,0.07759259259259255,2.5234000000059638],[0.2303124999999999,0.10833333333333334,2.540199999988083],[0.2478125000000001,0.20999999999999996,2.5614000000059605],[0.2595833333333334,0.2831481481481481,2.5765999999940377],[0.2881249999999999,0.3861111111111111,2.5937999999821173],[0.31052083333333325,0.4262962962962964,2.6105999999940437],[0.3165625000000001,0.4353703703703704,2.627099999994037],[0.34822916666666665,0.4361111111111111,2.645099999994038],[0.3416666666666667,0.4675925925925926,2.6606999999880827],[0.35812499999999997,0.4353703703703704,2.677299999982118],[0.3563541666666666,0.39537037037037037,2.6931999999880816],[0.36843750000000003,0.3668518518518519,2.709699999988082],[0.33447916666666655,0.28777777777777774,2.728400000005962],[0.29656250000000006,0.2116666666666666,2.743699999988081],[0.29656250000000006,0.2116666666666666,2.756799999982121],[0.24385416666666657,0.15851851851851856,2.7734000000059638],[0.1990624999999999,0.10666666666666672,2.790099999994041],[0.18125,0.12370370370370362,2.8067999999821183],[0.17572916666666671,0.17537037037037045,2.826400000005961],[0.17572916666666671,0.17537037037037045,2.840099999994038],[0.1634375000000001,0.22555555555555548,2.8567999999821225],[0.15927083333333342,0.2455555555555556,2.873400000005958],[0.1646874999999999,0.33185185185185195,2.890199999988077],[0.1646874999999999,0.33185185185185195,2.9069000000059617],[0.16395833333333343,0.38870370370370366,2.9234000000059623],[0.18447916666666658,0.45092592592592595,2.940599999994042],[0.18447916666666658,0.45092592592592595,2.9570000000000007],[0.19239583333333338,0.5303703703703704,2.9735000000000014],[0.20677083333333332,0.5459259259259258,2.9944000000059603],[0.20677083333333332,0.5459259259259258,3.0066999999880792],[0.22614583333333324,0.5944444444444444,3.0234999999999985],[0.23927083333333338,0.6007407407407407,3.040099999994041],[0.21218750000000006,0.5792592592592591,3.0611999999880766],[0.17937500000000003,0.5829629629629629,3.0769000000059634],[0.14770833333333327,0.5933333333333333,3.094799999982122],[0.13385416666666666,0.5729629629629629,3.110500000000002],[0.12625000000000006,0.5796296296296296,3.1270000000000024],[0.10395833333333329,0.5896296296296296,3.1461999999880774],[0.10395833333333329,0.5896296296296296,3.15719999998808],[0.1056250000000001,0.6042592592592592,3.1734000000059623],[0.11687500000000005,0.6281481481481482,3.192900000005963],[0.11260416666666657,0.6411111111111112,3.209000000000003],[0.10750000000000005,0.6638888888888889,3.228500000000004],[0.12552083333333333,0.6761111111111111,3.2435000000000045],[0.12552083333333333,0.6761111111111111,3.256799999982121],[0.14104166666666676,0.6735185185185186,3.2734000000059638],[0.15677083333333333,0.6842592592592592,3.2905000000000015],[0.16333333333333327,0.6672222222222222,3.3067999999821183],[0.17687499999999995,0.6477777777777777,3.327199999988082],[0.17687499999999995,0.6477777777777777,3.340099999994038],[0.19083333333333338,0.6277777777777778,3.3567999999821225],[0.19500000000000003,0.5781481481481482,3.373400000005958],[0.19833333333333342,0.5492592592592593,3.3900999999940424],[0.19833333333333342,0.5492592592592593,3.406699999988078],[0.2015625,0.5314814814814814,3.423500000000004],[0.14968750000000006,0.4638888888888889,3.4400999999940396],[0.1165625000000001,0.41462962962962957,3.463000000000001],[0.1165625000000001,0.41462962962962957,3.473699999988078],[0.08447916666666658,0.3611111111111111,3.4902999999821205],[0.05406249999999998,0.3051851851851851,3.5120999999940423],[0.05406249999999998,0.3051851851851851,3.5234999999999985],[0.01729166666666669,0.2512962962962964,3.540099999994041],[-0.022604166666666713,0.1933333333333333,3.5567999999821183],[-0.0625,0.13537037037037042,3.5757999999821166],[-0.1014583333333333,0.10240740740740732,3.5915000000000035],[-0.13781249999999995,0.06481481481481481,3.610299999982118],[-0.18364583333333329,0.030000000000000086,3.625099999994042],[-0.2039583333333333,0.06277777777777774,3.6400000000000006],[-0.23645833333333333,0.05740740740740741,3.659900000005962],[-0.2795833333333333,0.06759259259259259,3.675099999994039],[-0.32062499999999994,0.07703703703703708,3.691499999999998],[-0.35531250000000003,0.08444444444444449,3.709099999994038],[-0.38010416666666663,0.13555555555555565,3.728199999988078],[-0.3975,0.16777777777777783,3.7444000000059603],[-0.3975,0.16777777777777783,3.7566999999880792],[-0.4239583333333333,0.18925925925925935,3.7734000000059638],[-0.4530208333333333,0.2153703703703703,3.790099999994041],[-0.4822916666666667,0.25277777777777777,3.8119999999999976],[-0.4761458333333334,0.2442592592592592,3.8272999999821167],[-0.4761458333333334,0.2442592592592592,3.840099999994038],[-0.48260416666666667,0.26666666666666666,3.8567999999821225],[-0.4648958333333333,0.2742592592592593,3.8735],[-0.42510416666666667,0.28351851851851856,3.895000000000003],[-0.3853125,0.2927777777777778,3.910400000005964],[-0.3853125,0.2927777777777778,3.9234000000059623],[-0.3467708333333333,0.252962962962963,3.9399999999999977],[-0.3180208333333333,0.25092592592592594,3.958500000000001],[-0.2791666666666667,0.25037037037037047,3.9732999999821175],[-0.2791666666666667,0.25037037037037047,3.990000000000002],[-0.23145833333333338,0.24833333333333338,4.006799999982121],[-0.23145833333333338,0.24833333333333338,4.023400000005964],[-0.14562499999999995,0.1883333333333334,4.039999999999999],[-0.07218749999999995,0.15722222222222218,4.0566999999880835],[0.00614583333333331,0.1594444444444445,4.0760000000000005],[0.00614583333333331,0.1594444444444445,4.09019999998808],[0.08406250000000005,0.15981481481481474,4.106699999988081],[0.09458333333333328,0.17462962962962955,4.125199999988077],[0.13562500000000005,0.15148148148148138,4.140000000000001],[0.16687500000000005,0.16648148148148145,4.160599999994041],[0.16687500000000005,0.16648148148148145,4.173400000005962],[0.20062499999999991,0.15777777777777785,4.190299999982116],[0.2335416666666667,0.1361111111111111,4.209299999982122],[0.25760416666666663,0.11592592592592597,4.229199999988083],[0.2609375,0.17240740740740745,4.243799999982123],[0.2609375,0.17240740740740745,4.256799999982121],[0.2530208333333334,0.22388888888888886,4.273400000005964],[0.2459374999999999,0.20166666666666663,4.290099999994041],[0.22781250000000006,0.1794444444444444,4.3120999999940395],[0.24812500000000004,0.14629629629629629,4.32709999999404],[0.24812500000000004,0.14629629629629629,4.340099999994038],[0.22583333333333327,0.14833333333333337,4.356900000005965],[0.19927083333333329,0.13185185185185194,4.373400000005958],[0.1865624999999999,0.12907407407407415,4.390400000005961],[0.17614583333333325,0.15648148148148147,4.412900000005962],[0.17614583333333325,0.15648148148148147,4.423699999988081],[0.16458333333333333,0.2051851851851851,4.440299999982116],[0.1482291666666666,0.21055555555555563,4.456900000005959],[0.14614583333333328,0.21481481481481482,4.4780000000000015],[0.15374999999999991,0.22240740740740744,4.494599999994044],[0.16677083333333323,0.23037037037037034,4.510599999994042],[0.18104166666666663,0.2505555555555555,4.529599999994041],[0.18104166666666663,0.2505555555555555,4.540299999982118],[0.19145833333333329,0.23722222222222225,4.557099999994044],[0.2033333333333334,0.21851851851851853,4.575400000005963],[0.20125000000000004,0.19092592592592597,4.596699999988083],[0.20125000000000004,0.19092592592592597,4.606900000005965],[0.21197916666666666,0.13555555555555565,4.623699999988077],[0.2048958333333334,0.057037037037036956,4.645900000005959],[0.2048958333333334,0.057037037037036956,4.656900000005962],[0.19166666666666668,0.01055555555555564,4.673599999994039],[0.1820833333333333,-0.020185185185185143,4.7010000000000005],[0.1820833333333333,-0.020185185185185143,4.707799999982122],[0.18875000000000006,-0.08203703703703706,4.72379999998212],[0.18312499999999995,-0.13240740740740742,4.743599999994039],[0.18312499999999995,-0.13240740740740742,4.7635000000000005],[0.16843750000000005,-0.19500000000000003,4.77359999999404],[0.17541666666666675,-0.20092592592592592,4.790299999982118],[0.18239583333333323,-0.20685185185185184,4.807299999982121],[0.18166666666666675,-0.22259259259259256,4.831299999982122],[0.18166666666666675,-0.22259259259259256,4.84019999998808],[0.16739583333333338,-0.2403703703703704,4.856999999999999],[0.17135416666666667,-0.22888888888888892,4.874199999988079],[0.190625,-0.26592592592592595,4.897500000000001],[0.190625,-0.26592592592592595,4.90679999998212],[0.2,-0.3383333333333333,4.923699999988081],[0.18760416666666657,-0.36314814814814816,4.945099999994042],[0.18760416666666657,-0.36314814814814816,4.957099999994043],[0.19041666666666662,-0.3568518518518518,4.973599999994043],[0.1946875000000001,-0.3424074074074074,4.9979999999999976],[0.1946875000000001,-0.3424074074074074,5.006799999982121],[0.18697916666666667,-0.31370370370370365,5.0234999999999985],[0.19104166666666675,-0.3320370370370371,5.04040000000596],[0.18895833333333342,-0.3111111111111111,5.063099999994037],[0.1898958333333333,-0.2929629629629629,5.077400000005959],[0.1734375,-0.3296296296296296,5.09469999998808],[0.1337500000000001,-0.33111111111111113,5.110199999988083],[0.11739583333333338,-0.37,5.130299999982121],[0.11739583333333338,-0.37,5.140099999994042],[0.11229166666666662,-0.3514814814814815,5.15719999998808],[0.10864583333333329,-0.3931481481481482,5.173500000000004],[0.10281250000000004,-0.40796296296296297,5.19609999999404],[0.10281250000000004,-0.40796296296296297,5.206799999982117],[0.10104166666666667,-0.4674074074074074,5.2234000000059595],[0.09364583333333343,-0.4807407407407408,5.242599999994042],[0.0962500000000001,-0.5259259259259259,5.26159999999404],[0.09270833333333334,-0.5531481481481482,5.276400000005964],[0.11791666666666671,-0.5512962962962963,5.296299999982118],[0.11791666666666671,-0.5512962962962963,5.307000000000002],[0.15114583333333323,-0.567037037037037,5.326900000005963],[0.15114583333333323,-0.567037037037037,5.340099999994038],[0.17895833333333327,-0.5194444444444445,5.356699999988081],[0.19635416666666666,-0.5205555555555555,5.375099999994042],[0.209375,-0.504074074074074,5.395499999999998],[0.209375,-0.504074074074074,5.406900000005962],[0.21208333333333323,-0.5298148148148148,5.423400000005962],[0.24489583333333323,-0.5348148148148149,5.441400000005963],[0.24614583333333329,-0.5366666666666667,5.459299999982122],[0.2493750000000001,-0.554074074074074,5.478500000000004],[0.2633333333333333,-0.5827777777777777,5.498699999988077],[0.2633333333333333,-0.5827777777777777,5.506699999988079],[0.25270833333333326,-0.5879629629629629,5.523400000005964],[0.2513541666666666,-0.585,5.539999999999999],[0.25770833333333343,-0.5929629629629629,5.557299999982121],[0.27072916666666674,-0.6151851851851852,5.576400000005961],[0.2478125000000001,-0.615,5.594599999994038],[0.23739583333333342,-0.5994444444444444,5.610199999988083],[0.2053124999999999,-0.615925925925926,5.6260999999940395],[0.19864583333333338,-0.6346296296296297,5.646400000005961],[0.19864583333333338,-0.6346296296296297,5.667199999988078],[0.22604166666666667,-0.6294444444444444,5.685599999994039],[0.22604166666666667,-0.6294444444444444,5.692599999994037],[0.2193749999999999,-0.605,5.706799999982117],[0.22260416666666671,-0.5790740740740741,5.7234000000059595],[0.21822916666666667,-0.5855555555555555,5.743699999988081],[0.21822916666666667,-0.5855555555555555,5.756699999988079],[0.1951041666666666,-0.5705555555555556,5.773299999982122],[0.17072916666666677,-0.5475925925925925,5.789999999999999],[0.17520833333333338,-0.5335185185185186,5.811299999982118],[0.15208333333333332,-0.542037037037037,5.826599999994038],[0.15041666666666675,-0.5055555555555555,5.840000000000003],[0.15041666666666675,-0.5055555555555555,5.8567999999821225],[0.1212500000000001,-0.4925925925925926,5.873400000005958],[0.0865624999999999,-0.45018518518518524,5.89519999998808],[0.0865624999999999,-0.45018518518518524,5.906699999988078],[0.05010416666666669,-0.41648148148148145,5.923500000000004],[0.023958333333333335,-0.4053703703703703,5.94009999999404],[0.030104166666666644,-0.3987037037037037,5.956699999988082],[0.03781249999999995,-0.3942592592592592,5.9734000000059595],[0.03354166666666671,-0.3827777777777778,5.9917999999821205],[0.03093750000000005,-0.384074074074074,6.006699999988079],[0.03093750000000005,-0.384074074074074,6.023400000005964],[0.07239583333333334,-0.36796296296296294,6.040099999994041],[0.08458333333333339,-0.3609259259259259,6.061299999982118],[0.1267708333333334,-0.3527777777777778,6.076599999994038],[0.1267708333333334,-0.3527777777777778,6.090099999994038],[0.11760416666666676,-0.3718518518518519,6.1067999999821225],[0.14447916666666671,-0.3638888888888889,6.1235],[0.16520833333333323,-0.3598148148148148,6.140000000000001],[0.13895833333333343,-0.3446296296296297,6.15829999998212],[0.11052083333333323,-0.3440740740740741,6.17329999998212],[0.09645833333333324,-0.3181481481481482,6.194099999994037],[0.0796875,-0.2807407407407408,6.209000000000003],[0.0796875,-0.2807407407407408,6.2234000000059595],[0.0728125000000001,-0.2675925925925926,6.240000000000002],[0.07114583333333328,-0.2733333333333334,6.256699999988079],[0.06583333333333338,-0.25388888888888894,6.2741999999880775],[0.06218750000000005,-0.20611111111111113,6.290900000005962],[0.05,-0.18722222222222226,6.3120999999940395],[0.058541666666666714,-0.1977777777777778,6.326400000005961],[0.08354166666666671,-0.1881481481481482,6.340099999994038],[0.08354166666666671,-0.1881481481481482,6.3567999999821225],[0.09031250000000005,-0.16944444444444445,6.373299999982123],[0.11437499999999995,-0.1940740740740741,6.390099999994042]]","[0.0002999999821184929,0.05390000000596018,0.056900000005960294,0.07350000000000279,0.0902999999821219,0.10979999998212264,0.12609999999403954,0.14590000000595893,0.15700000000000358,0.17340000000596234,0.19169999998808152,0.20909999999403794,0.2292999999821177,0.2435000000000045,0.2569999999999979,0.2734999999999985,0.29050000000000153,0.30679999998211827,0.32709999999404005,0.34150000000000347,0.36019999998808316,0.3747999999821161,0.39729999998211696,0.4067999999821197,0.4235000000000042,0.4400999999940396,0.4569000000059589,0.47350000000000136,0.493900000005965,0.5067999999821211,0.5234999999999985,0.540099999994041,0.5602999999821208,0.5766999999880795,0.5925000000000011,0.6102999999821179,0.6266999999880767,0.6460000000000008,0.6570000000000036,0.6739000000059647,0.6937999999821187,0.7096999999880822,0.7287999999821224,0.7450000000000045,0.7575999999940422,0.7734999999999985,0.7920000000000016,0.8129000000059605,0.8235999999940375,0.84019999998808,0.8597999999821226,0.875,0.8980000000000032,0.9070999999940383,0.9235000000000042,0.9406999999880767,0.9570000000000007,0.9735000000000014,0.9947999999821207,1.0110999999940375,1.0275999999940382,1.0420999999940435,1.0626999999880766,1.0774000000059587,1.0946999999880802,1.110299999982118,1.123400000005958,1.1400999999940424,1.1570999999940383,1.1735000000000042,1.1917999999821163,1.2080999999940403,1.2235000000000014,1.2400999999940439,1.256799999982121,1.2734000000059638,1.290099999994041,1.3127999999821185,1.3235999999940375,1.3400999999940382,1.3574000000059598,1.3735,1.3901999999880772,1.4067999999821197,1.4235000000000042,1.4419000000059583,1.458299999982117,1.4735000000000014,1.4951999999880812,1.5100999999940399,1.5262999999821218,1.5435999999940435,1.5639000000059582,1.5774000000059587,1.5900999999940382,1.6066999999880807,1.6235,1.6400999999940424,1.6569000000059617,1.6734000000059623,1.6900999999940396,1.7079999999999984,1.728400000005962,1.743799999982123,1.7616999999880818,1.7734000000059638,1.790099999994041,1.8115000000000023,1.8267999999821214,1.8400999999940382,1.8566999999880807,1.8735,1.8900999999940424,1.9104000000059642,1.923599999994039,1.9400999999940396,1.9570999999940426,1.9734000000059595,1.994599999994044,2.0104000000059585,2.026900000005959,2.040099999994041,2.0611999999880766,2.076999999999998,2.090400000005964,2.1069999999999993,2.125900000005963,2.1400999999940424,2.1606999999880827,2.1795000000000044,2.1900999999940396,2.206799999982117,2.2234000000059595,2.2435000000000045,2.2605999999940423,2.276400000005964,2.2927999999821225,2.312599999994042,2.327199999988082,2.340099999994038,2.3567999999821225,2.373400000005958,2.396599999994038,2.4067999999821197,2.423500000000004,2.4400999999940396,2.4570000000000007,2.4734000000059595,2.4941999999880835,2.5066999999880792,2.5234000000059638,2.540199999988083,2.5614000000059605,2.5765999999940377,2.5937999999821173,2.6105999999940437,2.627099999994037,2.645099999994038,2.6606999999880827,2.677299999982118,2.6931999999880816,2.709699999988082,2.728400000005962,2.743699999988081,2.756799999982121,2.7734000000059638,2.790099999994041,2.8067999999821183,2.826400000005961,2.840099999994038,2.8567999999821225,2.873400000005958,2.890199999988077,2.9069000000059617,2.9234000000059623,2.940599999994042,2.9570000000000007,2.9735000000000014,2.9944000000059603,3.0066999999880792,3.0234999999999985,3.040099999994041,3.0611999999880766,3.0769000000059634,3.094799999982122,3.110500000000002,3.1270000000000024,3.1461999999880774,3.15719999998808,3.1734000000059623,3.192900000005963,3.209000000000003,3.228500000000004,3.2435000000000045,3.256799999982121,3.2734000000059638,3.2905000000000015,3.3067999999821183,3.327199999988082,3.340099999994038,3.3567999999821225,3.373400000005958,3.3900999999940424,3.406699999988078,3.423500000000004,3.4400999999940396,3.463000000000001,3.473699999988078,3.4902999999821205,3.5120999999940423,3.5234999999999985,3.540099999994041,3.5567999999821183,3.5757999999821166,3.5915000000000035,3.610299999982118,3.625099999994042,3.6400000000000006,3.659900000005962,3.675099999994039,3.691499999999998,3.709099999994038,3.728199999988078,3.7444000000059603,3.7566999999880792,3.7734000000059638,3.790099999994041,3.8119999999999976,3.8272999999821167,3.840099999994038,3.8567999999821225,3.8735,3.895000000000003,3.910400000005964,3.9234000000059623,3.9399999999999977,3.958500000000001,3.9732999999821175,3.990000000000002,4.006799999982121,4.023400000005964,4.039999999999999,4.0566999999880835,4.0760000000000005,4.09019999998808,4.106699999988081,4.125199999988077,4.140000000000001,4.160599999994041,4.173400000005962,4.190299999982116,4.209299999982122,4.229199999988083,4.243799999982123,4.256799999982121,4.273400000005964,4.290099999994041,4.3120999999940395,4.32709999999404,4.340099999994038,4.356900000005965,4.373400000005958,4.390400000005961,4.412900000005962,4.423699999988081,4.440299999982116,4.456900000005959,4.4780000000000015,4.494599999994044,4.510599999994042,4.529599999994041,4.540299999982118,4.557099999994044,4.575400000005963,4.596699999988083,4.606900000005965,4.623699999988077,4.645900000005959,4.656900000005962,4.673599999994039,4.7010000000000005,4.707799999982122,4.72379999998212,4.743599999994039,4.7635000000000005,4.77359999999404,4.790299999982118,4.807299999982121,4.831299999982122,4.84019999998808,4.856999999999999,4.874199999988079,4.897500000000001,4.90679999998212,4.923699999988081,4.945099999994042,4.957099999994043,4.973599999994043,4.9979999999999976,5.006799999982121,5.0234999999999985,5.04040000000596,5.063099999994037,5.077400000005959,5.09469999998808,5.110199999988083,5.130299999982121,5.140099999994042,5.15719999998808,5.173500000000004,5.19609999999404,5.206799999982117,5.2234000000059595,5.242599999994042,5.26159999999404,5.276400000005964,5.296299999982118,5.307000000000002,5.326900000005963,5.340099999994038,5.356699999988081,5.375099999994042,5.395499999999998,5.406900000005962,5.423400000005962,5.441400000005963,5.459299999982122,5.478500000000004,5.498699999988077,5.506699999988079,5.523400000005964,5.539999999999999,5.557299999982121,5.576400000005961,5.594599999994038,5.610199999988083,5.6260999999940395,5.646400000005961,5.667199999988078,5.685599999994039,5.692599999994037,5.706799999982117,5.7234000000059595,5.743699999988081,5.756699999988079,5.773299999982122,5.789999999999999,5.811299999982118,5.826599999994038,5.840000000000003,5.8567999999821225,5.873400000005958,5.89519999998808,5.906699999988078,5.923500000000004,5.94009999999404,5.956699999988082,5.9734000000059595,5.9917999999821205,6.006699999988079,6.023400000005964,6.040099999994041,6.061299999982118,6.076599999994038,6.090099999994038,6.1067999999821225,6.1235,6.140000000000001,6.15829999998212,6.17329999998212,6.194099999994037,6.209000000000003,6.2234000000059595,6.240000000000002,6.256699999988079,6.2741999999880775,6.290900000005962,6.3120999999940395,6.326400000005961,6.340099999994038,6.3567999999821225,6.373299999982123,6.390099999994042]","[1732691271090,1732691271133,1732691271136,1732691271152,1732691271169,1732691271189,1732691271205,1732691271224,1732691271236,1732691271252,1732691271270,1732691271288,1732691271308,1732691271322,1732691271336,1732691271352,1732691271369,1732691271386,1732691271406,1732691271420,1732691271439,1732691271453,1732691271476,1732691271485,1732691271502,1732691271519,1732691271536,1732691271552,1732691271573,1732691271585,1732691271602,1732691271619,1732691271639,1732691271655,1732691271671,1732691271689,1732691271705,1732691271725,1732691271736,1732691271753,1732691271772,1732691271788,1732691271807,1732691271824,1732691271836,1732691271852,1732691271871,1732691271891,1732691271902,1732691271919,1732691271938,1732691271954,1732691271977,1732691271986,1732691272002,1732691272019,1732691272036,1732691272052,1732691272073,1732691272090,1732691272106,1732691272121,1732691272141,1732691272156,1732691272173,1732691272189,1732691272202,1732691272219,1732691272236,1732691272252,1732691272270,1732691272287,1732691272302,1732691272319,1732691272336,1732691272352,1732691272369,1732691272391,1732691272402,1732691272419,1732691272436,1732691272452,1732691272469,1732691272485,1732691272502,1732691272521,1732691272537,1732691272552,1732691272574,1732691272589,1732691272605,1732691272622,1732691272642,1732691272656,1732691272669,1732691272685,1732691272702,1732691272719,1732691272736,1732691272752,1732691272769,1732691272787,1732691272807,1732691272822,1732691272840,1732691272852,1732691272869,1732691272890,1732691272905,1732691272919,1732691272935,1732691272952,1732691272969,1732691272989,1732691273002,1732691273019,1732691273036,1732691273052,1732691273073,1732691273089,1732691273106,1732691273119,1732691273140,1732691273156,1732691273169,1732691273186,1732691273205,1732691273219,1732691273239,1732691273258,1732691273269,1732691273285,1732691273302,1732691273322,1732691273339,1732691273355,1732691273371,1732691273391,1732691273406,1732691273419,1732691273435,1732691273452,1732691273475,1732691273485,1732691273502,1732691273519,1732691273536,1732691273552,1732691273573,1732691273585,1732691273602,1732691273619,1732691273640,1732691273655,1732691273673,1732691273689,1732691273706,1732691273724,1732691273739,1732691273756,1732691273772,1732691273788,1732691273807,1732691273822,1732691273835,1732691273852,1732691273869,1732691273885,1732691273905,1732691273919,1732691273935,1732691273952,1732691273969,1732691273986,1732691274002,1732691274019,1732691274036,1732691274052,1732691274073,1732691274085,1732691274102,1732691274119,1732691274140,1732691274156,1732691274174,1732691274189,1732691274206,1732691274225,1732691274236,1732691274252,1732691274272,1732691274288,1732691274307,1732691274322,1732691274335,1732691274352,1732691274369,1732691274385,1732691274406,1732691274419,1732691274435,1732691274452,1732691274469,1732691274485,1732691274502,1732691274519,1732691274542,1732691274552,1732691274569,1732691274591,1732691274602,1732691274619,1732691274635,1732691274654,1732691274670,1732691274689,1732691274704,1732691274719,1732691274739,1732691274754,1732691274770,1732691274788,1732691274807,1732691274823,1732691274835,1732691274852,1732691274869,1732691274891,1732691274906,1732691274919,1732691274935,1732691274952,1732691274974,1732691274989,1732691275002,1732691275019,1732691275037,1732691275052,1732691275069,1732691275085,1732691275102,1732691275119,1732691275135,1732691275155,1732691275169,1732691275185,1732691275204,1732691275219,1732691275239,1732691275252,1732691275269,1732691275288,1732691275308,1732691275322,1732691275335,1732691275352,1732691275369,1732691275391,1732691275406,1732691275419,1732691275436,1732691275452,1732691275469,1732691275492,1732691275502,1732691275519,1732691275536,1732691275557,1732691275573,1732691275589,1732691275608,1732691275619,1732691275636,1732691275654,1732691275675,1732691275686,1732691275702,1732691275724,1732691275736,1732691275752,1732691275780,1732691275786,1732691275802,1732691275822,1732691275842,1732691275852,1732691275869,1732691275886,1732691275910,1732691275919,1732691275936,1732691275953,1732691275976,1732691275985,1732691276002,1732691276024,1732691276036,1732691276052,1732691276077,1732691276085,1732691276102,1732691276119,1732691276142,1732691276156,1732691276173,1732691276189,1732691276209,1732691276219,1732691276236,1732691276252,1732691276275,1732691276285,1732691276302,1732691276321,1732691276340,1732691276355,1732691276375,1732691276386,1732691276406,1732691276419,1732691276435,1732691276454,1732691276474,1732691276486,1732691276502,1732691276520,1732691276538,1732691276557,1732691276577,1732691276585,1732691276602,1732691276619,1732691276636,1732691276655,1732691276673,1732691276689,1732691276705,1732691276725,1732691276746,1732691276764,1732691276771,1732691276785,1732691276802,1732691276822,1732691276835,1732691276852,1732691276869,1732691276890,1732691276905,1732691276919,1732691276935,1732691276952,1732691276974,1732691276985,1732691277002,1732691277019,1732691277035,1732691277052,1732691277070,1732691277085,1732691277102,1732691277119,1732691277140,1732691277155,1732691277169,1732691277185,1732691277202,1732691277219,1732691277237,1732691277252,1732691277273,1732691277288,1732691277302,1732691277319,1732691277335,1732691277353,1732691277370,1732691277391,1732691277405,1732691277419,1732691277435,1732691277452,1732691277469]","[[1171.9,386.5],[1171.9,386.5],[1171.9,386.5],[1188.9,389.7],[1193.3,390.1],[1208.5,378.8],[1201.9,380.4],[1195.3,382],[1195.3,382],[1209.3,385.4],[1223.3,388.8],[1211.9,383.5],[1193.1,383.2],[1170.3,382.5],[1170.3,382.5],[1142.6,384.9],[1136.8,405.4],[1131,425.9],[1121.5,431.1],[1112,436.3],[1061.1,434.7],[1010.2,433.1],[967.9,443.4],[967.9,443.4],[933,448.7],[933,448.7],[899.5,452.4],[870.4,456.7],[815.1,451.9],[815.1,451.9],[759.8,447.1],[706.4,449.6],[649.6,460.7],[626.2,478.9],[602.8,497.1],[590.1,506.8],[575.9,510.4],[560.3,515.6],[560.3,515.6],[591.3,510.4],[656.6,492.2],[722.7,474.6],[792.9,453.4],[866.5,423.6],[866.5,423.6],[934.4,392.7],[1010.7,368.6],[1082.2,346.2],[1082.2,346.2],[1161.3,325.1],[1239.6,302.2],[1264.1,291],[1272.5,287.9],[1272.5,287.9],[1281.4,285.6],[1292,287.4],[1292,287.4],[1297.8,298.7],[1309.3,311.1],[1289.9,338.9],[1274.8,370.5],[1253.6,406.9],[1228.5,440.6],[1209.5,484.5],[1186.4,528.2],[1162.4,568.3],[1162.4,568.3],[1145.7,596.7],[1145.7,596.7],[1132.5,639],[1123.1,663.8],[1136.1,669.7],[1136.1,669.7],[1145.2,673.6],[1161.5,673.9],[1161.5,673.9],[1182.5,678.7],[1200.4,666.2],[1200.4,666.2],[1204.9,665.9],[1240,669],[1267.8,683.8],[1296.9,675.2],[1296.9,675.2],[1308,692.8],[1303.1,712.8],[1278.4,743.6],[1264.5,772],[1248.5,797.9],[1229.5,830.9],[1238,857],[1215.5,881.9],[1215.5,881.9],[1193.8,894.8],[1193.8,894.8],[1155.3,911.8],[1131.2,913.4],[1131.2,913.4],[1123.2,909.3],[1136.8,903.8],[1122.8,898.9],[1106.2,898.9],[1087,900.6],[1056.5,895.9],[1028.3,896.1],[1028.3,896.1],[1002.6,904.9],[995,905.8],[978.4,926.2],[978.4,926.2],[961.8,946.6],[956,946.7],[980.5,956.3],[1013.5,967],[1013.5,967],[1034.4,964.1],[1060.4,959.2],[1080.6,952.1],[1090.3,956.9],[1097.7,960.5],[1136,942.6],[1165.1,926.8],[1179.2,932.3],[1166.9,902.3],[1166.9,902.3],[1141.9,896.5],[1151.4,869.9],[1148.7,870.5],[1149.5,871.6],[1155.7,857.4],[1155.7,857.4],[1178.9,817],[1171.6,805.7],[1196.3,761],[1194.4,702.1],[1193,695],[1225,632.8],[1226.6,627],[1235.1,580.6],[1235.1,580.6],[1249.5,540.5],[1249.2,497],[1239.9,503.4],[1239.9,503.4],[1239,489.4],[1239,489.4],[1190.7,511.2],[1213.9,516.3],[1220.2,535.4],[1220.2,535.4],[1202,581.9],[1181.1,598.5],[1197.9,653.4],[1209.2,692.9],[1236.6,748.5],[1258.1,770.2],[1263.9,775.1],[1294.3,775.5],[1288,792.5],[1303.8,775.1],[1302.1,753.5],[1313.7,738.1],[1281.1,695.4],[1244.7,654.3],[1244.7,654.3],[1194.1,625.6],[1151.1,597.6],[1134,606.8],[1128.7,634.7],[1128.7,634.7],[1116.9,661.8],[1112.9,672.6],[1118.1,719.2],[1118.1,719.2],[1117.4,749.9],[1137.1,783.5],[1137.1,783.5],[1144.7,826.4],[1158.5,834.8],[1158.5,834.8],[1177.1,861],[1189.7,864.4],[1163.7,852.8],[1132.2,854.8],[1101.8,860.4],[1088.5,849.4],[1081.2,853],[1059.8,858.4],[1059.8,858.4],[1061.4,866.3],[1072.2,879.2],[1068.1,886.2],[1063.2,898.5],[1080.5,905.1],[1080.5,905.1],[1095.4,903.7],[1110.5,909.5],[1116.8,900.3],[1129.8,889.8],[1129.8,889.8],[1143.2,879],[1147.2,852.2],[1150.4,836.6],[1150.4,836.6],[1153.5,827],[1103.7,790.5],[1071.9,763.9],[1071.9,763.9],[1041.1,735],[1011.9,704.8],[1011.9,704.8],[976.6,675.7],[938.3,644.4],[900,613.1],[862.6,595.3],[827.7,575],[783.7,556.2],[764.2,573.9],[733,571],[691.6,576.5],[652.2,581.6],[618.9,585.6],[595.1,613.2],[578.4,630.6],[578.4,630.6],[553,642.2],[525.1,656.3],[497,676.5],[502.9,671.9],[502.9,671.9],[496.7,684],[513.7,688.1],[551.9,693.1],[590.1,698.1],[590.1,698.1],[627.1,676.6],[654.7,675.5],[692,675.2],[692,675.2],[737.8,674.1],[737.8,674.1],[820.2,641.7],[890.7,624.9],[965.9,626.1],[965.9,626.1],[1040.7,626.3],[1050.8,634.3],[1090.2,621.8],[1120.2,629.9],[1120.2,629.9],[1152.6,625.2],[1184.2,613.5],[1207.3,602.6],[1210.5,633.1],[1210.5,633.1],[1202.9,660.9],[1196.1,648.9],[1178.7,636.9],[1198.2,619],[1198.2,619],[1176.8,620.1],[1151.3,611.2],[1139.1,609.7],[1129.1,624.5],[1129.1,624.5],[1118,650.8],[1102.3,653.7],[1100.3,656],[1107.6,660.1],[1120.1,664.4],[1133.8,675.3],[1133.8,675.3],[1143.8,668.1],[1155.2,658],[1153.2,643.1],[1153.2,643.1],[1163.5,613.2],[1156.7,570.8],[1156.7,570.8],[1144,545.7],[1134.8,529.1],[1134.8,529.1],[1141.2,495.7],[1135.8,468.5],[1135.8,468.5],[1121.7,434.7],[1128.4,431.5],[1135.1,428.3],[1134.4,419.8],[1134.4,419.8],[1120.7,410.2],[1124.5,416.4],[1143,396.4],[1143,396.4],[1152,357.3],[1140.1,343.9],[1140.1,343.9],[1142.8,347.3],[1146.9,355.1],[1146.9,355.1],[1139.5,370.6],[1143.4,360.7],[1141.4,372],[1142.3,381.8],[1126.5,362],[1088.4,361.2],[1072.7,340.2],[1072.7,340.2],[1067.8,350.2],[1064.3,327.7],[1058.7,319.7],[1058.7,319.7],[1057,287.6],[1049.9,280.4],[1052.4,256],[1049,241.3],[1073.2,242.3],[1073.2,242.3],[1105.1,233.8],[1105.1,233.8],[1131.8,259.5],[1148.5,258.9],[1161,267.8],[1161,267.8],[1163.6,253.9],[1195.1,251.2],[1196.3,250.2],[1199.4,240.8],[1212.8,225.3],[1212.8,225.3],[1202.6,222.5],[1201.3,224.1],[1207.4,219.8],[1219.9,207.8],[1197.9,207.9],[1187.9,216.3],[1157.1,207.4],[1150.7,197.3],[1150.7,197.3],[1177,200.1],[1177,200.1],[1170.6,213.3],[1173.7,227.3],[1169.5,223.8],[1169.5,223.8],[1147.3,231.9],[1123.9,244.3],[1128.2,251.9],[1106,247.3],[1104.4,267],[1104.4,267],[1076.4,274],[1043.1,296.9],[1043.1,296.9],[1008.1,315.1],[983,321.1],[988.9,324.7],[996.3,327.1],[992.2,333.3],[989.7,332.6],[989.7,332.6],[1029.5,341.3],[1041.2,345.1],[1081.7,349.5],[1081.7,349.5],[1072.9,339.2],[1098.7,343.5],[1118.6,345.7],[1093.4,353.9],[1066.1,354.2],[1052.6,368.2],[1036.5,388.4],[1036.5,388.4],[1029.9,395.5],[1028.3,392.4],[1023.2,402.9],[1019.7,428.7],[1008,438.9],[1016.2,433.2],[1040.2,438.4],[1040.2,438.4],[1046.7,448.5],[1069.8,435.2]]","[-0.2,0.6000000000000001]","[0.2,0.6000000000000001]","[0.6000000000000001,0.6000000000000001]","[-0.6000000000000001,-0.2]","[-0.6000000000000001,0.2]","[-0.6000000000000001,-0.6000000000000001]","[-0.2,-0.2]","[0.2,-0.2]","[0.6000000000000001,-0.2]","[-0.2,0.2]","[0.2,0.2]","[0.6000000000000001,0.2]","[-0.2,-0.6000000000000001]","[0.2,-0.6000000000000001]","[0.6000000000000001,-0.6000000000000001]",0,0,0,0,1,3,Monitor,25,40,9,1,50,4,1,60,5
