inst1_resp.keys,inst1_resp.rt,calibrationMouse.x,calibrationMouse.y,calibrationMouse.leftButton,calibrationMouse.midButton,calibrationMouse.rightButton,calibrationClick.x,calibrationClick.y,calibrationClick.leftButton,calibrationClick.midButton,calibrationClick.rightButton,trialsc.thisRepN,trialsc.thisTrialN,trialsc.thisN,trialsc.thisIndex,trialsc.ran,calibration_x,calibration_y,participant,session,date,expName,psychopyVersion,OS,frameRate,calibrationClick.clicked_name,ScreenRes_pixels,Camera_pixels,mouse_2.x,mouse_2.y,mouse_2.leftButton,mouse_2.midButton,mouse_2.rightButton,mouse_2.time,mouse_2.clicked_name,mouse.x,mouse.y,mouse.leftButton,mouse.midButton,mouse.rightButton,mouse.time,mouse.clicked_name,Choice,Trial,TrialDuration,MOUSE_GAZE,ET_GAZE,ET_GAZE_x_T,time,unixTime,ET_GAZE_NF,Loc_Bus_label,Loc_Metro_label,Loc_RH_label,Loc_Cost_label,Loc_Travel_label,Loc_Comfort_label,Loc_Bus_cost,Loc_Metro_cost,Loc_RH_cost,Loc_Bus_travel,Loc_Metro_travel,Loc_RH_travel,Loc_Bus_comfort,Loc_Metro_comfort,Loc_RH_comfort,trials.thisRepN,trials.thisTrialN,trials.thisN,trials.thisIndex,trials.ran,Block,Device,RH_cost,RH_travel_time,RH_Comfort,metro_cost,metro_travel_time,metro_Comfort,Bus_cost,Bus_travel_time,Bus_Comfort
space,2.5423,0.159375,-0.059259259,1,0,0,-0.001041667,-0.314814815,1,0,0,0,0,0,10,1,0,-0.33,33,001,2024-11-27_13h50.40.406,Attention_exp_legacy,2023.1.0,Win32,59.88023952,,,,,,,,,,,,,,,,,,,,,,,,,,,,,,,,,,,,,,,,,,,,,,,,,,,,,,,,,
,,,,,,,-0.328125,0.333333333,1,0,0,0,1,1,7,1,-0.33,0.33,33,001,2024-11-27_13h50.40.406,Attention_exp_legacy,2023.1.0,Win32,59.88023952,calibration_square,,,,,,,,,,,,,,,,,,,,,,,,,,,,,,,,,,,,,,,,,,,,,,,,,,,,,,,,
,,,,,,,-0.680208333,-0.331481481,1,0,0,0,2,2,1,1,-0.67,-0.33,33,001,2024-11-27_13h50.40.406,Attention_exp_legacy,2023.1.0,Win32,59.88023952,,,,,,,,,,,,,,,,,,,,,,,,,,,,,,,,,,,,,,,,,,,,,,,,,,,,,,,,,
,,,,,,,0.330208333,-0.007407407,1,0,0,0,3,3,16,1,0.33,0,33,001,2024-11-27_13h50.40.406,Attention_exp_legacy,2023.1.0,Win32,59.88023952,calibration_square,,,,,,,,,,,,,,,,,,,,,,,,,,,,,,,,,,,,,,,,,,,,,,,,,,,,,,,,
,,,,,,,0.002083333,0.011111111,1,0,0,0,4,4,11,1,0,0,33,001,2024-11-27_13h50.40.406,Attention_exp_legacy,2023.1.0,Win32,59.88023952,,,,,,,,,,,,,,,,,,,,,,,,,,,,,,,,,,,,,,,,,,,,,,,,,,,,,,,,,
,,,,,,,-0.330208333,-0.340740741,1,0,0,0,5,5,5,1,-0.33,-0.33,33,001,2024-11-27_13h50.40.406,Attention_exp_legacy,2023.1.0,Win32,59.88023952,,,,,,,,,,,,,,,,,,,,,,,,,,,,,,,,,,,,,,,,,,,,,,,,,,,,,,,,,
,,,,,,,0.658333333,-0.666666667,1,0,0,0,6,6,20,1,0.67,-0.67,33,001,2024-11-27_13h50.40.406,Attention_exp_legacy,2023.1.0,Win32,59.88023952,,,,,,,,,,,,,,,,,,,,,,,,,,,,,,,,,,,,,,,,,,,,,,,,,,,,,,,,,
,,,,,,,0.329166667,0.664814815,1,0,0,0,7,7,18,1,0.33,0.67,33,001,2024-11-27_13h50.40.406,Attention_exp_legacy,2023.1.0,Win32,59.88023952,calibration_square,,,,,,,,,,,,,,,,,,,,,,,,,,,,,,,,,,,,,,,,,,,,,,,,,,,,,,,,
,,,,,,,0.33125,0.327777778,1,0,0,0,8,8,17,1,0.33,0.33,33,001,2024-11-27_13h50.40.406,Attention_exp_legacy,2023.1.0,Win32,59.88023952,calibration_square,,,,,,,,,,,,,,,,,,,,,,,,,,,,,,,,,,,,,,,,,,,,,,,,,,,,,,,,
,,,,,,,0.001041667,-0.653703704,1,0,0,0,9,9,9,1,0,-0.67,33,001,2024-11-27_13h50.40.406,Attention_exp_legacy,2023.1.0,Win32,59.88023952,,,,,,,,,,,,,,,,,,,,,,,,,,,,,,,,,,,,,,,,,,,,,,,,,,,,,,,,,
,,,,,,,0.328125,-0.67037037,1,0,0,0,10,10,14,1,0.33,-0.67,33,001,2024-11-27_13h50.40.406,Attention_exp_legacy,2023.1.0,Win32,59.88023952,calibration_square,,,,,,,,,,,,,,,,,,,,,,,,,,,,,,,,,,,,,,,,,,,,,,,,,,,,,,,,
,,,,,,,-0.007291667,0.335185185,1,0,0,0,11,11,12,1,0,0.33,33,001,2024-11-27_13h50.40.406,Attention_exp_legacy,2023.1.0,Win32,59.88023952,calibration_square,,,,,,,,,,,,,,,,,,,,,,,,,,,,,,,,,,,,,,,,,,,,,,,,,,,,,,,,
,,,,,,,0.320833333,-0.324074074,1,0,0,0,12,12,15,1,0.33,-0.33,33,001,2024-11-27_13h50.40.406,Attention_exp_legacy,2023.1.0,Win32,59.88023952,calibration_square,,,,,,,,,,,,,,,,,,,,,,,,,,,,,,,,,,,,,,,,,,,,,,,,,,,,,,,,
,,,,,,,-0.677083333,-0.67037037,1,0,0,0,13,13,0,1,-0.67,-0.67,33,001,2024-11-27_13h50.40.406,Attention_exp_legacy,2023.1.0,Win32,59.88023952,calibration_square,,,,,,,,,,,,,,,,,,,,,,,,,,,,,,,,,,,,,,,,,,,,,,,,,,,,,,,,
,,,,,,,-0.677083333,0.333333333,1,0,0,0,14,14,3,1,-0.67,0.33,33,001,2024-11-27_13h50.40.406,Attention_exp_legacy,2023.1.0,Win32,59.88023952,calibration_square,,,,,,,,,,,,,,,,,,,,,,,,,,,,,,,,,,,,,,,,,,,,,,,,,,,,,,,,
,,,,,,,-0.345833333,0.007407407,1,0,0,0,15,15,6,1,-0.33,0,33,001,2024-11-27_13h50.40.406,Attention_exp_legacy,2023.1.0,Win32,59.88023952,,,,,,,,,,,,,,,,,,,,,,,,,,,,,,,,,,,,,,,,,,,,,,,,,,,,,,,,,
,,,,,,,-0.330208333,-0.687037037,1,0,0,0,16,16,4,1,-0.33,-0.67,33,001,2024-11-27_13h50.40.406,Attention_exp_legacy,2023.1.0,Win32,59.88023952,,,,,,,,,,,,,,,,,,,,,,,,,,,,,,,,,,,,,,,,,,,,,,,,,,,,,,,,,
,,,,,,,-0.676041667,0.001851852,1,0,0,0,17,17,2,1,-0.67,0,33,001,2024-11-27_13h50.40.406,Attention_exp_legacy,2023.1.0,Win32,59.88023952,calibration_square,,,,,,,,,,,,,,,,,,,,,,,,,,,,,,,,,,,,,,,,,,,,,,,,,,,,,,,,
,,,,,,,-0.321875,0.681481481,1,0,0,0,18,18,8,1,-0.33,0.67,33,001,2024-11-27_13h50.40.406,Attention_exp_legacy,2023.1.0,Win32,59.88023952,,,,,,,,,,,,,,,,,,,,,,,,,,,,,,,,,,,,,,,,,,,,,,,,,,,,,,,,,
,,,,,,,0.671875,0.685185185,1,0,0,0,19,19,19,1,0.67,0.67,33,001,2024-11-27_13h50.40.406,Attention_exp_legacy,2023.1.0,Win32,59.88023952,,,,,,,,,,,,,,,,,,,,,,,,,,,,,,,,,,,,,,,,,,,,,,,,,,,,,,,,,
,,,,,,,-0.011458333,0.683333333,1,0,0,0,20,20,13,1,0,0.67,33,001,2024-11-27_13h50.40.406,Attention_exp_legacy,2023.1.0,Win32,59.88023952,,,,,,,,,,,,,,,,,,,,,,,,,,,,,,,,,,,,,,,,,,,,,,,,,,,,,,,,,
,,,,,,,,,,,,,,,,,,,33,001,2024-11-27_13h50.40.406,Attention_exp_legacy,2023.1.0,Win32,59.88023952,,"[1920,1080]","[640,480]",[-0.015625],[-0.5222222222222223],[1],[0],[0],[2.1793000000119207],"[""StartButton""]",[0.403125],[0.36666666666666664],[1],[0],[0],[4.899400000005961],"[""RH_label""]",RH_label,1,5.925,"[[-0.005208333333333333,-0.5277777777777778],[-0.005208333333333333,-0.5277777777777778],[-0.005208333333333333,-0.5277777777777778],[-0.005208333333333333,-0.5277777777777778],[-0.005208333333333333,-0.5277777777777778],[-0.005208333333333333,-0.5277777777777778],[-0.005208333333333333,-0.5277777777777778],[-0.005208333333333333,-0.5277777777777778],[-0.005208333333333333,-0.5277777777777778],[-0.005208333333333333,-0.5277777777777778],[-0.005208333333333333,-0.5277777777777778],[-0.005208333333333333,-0.5277777777777778],[-0.005208333333333333,-0.5277777777777778],[-0.005208333333333333,-0.5277777777777778],[-0.005208333333333333,-0.5277777777777778],[-0.005208333333333333,-0.5277777777777778],[-0.005208333333333333,-0.5277777777777778],[-0.005208333333333333,-0.5277777777777778],[-0.005208333333333333,-0.5277777777777778],[-0.005208333333333333,-0.5277777777777778],[-0.005208333333333333,-0.5277777777777778],[-0.005208333333333333,-0.5277777777777778],[-0.005208333333333333,-0.5277777777777778],[-0.005208333333333333,-0.5277777777777778],[-0.005208333333333333,-0.5277777777777778],[-0.005208333333333333,-0.5277777777777778],[-0.005208333333333333,-0.5277777777777778],[-0.005208333333333333,-0.5277777777777778],[-0.005208333333333333,-0.5277777777777778],[-0.005208333333333333,-0.5277777777777778],[-0.005208333333333333,-0.5277777777777778],[-0.005208333333333333,-0.5277777777777778],[-0.005208333333333333,-0.5277777777777778],[-0.005208333333333333,-0.5277777777777778],[-0.005208333333333333,-0.5277777777777778],[-0.005208333333333333,-0.5277777777777778],[-0.005208333333333333,-0.5277777777777778],[-0.005208333333333333,-0.5277777777777778],[-0.005208333333333333,-0.5277777777777778],[-0.005208333333333333,-0.5277777777777778],[-0.005208333333333333,-0.5277777777777778],[-0.005208333333333333,-0.5277777777777778],[-0.005208333333333333,-0.5277777777777778],[-0.005208333333333333,-0.5277777777777778],[-0.005208333333333333,-0.5277777777777778],[-0.005208333333333333,-0.5277777777777778],[-0.005208333333333333,-0.5277777777777778],[-0.005208333333333333,-0.5277777777777778],[-0.005208333333333333,-0.5277777777777778],[-0.005208333333333333,-0.5277777777777778],[-0.005208333333333333,-0.5277777777777778],[-0.005208333333333333,-0.5277777777777778],[-0.005208333333333333,-0.5277777777777778],[-0.005208333333333333,-0.5277777777777778],[-0.005208333333333333,-0.5277777777777778],[-0.005208333333333333,-0.5277777777777778],[-0.005208333333333333,-0.5277777777777778],[-0.005208333333333333,-0.5277777777777778],[-0.005208333333333333,-0.5277777777777778],[-0.005208333333333333,-0.5277777777777778],[-0.005208333333333333,-0.5277777777777778],[-0.005208333333333333,-0.5277777777777778],[-0.005208333333333333,-0.5277777777777778],[-0.005208333333333333,-0.5277777777777778],[-0.005208333333333333,-0.5277777777777778],[-0.005208333333333333,-0.5277777777777778],[-0.005208333333333333,-0.5277777777777778],[-0.005208333333333333,-0.5277777777777778],[-0.005208333333333333,-0.5277777777777778],[-0.005208333333333333,-0.5277777777777778],[-0.005208333333333333,-0.5277777777777778],[-0.005208333333333333,-0.5277777777777778],[-0.005208333333333333,-0.5277777777777778],[-0.005208333333333333,-0.5277777777777778],[-0.005208333333333333,-0.5277777777777778],[-0.005208333333333333,-0.5277777777777778],[-0.005208333333333333,-0.5277777777777778],[-0.005208333333333333,-0.5277777777777778],[-0.005208333333333333,-0.5277777777777778],[-0.003125,-0.524074074074074],[0.0020833333333333333,-0.524074074074074],[0.005208333333333333,-0.524074074074074],[0.005208333333333333,-0.524074074074074],[0.005208333333333333,-0.524074074074074],[0.005208333333333333,-0.524074074074074],[0.005208333333333333,-0.524074074074074],[0.005208333333333333,-0.524074074074074],[0.005208333333333333,-0.524074074074074],[0.005208333333333333,-0.524074074074074],[0.005208333333333333,-0.524074074074074],[0.005208333333333333,-0.524074074074074],[0.005208333333333333,-0.524074074074074],[0.005208333333333333,-0.524074074074074],[0.005208333333333333,-0.524074074074074],[0.005208333333333333,-0.524074074074074],[0.005208333333333333,-0.524074074074074],[0.005208333333333333,-0.524074074074074],[0.00625,-0.524074074074074],[0.007291666666666667,-0.5185185185185185],[0.013541666666666667,-0.5111111111111111],[0.019791666666666666,-0.5055555555555555],[0.022916666666666665,-0.5018518518518519],[0.023958333333333335,-0.49444444444444446],[0.026041666666666668,-0.4888888888888889],[0.030208333333333334,-0.4777777777777778],[0.035416666666666666,-0.4685185185185185],[0.040625,-0.46111111111111114],[0.042708333333333334,-0.45555555555555555],[0.04583333333333333,-0.45185185185185184],[0.04791666666666667,-0.45],[0.05,-0.44814814814814813],[0.051041666666666666,-0.4462962962962963],[0.053125,-0.4444444444444444],[0.05520833333333333,-0.4444444444444444],[0.05625,-0.4444444444444444],[0.05625,-0.4444444444444444],[0.05625,-0.4444444444444444],[0.05625,-0.4444444444444444],[0.05625,-0.4444444444444444],[0.05625,-0.4444444444444444],[0.05625,-0.4444444444444444],[0.05625,-0.4444444444444444],[0.05625,-0.4444444444444444],[0.05625,-0.4444444444444444],[0.05625,-0.4444444444444444],[0.05625,-0.4444444444444444],[0.05625,-0.4444444444444444],[0.05625,-0.4444444444444444],[0.05625,-0.4444444444444444],[0.05625,-0.4444444444444444],[0.05625,-0.4444444444444444],[0.05625,-0.4444444444444444],[0.05625,-0.4444444444444444],[0.05625,-0.4444444444444444],[0.05625,-0.4444444444444444],[0.05625,-0.4444444444444444],[0.05625,-0.4444444444444444],[0.05625,-0.4444444444444444],[0.05625,-0.4444444444444444],[0.05625,-0.4444444444444444],[0.05625,-0.4444444444444444],[0.05625,-0.4444444444444444],[0.05625,-0.4444444444444444],[0.05625,-0.4444444444444444],[0.05625,-0.4444444444444444],[0.05625,-0.4444444444444444],[0.05625,-0.4444444444444444],[0.05625,-0.4425925925925926],[0.05625,-0.4425925925925926],[0.05625,-0.4388888888888889],[0.05520833333333333,-0.4351851851851852],[0.05520833333333333,-0.42962962962962964],[0.057291666666666664,-0.42407407407407405],[0.059375,-0.4203703703703704],[0.06041666666666667,-0.4166666666666667],[0.0625,-0.4148148148148148],[0.06458333333333334,-0.4111111111111111],[0.06979166666666667,-0.40925925925925927],[0.07395833333333333,-0.4074074074074074],[0.07916666666666666,-0.40370370370370373],[0.08645833333333333,-0.40185185185185185],[0.08645833333333333,-0.4],[0.08645833333333333,-0.39814814814814814],[0.08645833333333333,-0.39814814814814814],[0.08645833333333333,-0.39814814814814814],[0.08645833333333333,-0.39814814814814814],[0.08645833333333333,-0.39814814814814814],[0.08645833333333333,-0.39814814814814814],[0.08645833333333333,-0.39814814814814814],[0.08645833333333333,-0.39814814814814814],[0.08645833333333333,-0.39814814814814814],[0.08645833333333333,-0.39814814814814814],[0.08645833333333333,-0.39814814814814814],[0.08645833333333333,-0.39814814814814814],[0.08645833333333333,-0.39814814814814814],[0.08645833333333333,-0.39814814814814814],[0.08645833333333333,-0.39814814814814814],[0.08645833333333333,-0.39814814814814814],[0.08645833333333333,-0.39814814814814814],[0.08645833333333333,-0.39814814814814814],[0.08645833333333333,-0.39814814814814814],[0.08541666666666667,-0.3925925925925926],[0.084375,-0.3851851851851852],[0.084375,-0.3814814814814815],[0.08645833333333333,-0.37592592592592594],[0.090625,-0.3685185185185185],[0.09895833333333333,-0.3592592592592593],[0.10208333333333333,-0.3537037037037037],[0.1125,-0.34074074074074073],[0.128125,-0.32222222222222224],[0.14375,-0.30185185185185187],[0.159375,-0.2833333333333333],[0.175,-0.25925925925925924],[0.19166666666666668,-0.23703703703703705],[0.20625,-0.21666666666666667],[0.22604166666666667,-0.18703703703703703],[0.2520833333333333,-0.14814814814814814],[0.26666666666666666,-0.12407407407407407],[0.2791666666666667,-0.10555555555555556],[0.28958333333333336,-0.09074074074074075],[0.296875,-0.07962962962962963],[0.3,-0.07407407407407407],[0.3020833333333333,-0.07037037037037037],[0.303125,-0.06851851851851852],[0.303125,-0.06851851851851852],[0.30416666666666664,-0.06481481481481481],[0.30520833333333336,-0.05925925925925926],[0.30520833333333336,-0.05555555555555555],[0.3072916666666667,-0.05],[0.3072916666666667,-0.04259259259259259],[0.30833333333333335,-0.03148148148148148],[0.309375,-0.027777777777777776],[0.31145833333333334,-0.022222222222222223],[0.32083333333333336,0.003703703703703704],[0.3260416666666667,0.027777777777777776],[0.328125,0.044444444444444446],[0.328125,0.05555555555555555],[0.328125,0.05740740740740741],[0.328125,0.05925925925925926],[0.328125,0.05925925925925926],[0.328125,0.05925925925925926],[0.328125,0.05925925925925926],[0.328125,0.05925925925925926],[0.328125,0.05925925925925926],[0.328125,0.05925925925925926],[0.328125,0.05925925925925926],[0.328125,0.05925925925925926],[0.328125,0.05925925925925926],[0.328125,0.05925925925925926],[0.328125,0.05925925925925926],[0.334375,0.07592592592592592],[0.34270833333333334,0.08888888888888889],[0.3489583333333333,0.10185185185185185],[0.35104166666666664,0.11851851851851852],[0.35520833333333335,0.14074074074074075],[0.359375,0.16666666666666666],[0.3645833333333333,0.19444444444444445],[0.375,0.2388888888888889],[0.3802083333333333,0.27037037037037037],[0.38229166666666664,0.2962962962962963],[0.3854166666666667,0.3111111111111111],[0.3875,0.31851851851851853],[0.390625,0.32592592592592595],[0.3927083333333333,0.3333333333333333],[0.3927083333333333,0.337037037037037],[0.39479166666666665,0.34074074074074073],[0.396875,0.35],[0.396875,0.35],[0.39791666666666664,0.3537037037037037],[0.39895833333333336,0.3537037037037037],[0.4,0.3574074074074074],[0.4,0.3574074074074074],[0.4,0.3592592592592593],[0.4010416666666667,0.3611111111111111],[0.40208333333333335,0.362962962962963],[0.403125,0.3648148148148148],[0.403125,0.3648148148148148],[0.403125,0.36666666666666664],[0.403125,0.36666666666666664],[0.403125,0.36666666666666664],[0.403125,0.36666666666666664],[0.403125,0.36666666666666664],[0.403125,0.36666666666666664],[0.403125,0.36666666666666664],[0.403125,0.36666666666666664],[0.403125,0.36666666666666664],[0.403125,0.36666666666666664],[0.403125,0.36666666666666664],[0.403125,0.36666666666666664],[0.403125,0.36666666666666664],[0.403125,0.36666666666666664],[0.403125,0.36666666666666664],[0.403125,0.36666666666666664],[0.403125,0.36666666666666664],[0.403125,0.36666666666666664],[0.403125,0.36666666666666664],[0.403125,0.36666666666666664],[0.403125,0.36666666666666664],[0.403125,0.36666666666666664],[0.403125,0.36666666666666664],[0.403125,0.36666666666666664],[0.403125,0.36666666666666664],[0.403125,0.36666666666666664],[0.403125,0.36666666666666664],[0.403125,0.36666666666666664],[0.403125,0.36666666666666664],[0.403125,0.36666666666666664],[0.403125,0.36666666666666664],[0.403125,0.36666666666666664],[0.403125,0.36666666666666664],[0.403125,0.36666666666666664],[0.403125,0.36666666666666664],[0.403125,0.36666666666666664],[0.403125,0.36666666666666664],[0.403125,0.36666666666666664],[0.403125,0.36666666666666664],[0.403125,0.36666666666666664],[0.403125,0.36666666666666664],[0.403125,0.36666666666666664],[0.403125,0.36666666666666664],[0.403125,0.36666666666666664],[0.403125,0.36666666666666664],[0.403125,0.36666666666666664],[0.403125,0.36666666666666664],[0.403125,0.36666666666666664],[0.403125,0.36666666666666664],[0.403125,0.36666666666666664],[0.403125,0.36666666666666664],[0.403125,0.36666666666666664],[0.403125,0.36666666666666664],[0.403125,0.36666666666666664],[0.403125,0.36666666666666664],[0.403125,0.36666666666666664],[0.403125,0.36666666666666664],[0.403125,0.36666666666666664],[0.403125,0.36666666666666664],[0.403125,0.36666666666666664],[0.403125,0.36666666666666664],[0.403125,0.36666666666666664],[0.403125,0.36666666666666664],[0.403125,0.36666666666666664],[0.403125,0.36666666666666664],[0.403125,0.36666666666666664],[0.403125,0.36666666666666664],[0.403125,0.36666666666666664],[0.403125,0.36666666666666664],[0.403125,0.36666666666666664],[0.403125,0.36666666666666664],[0.403125,0.36666666666666664],[0.403125,0.36666666666666664],[0.403125,0.36666666666666664],[0.403125,0.36666666666666664],[0.403125,0.36666666666666664],[0.403125,0.36666666666666664],[0.403125,0.36666666666666664],[0.403125,0.36666666666666664],[0.403125,0.36666666666666664],[0.403125,0.36666666666666664],[0.403125,0.36666666666666664],[0.403125,0.36666666666666664],[0.403125,0.36666666666666664],[0.403125,0.36666666666666664],[0.403125,0.36666666666666664],[0.403125,0.36666666666666664],[0.403125,0.36666666666666664],[0.403125,0.36666666666666664],[0.403125,0.36666666666666664],[0.403125,0.36666666666666664],[0.403125,0.36666666666666664],[0.403125,0.36666666666666664],[0.403125,0.36666666666666664],[0.403125,0.36666666666666664],[0.403125,0.36666666666666664],[0.403125,0.36666666666666664],[0.403125,0.36666666666666664]]","[[-0.22447916666666667,-0.5390740740740741],[-0.22447916666666667,-0.5390740740740741],[-0.23697916666666666,-0.5342592592592592],[-0.26583333333333337,-0.5346296296296296],[-0.2864583333333333,-0.4988888888888888],[-0.28937499999999994,-0.46814814814814815],[-0.27447916666666666,-0.44722222222222224],[-0.27447916666666666,-0.44722222222222224],[-0.2607291666666666,-0.43555555555555553],[-0.24812500000000004,-0.432962962962963],[-0.23781249999999995,-0.43],[-0.23781249999999995,-0.43],[-0.21833333333333335,-0.42611111111111116],[-0.19885416666666664,-0.4222222222222222],[-0.19885416666666664,-0.4222222222222222],[-0.17749999999999996,-0.4557407407407408],[-0.13687499999999997,-0.4542592592592593],[-0.10406249999999997,-0.4714814814814815],[-0.06833333333333336,-0.4740740740740741],[-0.06833333333333336,-0.4740740740740741],[-0.05281250000000005,-0.46814814814814815],[-0.04031250000000005,-0.4612962962962963],[-0.030416666666666713,-0.44074074074074077],[-0.024166666666666715,-0.42962962962962964],[-0.024166666666666715,-0.42962962962962964],[-0.010312499999999976,-0.402962962962963],[-0.01864583333333331,-0.37777777777777777],[-0.03156249999999995,-0.3398148148148148],[-0.04041666666666662,-0.3455555555555556],[-0.04041666666666662,-0.3455555555555556],[-0.0390625,-0.31870370370370377],[-0.030520833333333285,-0.3551851851851852],[-0.02364583333333338,-0.3320370370370371],[-0.009062500000000048,-0.30166666666666664],[0.011249999999999953,-0.2881481481481482],[0.03093750000000005,-0.2729629629629629],[0.03093750000000005,-0.2729629629629629],[0.03833333333333329,-0.22999999999999998],[0.059062500000000046,-0.21944444444444444],[0.059062500000000046,-0.21944444444444444],[0.08260416666666662,-0.21222222222222226],[0.09239583333333339,-0.18759259259259262],[0.09864583333333338,-0.17740740740740743],[0.09864583333333338,-0.17740740740740743],[0.09791666666666667,-0.1383333333333333],[0.07864583333333333,-0.15129629629629626],[0.07645833333333343,-0.1764814814814815],[0.09072916666666657,-0.18277777777777776],[0.1053124999999999,-0.1814814814814815],[0.11302083333333333,-0.21648148148148144],[0.12489583333333343,-0.21740740740740735],[0.13395833333333323,-0.21500000000000005],[0.15031249999999996,-0.21370370370370367],[0.15031249999999996,-0.21370370370370367],[0.1599999999999999,-0.23055555555555557],[0.16124999999999995,-0.2309259259259259],[0.18739583333333343,-0.23981481481481481],[0.20614583333333342,-0.24740740740740744],[0.20614583333333342,-0.24740740740740744],[0.18385416666666668,-0.26129629629629636],[0.1671875,-0.2772222222222222],[0.16989583333333325,-0.2809259259259259],[0.1571875000000001,-0.29666666666666663],[0.1584374999999999,-0.3227777777777778],[0.15760416666666663,-0.34500000000000003],[0.15677083333333333,-0.3672222222222222],[0.15677083333333333,-0.3672222222222222],[0.1671875,-0.3603703703703704],[0.1671875,-0.3603703703703704],[0.1646874999999999,-0.3551851851851852],[0.1646874999999999,-0.3551851851851852],[0.171875,-0.3387037037037037],[0.19145833333333329,-0.317037037037037],[0.20510416666666675,-0.30092592592592593],[0.1603125000000001,-0.29000000000000004],[0.14354166666666662,-0.2661111111111111],[0.09489583333333323,-0.2361111111111111],[0.04624999999999998,-0.20611111111111113],[0.021562500000000047,-0.18425925925925926],[0.021562500000000047,-0.18425925925925926],[-0.00010416666666669035,-0.09185185185185189],[-0.03947916666666664,-0.04129629629629621],[-0.08239583333333336,0.020555555555555598],[-0.12625000000000006,0.051111111111111156],[-0.17000000000000004,0.10833333333333334],[-0.16572916666666668,0.16944444444444445],[-0.16937500000000003,0.2294444444444444],[-0.15510416666666665,0.29370370370370374],[-0.1460416666666667,0.35425925925925916],[-0.16156250000000003,0.4212962962962963],[-0.1701041666666666,0.40037037037037043],[-0.16302083333333334,0.43333333333333335],[-0.1748958333333333,0.4322222222222222],[-0.18552083333333336,0.459074074074074],[-0.18354166666666671,0.462037037037037],[-0.17927083333333335,0.456111111111111],[-0.1827083333333333,0.45925925925925926],[-0.18614583333333337,0.4624074074074075],[-0.18614583333333337,0.4624074074074075],[-0.16677083333333337,0.4831481481481481],[-0.1538541666666667,0.5107407407407406],[-0.16531250000000006,0.518888888888889],[-0.14635416666666667,0.5305555555555556],[-0.13572916666666662,0.5429629629629631],[-0.10708333333333328,0.5738888888888889],[-0.09624999999999997,0.5588888888888888],[-0.07770833333333335,0.5816666666666667],[-0.05302083333333331,0.5659259259259259],[-0.014687500000000023,0.5603703703703704],[0.01427083333333338,0.5381481481481482],[0.050312499999999954,0.5107407407407406],[0.09479166666666666,0.49444444444444446],[0.10135416666666662,0.47481481481481475],[0.11156249999999991,0.4566666666666667],[0.12354166666666658,0.44296296296296306],[0.14395833333333338,0.46703703703703714],[0.14208333333333342,0.46166666666666656],[0.14177083333333323,0.48574074074074064],[0.14177083333333323,0.48574074074074064],[0.13583333333333342,0.4794444444444444],[0.13583333333333342,0.4794444444444444],[0.12083333333333333,0.44888888888888884],[0.1318749999999999,0.44074074074074077],[0.1319791666666667,0.42611111111111116],[0.14322916666666666,0.41222222222222227],[0.15760416666666663,0.4103703703703704],[0.17479166666666662,0.3685185185185185],[0.18885416666666663,0.3207407407407408],[0.20833333333333334,0.277962962962963],[0.20833333333333334,0.277962962962963],[0.22781250000000006,0.2351851851851852],[0.23989583333333328,0.23037037037037034],[0.23989583333333328,0.23037037037037034],[0.25770833333333343,0.26185185185185184],[0.25760416666666663,0.25500000000000006],[0.27281250000000007,0.28777777777777774],[0.2989583333333333,0.30351851851851847],[0.3251041666666666,0.31925925925925924],[0.3419791666666666,0.3425925925925926],[0.32843749999999994,0.34037037037037027],[0.33229166666666665,0.42537037037037045],[0.3220833333333334,0.4648148148148148],[0.3012500000000001,0.4655555555555555],[0.2755208333333333,0.45703703703703696],[0.26458333333333334,0.5218518518518518],[0.24333333333333323,0.5],[0.2150000000000001,0.48481481481481475],[0.1866666666666667,0.4764814814814814],[0.1412499999999999,0.4838888888888888],[0.1412499999999999,0.4838888888888888],[0.15760416666666663,0.5442592592592592],[0.1466666666666666,0.5420370370370371],[0.15656249999999997,0.5116666666666666],[0.1794791666666666,0.5116666666666666],[0.1794791666666666,0.5116666666666666],[0.2015625,0.5016666666666666],[0.2125,0.4505555555555555],[0.23572916666666663,0.4655555555555555],[0.23572916666666663,0.4655555555555555],[0.24104166666666677,0.4414814814814814],[0.23114583333333344,0.43555555555555564],[0.24020833333333325,0.4212962962962963],[0.24020833333333325,0.4212962962962963],[0.2335416666666667,0.39962962962962956],[0.22145833333333323,0.34092592592592597],[0.22489583333333343,0.3550000000000001],[0.21875,0.3381481481481482],[0.22041666666666657,0.32407407407407407],[0.19343750000000004,0.2800000000000001],[0.16041666666666668,0.22462962962962954],[0.15416666666666667,0.20925925925925926],[0.1631249999999999,0.16888888888888898],[0.16104166666666658,0.1388888888888889],[0.14385416666666656,0.1007407407407407],[0.15489583333333337,0.0588888888888888],[0.14364583333333342,0.01796296296296305],[0.14354166666666662,-0.02296296296296292],[0.13645833333333332,-0.056666666666666705],[0.13645833333333332,-0.056666666666666705],[0.08624999999999995,-0.0455555555555556],[0.013541666666666667,-0.03351851851851856],[0.013541666666666667,-0.03351851851851856],[-0.03156249999999995,-0.0016666666666666245],[-0.05770833333333331,0.03370370370370379],[-0.07010416666666662,0.0492592592592593],[-0.0859375,0.08092592592592601],[-0.14395833333333338,0.11925925925925922],[-0.14395833333333338,0.11925925925925922],[-0.1872916666666666,0.1594444444444445],[-0.19739583333333333,0.23333333333333334],[-0.19958333333333336,0.2803703703703703],[-0.17124999999999999,0.2911111111111112],[-0.17124999999999999,0.2911111111111112],[-0.12395833333333334,0.3079629629629629],[-0.12395833333333334,0.3079629629629629],[-0.10197916666666665,0.30759259259259264],[-0.0907291666666667,0.29796296296296293],[-0.08812500000000002,0.3098148148148147],[-0.09937499999999998,0.28777777777777774],[-0.041979166666666616,0.28166666666666673],[-0.05249999999999998,0.23592592592592587],[-0.04208333333333331,0.1935185185185185],[-0.03333333333333333,0.18407407407407403],[-0.03333333333333333,0.18407407407407403],[0.014895833333333285,0.15611111111111103],[0.06635416666666671,0.1198148148148149],[0.1318749999999999,0.10703703703703696],[0.18239583333333323,0.08759259259259251],[0.22510416666666658,0.058333333333333334],[0.2928124999999999,0.04388888888888897],[0.2964583333333332,0.010370370370370412],[0.35989583333333336,0.0011111111111111532],[0.35989583333333336,0.0011111111111111532],[0.3977083333333333,-0.02814814814814823],[0.3807291666666667,-0.08111111111111113],[0.34791666666666665,-0.10777777777777775],[0.33531250000000007,-0.12962962962962962],[0.30916666666666665,-0.18574074074074076],[0.30916666666666665,-0.18574074074074076],[0.27156250000000004,-0.22333333333333338],[0.2752083333333334,-0.24500000000000002],[0.25187499999999996,-0.2833333333333333],[0.27291666666666664,-0.3042592592592593],[0.28010416666666677,-0.3177777777777778],[0.2621875000000001,-0.33611111111111114],[0.29625000000000007,-0.33537037037037043],[0.3507291666666667,-0.2935185185185185],[0.3636458333333332,-0.3020370370370371],[0.3733333333333334,-0.31055555555555553],[0.3868750000000001,-0.3194444444444444],[0.3559375000000001,-0.3398148148148148],[0.3559375000000001,-0.3398148148148148],[0.39375,-0.3383333333333333],[0.3645833333333333,-0.3435185185185185],[0.3645833333333333,-0.3435185185185185],[0.40739583333333323,-0.34148148148148144],[0.3614583333333333,-0.3381481481481482],[0.3836458333333333,-0.3168518518518519],[0.3836458333333333,-0.3168518518518519],[0.3341666666666666,-0.35351851851851845],[0.3349999999999999,-0.3205555555555556],[0.3349999999999999,-0.3205555555555556],[0.32614583333333325,-0.2922222222222222],[0.31833333333333325,-0.3044444444444444],[0.3033333333333334,-0.28166666666666673],[0.23302083333333337,-0.2687037037037037],[0.2303124999999999,-0.2825925925925926],[0.13416666666666663,-0.29814814814814816],[0.14166666666666666,-0.3005555555555556],[0.09791666666666667,-0.3177777777777778],[0.1171875,-0.34629629629629627],[0.08822916666666672,-0.3522222222222222],[0.06020833333333329,-0.4016666666666666],[0.06020833333333329,-0.4016666666666666],[0.044270833333333336,-0.33425925925925926],[0.05697916666666671,-0.32222222222222224],[0.06489583333333329,-0.3005555555555556],[0.0696875000000001,-0.27314814814814814],[0.0696875000000001,-0.27314814814814814],[0.14270833333333333,-0.27740740740740744],[0.16302083333333334,-0.26944444444444443],[0.1650000000000001,-0.23203703703703707],[0.15489583333333337,-0.18277777777777776],[0.16072916666666662,-0.18944444444444447],[0.19020833333333323,-0.1227777777777778],[0.2228125000000001,-0.1383333333333333],[0.23562500000000006,-0.14629629629629629],[0.25583333333333325,-0.1603703703703704],[0.27708333333333335,-0.14777777777777779],[0.27708333333333335,-0.14777777777777779],[0.2493750000000001,-0.11833333333333329],[0.2564583333333334,-0.11259259259259262],[0.2538541666666667,-0.12333333333333338],[0.2573958333333332,-0.12037037037037036],[0.2573958333333332,-0.12037037037037036],[0.2631249999999999,-0.10666666666666672],[0.2513541666666666,-0.10666666666666672],[0.24020833333333325,-0.10611111111111113],[0.2352083333333333,-0.09518518518518514],[0.2352083333333333,-0.09518518518518514],[0.23270833333333343,-0.08074074074074078],[0.23270833333333343,-0.08074074074074078],[0.21364583333333323,-0.08481481481481483],[0.22197916666666656,-0.06444444444444447],[0.22197916666666656,-0.06444444444444447],[0.18802083333333333,-0.04222222222222214],[0.19958333333333325,-0.0477777777777777],[0.19281249999999991,-0.04333333333333329],[0.1851041666666667,-0.05814814814814811],[0.19656250000000006,-0.06666666666666667],[0.20270833333333324,-0.06259259259259262],[0.20968749999999994,-0.09074074074074075],[0.21552083333333344,-0.09944444444444442],[0.25020833333333337,-0.0962962962962963],[0.25020833333333337,-0.1361111111111111],[0.2803124999999999,-0.16203703703703703],[0.2803124999999999,-0.16203703703703703],[0.2709374999999999,-0.16425925925925924],[0.2709374999999999,-0.16425925925925924],[0.2986458333333334,-0.2014814814814815],[0.3318749999999999,-0.22092592592592594],[0.34135416666666674,-0.2553703703703703],[0.36614583333333334,-0.26962962962962966],[0.3928124999999999,-0.2903703703703704],[0.40343749999999995,-0.30777777777777776],[0.3880208333333333,-0.3266666666666666],[0.3931250000000001,-0.2948148148148148],[0.43718750000000006,-0.29259259259259257],[0.44385416666666655,-0.2948148148148148],[0.44385416666666655,-0.2948148148148148],[0.4361458333333334,-0.2898148148148148],[0.43479166666666674,-0.2494444444444444],[0.42249999999999993,-0.25685185185185183],[0.42249999999999993,-0.25685185185185183],[0.37999999999999995,-0.26777777777777784],[0.36770833333333336,-0.27870370370370373],[0.3641666666666666,-0.29370370370370374],[0.35520833333333335,-0.3103703703703704],[0.35520833333333335,-0.3103703703703704],[0.34270833333333334,-0.3588888888888889],[0.29968750000000005,-0.3792592592592593],[0.29874999999999996,-0.3998148148148148],[0.30583333333333323,-0.41444444444444445],[0.2756249999999999,-0.45185185185185184],[0.2756249999999999,-0.45185185185185184],[0.2703125,-0.46592592592592597],[0.2897916666666667,-0.5207407407407407],[0.28187499999999993,-0.5298148148148148],[0.27802083333333344,-0.5559259259259259],[0.2851041666666667,-0.5396296296296296],[0.2841666666666666,-0.5664814814814815],[0.29666666666666663,-0.5703703703703704],[0.2853125000000001,-0.6262962962962962],[0.2747916666666666,-0.6498148148148147],[0.28541666666666665,-0.6872222222222223],[0.2743750000000001,-0.6862962962962963],[0.2791666666666667,-0.6622222222222223],[0.25968749999999996,-0.634074074074074],[0.28447916666666656,-0.6185185185185185],[0.28322916666666675,-0.6114814814814815],[0.2872916666666666,-0.5894444444444444],[0.27374999999999994,-0.6042592592592593],[0.27374999999999994,-0.6042592592592593],[0.2924999999999999,-0.5916666666666667],[0.2924999999999999,-0.5916666666666667],[0.2734375,-0.6162962962962963],[0.2786458333333333,-0.6094444444444445],[0.27666666666666656,-0.6014814814814815],[0.26458333333333334,-0.6012962962962963],[0.26458333333333334,-0.6012962962962963],[0.2716666666666666,-0.6248148148148148],[0.23791666666666675,-0.6368518518518518],[0.19010416666666666,-0.7285185185185185],[0.15916666666666662,-0.7233333333333334],[0.09979166666666663,-0.745925925925926]]","[[-0.22447916666666667,-0.5390740740740741,0.0004000000059605213],[-0.22447916666666667,-0.5390740740740741,0.04700000000000415],[-0.23697916666666666,-0.5342592592592592,0.05850000000000222],[-0.26583333333333337,-0.5346296296296296,0.07509999999404471],[-0.2864583333333333,-0.4988888888888888,0.0958000000119199],[-0.28937499999999994,-0.46814814814814815,0.11090000000596234],[-0.27447916666666666,-0.44722222222222224,0.1305999999940397],[-0.27447916666666666,-0.44722222222222224,0.14169999998808436],[-0.2607291666666666,-0.43555555555555553,0.15840000000596177],[-0.24812500000000004,-0.432962962962963,0.1786999999880834],[-0.23781249999999995,-0.43,0.1954000000059608],[-0.23781249999999995,-0.43,0.2085000000000008],[-0.21833333333333335,-0.42611111111111116,0.22519999998807805],[-0.19885416666666664,-0.4222222222222222,0.2418000000119207],[-0.19885416666666664,-0.4222222222222222,0.25850000000000506],[-0.17749999999999996,-0.4557407407407408,0.27509999999404045],[-0.13687499999999997,-0.4542592592592593,0.29169999998808294],[-0.10406249999999997,-0.4714814814814815,0.3120000000000047],[-0.06833333333333336,-0.4740740740740741,0.32919999998808436],[-0.06833333333333336,-0.4740740740740741,0.3418000000119221],[-0.05281250000000005,-0.46814814814814815,0.3584000000059646],[-0.04031250000000005,-0.4612962962962963,0.37509999999404187],[-0.030416666666666713,-0.44074074074074077,0.3948000000119265],[-0.024166666666666715,-0.42962962962962964,0.40969999998808504],[-0.024166666666666715,-0.42962962962962964,0.425099999994039],[-0.010312499999999976,-0.402962962962963,0.44180000001192354],[-0.01864583333333331,-0.37777777777777777,0.45840000000596604],[-0.03156249999999995,-0.3398148148148148,0.4774000000059644],[-0.04041666666666662,-0.3455555555555556,0.49409999999404164],[-0.04041666666666662,-0.3455555555555556,0.5084000000059632],[-0.0390625,-0.31870370370370377,0.5251999999880823],[-0.030520833333333285,-0.3551851851851852,0.5416999999880829],[-0.02364583333333338,-0.3320370370370371,0.5611999999880837],[-0.009062500000000048,-0.30166666666666664,0.5756999999880819],[0.011249999999999953,-0.2881481481481482,0.5955000000000013],[0.03093750000000005,-0.2729629629629629,0.6111999999880808],[0.03093750000000005,-0.2729629629629629,0.6251999999880837],[0.03833333333333329,-0.22999999999999998,0.6418000000119264],[0.059062500000000046,-0.21944444444444444,0.6585000000000036],[0.059062500000000046,-0.21944444444444444,0.6750000000000043],[0.08260416666666662,-0.21222222222222226,0.6918000000119235],[0.09239583333333339,-0.18759259259259262,0.7085000000000008],[0.09864583333333338,-0.17740740740740743,0.7290999999940411],[0.09864583333333338,-0.17740740740740743,0.7419000000059626],[0.09791666666666667,-0.1383333333333333,0.7585000000000051],[0.07864583333333333,-0.15129629629629626,0.775500000000001],[0.07645833333333343,-0.1764814814814815,0.793199999988083],[0.09072916666666657,-0.18277777777777776,0.8109999999999999],[0.1053124999999999,-0.1814814814814815,0.8293000000119264],[0.11302083333333333,-0.21648148148148144,0.8453000000119246],[0.12489583333333343,-0.21740740740740735,0.8620000000000019],[0.13395833333333323,-0.21500000000000005,0.8804000000059631],[0.15031249999999996,-0.21370370370370367,0.895900000005966],[0.15031249999999996,-0.21370370370370367,0.9085000000000036],[0.1599999999999999,-0.23055555555555557,0.9251999999880809],[0.16124999999999995,-0.2309259259259259,0.942099999994042],[0.18739583333333343,-0.23981481481481481,0.9590000000000032],[0.20614583333333342,-0.24740740740740744,0.9785000000000039],[0.20614583333333342,-0.24740740740740744,0.9920999999940392],[0.18385416666666668,-0.26129629629629636,1.008500000000005],[0.1671875,-0.2772222222222222,1.027800000011922],[0.16989583333333325,-0.2809259259259259,1.041699999988083],[0.1571875000000001,-0.29666666666666663,1.061800000011921],[0.1584374999999999,-0.3227777777777778,1.0765999999940448],[0.15760416666666663,-0.34500000000000003,1.095699999988085],[0.15677083333333333,-0.3672222222222222,1.1111999999880808],[0.15677083333333333,-0.3672222222222222,1.138900000005961],[0.1671875,-0.3603703703703704,1.153599999994043],[0.1671875,-0.3603703703703704,1.165099999994041],[0.1646874999999999,-0.3551851851851852,1.175300000011923],[0.1646874999999999,-0.3551851851851852,1.1918000000119235],[0.171875,-0.3387037037037037,1.2085000000000008],[0.19145833333333329,-0.317037037037037,1.2276999999880829],[0.20510416666666675,-0.30092592592592593,1.2416999999880787],[0.1603125000000001,-0.29000000000000004,1.2583000000119213],[0.14354166666666662,-0.2661111111111111,1.2750999999940404],[0.09489583333333323,-0.2361111111111111,1.291800000011925],[0.04624999999999998,-0.20611111111111113,1.3108000000119233],[0.021562500000000047,-0.18425925925925926,1.3263000000119263],[0.021562500000000047,-0.18425925925925926,1.3439000000059664],[-0.00010416666666669035,-0.09185185185185189,1.358699999988083],[-0.03947916666666664,-0.04129629629629621,1.3751999999880837],[-0.08239583333333336,0.020555555555555598,1.394400000005966],[-0.12625000000000006,0.051111111111111156,1.4088000000119223],[-0.17000000000000004,0.10833333333333334,1.4291999999880787],[-0.16572916666666668,0.16944444444444445,1.4430999999940397],[-0.16937500000000003,0.2294444444444444,1.458400000005966],[-0.15510416666666665,0.29370370370370374,1.4763000000119249],[-0.1460416666666667,0.35425925925925916,1.4928000000119255],[-0.16156250000000003,0.4212962962962963,1.5084000000059632],[-0.1701041666666666,0.40037037037037043,1.5268000000119244],[-0.16302083333333334,0.43333333333333335,1.5419000000059597],[-0.1748958333333333,0.4322222222222222,1.5608000000119233],[-0.18552083333333336,0.459074074074074,1.5750000000000028],[-0.18354166666666671,0.462037037037037,1.59169999998808],[-0.17927083333333335,0.456111111111111,1.6084000000059646],[-0.1827083333333333,0.45925925925925926,1.6250999999940419],[-0.18614583333333337,0.4624074074074075,1.6455000000000055],[-0.18614583333333337,0.4624074074074075,1.6586999999880803],[-0.16677083333333337,0.4831481481481481,1.675300000011923],[-0.1538541666666667,0.5107407407407406,1.6920000000000002],[-0.16531250000000006,0.518888888888889,1.7119000000059614],[-0.14635416666666667,0.5305555555555556,1.7283000000119202],[-0.13572916666666662,0.5429629629629631,1.743099999994044],[-0.10708333333333328,0.5738888888888889,1.7629000000059634],[-0.09624999999999997,0.5588888888888888,1.776300000011922],[-0.07770833333333335,0.5816666666666667,1.7920000000000016],[-0.05302083333333331,0.5659259259259259,1.8109000000059652],[-0.014687500000000023,0.5603703703703704,1.8294000000059611],[0.01427083333333338,0.5381481481481482,1.8440000000000012],[0.050312499999999954,0.5107407407407406,1.8585999999940412],[0.09479166666666666,0.49444444444444446,1.8753000000119258],[0.10135416666666662,0.47481481481481475,1.8960000000000008],[0.11156249999999991,0.4566666666666667,1.9095999999940432],[0.12354166666666658,0.44296296296296306,1.9279000000059625],[0.14395833333333338,0.46703703703703714,1.9430999999940397],[0.14208333333333342,0.46166666666666656,1.9595000000000056],[0.14177083333333323,0.48574074074074064,1.9774000000059644],[0.14177083333333323,0.48574074074074064,1.9920000000000044],[0.13583333333333342,0.4794444444444444,2.008500000000005],[0.13583333333333342,0.4794444444444444,2.0250999999940404],[0.12083333333333333,0.44888888888888884,2.041699999988083],[0.1318749999999999,0.44074074074074077,2.060300000011921],[0.1319791666666667,0.42611111111111116,2.075000000000003],[0.14322916666666666,0.41222222222222227,2.091800000011922],[0.15760416666666663,0.4103703703703704,2.1084000000059646],[0.17479166666666662,0.3685185185185185,2.130199999988079],[0.18885416666666663,0.3207407407407408,2.1448000000119265],[0.20833333333333334,0.277962962962963,2.1608000000119247],[0.20833333333333334,0.277962962962963,2.1750000000000043],[0.22781250000000006,0.2351851851851852,2.1918000000119235],[0.23989583333333328,0.23037037037037034,2.208300000011924],[0.23989583333333328,0.23037037037037034,2.2250999999940433],[0.25770833333333343,0.26185185185185184,2.2416999999880787],[0.25760416666666663,0.25500000000000006,2.262500000000003],[0.27281250000000007,0.28777777777777774,2.277900000005964],[0.2989583333333333,0.30351851851851847,2.291699999988083],[0.3251041666666666,0.31925925925925924,2.3111999999880837],[0.3419791666666666,0.3425925925925926,2.3283000000119216],[0.32843749999999994,0.34037037037037027,2.3435999999940407],[0.33229166666666665,0.42537037037037045,2.3584999999999994],[0.3220833333333334,0.4648148148148148,2.375099999994042],[0.3012500000000001,0.4655555555555555,2.394199999988082],[0.2755208333333333,0.45703703703703696,2.4084000000059618],[0.26458333333333334,0.5218518518518518,2.4285999999940415],[0.24333333333333323,0.5,2.4445999999940398],[0.2150000000000001,0.48481481481481475,2.462400000005964],[0.1866666666666667,0.4764814814814814,2.480000000000004],[0.1412499999999999,0.4838888888888888,2.4958000000119256],[0.1412499999999999,0.4838888888888888,2.508500000000005],[0.15760416666666663,0.5442592592592592,2.5253000000119243],[0.1466666666666666,0.5420370370370371,2.547000000000004],[0.15656249999999997,0.5116666666666666,2.5624000000059652],[0.1794791666666666,0.5116666666666666,2.577199999988082],[0.1794791666666666,0.5116666666666666,2.5953000000119246],[0.2015625,0.5016666666666666,2.6085999999940412],[0.2125,0.4505555555555555,2.6253000000119258],[0.23572916666666663,0.4655555555555555,2.646500000000003],[0.23572916666666663,0.4655555555555555,2.6585999999940455],[0.24104166666666677,0.4414814814814814,2.675199999988081],[0.23114583333333344,0.43555555555555564,2.692],[0.24020833333333325,0.4212962962962963,2.713599999994045],[0.24020833333333325,0.4212962962962963,2.72530000001192],[0.2335416666666667,0.39962962962962956,2.7418000000119207],[0.22145833333333323,0.34092592592592597,2.7625999999940447],[0.22489583333333343,0.3550000000000001,2.777000000000001],[0.21875,0.3381481481481482,2.7959000000059646],[0.22041666666666657,0.32407407407407407,2.811699999988079],[0.19343750000000004,0.2800000000000001,2.8290999999940425],[0.16041666666666668,0.22462962962962954,2.8450999999940407],[0.15416666666666667,0.20925925925925926,2.860500000000002],[0.1631249999999999,0.16888888888888898,2.875],[0.16104166666666658,0.1388888888888889,2.894300000011924],[0.14385416666666656,0.1007407407407407,2.9095000000000013],[0.15489583333333337,0.0588888888888888,2.9269999999999996],[0.14364583333333342,0.01796296296296305,2.9416999999880815],[0.14354166666666662,-0.02296296296296292,2.9586999999880845],[0.13645833333333332,-0.056666666666666705,2.9773000000119225],[0.13645833333333332,-0.056666666666666705,2.9918000000119207],[0.08624999999999995,-0.0455555555555556,3.008500000000005],[0.013541666666666667,-0.03351851851851856,3.028599999994043],[0.013541666666666667,-0.03351851851851856,3.04640000000596],[-0.03156249999999995,-0.0016666666666666245,3.058599999994044],[-0.05770833333333331,0.03370370370370379,3.0751999999880795],[-0.07010416666666662,0.0492592592592593,3.0951999999880826],[-0.0859375,0.08092592592592601,3.1108000000119205],[-0.14395833333333338,0.11925925925925922,3.131199999988084],[-0.14395833333333338,0.11925925925925922,3.141900000005961],[-0.1872916666666666,0.1594444444444445,3.162300000011925],[-0.19739583333333333,0.23333333333333334,3.1776999999880786],[-0.19958333333333336,0.2803703703703703,3.195400000005961],[-0.17124999999999999,0.2911111111111112,3.2170999999940406],[-0.17124999999999999,0.2911111111111112,3.226199999988083],[-0.12395833333333334,0.3079629629629629,3.2419000000059626],[-0.12395833333333334,0.3079629629629629,3.25859999999404],[-0.10197916666666665,0.30759259259259264,3.277900000005964],[-0.0907291666666667,0.29796296296296293,3.2960999999940412],[-0.08812500000000002,0.3098148148148147,3.311599999994044],[-0.09937499999999998,0.28777777777777774,3.3314000000059636],[-0.041979166666666616,0.28166666666666673,3.344900000005964],[-0.05249999999999998,0.23592592592592587,3.361199999988081],[-0.04208333333333331,0.1935185185185185,3.3790999999940396],[-0.03333333333333333,0.18407407407407403,3.396800000011922],[-0.03333333333333333,0.18407407407407403,3.4085000000000036],[0.014895833333333285,0.15611111111111103,3.425099999994039],[0.06635416666666671,0.1198148148148149,3.442],[0.1318749999999999,0.10703703703703696,3.463800000011922],[0.18239583333333323,0.08759259259259251,3.4785999999940387],[0.22510416666666658,0.058333333333333334,3.4935999999940393],[0.2928124999999999,0.04388888888888897,3.5125999999940447],[0.2964583333333332,0.010370370370370412,3.5289000000059616],[0.35989583333333336,0.0011111111111111532,3.5475999999940413],[0.35989583333333336,0.0011111111111111532,3.558599999994044],[0.3977083333333333,-0.02814814814814823,3.577900000005961],[0.3807291666666667,-0.08111111111111113,3.5945000000000036],[0.34791666666666665,-0.10777777777777775,3.6090999999940436],[0.33531250000000007,-0.12962962962962962,3.6314000000059607],[0.30916666666666665,-0.18574074074074076,3.6451999999880798],[0.30916666666666665,-0.18574074074074076,3.6586999999880803],[0.27156250000000004,-0.22333333333333338,3.6750000000000043],[0.2752083333333334,-0.24500000000000002,3.693000000000005],[0.25187499999999996,-0.2833333333333333,3.708300000011924],[0.27291666666666664,-0.3042592592592593,3.7280000000000015],[0.28010416666666677,-0.3177777777777778,3.7426999999880834],[0.2621875000000001,-0.33611111111111114,3.7620999999940423],[0.29625000000000007,-0.33537037037037043,3.776400000005964],[0.3507291666666667,-0.2935185185185185,3.7959999999999994],[0.3636458333333332,-0.3020370370370371,3.8115000000000023],[0.3733333333333334,-0.31055555555555553,3.829400000005961],[0.3868750000000001,-0.3194444444444444,3.8453000000119246],[0.3559375000000001,-0.3398148148148148,3.865900000005965],[0.3559375000000001,-0.3398148148148148,3.8751999999880837],[0.39375,-0.3383333333333333,3.892000000000003],[0.3645833333333333,-0.3435185185185185,3.9085999999940455],[0.3645833333333333,-0.3435185185185185,3.928300000011923],[0.40739583333333323,-0.34148148148148144,3.9419000000059654],[0.3614583333333333,-0.3381481481481482,3.9585999999940427],[0.3836458333333333,-0.3168518518518519,3.980800000011925],[0.3836458333333333,-0.3168518518518519,3.993800000011923],[0.3341666666666666,-0.35351851851851845,4.008699999988082],[0.3349999999999999,-0.3205555555555556,4.032699999988083],[0.3349999999999999,-0.3205555555555556,4.041800000011925],[0.32614583333333325,-0.2922222222222222,4.058599999994044],[0.31833333333333325,-0.3044444444444444,4.075099999994045],[0.3033333333333334,-0.28166666666666673,4.09580000001192],[0.23302083333333337,-0.2687037037037037,4.11040000000596],[0.2303124999999999,-0.2825925925925926,4.12909999999404],[0.13416666666666663,-0.29814814814814816,4.14409999999404],[0.14166666666666666,-0.3005555555555556,4.162500000000001],[0.09791666666666667,-0.3177777777777778,4.178000000000004],[0.1171875,-0.34629629629629627,4.193300000011924],[0.08822916666666672,-0.3522222222222222,4.208599999994043],[0.06020833333333329,-0.4016666666666666,4.2310999999940435],[0.06020833333333329,-0.4016666666666666,4.241900000005963],[0.044270833333333336,-0.33425925925925926,4.25859999999404],[0.05697916666666671,-0.32222222222222224,4.277800000011922],[0.06489583333333329,-0.3005555555555556,4.297199999988081],[0.0696875000000001,-0.27314814814814814,4.316300000011921],[0.0696875000000001,-0.27314814814814814,4.325000000000003],[0.14270833333333333,-0.27740740740740744,4.34169999998808],[0.16302083333333334,-0.26944444444444443,4.359400000005962],[0.1650000000000001,-0.23203703703703707,4.375],[0.15489583333333337,-0.18277777777777776,4.3946999999880845],[0.16072916666666662,-0.18944444444444447,4.410499999999999],[0.19020833333333323,-0.1227777777777778,4.428400000005965],[0.2228125000000001,-0.1383333333333333,4.443000000000005],[0.23562500000000006,-0.14629629629629629,4.462699999988082],[0.25583333333333325,-0.1603703703703704,4.4780000000000015],[0.27708333333333335,-0.14777777777777779,4.49440000000596],[0.27708333333333335,-0.14777777777777779,4.508300000011921],[0.2493750000000001,-0.11833333333333329,4.5250999999940404],[0.2564583333333334,-0.11259259259259262,4.541800000011925],[0.2538541666666667,-0.12333333333333338,4.561500000000002],[0.2573958333333332,-0.12037037037037036,4.577000000000005],[0.2573958333333332,-0.12037037037037036,4.591800000011922],[0.2631249999999999,-0.10666666666666672,4.608499999999999],[0.2513541666666666,-0.10666666666666672,4.625099999994042],[0.24020833333333325,-0.10611111111111113,4.6440000000000055],[0.2352083333333333,-0.09518518518518514,4.65869999998808],[0.2352083333333333,-0.09518518518518514,4.675000000000004],[0.23270833333333343,-0.08074074074074078,4.692],[0.23270833333333343,-0.08074074074074078,4.708300000011924],[0.21364583333333323,-0.08481481481481483,4.725099999994043],[0.22197916666666656,-0.06444444444444447,4.742300000011923],[0.22197916666666656,-0.06444444444444447,4.758500000000005],[0.18802083333333333,-0.04222222222222214,4.775000000000006],[0.19958333333333325,-0.0477777777777777,4.791699999988083],[0.19281249999999991,-0.04333333333333329,4.810800000011923],[0.1851041666666667,-0.05814814814814811,4.829199999988084],[0.19656250000000006,-0.06666666666666667,4.844400000005962],[0.20270833333333324,-0.06259259259259262,4.860199999988083],[0.20968749999999994,-0.09074074074074075,4.8754000000059605],[0.21552083333333344,-0.09944444444444442,4.89519999998808],[0.25020833333333337,-0.0962962962962963,4.910499999999999],[0.25020833333333337,-0.1361111111111111,4.927800000011921],[0.2803124999999999,-0.16203703703703703,4.9440999999940445],[0.2803124999999999,-0.16203703703703703,4.965300000011922],[0.2709374999999999,-0.16425925925925924,4.982500000000002],[0.2709374999999999,-0.16425925925925924,4.994599999994044],[0.2986458333333334,-0.2014814814814815,5.008400000005963],[0.3318749999999999,-0.22092592592592594,5.02619999998808],[0.34135416666666674,-0.2553703703703703,5.041599999994041],[0.36614583333333334,-0.26962962962962966,5.060599999994039],[0.3928124999999999,-0.2903703703703704,5.075000000000003],[0.40343749999999995,-0.30777777777777776,5.09169999998808],[0.3880208333333333,-0.3266666666666666,5.108300000011923],[0.3931250000000001,-0.2948148148148148,5.1295],[0.43718750000000006,-0.29259259259259257,5.144400000005966],[0.44385416666666655,-0.2948148148148148,5.159699999988085],[0.44385416666666655,-0.2948148148148148,5.175000000000004],[0.4361458333333334,-0.2898148148148148,5.1918000000119235],[0.43479166666666674,-0.2494444444444444,5.208400000005966],[0.42249999999999993,-0.25685185185185183,5.228400000005962],[0.42249999999999993,-0.25685185185185183,5.241699999988079],[0.37999999999999995,-0.26777777777777784,5.258400000005963],[0.36770833333333336,-0.27870370370370373,5.276400000005964],[0.3641666666666666,-0.29370370370370374,5.296099999994041],[0.35520833333333335,-0.3103703703703704,5.311599999994044],[0.35520833333333335,-0.3103703703703704,5.325099999994045],[0.34270833333333334,-0.3588888888888889,5.341800000011922],[0.29968750000000005,-0.3792592592592593,5.358400000005965],[0.29874999999999996,-0.3998148148148148,5.375],[0.30583333333333323,-0.41444444444444445,5.394400000005966],[0.2756249999999999,-0.45185185185185184,5.408500000000004],[0.2756249999999999,-0.45185185185185184,5.425000000000004],[0.2703125,-0.46592592592592597,5.4416999999880815],[0.2897916666666667,-0.5207407407407407,5.458400000005966],[0.28187499999999993,-0.5298148148148148,5.4773000000119225],[0.27802083333333344,-0.5559259259259259,5.491699999988079],[0.2851041666666667,-0.5396296296296296,5.508300000011921],[0.2841666666666666,-0.5664814814814815,5.526699999988082],[0.29666666666666663,-0.5703703703703704,5.541800000011925],[0.2853125000000001,-0.6262962962962962,5.561099999994042],[0.2747916666666666,-0.6498148148148147,5.575099999994045],[0.28541666666666665,-0.6872222222222223,5.59169999998808],[0.2743750000000001,-0.6862962962962963,5.608300000011923],[0.2791666666666667,-0.6622222222222223,5.625099999994042],[0.25968749999999996,-0.634074074074074,5.6440000000000055],[0.28447916666666656,-0.6185185185185185,5.659400000005959],[0.28322916666666675,-0.6114814814814815,5.675000000000004],[0.2872916666666666,-0.5894444444444444,5.6916999999880815],[0.27374999999999994,-0.6042592592592593,5.708400000005966],[0.27374999999999994,-0.6042592592592593,5.725199999988078],[0.2924999999999999,-0.5916666666666667,5.741699999988079],[0.2924999999999999,-0.5916666666666667,5.758500000000005],[0.2734375,-0.6162962962962963,5.775000000000006],[0.2786458333333333,-0.6094444444444445,5.791699999988083],[0.27666666666666656,-0.6014814814814815,5.810800000011923],[0.26458333333333334,-0.6012962962962963,5.826300000011926],[0.26458333333333334,-0.6012962962962963,5.84169999998808],[0.2716666666666666,-0.6248148148148148,5.858400000005965],[0.23791666666666675,-0.6368518518518518,5.875],[0.19010416666666666,-0.7285185185185185,5.894199999988082],[0.15916666666666662,-0.7233333333333334,5.908400000005962],[0.09979166666666663,-0.745925925925926,5.925000000000004]]","[0.0004000000059605213,0.04700000000000415,0.05850000000000222,0.07509999999404471,0.0958000000119199,0.11090000000596234,0.1305999999940397,0.14169999998808436,0.15840000000596177,0.1786999999880834,0.1954000000059608,0.2085000000000008,0.22519999998807805,0.2418000000119207,0.25850000000000506,0.27509999999404045,0.29169999998808294,0.3120000000000047,0.32919999998808436,0.3418000000119221,0.3584000000059646,0.37509999999404187,0.3948000000119265,0.40969999998808504,0.425099999994039,0.44180000001192354,0.45840000000596604,0.4774000000059644,0.49409999999404164,0.5084000000059632,0.5251999999880823,0.5416999999880829,0.5611999999880837,0.5756999999880819,0.5955000000000013,0.6111999999880808,0.6251999999880837,0.6418000000119264,0.6585000000000036,0.6750000000000043,0.6918000000119235,0.7085000000000008,0.7290999999940411,0.7419000000059626,0.7585000000000051,0.775500000000001,0.793199999988083,0.8109999999999999,0.8293000000119264,0.8453000000119246,0.8620000000000019,0.8804000000059631,0.895900000005966,0.9085000000000036,0.9251999999880809,0.942099999994042,0.9590000000000032,0.9785000000000039,0.9920999999940392,1.008500000000005,1.027800000011922,1.041699999988083,1.061800000011921,1.0765999999940448,1.095699999988085,1.1111999999880808,1.138900000005961,1.153599999994043,1.165099999994041,1.175300000011923,1.1918000000119235,1.2085000000000008,1.2276999999880829,1.2416999999880787,1.2583000000119213,1.2750999999940404,1.291800000011925,1.3108000000119233,1.3263000000119263,1.3439000000059664,1.358699999988083,1.3751999999880837,1.394400000005966,1.4088000000119223,1.4291999999880787,1.4430999999940397,1.458400000005966,1.4763000000119249,1.4928000000119255,1.5084000000059632,1.5268000000119244,1.5419000000059597,1.5608000000119233,1.5750000000000028,1.59169999998808,1.6084000000059646,1.6250999999940419,1.6455000000000055,1.6586999999880803,1.675300000011923,1.6920000000000002,1.7119000000059614,1.7283000000119202,1.743099999994044,1.7629000000059634,1.776300000011922,1.7920000000000016,1.8109000000059652,1.8294000000059611,1.8440000000000012,1.8585999999940412,1.8753000000119258,1.8960000000000008,1.9095999999940432,1.9279000000059625,1.9430999999940397,1.9595000000000056,1.9774000000059644,1.9920000000000044,2.008500000000005,2.0250999999940404,2.041699999988083,2.060300000011921,2.075000000000003,2.091800000011922,2.1084000000059646,2.130199999988079,2.1448000000119265,2.1608000000119247,2.1750000000000043,2.1918000000119235,2.208300000011924,2.2250999999940433,2.2416999999880787,2.262500000000003,2.277900000005964,2.291699999988083,2.3111999999880837,2.3283000000119216,2.3435999999940407,2.3584999999999994,2.375099999994042,2.394199999988082,2.4084000000059618,2.4285999999940415,2.4445999999940398,2.462400000005964,2.480000000000004,2.4958000000119256,2.508500000000005,2.5253000000119243,2.547000000000004,2.5624000000059652,2.577199999988082,2.5953000000119246,2.6085999999940412,2.6253000000119258,2.646500000000003,2.6585999999940455,2.675199999988081,2.692,2.713599999994045,2.72530000001192,2.7418000000119207,2.7625999999940447,2.777000000000001,2.7959000000059646,2.811699999988079,2.8290999999940425,2.8450999999940407,2.860500000000002,2.875,2.894300000011924,2.9095000000000013,2.9269999999999996,2.9416999999880815,2.9586999999880845,2.9773000000119225,2.9918000000119207,3.008500000000005,3.028599999994043,3.04640000000596,3.058599999994044,3.0751999999880795,3.0951999999880826,3.1108000000119205,3.131199999988084,3.141900000005961,3.162300000011925,3.1776999999880786,3.195400000005961,3.2170999999940406,3.226199999988083,3.2419000000059626,3.25859999999404,3.277900000005964,3.2960999999940412,3.311599999994044,3.3314000000059636,3.344900000005964,3.361199999988081,3.3790999999940396,3.396800000011922,3.4085000000000036,3.425099999994039,3.442,3.463800000011922,3.4785999999940387,3.4935999999940393,3.5125999999940447,3.5289000000059616,3.5475999999940413,3.558599999994044,3.577900000005961,3.5945000000000036,3.6090999999940436,3.6314000000059607,3.6451999999880798,3.6586999999880803,3.6750000000000043,3.693000000000005,3.708300000011924,3.7280000000000015,3.7426999999880834,3.7620999999940423,3.776400000005964,3.7959999999999994,3.8115000000000023,3.829400000005961,3.8453000000119246,3.865900000005965,3.8751999999880837,3.892000000000003,3.9085999999940455,3.928300000011923,3.9419000000059654,3.9585999999940427,3.980800000011925,3.993800000011923,4.008699999988082,4.032699999988083,4.041800000011925,4.058599999994044,4.075099999994045,4.09580000001192,4.11040000000596,4.12909999999404,4.14409999999404,4.162500000000001,4.178000000000004,4.193300000011924,4.208599999994043,4.2310999999940435,4.241900000005963,4.25859999999404,4.277800000011922,4.297199999988081,4.316300000011921,4.325000000000003,4.34169999998808,4.359400000005962,4.375,4.3946999999880845,4.410499999999999,4.428400000005965,4.443000000000005,4.462699999988082,4.4780000000000015,4.49440000000596,4.508300000011921,4.5250999999940404,4.541800000011925,4.561500000000002,4.577000000000005,4.591800000011922,4.608499999999999,4.625099999994042,4.6440000000000055,4.65869999998808,4.675000000000004,4.692,4.708300000011924,4.725099999994043,4.742300000011923,4.758500000000005,4.775000000000006,4.791699999988083,4.810800000011923,4.829199999988084,4.844400000005962,4.860199999988083,4.8754000000059605,4.89519999998808,4.910499999999999,4.927800000011921,4.9440999999940445,4.965300000011922,4.982500000000002,4.994599999994044,5.008400000005963,5.02619999998808,5.041599999994041,5.060599999994039,5.075000000000003,5.09169999998808,5.108300000011923,5.1295,5.144400000005966,5.159699999988085,5.175000000000004,5.1918000000119235,5.208400000005966,5.228400000005962,5.241699999988079,5.258400000005963,5.276400000005964,5.296099999994041,5.311599999994044,5.325099999994045,5.341800000011922,5.358400000005965,5.375,5.394400000005966,5.408500000000004,5.425000000000004,5.4416999999880815,5.458400000005966,5.4773000000119225,5.491699999988079,5.508300000011921,5.526699999988082,5.541800000011925,5.561099999994042,5.575099999994045,5.59169999998808,5.608300000011923,5.625099999994042,5.6440000000000055,5.659400000005959,5.675000000000004,5.6916999999880815,5.708400000005966,5.725199999988078,5.741699999988079,5.758500000000005,5.775000000000006,5.791699999988083,5.810800000011923,5.826300000011926,5.84169999998808,5.858400000005965,5.875,5.894199999988082,5.908400000005962,5.925000000000004]","[1732686684476,1732686684511,1732686684523,1732686684539,1732686684560,1732686684575,1732686684595,1732686684606,1732686684623,1732686684643,1732686684660,1732686684673,1732686684690,1732686684706,1732686684723,1732686684739,1732686684756,1732686684776,1732686684794,1732686684806,1732686684823,1732686684839,1732686684859,1732686684874,1732686684889,1732686684906,1732686684923,1732686684942,1732686684958,1732686684973,1732686684989,1732686685006,1732686685026,1732686685040,1732686685060,1732686685075,1732686685089,1732686685106,1732686685123,1732686685139,1732686685156,1732686685173,1732686685193,1732686685206,1732686685223,1732686685240,1732686685258,1732686685275,1732686685294,1732686685310,1732686685326,1732686685345,1732686685360,1732686685373,1732686685390,1732686685406,1732686685423,1732686685443,1732686685456,1732686685473,1732686685492,1732686685506,1732686685526,1732686685541,1732686685560,1732686685575,1732686685603,1732686685618,1732686685629,1732686685640,1732686685656,1732686685673,1732686685692,1732686685706,1732686685723,1732686685739,1732686685756,1732686685775,1732686685791,1732686685808,1732686685823,1732686685840,1732686685859,1732686685873,1732686685894,1732686685907,1732686685923,1732686685941,1732686685957,1732686685973,1732686685991,1732686686006,1732686686025,1732686686039,1732686686056,1732686686073,1732686686089,1732686686110,1732686686123,1732686686140,1732686686156,1732686686176,1732686686193,1732686686207,1732686686227,1732686686241,1732686686256,1732686686275,1732686686294,1732686686308,1732686686323,1732686686340,1732686686360,1732686686374,1732686686392,1732686686407,1732686686424,1732686686442,1732686686457,1732686686473,1732686686489,1732686686506,1732686686525,1732686686539,1732686686556,1732686686573,1732686686595,1732686686609,1732686686625,1732686686639,1732686686656,1732686686673,1732686686689,1732686686706,1732686686727,1732686686742,1732686686756,1732686686775,1732686686793,1732686686808,1732686686823,1732686686839,1732686686859,1732686686873,1732686686893,1732686686909,1732686686927,1732686686944,1732686686960,1732686686973,1732686686990,1732686687011,1732686687027,1732686687042,1732686687060,1732686687073,1732686687090,1732686687111,1732686687123,1732686687140,1732686687156,1732686687178,1732686687190,1732686687206,1732686687227,1732686687241,1732686687260,1732686687276,1732686687293,1732686687309,1732686687325,1732686687339,1732686687359,1732686687374,1732686687391,1732686687406,1732686687423,1732686687442,1732686687456,1732686687473,1732686687493,1732686687511,1732686687523,1732686687540,1732686687560,1732686687575,1732686687595,1732686687606,1732686687627,1732686687642,1732686687660,1732686687681,1732686687691,1732686687706,1732686687723,1732686687742,1732686687760,1732686687776,1732686687796,1732686687809,1732686687826,1732686687843,1732686687861,1732686687873,1732686687889,1732686687906,1732686687928,1732686687943,1732686687958,1732686687977,1732686687993,1732686688012,1732686688023,1732686688042,1732686688059,1732686688073,1732686688096,1732686688110,1732686688123,1732686688139,1732686688157,1732686688173,1732686688192,1732686688207,1732686688226,1732686688241,1732686688260,1732686688276,1732686688294,1732686688310,1732686688330,1732686688339,1732686688356,1732686688373,1732686688393,1732686688406,1732686688423,1732686688445,1732686688458,1732686688473,1732686688497,1732686688506,1732686688523,1732686688540,1732686688560,1732686688575,1732686688593,1732686688608,1732686688627,1732686688642,1732686688658,1732686688673,1732686688695,1732686688706,1732686688723,1732686688742,1732686688762,1732686688781,1732686688789,1732686688806,1732686688824,1732686688839,1732686688859,1732686688875,1732686688893,1732686688907,1732686688927,1732686688942,1732686688959,1732686688973,1732686688989,1732686689006,1732686689026,1732686689041,1732686689056,1732686689073,1732686689089,1732686689108,1732686689123,1732686689139,1732686689156,1732686689173,1732686689189,1732686689207,1732686689223,1732686689239,1732686689256,1732686689275,1732686689294,1732686689309,1732686689325,1732686689340,1732686689360,1732686689375,1732686689392,1732686689408,1732686689430,1732686689447,1732686689459,1732686689473,1732686689491,1732686689506,1732686689525,1732686689539,1732686689556,1732686689573,1732686689594,1732686689609,1732686689624,1732686689639,1732686689656,1732686689673,1732686689693,1732686689706,1732686689723,1732686689741,1732686689760,1732686689776,1732686689789,1732686689806,1732686689823,1732686689839,1732686689859,1732686689873,1732686689889,1732686689906,1732686689923,1732686689942,1732686689956,1732686689973,1732686689991,1732686690006,1732686690025,1732686690039,1732686690056,1732686690073,1732686690090,1732686690108,1732686690124,1732686690139,1732686690156,1732686690173,1732686690189,1732686690206,1732686690223,1732686690239,1732686690256,1732686690275,1732686690291,1732686690306,1732686690323,1732686690339,1732686690359,1732686690373,1732686690389]","[[744.5,248.9],[744.5,248.9],[732.5,251.5],[704.8,251.3],[685,270.6],[682.2,287.2],[696.5,298.5],[696.5,298.5],[709.7,304.8],[721.8,306.2],[731.7,307.8],[731.7,307.8],[750.4,309.9],[769.1,312],[769.1,312],[789.6,293.9],[828.6,294.7],[860.1,285.4],[894.4,284],[894.4,284],[909.3,287.2],[921.3,290.9],[930.8,302],[936.8,308],[936.8,308],[950.1,322.4],[942.1,336],[929.7,356.5],[921.2,353.4],[921.2,353.4],[922.5,367.9],[930.7,348.2],[937.3,360.7],[951.3,377.1],[970.8,384.4],[989.7,392.6],[989.7,392.6],[996.8,415.8],[1016.7,421.5],[1016.7,421.5],[1039.3,425.4],[1048.7,438.7],[1054.7,444.2],[1054.7,444.2],[1054,465.3],[1035.5,458.3],[1033.4,444.7],[1047.1,441.3],[1061.1,442],[1068.5,423.1],[1079.9,422.6],[1088.6,423.9],[1104.3,424.6],[1104.3,424.6],[1113.6,415.5],[1114.8,415.3],[1139.9,410.5],[1157.9,406.4],[1157.9,406.4],[1136.5,398.9],[1120.5,390.3],[1123.1,388.3],[1110.9,379.8],[1112.1,365.7],[1111.3,353.7],[1110.5,341.7],[1110.5,341.7],[1120.5,345.4],[1120.5,345.4],[1118.1,348.2],[1118.1,348.2],[1125,357.1],[1143.8,368.8],[1156.9,377.5],[1113.9,383.4],[1097.8,396.3],[1051.1,412.5],[1004.4,428.7],[980.7,440.5],[980.7,440.5],[959.9,490.4],[922.1,517.7],[880.9,551.1],[838.8,567.6],[796.8,598.5],[800.9,631.5],[797.4,663.9],[811.1,698.6],[819.8,731.3],[804.9,767.5],[796.7,756.2],[803.5,774],[792.1,773.4],[781.9,787.9],[783.8,789.5],[787.9,786.3],[784.6,788],[781.3,789.7],[781.3,789.7],[799.9,800.9],[812.3,815.8],[801.3,820.2],[819.5,826.5],[829.7,833.2],[857.2,849.9],[867.6,841.8],[885.4,854.1],[909.1,845.6],[945.9,842.6],[973.7,830.6],[1008.3,815.8],[1051,807],[1057.3,796.4],[1067.1,786.6],[1078.6,779.2],[1098.2,792.2],[1096.4,789.3],[1096.1,802.3],[1096.1,802.3],[1090.4,798.9],[1090.4,798.9],[1076,782.4],[1086.6,778],[1086.7,770.1],[1097.5,762.6],[1111.3,761.6],[1127.8,739],[1141.3,713.2],[1160,690.1],[1160,690.1],[1178.7,667],[1190.3,664.4],[1190.3,664.4],[1207.4,681.4],[1207.3,677.7],[1221.9,695.4],[1247,703.9],[1272.1,712.4],[1288.3,725],[1275.3,723.8],[1279,769.7],[1269.2,791],[1249.2,791.4],[1224.5,786.8],[1214,821.8],[1193.6,810],[1166.4,801.8],[1139.2,797.3],[1095.6,801.3],[1095.6,801.3],[1111.3,833.9],[1100.8,832.7],[1110.3,816.3],[1132.3,816.3],[1132.3,816.3],[1153.5,810.9],[1164,783.3],[1186.3,791.4],[1186.3,791.4],[1191.4,778.4],[1181.9,775.2],[1190.6,767.5],[1190.6,767.5],[1184.2,755.8],[1172.6,724.1],[1175.9,731.7],[1170,722.6],[1171.6,715],[1145.7,691.2],[1114,661.3],[1108,653],[1116.6,631.2],[1114.6,615],[1098.1,594.4],[1108.7,571.8],[1097.9,549.7],[1097.8,527.6],[1091,509.4],[1091,509.4],[1042.8,515.4],[973,521.9],[973,521.9],[929.7,539.1],[904.6,558.2],[892.7,566.6],[877.5,583.7],[821.8,604.4],[821.8,604.4],[780.2,626.1],[770.5,666],[768.4,691.4],[795.6,697.2],[795.6,697.2],[841,706.3],[841,706.3],[862.1,706.1],[872.9,700.9],[875.4,707.3],[864.6,695.4],[919.7,692.1],[909.6,667.4],[919.6,644.5],[928,639.4],[928,639.4],[974.3,624.3],[1023.7,604.7],[1086.6,597.8],[1135.1,587.3],[1176.1,571.5],[1241.1,563.7],[1244.6,545.6],[1305.5,540.6],[1305.5,540.6],[1341.8,524.8],[1325.5,496.2],[1294,481.8],[1281.9,470],[1256.8,439.7],[1256.8,439.7],[1220.7,419.4],[1224.2,407.7],[1201.8,387],[1222,375.7],[1228.9,368.4],[1211.7,358.5],[1244.4,358.9],[1296.7,381.5],[1309.1,376.9],[1318.4,372.3],[1331.4,367.5],[1301.7,356.5],[1301.7,356.5],[1338,357.3],[1310,354.5],[1310,354.5],[1351.1,355.6],[1307,357.4],[1328.3,368.9],[1328.3,368.9],[1280.8,349.1],[1281.6,366.9],[1281.6,366.9],[1273.1,382.2],[1265.6,375.6],[1251.2,387.9],[1183.7,394.9],[1181.1,387.4],[1088.8,379],[1096,377.7],[1054,368.4],[1072.5,353],[1044.7,349.8],[1017.8,323.1],[1017.8,323.1],[1002.5,359.5],[1014.7,366],[1022.3,377.7],[1026.9,392.5],[1026.9,392.5],[1097,390.2],[1116.5,394.5],[1118.4,414.7],[1108.7,441.3],[1114.3,437.7],[1142.6,473.7],[1173.9,465.3],[1186.2,461],[1205.6,453.4],[1226,460.2],[1226,460.2],[1199.4,476.1],[1206.2,479.2],[1203.7,473.4],[1207.1,475],[1207.1,475],[1212.6,482.4],[1201.3,482.4],[1190.6,482.7],[1185.8,488.6],[1185.8,488.6],[1183.4,496.4],[1183.4,496.4],[1165.1,494.2],[1173.1,505.2],[1173.1,505.2],[1140.5,517.2],[1151.6,514.2],[1145.1,516.6],[1137.7,508.6],[1148.7,504],[1154.6,506.2],[1161.3,491],[1166.9,486.3],[1200.2,488],[1200.2,466.5],[1229.1,452.5],[1229.1,452.5],[1220.1,451.3],[1220.1,451.3],[1246.7,431.2],[1278.6,420.7],[1287.7,402.1],[1311.5,394.4],[1337.1,383.2],[1347.3,373.8],[1332.5,363.6],[1337.4,380.8],[1379.7,382],[1386.1,380.8],[1386.1,380.8],[1378.7,383.5],[1377.4,405.3],[1365.6,401.3],[1365.6,401.3],[1324.8,395.4],[1313,389.5],[1309.6,381.4],[1301,372.4],[1301,372.4],[1289,346.2],[1247.7,335.2],[1246.8,324.1],[1253.6,316.2],[1224.6,296],[1224.6,296],[1219.5,288.4],[1238.2,258.8],[1230.6,253.9],[1226.9,239.8],[1233.7,248.6],[1232.8,234.1],[1244.8,232],[1233.9,201.8],[1223.8,189.1],[1234,168.9],[1223.4,169.4],[1228,182.4],[1209.3,197.6],[1233.1,206],[1231.9,209.8],[1235.8,221.7],[1222.8,213.7],[1222.8,213.7],[1240.8,220.5],[1240.8,220.5],[1222.5,207.2],[1227.5,210.9],[1225.6,215.2],[1214,215.3],[1214,215.3],[1220.8,202.6],[1188.4,196.1],[1142.5,146.6],[1112.8,149.4],[1055.8,137.2]]","[-0.132282,0.39684600000000003]","[0.132282,0.39684600000000003]","[0.39684600000000003,0.39684600000000003]","[-0.39684600000000003,0.132282]","[-0.39684600000000003,-0.39684600000000003]","[-0.39684600000000003,-0.132282]","[-0.132282,0.132282]","[0.132282,0.132282]","[0.39684600000000003,0.132282]","[-0.132282,-0.39684600000000003]","[0.132282,-0.39684600000000003]","[0.39684600000000003,-0.39684600000000003]","[-0.132282,-0.132282]","[0.132282,-0.132282]","[0.39684600000000003,-0.132282]",0,0,0,0,1,1,Tablet,20,20,7,2,70,4,2,70,4
