inst1_resp.keys,inst1_resp.rt,calibrationMouse.x,calibrationMouse.y,calibrationMouse.leftButton,calibrationMouse.midButton,calibrationMouse.rightButton,calibrationClick.x,calibrationClick.y,calibrationClick.leftButton,calibrationClick.midButton,calibrationClick.rightButton,calibrationClick.clicked_name,trialsc.thisRepN,trialsc.thisTrialN,trialsc.thisN,trialsc.thisIndex,trialsc.ran,calibration_x,calibration_y,participant,session,date,expName,psychopyVersion,OS,frameRate,ScreenRes_pixels,Camera_pixels,mouse_2.x,mouse_2.y,mouse_2.leftButton,mouse_2.midButton,mouse_2.rightButton,mouse_2.time,mouse_2.clicked_name,mouse.x,mouse.y,mouse.leftButton,mouse.midButton,mouse.rightButton,mouse.time,mouse.clicked_name,Choice,Trial,TrialDuration,MOUSE_GAZE,ET_GAZE,ET_GAZE_x_T,time,unixTime,ET_GAZE_NF,Loc_Bus_label,Loc_Metro_label,Loc_RH_label,Loc_Cost_label,Loc_Travel_label,Loc_Comfort_label,Loc_Bus_cost,Loc_Metro_cost,Loc_RH_cost,Loc_Bus_travel,Loc_Metro_travel,Loc_RH_travel,Loc_Bus_comfort,Loc_Metro_comfort,Loc_RH_comfort,trials.thisRepN,trials.thisTrialN,trials.thisN,trials.thisIndex,trials.ran,Block,Device,RH_cost,RH_travel_time,RH_Comfort,metro_cost,metro_travel_time,metro_Comfort,Bus_cost,Bus_travel_time,Bus_Comfort
space,2.0643,0.021875,-0.051851852,1,0,0,-0.660416667,-0.672222222,1,0,0,calibration_square,0,0,0,0,1,-0.67,-0.67,17,001,2024-11-26_15h09.21.536,Attention_exp_legacy,2023.1.0,Win32,59.88023952,,,,,,,,,,,,,,,,,,,,,,,,,,,,,,,,,,,,,,,,,,,,,,,,,,,,,,,,
,,,,,,,0.003125,0.331481481,1,0,0,calibration_square,0,1,1,12,1,0,0.33,17,001,2024-11-26_15h09.21.536,Attention_exp_legacy,2023.1.0,Win32,59.88023952,,,,,,,,,,,,,,,,,,,,,,,,,,,,,,,,,,,,,,,,,,,,,,,,,,,,,,,,
,,,,,,,0.320833333,-0.011111111,1,0,0,,0,2,2,16,1,0.33,0,17,001,2024-11-26_15h09.21.536,Attention_exp_legacy,2023.1.0,Win32,59.88023952,,,,,,,,,,,,,,,,,,,,,,,,,,,,,,,,,,,,,,,,,,,,,,,,,,,,,,,,
,,,,,,,-0.678125,-0.337037037,1,0,0,calibration_square,0,3,3,1,1,-0.67,-0.33,17,001,2024-11-26_15h09.21.536,Attention_exp_legacy,2023.1.0,Win32,59.88023952,,,,,,,,,,,,,,,,,,,,,,,,,,,,,,,,,,,,,,,,,,,,,,,,,,,,,,,,
,,,,,,,-0.33125,-0.67037037,1,0,0,calibration_square,0,4,4,4,1,-0.33,-0.67,17,001,2024-11-26_15h09.21.536,Attention_exp_legacy,2023.1.0,Win32,59.88023952,,,,,,,,,,,,,,,,,,,,,,,,,,,,,,,,,,,,,,,,,,,,,,,,,,,,,,,,
,,,,,,,-0.665625,-0.007407407,1,0,0,calibration_square,0,5,5,2,1,-0.67,0,17,001,2024-11-26_15h09.21.536,Attention_exp_legacy,2023.1.0,Win32,59.88023952,,,,,,,,,,,,,,,,,,,,,,,,,,,,,,,,,,,,,,,,,,,,,,,,,,,,,,,,
,,,,,,,0.664583333,0.683333333,1,0,0,,0,6,6,19,1,0.67,0.67,17,001,2024-11-26_15h09.21.536,Attention_exp_legacy,2023.1.0,Win32,59.88023952,,,,,,,,,,,,,,,,,,,,,,,,,,,,,,,,,,,,,,,,,,,,,,,,,,,,,,,,
,,,,,,,-0.002083333,0.640740741,1,0,0,,0,7,7,13,1,0,0.67,17,001,2024-11-26_15h09.21.536,Attention_exp_legacy,2023.1.0,Win32,59.88023952,,,,,,,,,,,,,,,,,,,,,,,,,,,,,,,,,,,,,,,,,,,,,,,,,,,,,,,,
,,,,,,,0.00625,-0.67962963,1,0,0,calibration_square,0,8,8,9,1,0,-0.67,17,001,2024-11-26_15h09.21.536,Attention_exp_legacy,2023.1.0,Win32,59.88023952,,,,,,,,,,,,,,,,,,,,,,,,,,,,,,,,,,,,,,,,,,,,,,,,,,,,,,,,
,,,,,,,-0.341666667,-0.316666667,1,0,0,,0,9,9,5,1,-0.33,-0.33,17,001,2024-11-26_15h09.21.536,Attention_exp_legacy,2023.1.0,Win32,59.88023952,,,,,,,,,,,,,,,,,,,,,,,,,,,,,,,,,,,,,,,,,,,,,,,,,,,,,,,,
,,,,,,,-0.00625,-0.012962963,1,0,0,,0,10,10,11,1,0,0,17,001,2024-11-26_15h09.21.536,Attention_exp_legacy,2023.1.0,Win32,59.88023952,,,,,,,,,,,,,,,,,,,,,,,,,,,,,,,,,,,,,,,,,,,,,,,,,,,,,,,,
,,,,,,,0.31875,-0.322222222,1,0,0,,0,11,11,15,1,0.33,-0.33,17,001,2024-11-26_15h09.21.536,Attention_exp_legacy,2023.1.0,Win32,59.88023952,,,,,,,,,,,,,,,,,,,,,,,,,,,,,,,,,,,,,,,,,,,,,,,,,,,,,,,,
,,,,,,,-0.329166667,0.331481481,1,0,0,calibration_square,0,12,12,7,1,-0.33,0.33,17,001,2024-11-26_15h09.21.536,Attention_exp_legacy,2023.1.0,Win32,59.88023952,,,,,,,,,,,,,,,,,,,,,,,,,,,,,,,,,,,,,,,,,,,,,,,,,,,,,,,,
,,,,,,,-0.00625,-0.287037037,1,0,0,,0,13,13,10,1,0,-0.33,17,001,2024-11-26_15h09.21.536,Attention_exp_legacy,2023.1.0,Win32,59.88023952,,,,,,,,,,,,,,,,,,,,,,,,,,,,,,,,,,,,,,,,,,,,,,,,,,,,,,,,
,,,,,,,0.323958333,0.340740741,1,0,0,,0,14,14,17,1,0.33,0.33,17,001,2024-11-26_15h09.21.536,Attention_exp_legacy,2023.1.0,Win32,59.88023952,,,,,,,,,,,,,,,,,,,,,,,,,,,,,,,,,,,,,,,,,,,,,,,,,,,,,,,,
,,,,,,,0.319791667,0.67962963,1,0,0,,0,15,15,18,1,0.33,0.67,17,001,2024-11-26_15h09.21.536,Attention_exp_legacy,2023.1.0,Win32,59.88023952,,,,,,,,,,,,,,,,,,,,,,,,,,,,,,,,,,,,,,,,,,,,,,,,,,,,,,,,
,,,,,,,-0.335416667,0.677777778,1,0,0,calibration_square,0,16,16,8,1,-0.33,0.67,17,001,2024-11-26_15h09.21.536,Attention_exp_legacy,2023.1.0,Win32,59.88023952,,,,,,,,,,,,,,,,,,,,,,,,,,,,,,,,,,,,,,,,,,,,,,,,,,,,,,,,
,,,,,,,0.666666667,-0.659259259,1,0,0,,0,17,17,20,1,0.67,-0.67,17,001,2024-11-26_15h09.21.536,Attention_exp_legacy,2023.1.0,Win32,59.88023952,,,,,,,,,,,,,,,,,,,,,,,,,,,,,,,,,,,,,,,,,,,,,,,,,,,,,,,,
,,,,,,,-0.676041667,0.316666667,1,0,0,,0,18,18,3,1,-0.67,0.33,17,001,2024-11-26_15h09.21.536,Attention_exp_legacy,2023.1.0,Win32,59.88023952,,,,,,,,,,,,,,,,,,,,,,,,,,,,,,,,,,,,,,,,,,,,,,,,,,,,,,,,
,,,,,,,-0.345833333,-0.007407407,1,0,0,,0,19,19,6,1,-0.33,0,17,001,2024-11-26_15h09.21.536,Attention_exp_legacy,2023.1.0,Win32,59.88023952,,,,,,,,,,,,,,,,,,,,,,,,,,,,,,,,,,,,,,,,,,,,,,,,,,,,,,,,
,,,,,,,0.33125,-0.653703704,1,0,0,,0,20,20,14,1,0.33,-0.67,17,001,2024-11-26_15h09.21.536,Attention_exp_legacy,2023.1.0,Win32,59.88023952,,,,,,,,,,,,,,,,,,,,,,,,,,,,,,,,,,,,,,,,,,,,,,,,,,,,,,,,
,,,,,,,,,,,,,,,,,,,,17,001,2024-11-26_15h09.21.536,Attention_exp_legacy,2023.1.0,Win32,59.88023952,"[1920,1080]","[640,480]",[0.065625],[-0.49074074074074076],[1],[0],[0],[1.0302999999970197],"[""StartButton""]","[0.06770833333333333,0.06666666666666667]","[0.17777777777777778,0.18888888888888888]","[1,1]","[0,0]","[0,0]","[5.782499999999999,6.732300000011918]","[""Metro_label"",""Metro_label""]",Metro_label,1,6.7949,"[[0.09166666666666666,0.5462962962962963],[0.09166666666666666,0.5462962962962963],[0.09166666666666666,0.5462962962962963],[0.09166666666666666,0.5462962962962963],[0.09166666666666666,0.5462962962962963],[0.09166666666666666,0.5462962962962963],[0.09166666666666666,0.5462962962962963],[0.09166666666666666,0.5462962962962963],[0.09166666666666666,0.5462962962962963],[0.09166666666666666,0.5462962962962963],[0.09166666666666666,0.5462962962962963],[0.09166666666666666,0.5462962962962963],[0.09166666666666666,0.5462962962962963],[0.09166666666666666,0.5462962962962963],[0.09166666666666666,0.5462962962962963],[0.09166666666666666,0.5462962962962963],[0.09166666666666666,0.5462962962962963],[0.09166666666666666,0.5462962962962963],[0.09166666666666666,0.5462962962962963],[0.09166666666666666,0.5462962962962963],[0.09166666666666666,0.5462962962962963],[0.09166666666666666,0.5462962962962963],[0.09166666666666666,0.5462962962962963],[0.09166666666666666,0.5462962962962963],[0.09166666666666666,0.5462962962962963],[0.09166666666666666,0.5462962962962963],[0.09166666666666666,0.5462962962962963],[0.09166666666666666,0.5462962962962963],[0.09166666666666666,0.5462962962962963],[0.09166666666666666,0.5462962962962963],[0.09166666666666666,0.5462962962962963],[0.09166666666666666,0.5462962962962963],[0.09166666666666666,0.5462962962962963],[0.09166666666666666,0.5462962962962963],[0.09166666666666666,0.5462962962962963],[0.09166666666666666,0.5462962962962963],[0.09166666666666666,0.5462962962962963],[0.09166666666666666,0.5462962962962963],[0.09166666666666666,0.5462962962962963],[0.09166666666666666,0.5462962962962963],[0.09166666666666666,0.5462962962962963],[0.09166666666666666,0.5462962962962963],[0.09166666666666666,0.5462962962962963],[0.09166666666666666,0.5462962962962963],[0.09166666666666666,0.5462962962962963],[0.09166666666666666,0.5462962962962963],[0.09166666666666666,0.5462962962962963],[0.09166666666666666,0.5462962962962963],[0.09166666666666666,0.5462962962962963],[0.09270833333333334,0.5425925925925926],[0.09270833333333334,0.524074074074074],[0.09270833333333334,0.5148148148148148],[0.09583333333333334,0.5],[0.096875,0.4888888888888889],[0.1,0.4777777777777778],[0.10104166666666667,0.4648148148148148],[0.10104166666666667,0.45925925925925926],[0.10104166666666667,0.4462962962962963],[0.10104166666666667,0.43148148148148147],[0.10104166666666667,0.42962962962962964],[0.10104166666666667,0.4222222222222222],[0.10104166666666667,0.4222222222222222],[0.10104166666666667,0.4203703703703704],[0.10104166666666667,0.4203703703703704],[0.10104166666666667,0.4203703703703704],[0.10104166666666667,0.4203703703703704],[0.10104166666666667,0.4203703703703704],[0.10104166666666667,0.4203703703703704],[0.10104166666666667,0.4203703703703704],[0.10104166666666667,0.4203703703703704],[0.10104166666666667,0.4203703703703704],[0.10104166666666667,0.4203703703703704],[0.10104166666666667,0.4203703703703704],[0.10104166666666667,0.4203703703703704],[0.10104166666666667,0.4203703703703704],[0.10104166666666667,0.4203703703703704],[0.10104166666666667,0.4203703703703704],[0.10104166666666667,0.4203703703703704],[0.10104166666666667,0.4203703703703704],[0.10104166666666667,0.4203703703703704],[0.10104166666666667,0.4203703703703704],[0.10104166666666667,0.4203703703703704],[0.10104166666666667,0.4203703703703704],[0.10104166666666667,0.4203703703703704],[0.10104166666666667,0.4203703703703704],[0.10104166666666667,0.4203703703703704],[0.10104166666666667,0.4203703703703704],[0.10104166666666667,0.4203703703703704],[0.10104166666666667,0.4203703703703704],[0.10104166666666667,0.4203703703703704],[0.10104166666666667,0.4203703703703704],[0.10104166666666667,0.4203703703703704],[0.10104166666666667,0.4203703703703704],[0.10104166666666667,0.4203703703703704],[0.10104166666666667,0.4203703703703704],[0.10104166666666667,0.4203703703703704],[0.10104166666666667,0.4203703703703704],[0.10104166666666667,0.4203703703703704],[0.10104166666666667,0.4203703703703704],[0.10104166666666667,0.4203703703703704],[0.10104166666666667,0.4203703703703704],[0.10104166666666667,0.4203703703703704],[0.10104166666666667,0.4203703703703704],[0.10104166666666667,0.4203703703703704],[0.10104166666666667,0.4203703703703704],[0.10104166666666667,0.4203703703703704],[0.10104166666666667,0.4203703703703704],[0.10104166666666667,0.4203703703703704],[0.10104166666666667,0.4203703703703704],[0.10104166666666667,0.4203703703703704],[0.10104166666666667,0.4203703703703704],[0.10104166666666667,0.4203703703703704],[0.10104166666666667,0.4203703703703704],[0.10104166666666667,0.4203703703703704],[0.10104166666666667,0.4203703703703704],[0.10104166666666667,0.4203703703703704],[0.10104166666666667,0.4203703703703704],[0.10104166666666667,0.4203703703703704],[0.10104166666666667,0.4203703703703704],[0.10104166666666667,0.4203703703703704],[0.10104166666666667,0.4203703703703704],[0.10104166666666667,0.4203703703703704],[0.10104166666666667,0.4203703703703704],[0.10104166666666667,0.4203703703703704],[0.10104166666666667,0.4203703703703704],[0.10104166666666667,0.4203703703703704],[0.10104166666666667,0.4203703703703704],[0.10104166666666667,0.4203703703703704],[0.10104166666666667,0.4203703703703704],[0.10104166666666667,0.4203703703703704],[0.10104166666666667,0.4203703703703704],[0.10104166666666667,0.4203703703703704],[0.10104166666666667,0.4203703703703704],[0.10104166666666667,0.4203703703703704],[0.10104166666666667,0.4203703703703704],[0.10104166666666667,0.4203703703703704],[0.10104166666666667,0.4203703703703704],[0.10104166666666667,0.4203703703703704],[0.10104166666666667,0.4203703703703704],[0.10104166666666667,0.4203703703703704],[0.10104166666666667,0.4203703703703704],[0.10104166666666667,0.4203703703703704],[0.10104166666666667,0.4203703703703704],[0.10104166666666667,0.4203703703703704],[0.10104166666666667,0.4203703703703704],[0.10104166666666667,0.4203703703703704],[0.10104166666666667,0.4203703703703704],[0.10104166666666667,0.4203703703703704],[0.10104166666666667,0.4203703703703704],[0.10104166666666667,0.4203703703703704],[0.10104166666666667,0.4203703703703704],[0.10104166666666667,0.4203703703703704],[0.10104166666666667,0.4203703703703704],[0.10104166666666667,0.4203703703703704],[0.10104166666666667,0.4203703703703704],[0.10104166666666667,0.4203703703703704],[0.10104166666666667,0.4203703703703704],[0.10104166666666667,0.4203703703703704],[0.10104166666666667,0.4203703703703704],[0.10104166666666667,0.4203703703703704],[0.10104166666666667,0.4203703703703704],[0.10104166666666667,0.4203703703703704],[0.10104166666666667,0.4203703703703704],[0.10104166666666667,0.4203703703703704],[0.10104166666666667,0.4203703703703704],[0.10104166666666667,0.4203703703703704],[0.10104166666666667,0.4203703703703704],[0.10104166666666667,0.4203703703703704],[0.10104166666666667,0.4203703703703704],[0.10104166666666667,0.4203703703703704],[0.10104166666666667,0.4203703703703704],[0.10104166666666667,0.4203703703703704],[0.10104166666666667,0.4203703703703704],[0.10104166666666667,0.4203703703703704],[0.10104166666666667,0.4203703703703704],[0.10104166666666667,0.4203703703703704],[0.10104166666666667,0.4203703703703704],[0.10104166666666667,0.4203703703703704],[0.10104166666666667,0.4203703703703704],[0.10104166666666667,0.4203703703703704],[0.10104166666666667,0.4203703703703704],[0.10104166666666667,0.4203703703703704],[0.10104166666666667,0.4203703703703704],[0.10104166666666667,0.4203703703703704],[0.10104166666666667,0.4203703703703704],[0.10104166666666667,0.4203703703703704],[0.10104166666666667,0.4203703703703704],[0.10104166666666667,0.4203703703703704],[0.10104166666666667,0.4203703703703704],[0.10104166666666667,0.4203703703703704],[0.10104166666666667,0.4203703703703704],[0.10104166666666667,0.4203703703703704],[0.10104166666666667,0.4203703703703704],[0.10104166666666667,0.4203703703703704],[0.10104166666666667,0.4203703703703704],[0.10104166666666667,0.4203703703703704],[0.10104166666666667,0.4203703703703704],[0.10104166666666667,0.4203703703703704],[0.10104166666666667,0.4203703703703704],[0.10104166666666667,0.4185185185185185],[0.10104166666666667,0.4074074074074074],[0.10104166666666667,0.40555555555555556],[0.10104166666666667,0.4],[0.10104166666666667,0.39444444444444443],[0.10104166666666667,0.39444444444444443],[0.10104166666666667,0.387037037037037],[0.10104166666666667,0.37777777777777777],[0.10104166666666667,0.36666666666666664],[0.1,0.35185185185185186],[0.09791666666666667,0.3388888888888889],[0.09583333333333334,0.32407407407407407],[0.09375,0.30925925925925923],[0.09166666666666666,0.2962962962962963],[0.08958333333333333,0.2814814814814815],[0.0875,0.26481481481481484],[0.08541666666666667,0.2462962962962963],[0.08541666666666667,0.24074074074074073],[0.08541666666666667,0.23148148148148148],[0.08229166666666667,0.21481481481481482],[0.08125,0.2037037037037037],[0.08125,0.18703703703703703],[0.07916666666666666,0.17407407407407408],[0.078125,0.1648148148148148],[0.07708333333333334,0.15555555555555556],[0.075,0.14629629629629629],[0.075,0.14444444444444443],[0.075,0.14074074074074075],[0.075,0.1388888888888889],[0.07395833333333333,0.13518518518518519],[0.07395833333333333,0.13518518518518519],[0.07395833333333333,0.13518518518518519],[0.07395833333333333,0.13518518518518519],[0.07395833333333333,0.13518518518518519],[0.07395833333333333,0.13518518518518519],[0.07395833333333333,0.13518518518518519],[0.07395833333333333,0.13518518518518519],[0.07395833333333333,0.13518518518518519],[0.07395833333333333,0.13518518518518519],[0.07395833333333333,0.13518518518518519],[0.07395833333333333,0.13518518518518519],[0.07395833333333333,0.13518518518518519],[0.07395833333333333,0.13518518518518519],[0.07395833333333333,0.13518518518518519],[0.07395833333333333,0.13518518518518519],[0.07395833333333333,0.13518518518518519],[0.07395833333333333,0.13518518518518519],[0.07395833333333333,0.13518518518518519],[0.07395833333333333,0.13518518518518519],[0.07395833333333333,0.13518518518518519],[0.07395833333333333,0.13518518518518519],[0.07395833333333333,0.1388888888888889],[0.071875,0.14074074074074075],[0.07083333333333333,0.14444444444444443],[0.07083333333333333,0.14814814814814814],[0.07083333333333333,0.15],[0.07083333333333333,0.15185185185185185],[0.07083333333333333,0.15185185185185185],[0.07083333333333333,0.15185185185185185],[0.07083333333333333,0.15185185185185185],[0.07083333333333333,0.15185185185185185],[0.07083333333333333,0.15185185185185185],[0.07083333333333333,0.15555555555555556],[0.06979166666666667,0.1574074074074074],[0.06979166666666667,0.15925925925925927],[0.06979166666666667,0.16111111111111112],[0.06875,0.16296296296296298],[0.06770833333333333,0.1648148148148148],[0.06770833333333333,0.16666666666666666],[0.06770833333333333,0.16666666666666666],[0.06770833333333333,0.16666666666666666],[0.06770833333333333,0.16666666666666666],[0.06770833333333333,0.1685185185185185],[0.06770833333333333,0.1685185185185185],[0.06770833333333333,0.17222222222222222],[0.06770833333333333,0.17407407407407408],[0.06770833333333333,0.17407407407407408],[0.06770833333333333,0.17777777777777778],[0.06770833333333333,0.17777777777777778],[0.06770833333333333,0.17777777777777778],[0.06770833333333333,0.17777777777777778],[0.06770833333333333,0.17777777777777778],[0.06770833333333333,0.17777777777777778],[0.06770833333333333,0.17777777777777778],[0.06770833333333333,0.17777777777777778],[0.06770833333333333,0.17777777777777778],[0.06770833333333333,0.17777777777777778],[0.06770833333333333,0.17777777777777778],[0.06770833333333333,0.17777777777777778],[0.06770833333333333,0.17777777777777778],[0.06770833333333333,0.17777777777777778],[0.06770833333333333,0.17777777777777778],[0.06770833333333333,0.17777777777777778],[0.06770833333333333,0.17777777777777778],[0.06770833333333333,0.17777777777777778],[0.06770833333333333,0.17777777777777778],[0.06770833333333333,0.17777777777777778],[0.06770833333333333,0.17777777777777778],[0.06770833333333333,0.17777777777777778],[0.06770833333333333,0.17777777777777778],[0.06770833333333333,0.17777777777777778],[0.06770833333333333,0.17777777777777778],[0.06770833333333333,0.17777777777777778],[0.06770833333333333,0.17777777777777778],[0.06770833333333333,0.17777777777777778],[0.06770833333333333,0.17777777777777778],[0.06770833333333333,0.17777777777777778],[0.06770833333333333,0.17777777777777778],[0.06770833333333333,0.17777777777777778],[0.06770833333333333,0.17777777777777778],[0.06770833333333333,0.17777777777777778],[0.06770833333333333,0.17777777777777778],[0.06770833333333333,0.17777777777777778],[0.06770833333333333,0.17777777777777778],[0.06770833333333333,0.17777777777777778],[0.06770833333333333,0.17777777777777778],[0.06770833333333333,0.17777777777777778],[0.06770833333333333,0.17777777777777778],[0.06770833333333333,0.17777777777777778],[0.06770833333333333,0.17777777777777778],[0.06770833333333333,0.17777777777777778],[0.06770833333333333,0.17777777777777778],[0.06770833333333333,0.17777777777777778],[0.06770833333333333,0.17777777777777778],[0.06770833333333333,0.17777777777777778],[0.06770833333333333,0.17777777777777778],[0.06770833333333333,0.17777777777777778],[0.06770833333333333,0.17777777777777778],[0.06770833333333333,0.17777777777777778],[0.06770833333333333,0.17777777777777778],[0.06770833333333333,0.17777777777777778],[0.06770833333333333,0.17777777777777778],[0.06770833333333333,0.17777777777777778],[0.06770833333333333,0.17777777777777778],[0.06770833333333333,0.17777777777777778],[0.06770833333333333,0.17777777777777778],[0.06770833333333333,0.17777777777777778],[0.06770833333333333,0.17777777777777778],[0.06770833333333333,0.17777777777777778],[0.06770833333333333,0.17777777777777778],[0.06770833333333333,0.17777777777777778],[0.06770833333333333,0.17777777777777778],[0.06770833333333333,0.17777777777777778],[0.06770833333333333,0.17777777777777778],[0.06770833333333333,0.17777777777777778],[0.06770833333333333,0.17777777777777778],[0.06770833333333333,0.17777777777777778],[0.06770833333333333,0.17777777777777778],[0.06770833333333333,0.17777777777777778],[0.06770833333333333,0.17777777777777778],[0.06770833333333333,0.17777777777777778],[0.06770833333333333,0.17777777777777778],[0.06770833333333333,0.17777777777777778],[0.06770833333333333,0.17777777777777778],[0.06770833333333333,0.17777777777777778],[0.06770833333333333,0.17777777777777778],[0.06770833333333333,0.17777777777777778],[0.06770833333333333,0.17777777777777778],[0.06770833333333333,0.17777777777777778],[0.06770833333333333,0.17777777777777778],[0.06770833333333333,0.17777777777777778],[0.06770833333333333,0.17777777777777778],[0.06770833333333333,0.17777777777777778],[0.06770833333333333,0.17777777777777778],[0.06770833333333333,0.17777777777777778],[0.06770833333333333,0.17777777777777778],[0.06770833333333333,0.17777777777777778],[0.06770833333333333,0.17777777777777778],[0.06770833333333333,0.17777777777777778],[0.06770833333333333,0.17777777777777778],[0.06770833333333333,0.17777777777777778],[0.06770833333333333,0.17777777777777778],[0.06770833333333333,0.17777777777777778],[0.06770833333333333,0.17777777777777778],[0.06770833333333333,0.17777777777777778],[0.06770833333333333,0.17777777777777778],[0.06770833333333333,0.17777777777777778],[0.06770833333333333,0.17777777777777778],[0.06770833333333333,0.17777777777777778],[0.06770833333333333,0.17777777777777778],[0.06770833333333333,0.17777777777777778],[0.06770833333333333,0.17777777777777778],[0.06770833333333333,0.17777777777777778],[0.06770833333333333,0.17777777777777778],[0.06770833333333333,0.17777777777777778],[0.06770833333333333,0.17777777777777778],[0.06770833333333333,0.17777777777777778],[0.06770833333333333,0.17777777777777778],[0.06770833333333333,0.17777777777777778],[0.06770833333333333,0.17777777777777778],[0.06770833333333333,0.17777777777777778],[0.06770833333333333,0.17777777777777778],[0.06770833333333333,0.17962962962962964],[0.06770833333333333,0.18333333333333332],[0.06666666666666667,0.18518518518518517],[0.06666666666666667,0.18518518518518517],[0.06666666666666667,0.18518518518518517],[0.06666666666666667,0.18518518518518517],[0.06666666666666667,0.18888888888888888],[0.06666666666666667,0.18888888888888888],[0.06666666666666667,0.18888888888888888],[0.06666666666666667,0.18888888888888888],[0.06666666666666667,0.18888888888888888],[0.06666666666666667,0.18888888888888888],[0.06666666666666667,0.18888888888888888],[0.06666666666666667,0.18888888888888888],[0.06666666666666667,0.18888888888888888],[0.06666666666666667,0.18888888888888888]]","[[0.2040625000000001,0.11500000000000005],[0.2040625000000001,0.11500000000000005],[0.1912499999999999,0.1307407407407408],[0.1820833333333333,0.1014814814814814],[0.17979166666666657,0.10333333333333325],[0.19874999999999995,0.0772222222222223],[0.19874999999999995,0.0772222222222223],[0.20364583333333333,0.04129629629629621],[0.2303124999999999,0.03740740740740749],[0.21281249999999996,0.03425925925925926],[0.22333333333333344,0.03222222222222218],[0.24729166666666677,0.06388888888888888],[0.23958333333333334,0.044444444444444446],[0.3054166666666667,0.10388888888888893],[0.29020833333333323,0.06518518518518526],[0.275,0.026481481481481398],[0.275,0.026481481481481398],[0.3009375000000001,0.027222222222222307],[0.33447916666666655,0.03481481481481473],[0.34343750000000006,-0.004259259259259175],[0.3415625000000001,-0.04203703703703712],[0.3116666666666667,-0.0809259259259259],[0.3116666666666667,-0.0809259259259259],[0.2931250000000001,-0.08444444444444449],[0.28624999999999995,-0.036666666666666584],[0.2633333333333333,-0.06888888888888887],[0.2633333333333333,-0.06888888888888887],[0.25885416666666666,-0.06296296296296296],[0.28916666666666657,0.031111111111111027],[0.2783333333333334,0.08574074074074066],[0.24895833333333334,0.1081481481481481],[0.24927083333333327,0.1388888888888889],[0.24927083333333327,0.1388888888888889],[0.24031250000000004,0.1427777777777778],[0.25052083333333336,0.17462962962962955],[0.25447916666666665,0.20685185185185193],[0.25499999999999995,0.2168518518518519],[0.25499999999999995,0.2168518518518519],[0.23270833333333343,0.20481481481481487],[0.26291666666666674,0.26129629629629636],[0.2484375,0.18722222222222226],[0.23395833333333324,0.11314814814814819],[0.22760416666666666,0.08203703703703695],[0.20770833333333344,0.062037037037037036],[0.21510416666666668,0.07259259259259268],[0.21510416666666668,0.07259259259259268],[0.2033333333333334,0.0551851851851851],[0.1709374999999999,-0.0001851851851852273],[0.1720833333333334,0.0001851851851852273],[0.18708333333333324,-0.021481481481481525],[0.18708333333333324,-0.021481481481481525],[0.16010416666666671,-0.02240740740740745],[0.16010416666666671,-0.02240740740740745],[0.14500000000000005,0.01518518518518527],[0.14708333333333337,0.04888888888888885],[0.15041666666666675,0.06129629629629634],[0.15041666666666675,0.06129629629629634],[0.13583333333333342,0.05555555555555555],[0.12572916666666673,-0.01314814814814819],[0.115625,-0.08185185185185183],[0.15322916666666658,-0.1270370370370371],[0.15322916666666658,-0.1270370370370371],[0.13531250000000009,-0.22462962962962965],[0.12104166666666671,-0.24407407407407408],[0.10489583333333338,-0.2668518518518519],[0.0853125000000001,-0.3131481481481482],[0.0853125000000001,-0.3131481481481482],[0.07291666666666667,-0.37092592592592594],[0.06760416666666676,-0.39166666666666666],[0.08020833333333334,-0.3942592592592592],[0.06656249999999998,-0.34870370370370374],[0.0453125,-0.32629629629629625],[-0.013437499999999976,-0.3381481481481482],[-0.007604166666666619,-0.3331481481481481],[-0.03999999999999997,-0.367037037037037],[-0.02364583333333338,-0.3816666666666667],[0.0006250000000000236,-0.38981481481481484],[-0.00604166666666662,-0.40981481481481485],[-0.028958333333333287,-0.4714814814814815],[-0.051874999999999956,-0.5331481481481481],[-0.030520833333333285,-0.5316666666666667],[-0.017916666666666713,-0.5366666666666667],[-0.017916666666666713,-0.5366666666666667],[0.001145833333333357,-0.5605555555555556],[-0.003854166666666714,-0.577962962962963],[0.022708333333333285,-0.5766666666666667],[0.0265625,-0.5674074074074074],[0.0265625,-0.5674074074074074],[0.023958333333333335,-0.5372222222222223],[0.014687500000000023,-0.5155555555555555],[0.024479166666666666,-0.49240740740740735],[0.03427083333333331,-0.4692592592592592],[0.03427083333333331,-0.4692592592592592],[0.010000000000000024,-0.4968518518518519],[0.002499999999999976,-0.5037037037037037],[-0.010000000000000024,-0.4524074074074074],[-0.030312500000000023,-0.43259259259259264],[-0.05239583333333329,-0.45685185185185184],[-0.08260416666666662,-0.532962962962963],[-0.09156249999999998,-0.5651851851851851],[-0.08729166666666661,-0.5616666666666666],[-0.09291666666666672,-0.5549999999999999],[-0.0953125,-0.5435185185185185],[-0.09333333333333335,-0.5346296296296296],[-0.09333333333333335,-0.5346296296296296],[-0.09604166666666672,-0.5394444444444445],[-0.08562500000000005,-0.5481481481481482],[-0.07520833333333338,-0.5568518518518518],[-0.0640625,-0.5516666666666666],[-0.035625000000000046,-0.5333333333333333],[-0.03937499999999995,-0.5335185185185186],[-0.01875,-0.5068518518518518],[-0.01875,-0.5068518518518518],[-0.008229166666666643,-0.4729629629629629],[-0.025833333333333285,-0.4361111111111111],[-0.025833333333333285,-0.4361111111111111],[-0.043437500000000046,-0.3992592592592593],[-0.043437500000000046,-0.3992592592592593],[-0.04572916666666664,-0.3116666666666667],[-0.0626041666666667,-0.24166666666666667],[-0.08031250000000002,-0.1690740740740741],[-0.08833333333333329,-0.09092592592592597],[-0.09635416666666667,-0.012777777777777735],[-0.08697916666666666,0.075],[-0.10197916666666665,0.1359259259259259],[-0.10687500000000003,0.1896296296296296],[-0.11583333333333339,0.20425925925925917],[-0.1046875,0.2],[-0.11302083333333333,0.18592592592592588],[-0.11604166666666664,0.16703703703703712],[-0.0967708333333333,0.13833333333333342],[-0.08614583333333338,0.13425925925925927],[-0.08614583333333338,0.13425925925925927],[-0.042916666666666714,0.16888888888888898],[-0.02374999999999995,0.16888888888888898],[-0.009791666666666643,0.18629629629629635],[0.046875,0.22833333333333325],[0.13250000000000003,0.30166666666666664],[0.1877083333333334,0.37537037037037047],[0.22760416666666666,0.3875925925925925],[0.25833333333333336,0.4053703703703703],[0.2803124999999999,0.4601851851851852],[0.2803124999999999,0.4601851851851852],[0.2869791666666667,0.515925925925926],[0.2829166666666666,0.5416666666666666],[0.29145833333333326,0.581851851851852],[0.28791666666666677,0.602037037037037],[0.2476041666666667,0.5638888888888889],[0.2101041666666667,0.5359259259259259],[0.18291666666666656,0.5264814814814814],[0.17697916666666677,0.5475925925925926],[0.17999999999999997,0.5575925925925926],[0.17999999999999997,0.5575925925925926],[0.16843750000000005,0.5231481481481481],[0.17020833333333343,0.4868518518518518],[0.15010416666666657,0.4418518518518519],[0.12885416666666671,0.41203703703703703],[0.11385416666666662,0.3881481481481482],[0.13083333333333325,0.41518518518518527],[0.128125,0.4242592592592593],[0.128125,0.4242592592592593],[0.15177083333333338,0.37296296296296294],[0.15177083333333338,0.37296296296296294],[0.1678124999999999,0.36500000000000005],[0.19093749999999995,0.33851851851851844],[0.19093749999999995,0.33851851851851844],[0.22083333333333333,0.32037037037037036],[0.2476041666666667,0.3148148148148148],[0.27333333333333343,0.31851851851851853],[0.3264583333333334,0.3051851851851851],[0.38218750000000007,0.2755555555555555],[0.4002083333333334,0.2548148148148149],[0.4002083333333334,0.2548148148148149],[0.43510416666666674,0.2418518518518519],[0.4201041666666666,0.2655555555555555],[0.41520833333333323,0.25851851851851854],[0.4025000000000001,0.28851851851851845],[0.4025000000000001,0.28851851851851845],[0.40625,0.34388888888888897],[0.3992708333333333,0.3672222222222221],[0.39510416666666665,0.40981481481481474],[0.37864583333333335,0.42407407407407405],[0.37864583333333335,0.42407407407407405],[0.33656249999999993,0.459074074074074],[0.2673958333333334,0.4087037037037038],[0.23083333333333325,0.3987037037037036],[0.21229166666666663,0.4316666666666667],[0.21229166666666663,0.4316666666666667],[0.19375,0.4646296296296296],[0.17937500000000003,0.4540740740740742],[0.1492708333333333,0.4038888888888889],[0.1146874999999999,0.36944444444444446],[0.08489583333333334,0.2764814814814814],[0.03125,0.20185185185185187],[0.011666666666666714,0.11944444444444445],[0.04041666666666662,0.10240740740740732],[0.036562500000000026,0.044999999999999915],[0.036562500000000026,0.044999999999999915],[0.03822916666666672,-0.03166666666666671],[0.03104166666666662,-0.10777777777777775],[0.0484375,-0.17111111111111107],[0.0484375,-0.17111111111111107],[0.028958333333333287,-0.2337037037037037],[0.03958333333333333,-0.24611111111111106],[0.059895833333333336,-0.2485185185185185],[0.09510416666666661,-0.25388888888888894],[0.09510416666666661,-0.25388888888888894],[0.15593750000000003,-0.2616666666666667],[0.18125,-0.2485185185185185],[0.20656249999999995,-0.23537037037037042],[0.2228125000000001,-0.2929629629629629],[0.24791666666666667,-0.35111111111111115],[0.24791666666666667,-0.35111111111111115],[0.2613541666666668,-0.2807407407407408],[0.32010416666666663,-0.20037037037037034],[0.36906249999999996,-0.1655555555555555],[0.36906249999999996,-0.1655555555555555],[0.34708333333333335,-0.1814814814814815],[0.33479166666666677,-0.1772222222222222],[0.28187499999999993,-0.1935185185185185],[0.28187499999999993,-0.1935185185185185],[0.25364583333333335,-0.207962962962963],[0.23312499999999994,-0.222037037037037],[0.22166666666666662,-0.1653703703703704],[0.20385416666666673,-0.1],[0.20385416666666673,-0.1],[0.16989583333333325,-0.14537037037037037],[0.11385416666666662,-0.17092592592592595],[0.06697916666666662,-0.2490740740740741],[0.07479166666666662,-0.2564814814814815],[0.06927083333333334,-0.26425925925925925],[0.0787499999999999,-0.2490740740740741],[0.07072916666666676,-0.30388888888888893],[0.09812500000000005,-0.30166666666666664],[0.10416666666666667,-0.28055555555555556],[0.1165625000000001,-0.2681481481481482],[0.11958333333333329,-0.28055555555555556],[0.1306250000000001,-0.302962962962963],[0.14020833333333324,-0.2662962962962963],[0.14979166666666663,-0.22962962962962963],[0.16218750000000004,-0.2116666666666667],[0.17510416666666656,-0.18833333333333332],[0.19489583333333324,-0.12388888888888884],[0.19489583333333324,-0.12388888888888884],[0.18041666666666673,-0.11462962962962958],[0.1872916666666666,-0.1242592592592593],[0.19177083333333325,-0.10351851851851848],[0.19177083333333325,-0.10351851851851848],[0.20562500000000009,-0.05796296296296299],[0.20010416666666658,-0.032407407407407406],[0.16145833333333334,0.007777777777777862],[0.16145833333333334,0.007777777777777862],[0.1502083333333334,0.009999999999999959],[0.16291666666666677,0.031111111111111027],[0.16937499999999991,0.08129629629629626],[0.15822916666666675,0.07592592592592592],[0.1212500000000001,0.0448148148148149],[0.1212500000000001,0.0448148148148149],[0.11645833333333329,0.05981481481481473],[0.08635416666666676,-0.03925925925925934],[0.08156249999999995,-0.062407407407407384],[0.08552083333333324,-0.09240740740740737],[0.10229166666666671,-0.09851851851851849],[0.09343750000000005,-0.16444444444444448],[0.1165625000000001,-0.13759259259259263],[0.1165625000000001,-0.13759259259259263],[0.059583333333333384,-0.2964814814814815],[0.014999999999999977,-0.35851851851851857],[0.02354166666666669,-0.35759259259259263],[0.0016666666666666904,-0.37888888888888894],[-0.02385416666666664,-0.36129629629629634],[-0.06312500000000003,-0.41277777777777774],[-0.08406250000000005,-0.39666666666666667],[-0.08270833333333331,-0.3838888888888889],[-0.0765625,-0.3538888888888889],[-0.0765625,-0.3538888888888889],[-0.13999999999999999,-0.40796296296296297],[-0.0733333333333333,-0.25759259259259265],[-0.02645833333333331,-0.2088888888888889],[-0.014999999999999977,-0.22092592592592594],[0.00916666666666662,-0.2403703703703704],[0.06468750000000002,-0.21500000000000005],[0.09249999999999996,-0.2168518518518519],[0.13489583333333333,-0.1935185185185185],[0.13739583333333344,-0.30999999999999994],[0.13739583333333344,-0.30999999999999994],[0.15750000000000006,-0.33055555555555555],[0.1796875,-0.39814814814814814],[0.1538541666666667,-0.5001851851851852],[0.13739583333333344,-0.552962962962963],[0.12020833333333343,-0.5844444444444444],[0.09583333333333334,-0.5792592592592593],[0.053125,-0.6375925925925926],[0.0265625,-0.6755555555555556],[0.0021875000000000236,-0.7811111111111111],[0.019583333333333286,-0.7635185185185185],[-0.00791666666666669,-0.8016666666666666],[-0.00791666666666669,-0.8016666666666666],[-0.004479166666666619,-0.7229629629629629],[-0.01083333333333331,-0.7357407407407408],[0.024895833333333308,-0.6270370370370371],[0.08250000000000005,-0.5275925925925925],[0.06083333333333331,-0.5788888888888889],[0.07833333333333338,-0.553888888888889],[0.14291666666666672,-0.475],[0.17739583333333328,-0.4020370370370371],[0.1664583333333333,-0.4305555555555556],[0.1664583333333333,-0.4305555555555556],[0.17625000000000005,-0.41870370370370374],[0.1681250000000001,-0.47314814814814815],[0.17479166666666662,-0.41740740740740734],[0.1430208333333333,-0.5185185185185185],[0.08937499999999995,-0.6103703703703705],[0.10541666666666671,-0.5462962962962963],[0.10062499999999991,-0.495],[0.07427083333333329,-0.5335185185185186],[0.05354166666666664,-0.5644444444444444],[0.06666666666666667,-0.5188888888888888],[0.08416666666666663,-0.4577777777777778],[0.10104166666666667,-0.42888888888888893],[0.1078125,-0.44425925925925924],[0.13083333333333325,-0.36648148148148146],[0.1640625,-0.2935185185185185],[0.20895833333333325,-0.3055555555555556],[0.22770833333333323,-0.28648148148148145],[0.2287499999999999,-0.21888888888888886],[0.25447916666666665,-0.16148148148148145],[0.25447916666666665,-0.16148148148148145],[0.28020833333333334,-0.10407407407407405],[0.26666666666666666,-0.05814814814814811],[0.26020833333333326,-0.025370370370370456],[0.2964583333333332,0.02833333333333325],[0.2964583333333332,0.02833333333333325],[0.3147916666666667,0.007592592592592635],[0.29927083333333326,0.016851851851851896],[0.27843749999999995,0.055000000000000084],[0.30406250000000007,0.04888888888888885],[0.31927083333333334,0.06962962962962967],[0.30979166666666674,0.10055555555555547],[0.28322916666666675,0.07666666666666662],[0.28322916666666675,0.07666666666666662],[0.2915625000000001,0.04870370370370362],[0.3273958333333333,0.0625925925925925],[0.3263541666666666,0.04814814814814815],[0.31843750000000004,0.07444444444444454],[0.3341666666666666,0.07555555555555547],[0.3341666666666666,0.07555555555555547],[0.36135416666666675,0.0712962962962963],[0.34520833333333345,0.07574074074074069],[0.3316666666666668,0.040740740740740744],[0.3168750000000001,0.011296296296296339],[0.31916666666666677,0.036666666666666584],[0.31916666666666677,0.036666666666666584],[0.2961458333333333,0.04722222222222222],[0.2508333333333333,0.04277777777777782],[0.2085416666666667,0.05259259259259255],[0.2085416666666667,0.05259259259259255],[0.1724999999999999,0.027037037037037078],[0.16177083333333328,0.0001851851851852273],[0.16177083333333328,0.0001851851851852273],[0.1553124999999999,-0.012777777777777735],[0.1553124999999999,-0.012777777777777735],[0.1571875000000001,-0.021481481481481525],[0.16729166666666656,-0.02240740740740745],[0.17927083333333324,-0.012592592592592508],[0.1788541666666667,-0.0005555555555554713],[0.1962500000000001,-0.012962962962962963],[0.2013541666666666,-0.039074074074074115],[0.22781250000000006,-0.025370370370370456],[0.24260416666666676,-0.0016666666666666245],[0.22166666666666662,0.004814814814814857],[0.18093750000000006,0.0005555555555554713],[0.18093750000000006,0.0005555555555554713],[0.16875,0.06388888888888888],[0.12843749999999995,0.07703703703703708],[0.0875,0.07388888888888885],[0.06906249999999996,0.09240740740740737],[0.058124999999999954,0.15018518518518523],[0.033749999999999974,0.18092592592592602],[-0.00302083333333331,0.17703703703703708],[-0.013437499999999976,0.15148148148148138],[-0.00604166666666662,0.16111111111111112],[0.000416666666666643,0.17462962962962955],[-0.02020833333333331,0.11222222222222226],[-0.02020833333333331,0.11222222222222226],[-0.007604166666666619,0.05814814814814811],[-0.016354166666666715,0.011666666666666582],[-0.016354166666666715,0.011666666666666582],[-0.013020833333333334,-0.03185185185185194],[-0.005624999999999976,-0.05277777777777778],[0.04052083333333331,-0.0477777777777777],[0.07770833333333324,-0.04796296296296292],[0.07770833333333324,-0.04796296296296292],[0.05916666666666662,-0.0940740740740741],[0.04125000000000002,-0.13574074074074077],[0.02166666666666662,-0.16166666666666668],[0.019895833333333356,-0.21574074074074073],[0.004791666666666691,-0.23574074074074075],[0.033958333333333354,-0.2257407407407407],[0.04093749999999995,-0.24259259259259258],[0.05625,-0.24722222222222223],[0.04624999999999998,-0.2507407407407407],[0.009791666666666643,-0.2892592592592592],[0.028645833333333332,-0.2477777777777778],[0.028645833333333332,-0.2477777777777778],[0.06833333333333323,-0.2192592592592592],[0.08822916666666672,-0.22166666666666665]]","[[0.2040625000000001,0.11500000000000005,0.0003000000119186552],[0.2040625000000001,0.11500000000000005,0.0508000000119182],[0.1912499999999999,0.1307407407407408,0.059100000008939446],[0.1820833333333333,0.1014814814814814,0.07610000000893535],[0.17979166666666657,0.10333333333333325,0.09240000000595927],[0.19874999999999995,0.0772222222222223,0.11380000001192059],[0.19874999999999995,0.0772222222222223,0.1257000000029791],[0.20364583333333333,0.04129629629629621,0.14230000001192167],[0.2303124999999999,0.03740740740740749,0.16140000000595478],[0.21281249999999996,0.03425925925925926,0.17570000000297625],[0.22333333333333344,0.03222222222222218,0.19620000000297466],[0.24729166666666677,0.06388888888888888,0.2114999999999938],[0.23958333333333334,0.044444444444444446,0.22849999999999682],[0.3054166666666667,0.10388888888888893,0.2439000000059579],[0.29020833333333323,0.06518518518518526,0.2594999999999956],[0.275,0.026481481481481398,0.2798000000119174],[0.275,0.026481481481481398,0.29230000001192025],[0.3009375000000001,0.027222222222222307,0.3089999999999975],[0.33447916666666655,0.03481481481481473,0.3279000000059611],[0.34343750000000006,-0.004259259259259175,0.3423000000119174],[0.3415625000000001,-0.04203703703703712,0.3631000000089415],[0.3116666666666667,-0.0809259259259259,0.3771000000089373],[0.3116666666666667,-0.0809259259259259,0.39230000001192167],[0.2931250000000001,-0.08444444444444449,0.4089999999999989],[0.28624999999999995,-0.036666666666666584,0.4263000000119206],[0.2633333333333333,-0.06888888888888887,0.4463000000119166],[0.2633333333333333,-0.06888888888888887,0.459100000008938],[0.25885416666666666,-0.06296296296296296,0.4757000000029805],[0.28916666666666657,0.031111111111111027,0.4924999999999997],[0.2783333333333334,0.08574074074074066,0.5090000000000003],[0.24895833333333334,0.1081481481481481,0.5294999999999987],[0.24927083333333327,0.1388888888888889,0.5426000000089388],[0.24927083333333327,0.1388888888888889,0.5591000000089394],[0.24031250000000004,0.1427777777777778,0.5756000000089401],[0.25052083333333336,0.17462962962962955,0.592600000008936],[0.25447916666666665,0.20685185185185193,0.6132000000029763],[0.25499999999999995,0.2168518518518519,0.6289000000059559],[0.25499999999999995,0.2168518518518519,0.6423000000119217],[0.23270833333333343,0.20481481481481487,0.6589999999999989],[0.26291666666666674,0.26129629629629636,0.6757000000029763],[0.2484375,0.18722222222222226,0.6964000000059585],[0.23395833333333324,0.11314814814814819,0.7114999999999938],[0.22760416666666666,0.08203703703703695,0.7258000000119154],[0.20770833333333344,0.062037037037037036,0.7424000000059578],[0.21510416666666668,0.07259259259259268,0.7594999999999956],[0.21510416666666668,0.07259259259259268,0.7759000000059544],[0.2033333333333334,0.0551851851851851,0.792400000005955],[0.1709374999999999,-0.0001851851851852273,0.8089000000059556],[0.1720833333333334,0.0001851851851852273,0.8257000000029748],[0.18708333333333324,-0.021481481481481525,0.8474999999999966],[0.18708333333333324,-0.021481481481481525,0.8594000000059552],[0.16010416666666671,-0.02240740740740745,0.8759000000059558],[0.16010416666666671,-0.02240740740740745,0.8924999999999983],[0.14500000000000005,0.01518518518518527,0.9123000000119177],[0.14708333333333337,0.04888888888888885,0.9278000000119206],[0.15041666666666675,0.06129629629629634,0.9469000000059609],[0.15041666666666675,0.06129629629629634,0.9592000000029799],[0.13583333333333342,0.05555555555555555,0.9801000000089388],[0.12572916666666673,-0.01314814814814819,0.9954999999999998],[0.115625,-0.08185185185185183,1.0096000000089376],[0.15322916666666658,-0.1270370370370371,1.0312000000029755],[0.15322916666666658,-0.1270370370370371,1.0423000000119202],[0.13531250000000009,-0.22462962962962965,1.059400000005958],[0.12104166666666671,-0.24407407407407408,1.0757000000029748],[0.10489583333333338,-0.2668518518518519,1.0923000000119174],[0.0853125000000001,-0.3131481481481482,1.11340000000596],[0.0853125000000001,-0.3131481481481482,1.125700000002979],[0.07291666666666667,-0.37092592592592594,1.1424000000059564],[0.06760416666666676,-0.39166666666666666,1.1624999999999943],[0.08020833333333334,-0.3942592592592592,1.1758000000119182],[0.06656249999999998,-0.34870370370370374,1.1964000000059585],[0.0453125,-0.32629629629629625,1.21220000000298],[-0.013437499999999976,-0.3381481481481482,1.2284999999999968],[-0.007604166666666619,-0.3331481481481481,1.2426000000089346],[-0.03999999999999997,-0.367037037037037,1.2590000000000003],[-0.02364583333333338,-0.3816666666666667,1.278600000008936],[0.0006250000000000236,-0.38981481481481484,1.295499999999997],[-0.00604166666666662,-0.40981481481481485,1.311700000002979],[-0.028958333333333287,-0.4714814814814815,1.3281000000089378],[-0.051874999999999956,-0.5331481481481481,1.3423000000119174],[-0.030520833333333285,-0.5316666666666667,1.3629000000059577],[-0.017916666666666713,-0.5366666666666667,1.3784999999999954],[-0.017916666666666713,-0.5366666666666667,1.3923000000119217],[0.001145833333333357,-0.5605555555555556,1.408999999999999],[-0.003854166666666714,-0.577962962962963,1.42590000000596],[0.022708333333333285,-0.5766666666666667,1.4449000000059584],[0.0265625,-0.5674074074074074,1.4613000000119172],[0.0265625,-0.5674074074074074,1.4757000000029805],[0.023958333333333335,-0.5372222222222223,1.492300000011916],[0.014687500000000023,-0.5155555555555555,1.5090000000000003],[0.024479166666666666,-0.49240740740740735,1.5297000000029755],[0.03427083333333331,-0.4692592592592592,1.544700000002976],[0.03427083333333331,-0.4692592592592592,1.5591000000089394],[0.010000000000000024,-0.4968518518518519,1.5757000000029748],[0.002499999999999976,-0.5037037037037037,1.597200000002978],[-0.010000000000000024,-0.4524074074074074,1.61340000000596],[-0.030312500000000023,-0.43259259259259264,1.6291000000089397],[-0.05239583333333329,-0.45685185185185184,1.646499999999996],[-0.08260416666666662,-0.532962962962963,1.6626000000089363],[-0.09156249999999998,-0.5651851851851851,1.6814999999999998],[-0.08729166666666661,-0.5616666666666666,1.6962000000029747],[-0.09291666666666672,-0.5549999999999999,1.7119000000059543],[-0.0953125,-0.5435185185185185,1.7269999999999968],[-0.09333333333333335,-0.5346296296296296,1.742300000011916],[-0.09333333333333335,-0.5346296296296296,1.7591000000089352],[-0.09604166666666672,-0.5394444444444445,1.7758000000119196],[-0.08562500000000005,-0.5481481481481482,1.794800000011918],[-0.07520833333333338,-0.5568518518518518,1.8089999999999975],[-0.0640625,-0.5516666666666666,1.8261000000089354],[-0.035625000000000046,-0.5333333333333333,1.8423000000119174],[-0.03937499999999995,-0.5335185185185186,1.8629999999999995],[-0.01875,-0.5068518518518518,1.8788000000119212],[-0.01875,-0.5068518518518518,1.8924000000059564],[-0.008229166666666643,-0.4729629629629629,1.908999999999999],[-0.025833333333333285,-0.4361111111111111,1.9308000000119208],[-0.025833333333333285,-0.4361111111111111,1.948999999999998],[-0.043437500000000046,-0.3992592592592593,1.9664000000059545],[-0.043437500000000046,-0.3992592592592593,1.9757000000029805],[-0.04572916666666664,-0.3116666666666667,1.9926000000089346],[-0.0626041666666667,-0.24166666666666667,2.0090000000000003],[-0.08031250000000002,-0.1690740740740741,2.0296000000089407],[-0.08833333333333329,-0.09092592592592597,2.0423000000119202],[-0.09635416666666667,-0.012777777777777735,2.0589999999999975],[-0.08697916666666666,0.075,2.07560000000894],[-0.10197916666666665,0.1359259259259259,2.0922000000029755],[-0.10687500000000003,0.1896296296296296,2.113499999999995],[-0.11583333333333339,0.20425925925925917,2.127200000002979],[-0.1046875,0.2,2.1423000000119217],[-0.11302083333333333,0.18592592592592588,2.158999999999999],[-0.11604166666666664,0.16703703703703712,2.1757000000029763],[-0.0967708333333333,0.13833333333333342,2.1962000000029747],[-0.08614583333333338,0.13425925925925927,2.209100000008938],[-0.08614583333333338,0.13425925925925927,2.2258000000119154],[-0.042916666666666714,0.16888888888888898,2.242300000011916],[-0.02374999999999995,0.16888888888888898,2.259300000011919],[-0.009791666666666643,0.18629629629629635,2.2783000000119173],[0.046875,0.22833333333333325,2.292400000005955],[0.13250000000000003,0.30166666666666664,2.3089999999999975],[0.1877083333333334,0.37537037037037047,2.3261000000089354],[0.22760416666666666,0.3875925925925925,2.3424000000059593],[0.25833333333333336,0.4053703703703703,2.3629000000059577],[0.2803124999999999,0.4601851851851852,2.375800000011921],[0.2803124999999999,0.4601851851851852,2.3923000000119217],[0.2869791666666667,0.515925925925926,2.408999999999999],[0.2829166666666666,0.5416666666666666,2.4257000000029763],[0.29145833333333326,0.581851851851852,2.4449000000059584],[0.28791666666666677,0.602037037037037,2.4609999999999985],[0.2476041666666667,0.5638888888888889,2.4757000000029805],[0.2101041666666667,0.5359259259259259,2.493700000002974],[0.18291666666666656,0.5264814814814814,2.509200000002977],[0.17697916666666677,0.5475925925925926,2.5296000000089407],[0.17999999999999997,0.5575925925925926,2.542600000008939],[0.17999999999999997,0.5575925925925926,2.559300000011916],[0.16843750000000005,0.5231481481481481,2.57560000000894],[0.17020833333333343,0.4868518518518518,2.5922000000029755],[0.15010416666666657,0.4418518518518519,2.611700000002976],[0.12885416666666671,0.41203703703703703,2.627200000002979],[0.11385416666666662,0.3881481481481482,2.6422000000029797],[0.13083333333333325,0.41518518518518527,2.6594000000059594],[0.128125,0.4242592592592593,2.680700000002979],[0.128125,0.4242592592592593,2.692300000011919],[0.15177083333333338,0.37296296296296294,2.708999999999996],[0.15177083333333338,0.37296296296296294,2.7256000000089387],[0.1678124999999999,0.36500000000000005,2.742300000011916],[0.19093749999999995,0.33851851851851844,2.7636000000089354],[0.19093749999999995,0.33851851851851844,2.775600000008936],[0.22083333333333333,0.32037037037037036,2.7923000000119202],[0.2476041666666667,0.3148148148148148,2.8089999999999975],[0.27333333333333343,0.31851851851851853,2.82560000000894],[0.3264583333333334,0.3051851851851851,2.8423000000119174],[0.38218750000000007,0.2755555555555555,2.863499999999995],[0.4002083333333334,0.2548148148148149,2.8777000000029744],[0.4002083333333334,0.2548148148148149,2.8923000000119217],[0.43510416666666674,0.2418518518518519,2.908999999999999],[0.4201041666666666,0.2655555555555555,2.9256000000089415],[0.41520833333333323,0.25851851851851854,2.9465000000000003],[0.4025000000000001,0.28851851851851845,2.961499999999994],[0.4025000000000001,0.28851851851851845,2.9756000000089387],[0.40625,0.34388888888888897,2.992300000011916],[0.3992708333333333,0.3672222222222221,3.0089000000059585],[0.39510416666666665,0.40981481481481474,3.0294999999999987],[0.37864583333333335,0.42407407407407405,3.042499999999997],[0.37864583333333335,0.42407407407407405,3.0591000000089394],[0.33656249999999993,0.459074074074074,3.075700000002975],[0.2673958333333334,0.4087037037037038,3.0922000000029755],[0.23083333333333325,0.3987037037037036,3.1131000000089415],[0.21229166666666663,0.4316666666666667,3.1286000000089373],[0.21229166666666663,0.4316666666666667,3.1423000000119217],[0.19375,0.4646296296296296,3.158999999999999],[0.17937500000000003,0.4540740740740742,3.1756000000089415],[0.1492708333333333,0.4038888888888889,3.195999999999998],[0.1146874999999999,0.36944444444444446,3.2117000000029776],[0.08489583333333334,0.2764814814814814,3.2289000000059573],[0.03125,0.20185185185185187,3.244800000011921],[0.011666666666666714,0.11944444444444445,3.260800000011919],[0.04041666666666662,0.10240740740740732,3.2797000000029755],[0.036562500000000026,0.044999999999999915,3.294700000002976],[0.036562500000000026,0.044999999999999915,3.3089999999999975],[0.03822916666666672,-0.03166666666666671,3.325700000002975],[0.03104166666666662,-0.10777777777777775,3.346600000008941],[0.0484375,-0.17111111111111107,3.364200000002981],[0.0484375,-0.17111111111111107,3.375800000011921],[0.028958333333333287,-0.2337037037037037,3.396400000005954],[0.03958333333333333,-0.24611111111111106,3.4122000000029757],[0.059895833333333336,-0.2485185185185185,3.4264000000059553],[0.09510416666666661,-0.25388888888888894,3.4480000000000004],[0.09510416666666661,-0.25388888888888894,3.4593000000119147],[0.15593750000000003,-0.2616666666666667,3.4759000000059572],[0.18125,-0.2485185185185185,3.494700000002979],[0.20656249999999995,-0.23537037037037042,3.513800000011919],[0.2228125000000001,-0.2929629629629629,3.5296000000089407],[0.24791666666666667,-0.35111111111111115,3.5438000000119203],[0.24791666666666667,-0.35111111111111115,3.5636000000089396],[0.2613541666666668,-0.2807407407407408,3.575800000011917],[0.32010416666666663,-0.20037037037037034,3.5924000000059593],[0.36906249999999996,-0.1655555555555555,3.6148000000119183],[0.36906249999999996,-0.1655555555555555,3.625800000011921],[0.34708333333333335,-0.1814814814814815,3.6424999999999983],[0.33479166666666677,-0.1772222222222222,3.6624000000059596],[0.28187499999999993,-0.1935185185185185,3.6833000000119185],[0.28187499999999993,-0.1935185185185185,3.6924000000059607],[0.25364583333333335,-0.207962962962963,3.70920000000298],[0.23312499999999994,-0.222037037037037,3.7258000000119154],[0.22166666666666662,-0.1653703703703704,3.745200000002974],[0.20385416666666673,-0.1,3.7642000000029796],[0.20385416666666673,-0.1,3.7759999999999962],[0.16989583333333325,-0.14537037037037037,3.792499999999997],[0.11385416666666662,-0.17092592592592595,3.8121000000089396],[0.06697916666666662,-0.2490740740740741,3.82710000000894],[0.07479166666666662,-0.2564814814814815,3.8422000000029755],[0.06927083333333334,-0.26425925925925925,3.8629999999999995],[0.0787499999999999,-0.2490740740740741,3.878100000008935],[0.07072916666666676,-0.30388888888888893,3.895100000008938],[0.09812500000000005,-0.30166666666666664,3.9103000000119152],[0.10416666666666667,-0.28055555555555556,3.9302000000029764],[0.1165625000000001,-0.2681481481481482,3.946800000011919],[0.11958333333333329,-0.28055555555555556,3.962300000011915],[0.1306250000000001,-0.302962962962963,3.9789000000059573],[0.14020833333333324,-0.2662962962962963,3.995400000005958],[0.14979166666666663,-0.22962962962962963,4.0105],[0.16218750000000004,-0.2116666666666667,4.029999999999994],[0.17510416666666656,-0.18833333333333332,4.04530000001192],[0.19489583333333324,-0.12388888888888884,4.063300000011921],[0.19489583333333324,-0.12388888888888884,4.07560000000894],[0.18041666666666673,-0.11462962962962958,4.092499999999994],[0.1872916666666666,-0.1242592592592593,4.11340000000596],[0.19177083333333325,-0.10351851851851848,4.129300000011916],[0.19177083333333325,-0.10351851851851848,4.142300000011922],[0.20562500000000009,-0.05796296296296299,4.158999999999999],[0.20010416666666658,-0.032407407407407406,4.1756000000089415],[0.16145833333333334,0.007777777777777862,4.198499999999996],[0.16145833333333334,0.007777777777777862,4.209100000008938],[0.1502083333333334,0.009999999999999959,4.225800000011915],[0.16291666666666677,0.031111111111111027,4.243800000011916],[0.16937499999999991,0.08129629629629626,4.2643000000119216],[0.15822916666666675,0.07592592592592592,4.279499999999999],[0.1212500000000001,0.0448148148148149,4.29490000000596],[0.1212500000000001,0.0448148148148149,4.308900000005956],[0.11645833333333329,0.05981481481481473,4.32560000000894],[0.08635416666666676,-0.03925925925925934,4.342300000011917],[0.08156249999999995,-0.062407407407407384,4.362600000008939],[0.08552083333333324,-0.09240740740740737,4.379700000002977],[0.10229166666666671,-0.09851851851851849,4.3963000000119195],[0.09343750000000005,-0.16444444444444448,4.411999999999999],[0.1165625000000001,-0.13759259259259263,4.432700000002974],[0.1165625000000001,-0.13759259259259263,4.442400000005961],[0.059583333333333384,-0.2964814814814815,4.459100000008938],[0.014999999999999977,-0.35851851851851857,4.476200000002976],[0.02354166666666669,-0.35759259259259263,4.493800000011916],[0.0016666666666666904,-0.37888888888888894,4.509600000008938],[-0.02385416666666664,-0.36129629629629634,4.5297000000029755],[-0.06312500000000003,-0.41277777777777774,4.547200000002981],[-0.08406250000000005,-0.39666666666666667,4.562700000002977],[-0.08270833333333331,-0.3838888888888889,4.577900000005961],[-0.0765625,-0.3538888888888889,4.599300000011915],[-0.0765625,-0.3538888888888889,4.608999999999995],[-0.13999999999999999,-0.40796296296296297,4.625800000011921],[-0.0733333333333333,-0.25759259259259265,4.642300000011922],[-0.02645833333333331,-0.2088888888888889,4.661900000005957],[-0.014999999999999977,-0.22092592592592594,4.676900000005958],[0.00916666666666662,-0.2403703703703704,4.696300000011917],[0.06468750000000002,-0.21500000000000005,4.711999999999996],[0.09249999999999996,-0.2168518518518519,4.729200000002976],[0.13489583333333333,-0.1935185185185185,4.745200000002974],[0.13739583333333344,-0.30999999999999994,4.763600000008935],[0.13739583333333344,-0.30999999999999994,4.775700000002978],[0.15750000000000006,-0.33055555555555555,4.792400000005955],[0.1796875,-0.39814814814814814,4.808900000005956],[0.1538541666666667,-0.5001851851851852,4.827999999999996],[0.13739583333333344,-0.552962962962963,4.842600000008936],[0.12020833333333343,-0.5844444444444444,4.863900000005955],[0.09583333333333334,-0.5792592592592593,4.87910000000894],[0.053125,-0.6375925925925926,4.89520000000298],[0.0265625,-0.6755555555555556,4.911499999999997],[0.0021875000000000236,-0.7811111111111111,4.925800000011918],[0.019583333333333286,-0.7635185185185185,4.946600000008935],[-0.00791666666666669,-0.8016666666666666,4.96220000000298],[-0.00791666666666669,-0.8016666666666666,4.975600000008939],[-0.004479166666666619,-0.7229629629629629,4.992400000005958],[-0.01083333333333331,-0.7357407407407408,5.0089000000059585],[0.024895833333333308,-0.6270370370370371,5.029600000008941],[0.08250000000000005,-0.5275925925925925,5.045200000002978],[0.06083333333333331,-0.5788888888888889,5.062600000008935],[0.07833333333333338,-0.553888888888889,5.078300000011922],[0.14291666666666672,-0.475,5.093600000008941],[0.17739583333333328,-0.4020370370370371,5.1129999999999995],[0.1664583333333333,-0.4305555555555556,5.128100000008935],[0.1664583333333333,-0.4305555555555556,5.14220000000298],[0.17625000000000005,-0.41870370370370374,5.158999999999999],[0.1681250000000001,-0.47314814814814815,5.17590000000596],[0.17479166666666662,-0.41740740740740734,5.196300000011917],[0.1430208333333333,-0.5185185185185185,5.212100000008938],[0.08937499999999995,-0.6103703703703705,5.228499999999997],[0.10541666666666671,-0.5462962962962963,5.245200000002974],[0.10062499999999991,-0.495,5.263900000005961],[0.07427083333333329,-0.5335185185185186,5.28030000001192],[0.05354166666666664,-0.5644444444444444,5.295200000002978],[0.06666666666666667,-0.5188888888888888,5.3089999999999975],[0.08416666666666663,-0.4577777777777778,5.326999999999998],[0.10104166666666667,-0.42888888888888893,5.3422000000029755],[0.1078125,-0.44425925925925924,5.363700000002979],[0.13083333333333325,-0.36648148148148146,5.378999999999998],[0.1640625,-0.2935185185185185,5.395100000008938],[0.20895833333333325,-0.3055555555555556,5.410400000005957],[0.22770833333333323,-0.28648148148148145,5.4256000000089415],[0.2287499999999999,-0.21888888888888886,5.4448000000119166],[0.25447916666666665,-0.16148148148148145,5.461700000002978],[0.25447916666666665,-0.16148148148148145,5.475600000008939],[0.28020833333333334,-0.10407407407407405,5.492300000011916],[0.26666666666666666,-0.05814814814814811,5.5089000000059585],[0.26020833333333326,-0.025370370370370456,5.529499999999999],[0.2964583333333332,0.02833333333333325,5.543700000002978],[0.2964583333333332,0.02833333333333325,5.5589999999999975],[0.3147916666666667,0.007592592592592635,5.57560000000894],[0.29927083333333326,0.016851851851851896,5.592400000005959],[0.27843749999999995,0.055000000000000084,5.613200000002976],[0.30406250000000007,0.04888888888888885,5.628400000005961],[0.31927083333333334,0.06962962962962967,5.646400000005954],[0.30979166666666674,0.10055555555555547,5.66280000001192],[0.28322916666666675,0.07666666666666662,5.681999999999995],[0.28322916666666675,0.07666666666666662,5.692300000011919],[0.2915625000000001,0.04870370370370362,5.709100000008938],[0.3273958333333333,0.0625925925925925,5.725600000008939],[0.3263541666666666,0.04814814814814815,5.742300000011916],[0.31843750000000004,0.07444444444444454,5.760300000011917],[0.3341666666666666,0.07555555555555547,5.7813000000119175],[0.3341666666666666,0.07555555555555547,5.79230000001192],[0.36135416666666675,0.0712962962962963,5.8089999999999975],[0.34520833333333345,0.07574074074074069,5.82560000000894],[0.3316666666666668,0.040740740740740744,5.842300000011917],[0.3168750000000001,0.011296296296296339,5.8631000000089415],[0.31916666666666677,0.036666666666666584,5.876999999999995],[0.31916666666666677,0.036666666666666584,5.894999999999996],[0.2961458333333333,0.04722222222222222,5.908900000005957],[0.2508333333333333,0.04277777777777782,5.9256000000089415],[0.2085416666666667,0.05259259259259255,5.9465],[0.2085416666666667,0.05259259259259255,5.959100000008938],[0.1724999999999999,0.027037037037037078,5.9757000000029805],[0.16177083333333328,0.0001851851851852273,5.99960000000894],[0.16177083333333328,0.0001851851851852273,6.008800000011917],[0.1553124999999999,-0.012777777777777735,6.025600000008936],[0.1553124999999999,-0.012777777777777735,6.04230000001192],[0.1571875000000001,-0.021481481481481525,6.0591000000089394],[0.16729166666666656,-0.02240740740740745,6.076999999999998],[0.17927083333333324,-0.012592592592592508,6.093900000005959],[0.1788541666666667,-0.0005555555555554713,6.113200000002976],[0.1962500000000001,-0.012962962962962963,6.126800000011919],[0.2013541666666666,-0.039074074074074115,6.142300000011922],[0.22781250000000006,-0.025370370370370456,6.160600000008941],[0.24260416666666676,-0.0016666666666666245,6.1754999999999995],[0.22166666666666662,0.004814814814814857,6.195900000005956],[0.18093750000000006,0.0005555555555554713,6.209100000008938],[0.18093750000000006,0.0005555555555554713,6.225600000008939],[0.16875,0.06388888888888888,6.2425],[0.12843749999999995,0.07703703703703708,6.259],[0.0875,0.07388888888888885,6.279499999999999],[0.06906249999999996,0.09240740740740737,6.2936000000089365],[0.058124999999999954,0.15018518518518523,6.312600000008935],[0.033749999999999974,0.18092592592592602,6.326900000005956],[-0.00302083333333331,0.17703703703703708,6.342300000011917],[-0.013437499999999976,0.15148148148148138,6.362499999999997],[-0.00604166666666662,0.16111111111111112,6.375499999999995],[0.000416666666666643,0.17462962962962955,6.392300000011922],[-0.02020833333333331,0.11222222222222226,6.408900000005957],[-0.02020833333333331,0.11222222222222226,6.425700000002976],[-0.007604166666666619,0.05814814814814811,6.442200000002977],[-0.016354166666666715,0.011666666666666582,6.460600000008938],[-0.016354166666666715,0.011666666666666582,6.475600000008939],[-0.013020833333333334,-0.03185185185185194,6.492300000011916],[-0.005624999999999976,-0.05277777777777778,6.509],[0.04052083333333331,-0.0477777777777777,6.52920000000298],[0.07770833333333324,-0.04796296296296292,6.54490000000596],[0.07770833333333324,-0.04796296296296292,6.559300000011916],[0.05916666666666662,-0.0940740740740741,6.575800000011917],[0.04125000000000002,-0.13574074074074077,6.5922000000029755],[0.02166666666666662,-0.16166666666666668,6.611600000008941],[0.019895833333333356,-0.21574074074074073,6.62610000000894],[0.004791666666666691,-0.23574074074074075,6.646100000008936],[0.033958333333333354,-0.2257407407407407,6.661999999999999],[0.04093749999999995,-0.24259259259259258,6.6756000000089415],[0.05625,-0.24722222222222223,6.695999999999998],[0.04624999999999998,-0.2507407407407407,6.70920000000298],[0.009791666666666643,-0.2892592592592592,6.725600000008939],[0.028645833333333332,-0.2477777777777778,6.742200000002974],[0.028645833333333332,-0.2477777777777778,6.759],[0.06833333333333323,-0.2192592592592592,6.775600000008936],[0.08822916666666672,-0.22166666666666665,6.79490000000596]]","[0.0003000000119186552,0.0508000000119182,0.059100000008939446,0.07610000000893535,0.09240000000595927,0.11380000001192059,0.1257000000029791,0.14230000001192167,0.16140000000595478,0.17570000000297625,0.19620000000297466,0.2114999999999938,0.22849999999999682,0.2439000000059579,0.2594999999999956,0.2798000000119174,0.29230000001192025,0.3089999999999975,0.3279000000059611,0.3423000000119174,0.3631000000089415,0.3771000000089373,0.39230000001192167,0.4089999999999989,0.4263000000119206,0.4463000000119166,0.459100000008938,0.4757000000029805,0.4924999999999997,0.5090000000000003,0.5294999999999987,0.5426000000089388,0.5591000000089394,0.5756000000089401,0.592600000008936,0.6132000000029763,0.6289000000059559,0.6423000000119217,0.6589999999999989,0.6757000000029763,0.6964000000059585,0.7114999999999938,0.7258000000119154,0.7424000000059578,0.7594999999999956,0.7759000000059544,0.792400000005955,0.8089000000059556,0.8257000000029748,0.8474999999999966,0.8594000000059552,0.8759000000059558,0.8924999999999983,0.9123000000119177,0.9278000000119206,0.9469000000059609,0.9592000000029799,0.9801000000089388,0.9954999999999998,1.0096000000089376,1.0312000000029755,1.0423000000119202,1.059400000005958,1.0757000000029748,1.0923000000119174,1.11340000000596,1.125700000002979,1.1424000000059564,1.1624999999999943,1.1758000000119182,1.1964000000059585,1.21220000000298,1.2284999999999968,1.2426000000089346,1.2590000000000003,1.278600000008936,1.295499999999997,1.311700000002979,1.3281000000089378,1.3423000000119174,1.3629000000059577,1.3784999999999954,1.3923000000119217,1.408999999999999,1.42590000000596,1.4449000000059584,1.4613000000119172,1.4757000000029805,1.492300000011916,1.5090000000000003,1.5297000000029755,1.544700000002976,1.5591000000089394,1.5757000000029748,1.597200000002978,1.61340000000596,1.6291000000089397,1.646499999999996,1.6626000000089363,1.6814999999999998,1.6962000000029747,1.7119000000059543,1.7269999999999968,1.742300000011916,1.7591000000089352,1.7758000000119196,1.794800000011918,1.8089999999999975,1.8261000000089354,1.8423000000119174,1.8629999999999995,1.8788000000119212,1.8924000000059564,1.908999999999999,1.9308000000119208,1.948999999999998,1.9664000000059545,1.9757000000029805,1.9926000000089346,2.0090000000000003,2.0296000000089407,2.0423000000119202,2.0589999999999975,2.07560000000894,2.0922000000029755,2.113499999999995,2.127200000002979,2.1423000000119217,2.158999999999999,2.1757000000029763,2.1962000000029747,2.209100000008938,2.2258000000119154,2.242300000011916,2.259300000011919,2.2783000000119173,2.292400000005955,2.3089999999999975,2.3261000000089354,2.3424000000059593,2.3629000000059577,2.375800000011921,2.3923000000119217,2.408999999999999,2.4257000000029763,2.4449000000059584,2.4609999999999985,2.4757000000029805,2.493700000002974,2.509200000002977,2.5296000000089407,2.542600000008939,2.559300000011916,2.57560000000894,2.5922000000029755,2.611700000002976,2.627200000002979,2.6422000000029797,2.6594000000059594,2.680700000002979,2.692300000011919,2.708999999999996,2.7256000000089387,2.742300000011916,2.7636000000089354,2.775600000008936,2.7923000000119202,2.8089999999999975,2.82560000000894,2.8423000000119174,2.863499999999995,2.8777000000029744,2.8923000000119217,2.908999999999999,2.9256000000089415,2.9465000000000003,2.961499999999994,2.9756000000089387,2.992300000011916,3.0089000000059585,3.0294999999999987,3.042499999999997,3.0591000000089394,3.075700000002975,3.0922000000029755,3.1131000000089415,3.1286000000089373,3.1423000000119217,3.158999999999999,3.1756000000089415,3.195999999999998,3.2117000000029776,3.2289000000059573,3.244800000011921,3.260800000011919,3.2797000000029755,3.294700000002976,3.3089999999999975,3.325700000002975,3.346600000008941,3.364200000002981,3.375800000011921,3.396400000005954,3.4122000000029757,3.4264000000059553,3.4480000000000004,3.4593000000119147,3.4759000000059572,3.494700000002979,3.513800000011919,3.5296000000089407,3.5438000000119203,3.5636000000089396,3.575800000011917,3.5924000000059593,3.6148000000119183,3.625800000011921,3.6424999999999983,3.6624000000059596,3.6833000000119185,3.6924000000059607,3.70920000000298,3.7258000000119154,3.745200000002974,3.7642000000029796,3.7759999999999962,3.792499999999997,3.8121000000089396,3.82710000000894,3.8422000000029755,3.8629999999999995,3.878100000008935,3.895100000008938,3.9103000000119152,3.9302000000029764,3.946800000011919,3.962300000011915,3.9789000000059573,3.995400000005958,4.0105,4.029999999999994,4.04530000001192,4.063300000011921,4.07560000000894,4.092499999999994,4.11340000000596,4.129300000011916,4.142300000011922,4.158999999999999,4.1756000000089415,4.198499999999996,4.209100000008938,4.225800000011915,4.243800000011916,4.2643000000119216,4.279499999999999,4.29490000000596,4.308900000005956,4.32560000000894,4.342300000011917,4.362600000008939,4.379700000002977,4.3963000000119195,4.411999999999999,4.432700000002974,4.442400000005961,4.459100000008938,4.476200000002976,4.493800000011916,4.509600000008938,4.5297000000029755,4.547200000002981,4.562700000002977,4.577900000005961,4.599300000011915,4.608999999999995,4.625800000011921,4.642300000011922,4.661900000005957,4.676900000005958,4.696300000011917,4.711999999999996,4.729200000002976,4.745200000002974,4.763600000008935,4.775700000002978,4.792400000005955,4.808900000005956,4.827999999999996,4.842600000008936,4.863900000005955,4.87910000000894,4.89520000000298,4.911499999999997,4.925800000011918,4.946600000008935,4.96220000000298,4.975600000008939,4.992400000005958,5.0089000000059585,5.029600000008941,5.045200000002978,5.062600000008935,5.078300000011922,5.093600000008941,5.1129999999999995,5.128100000008935,5.14220000000298,5.158999999999999,5.17590000000596,5.196300000011917,5.212100000008938,5.228499999999997,5.245200000002974,5.263900000005961,5.28030000001192,5.295200000002978,5.3089999999999975,5.326999999999998,5.3422000000029755,5.363700000002979,5.378999999999998,5.395100000008938,5.410400000005957,5.4256000000089415,5.4448000000119166,5.461700000002978,5.475600000008939,5.492300000011916,5.5089000000059585,5.529499999999999,5.543700000002978,5.5589999999999975,5.57560000000894,5.592400000005959,5.613200000002976,5.628400000005961,5.646400000005954,5.66280000001192,5.681999999999995,5.692300000011919,5.709100000008938,5.725600000008939,5.742300000011916,5.760300000011917,5.7813000000119175,5.79230000001192,5.8089999999999975,5.82560000000894,5.842300000011917,5.8631000000089415,5.876999999999995,5.894999999999996,5.908900000005957,5.9256000000089415,5.9465,5.959100000008938,5.9757000000029805,5.99960000000894,6.008800000011917,6.025600000008936,6.04230000001192,6.0591000000089394,6.076999999999998,6.093900000005959,6.113200000002976,6.126800000011919,6.142300000011922,6.160600000008941,6.1754999999999995,6.195900000005956,6.209100000008938,6.225600000008939,6.2425,6.259,6.279499999999999,6.2936000000089365,6.312600000008935,6.326900000005956,6.342300000011917,6.362499999999997,6.375499999999995,6.392300000011922,6.408900000005957,6.425700000002976,6.442200000002977,6.460600000008938,6.475600000008939,6.492300000011916,6.509,6.52920000000298,6.54490000000596,6.559300000011916,6.575800000011917,6.5922000000029755,6.611600000008941,6.62610000000894,6.646100000008936,6.661999999999999,6.6756000000089415,6.695999999999998,6.70920000000298,6.725600000008939,6.742200000002974,6.759,6.775600000008936,6.79490000000596]","[1732605004202,1732605004243,1732605004251,1732605004268,1732605004285,1732605004306,1732605004318,1732605004335,1732605004354,1732605004368,1732605004388,1732605004404,1732605004421,1732605004436,1732605004452,1732605004472,1732605004485,1732605004501,1732605004520,1732605004535,1732605004555,1732605004569,1732605004585,1732605004601,1732605004619,1732605004639,1732605004651,1732605004668,1732605004685,1732605004701,1732605004722,1732605004735,1732605004751,1732605004768,1732605004785,1732605004806,1732605004821,1732605004835,1732605004851,1732605004868,1732605004889,1732605004904,1732605004918,1732605004935,1732605004952,1732605004968,1732605004985,1732605005001,1732605005018,1732605005040,1732605005052,1732605005068,1732605005085,1732605005105,1732605005120,1732605005139,1732605005152,1732605005172,1732605005188,1732605005202,1732605005223,1732605005235,1732605005252,1732605005268,1732605005285,1732605005306,1732605005318,1732605005335,1732605005355,1732605005368,1732605005390,1732605005406,1732605005423,1732605005437,1732605005453,1732605005473,1732605005490,1732605005506,1732605005522,1732605005536,1732605005557,1732605005572,1732605005586,1732605005603,1732605005620,1732605005639,1732605005655,1732605005670,1732605005686,1732605005703,1732605005724,1732605005739,1732605005753,1732605005770,1732605005791,1732605005807,1732605005823,1732605005841,1732605005857,1732605005875,1732605005890,1732605005906,1732605005921,1732605005936,1732605005953,1732605005970,1732605005989,1732605006003,1732605006020,1732605006036,1732605006057,1732605006073,1732605006086,1732605006103,1732605006125,1732605006143,1732605006160,1732605006170,1732605006187,1732605006203,1732605006224,1732605006236,1732605006253,1732605006270,1732605006286,1732605006307,1732605006321,1732605006336,1732605006353,1732605006370,1732605006390,1732605006403,1732605006420,1732605006436,1732605006453,1732605006472,1732605006486,1732605006503,1732605006520,1732605006536,1732605006557,1732605006570,1732605006586,1732605006603,1732605006620,1732605006639,1732605006655,1732605006670,1732605006688,1732605006703,1732605006724,1732605006737,1732605006753,1732605006770,1732605006786,1732605006806,1732605006821,1732605006836,1732605006853,1732605006875,1732605006886,1732605006903,1732605006920,1732605006936,1732605006958,1732605006970,1732605006986,1732605007003,1732605007020,1732605007036,1732605007058,1732605007072,1732605007086,1732605007103,1732605007120,1732605007140,1732605007156,1732605007170,1732605007186,1732605007203,1732605007224,1732605007237,1732605007253,1732605007270,1732605007286,1732605007307,1732605007323,1732605007336,1732605007353,1732605007370,1732605007390,1732605007406,1732605007423,1732605007439,1732605007455,1732605007474,1732605007489,1732605007503,1732605007520,1732605007541,1732605007558,1732605007570,1732605007590,1732605007606,1732605007621,1732605007642,1732605007653,1732605007670,1732605007689,1732605007708,1732605007724,1732605007738,1732605007758,1732605007770,1732605007786,1732605007809,1732605007820,1732605007836,1732605007856,1732605007877,1732605007886,1732605007903,1732605007920,1732605007939,1732605007958,1732605007970,1732605007986,1732605008006,1732605008021,1732605008036,1732605008057,1732605008072,1732605008089,1732605008104,1732605008124,1732605008141,1732605008156,1732605008173,1732605008189,1732605008204,1732605008224,1732605008239,1732605008257,1732605008270,1732605008286,1732605008307,1732605008323,1732605008336,1732605008353,1732605008370,1732605008393,1732605008403,1732605008420,1732605008438,1732605008458,1732605008474,1732605008489,1732605008503,1732605008520,1732605008536,1732605008557,1732605008574,1732605008590,1732605008606,1732605008627,1732605008636,1732605008653,1732605008670,1732605008688,1732605008704,1732605008724,1732605008741,1732605008757,1732605008772,1732605008793,1732605008803,1732605008820,1732605008836,1732605008856,1732605008871,1732605008890,1732605008906,1732605008923,1732605008939,1732605008958,1732605008970,1732605008986,1732605009003,1732605009022,1732605009037,1732605009058,1732605009073,1732605009089,1732605009106,1732605009120,1732605009141,1732605009156,1732605009170,1732605009186,1732605009203,1732605009224,1732605009239,1732605009257,1732605009272,1732605009288,1732605009307,1732605009322,1732605009336,1732605009353,1732605009370,1732605009390,1732605009406,1732605009423,1732605009439,1732605009458,1732605009474,1732605009489,1732605009503,1732605009521,1732605009536,1732605009558,1732605009573,1732605009589,1732605009604,1732605009620,1732605009639,1732605009656,1732605009670,1732605009686,1732605009703,1732605009724,1732605009738,1732605009753,1732605009770,1732605009786,1732605009807,1732605009822,1732605009840,1732605009857,1732605009876,1732605009886,1732605009903,1732605009920,1732605009936,1732605009954,1732605009975,1732605009986,1732605010003,1732605010020,1732605010036,1732605010057,1732605010071,1732605010089,1732605010103,1732605010120,1732605010141,1732605010153,1732605010170,1732605010194,1732605010203,1732605010220,1732605010236,1732605010253,1732605010271,1732605010288,1732605010307,1732605010321,1732605010336,1732605010355,1732605010370,1732605010390,1732605010403,1732605010420,1732605010436,1732605010453,1732605010473,1732605010488,1732605010507,1732605010521,1732605010536,1732605010556,1732605010570,1732605010586,1732605010603,1732605010620,1732605010636,1732605010655,1732605010670,1732605010686,1732605010703,1732605010723,1732605010739,1732605010753,1732605010770,1732605010786,1732605010806,1732605010820,1732605010840,1732605010856,1732605010870,1732605010890,1732605010903,1732605010920,1732605010936,1732605010953,1732605010970,1732605010989]","[[1155.9,602.1],[1155.9,602.1],[1143.6,610.6],[1134.8,594.8],[1132.6,595.8],[1150.8,581.7],[1150.8,581.7],[1155.5,562.3],[1181.1,560.2],[1164.3,558.5],[1174.4,557.4],[1197.4,574.5],[1190,564],[1253.2,596.1],[1238.6,575.2],[1224,554.3],[1224,554.3],[1248.9,554.7],[1281.1,558.8],[1289.7,537.7],[1287.9,517.3],[1259.2,496.3],[1259.2,496.3],[1241.4,494.4],[1234.8,520.2],[1212.8,502.8],[1212.8,502.8],[1208.5,506],[1237.6,556.8],[1227.2,586.3],[1199,598.4],[1199.3,615],[1199.3,615],[1190.7,617.1],[1200.5,634.3],[1204.3,651.7],[1204.8,657.1],[1204.8,657.1],[1183.4,650.6],[1212.4,681.1],[1198.5,641.1],[1184.6,601.1],[1178.5,584.3],[1159.4,573.5],[1166.5,579.2],[1166.5,579.2],[1155.2,569.8],[1124.1,539.9],[1125.2,540.1],[1139.6,528.4],[1139.6,528.4],[1113.7,527.9],[1113.7,527.9],[1099.2,548.2],[1101.2,566.4],[1104.4,573.1],[1104.4,573.1],[1090.4,570],[1080.7,532.9],[1071,495.8],[1107.1,471.4],[1107.1,471.4],[1089.9,418.7],[1076.2,408.2],[1060.7,395.9],[1041.9,370.9],[1041.9,370.9],[1030,339.7],[1024.9,328.5],[1037,327.1],[1023.9,351.7],[1003.5,363.8],[947.1,357.4],[952.7,360.1],[921.6,341.8],[937.3,333.9],[960.6,329.5],[954.2,318.7],[932.2,285.4],[910.2,252.1],[930.7,252.9],[942.8,250.2],[942.8,250.2],[961.1,237.3],[956.3,227.9],[981.8,228.6],[985.5,233.6],[985.5,233.6],[983,249.9],[974.1,261.6],[983.5,274.1],[992.9,286.6],[992.9,286.6],[969.6,271.7],[962.4,268],[950.4,295.7],[930.9,306.4],[909.7,293.3],[880.7,252.2],[872.1,234.8],[876.2,236.7],[870.8,240.3],[868.5,246.5],[870.4,251.3],[870.4,251.3],[867.8,248.7],[877.8,244],[887.8,239.3],[898.5,242.1],[925.8,252],[922.2,251.9],[942,266.3],[942,266.3],[952.1,284.6],[935.2,304.5],[935.2,304.5],[918.3,324.4],[918.3,324.4],[916.1,371.7],[899.9,409.5],[882.9,448.7],[875.2,490.9],[867.5,533.1],[876.5,580.5],[862.1,613.4],[857.4,642.4],[848.8,650.3],[859.5,648],[851.5,640.4],[848.6,630.2],[867.1,614.7],[877.3,612.5],[877.3,612.5],[918.8,631.2],[937.2,631.2],[950.6,640.6],[1005,663.3],[1087.2,702.9],[1140.2,742.7],[1178.5,749.3],[1208,758.9],[1229.1,788.5],[1229.1,788.5],[1235.5,818.6],[1231.6,832.5],[1239.8,854.2],[1236.4,865.1],[1197.7,844.5],[1161.7,829.4],[1135.6,824.3],[1129.9,835.7],[1132.8,841.1],[1132.8,841.1],[1121.7,822.5],[1123.4,802.9],[1104.1,778.6],[1083.7,762.5],[1069.3,749.6],[1085.6,764.2],[1083,769.1],[1083,769.1],[1105.7,741.4],[1105.7,741.4],[1121.1,737.1],[1143.3,722.8],[1143.3,722.8],[1172,713],[1197.7,710],[1222.4,712],[1273.4,704.8],[1326.9,688.8],[1344.2,677.6],[1344.2,677.6],[1377.7,670.6],[1363.3,683.4],[1358.6,679.6],[1346.4,695.8],[1346.4,695.8],[1350,725.7],[1343.3,738.3],[1339.3,761.3],[1323.5,769],[1323.5,769],[1283.1,787.9],[1216.7,760.7],[1181.6,755.3],[1163.8,773.1],[1163.8,773.1],[1146,790.9],[1132.2,785.2],[1103.3,758.1],[1070.1,739.5],[1041.5,689.3],[990,649],[971.2,604.5],[998.8,595.3],[995.1,564.3],[995.1,564.3],[996.7,522.9],[989.8,481.8],[1006.5,447.6],[1006.5,447.6],[987.8,413.8],[998,407.1],[1017.5,405.8],[1051.3,402.9],[1051.3,402.9],[1109.7,398.7],[1134,405.8],[1158.3,412.9],[1173.9,381.8],[1198,350.4],[1198,350.4],[1210.9,388.4],[1267.3,431.8],[1314.3,450.6],[1314.3,450.6],[1293.2,442],[1281.4,444.3],[1230.6,435.5],[1230.6,435.5],[1203.5,427.7],[1183.8,420.1],[1172.8,450.7],[1155.7,486],[1155.7,486],[1123.1,461.5],[1069.3,447.7],[1024.3,405.5],[1031.8,401.5],[1026.5,397.3],[1035.6,405.5],[1027.9,375.9],[1054.2,377.1],[1060,388.5],[1071.9,395.2],[1074.8,388.5],[1085.4,376.4],[1094.6,396.2],[1103.8,416],[1115.7,425.7],[1128.1,438.3],[1147.1,473.1],[1147.1,473.1],[1133.2,478.1],[1139.8,472.9],[1144.1,484.1],[1144.1,484.1],[1157.4,508.7],[1152.1,522.5],[1115,544.2],[1115,544.2],[1104.2,545.4],[1116.4,556.8],[1122.6,583.9],[1111.9,581],[1076.4,564.2],[1076.4,564.2],[1071.8,572.3],[1042.9,518.8],[1038.3,506.3],[1042.1,490.1],[1058.2,486.8],[1049.7,451.2],[1071.9,465.7],[1071.9,465.7],[1017.2,379.9],[974.4,346.4],[982.6,346.9],[961.6,335.4],[937.1,344.9],[899.4,317.1],[879.3,325.8],[880.6,332.7],[886.5,348.9],[886.5,348.9],[825.6,319.7],[889.6,400.9],[934.6,427.2],[945.6,420.7],[968.8,410.2],[1022.1,423.9],[1048.8,422.9],[1089.5,435.5],[1091.9,372.6],[1091.9,372.6],[1111.2,361.5],[1132.5,325],[1107.7,269.9],[1091.9,241.4],[1075.4,224.4],[1052,227.2],[1011,195.7],[985.5,175.2],[962.1,118.2],[978.8,127.7],[952.4,107.1],[952.4,107.1],[955.7,149.6],[949.6,142.7],[983.9,201.4],[1039.2,255.1],[1018.4,227.4],[1035.2,240.9],[1097.2,283.5],[1130.3,322.9],[1119.8,307.5],[1119.8,307.5],[1129.2,313.9],[1121.4,284.5],[1127.8,314.6],[1097.3,260],[1045.8,210.4],[1061.2,245],[1056.6,272.7],[1031.3,251.9],[1011.4,235.2],[1024,259.8],[1040.8,292.8],[1057,308.4],[1063.5,300.1],[1085.6,342.1],[1117.5,381.5],[1160.6,375],[1178.6,385.3],[1179.6,421.8],[1204.3,452.8],[1204.3,452.8],[1229,483.8],[1216,508.6],[1209.8,526.3],[1244.6,555.3],[1244.6,555.3],[1262.2,544.1],[1247.3,549.1],[1227.3,569.7],[1251.9,566.4],[1266.5,577.6],[1257.4,594.3],[1231.9,581.4],[1231.9,581.4],[1239.9,566.3],[1274.3,573.8],[1273.3,566],[1265.7,580.2],[1280.8,580.8],[1280.8,580.8],[1306.9,578.5],[1291.4,580.9],[1278.4,562],[1264.2,546.1],[1266.4,559.8],[1266.4,559.8],[1244.3,565.5],[1200.8,563.1],[1160.2,568.4],[1160.2,568.4],[1125.6,554.6],[1115.3,540.1],[1115.3,540.1],[1109.1,533.1],[1109.1,533.1],[1110.9,528.4],[1120.6,527.9],[1132.1,533.2],[1131.7,539.7],[1148.4,533],[1153.3,518.9],[1178.7,526.3],[1192.9,539.1],[1172.8,542.6],[1133.7,540.3],[1133.7,540.3],[1122,574.5],[1083.3,581.6],[1044,579.9],[1026.3,589.9],[1015.8,621.1],[992.4,637.7],[957.1,635.6],[947.1,621.8],[954.2,627],[960.4,634.3],[940.6,600.6],[940.6,600.6],[952.7,571.4],[944.3,546.3],[944.3,546.3],[947.5,522.8],[954.6,511.5],[998.9,514.2],[1034.6,514.1],[1034.6,514.1],[1016.8,489.2],[999.6,466.7],[980.8,452.7],[979.1,423.5],[964.6,412.7],[992.6,418.1],[999.3,409],[1014,406.5],[1004.4,404.6],[969.4,383.8],[987.5,406.2],[987.5,406.2],[1025.6,421.6],[1044.7,420.3]]","[-0.056692,0.170076]","[0.056692,0.170076]","[0.170076,0.170076]","[-0.170076,-0.170076]","[-0.170076,0.056692]","[-0.170076,-0.056692]","[-0.056692,-0.170076]","[0.056692,-0.170076]","[0.170076,-0.170076]","[-0.056692,0.056692]","[0.056692,0.056692]","[0.170076,0.056692]","[-0.056692,-0.056692]","[0.056692,-0.056692]","[0.170076,-0.056692]",0,0,0,0,1,1,Smartphone,20,20,7,2,70,4,2,70,4
