inst1_resp.keys,inst1_resp.rt,calibrationMouse.x,calibrationMouse.y,calibrationMouse.leftButton,calibrationMouse.midButton,calibrationMouse.rightButton,calibrationClick.x,calibrationClick.y,calibrationClick.leftButton,calibrationClick.midButton,calibrationClick.rightButton,trialsc.thisRepN,trialsc.thisTrialN,trialsc.thisN,trialsc.thisIndex,trialsc.ran,calibration_x,calibration_y,participant,session,date,expName,psychopyVersion,OS,frameRate,calibrationClick.clicked_name,ScreenRes_pixels,Camera_pixels,mouse_2.x,mouse_2.y,mouse_2.leftButton,mouse_2.midButton,mouse_2.rightButton,mouse_2.time,mouse_2.clicked_name,mouse.x,mouse.y,mouse.leftButton,mouse.midButton,mouse.rightButton,mouse.time,mouse.clicked_name,Choice,Trial,TrialDuration,MOUSE_GAZE,ET_GAZE,ET_GAZE_x_T,time,unixTime,ET_GAZE_NF,Loc_Bus_label,Loc_Metro_label,Loc_RH_label,Loc_Cost_label,Loc_Travel_label,Loc_Comfort_label,Loc_Bus_cost,Loc_Metro_cost,Loc_RH_cost,Loc_Bus_travel,Loc_Metro_travel,Loc_RH_travel,Loc_Bus_comfort,Loc_Metro_comfort,Loc_RH_comfort,trials.thisRepN,trials.thisTrialN,trials.thisN,trials.thisIndex,trials.ran,Block,Device,RH_cost,RH_travel_time,RH_Comfort,metro_cost,metro_travel_time,metro_Comfort,Bus_cost,Bus_travel_time,Bus_Comfort
space,5.2455,0.15625,-0.218518519,1,0,0,-0.670833333,0.011111111,1,0,0,0,0,0,2,1,-0.67,0,17,001,2024-11-27_13h45.33.286,Attention_exp_legacy,2023.1.0,Win32,60.24096386,,,,,,,,,,,,,,,,,,,,,,,,,,,,,,,,,,,,,,,,,,,,,,,,,,,,,,,,,
,,,,,,,-0.667708333,-0.672222222,1,0,0,0,1,1,0,1,-0.67,-0.67,17,001,2024-11-27_13h45.33.286,Attention_exp_legacy,2023.1.0,Win32,60.24096386,calibration_square,,,,,,,,,,,,,,,,,,,,,,,,,,,,,,,,,,,,,,,,,,,,,,,,,,,,,,,,
,,,,,,,-0.684375,0.325925926,1,0,0,0,2,2,3,1,-0.67,0.33,17,001,2024-11-27_13h45.33.286,Attention_exp_legacy,2023.1.0,Win32,60.24096386,,,,,,,,,,,,,,,,,,,,,,,,,,,,,,,,,,,,,,,,,,,,,,,,,,,,,,,,,
,,,,,,,-0.329166667,-0.333333333,1,0,0,0,3,3,5,1,-0.33,-0.33,17,001,2024-11-27_13h45.33.286,Attention_exp_legacy,2023.1.0,Win32,60.24096386,calibration_square,,,,,,,,,,,,,,,,,,,,,,,,,,,,,,,,,,,,,,,,,,,,,,,,,,,,,,,,
,,,,,,,-0.665625,-0.32962963,1,0,0,0,4,4,1,1,-0.67,-0.33,17,001,2024-11-27_13h45.33.286,Attention_exp_legacy,2023.1.0,Win32,60.24096386,calibration_square,,,,,,,,,,,,,,,,,,,,,,,,,,,,,,,,,,,,,,,,,,,,,,,,,,,,,,,,
,,,,,,,-0.3375,0.681481481,1,0,0,0,5,5,8,1,-0.33,0.67,17,001,2024-11-27_13h45.33.286,Attention_exp_legacy,2023.1.0,Win32,60.24096386,,,,,,,,,,,,,,,,,,,,,,,,,,,,,,,,,,,,,,,,,,,,,,,,,,,,,,,,,
,,,,,,,0.004166667,-0.325925926,1,0,0,0,6,6,10,1,0,-0.33,17,001,2024-11-27_13h45.33.286,Attention_exp_legacy,2023.1.0,Win32,60.24096386,calibration_square,,,,,,,,,,,,,,,,,,,,,,,,,,,,,,,,,,,,,,,,,,,,,,,,,,,,,,,,
,,,,,,,0.002083333,-0.67037037,1,0,0,0,7,7,9,1,0,-0.67,17,001,2024-11-27_13h45.33.286,Attention_exp_legacy,2023.1.0,Win32,60.24096386,calibration_square,,,,,,,,,,,,,,,,,,,,,,,,,,,,,,,,,,,,,,,,,,,,,,,,,,,,,,,,
,,,,,,,0.319791667,-0.001851852,1,0,0,0,8,8,16,1,0.33,0,17,001,2024-11-27_13h45.33.286,Attention_exp_legacy,2023.1.0,Win32,60.24096386,,,,,,,,,,,,,,,,,,,,,,,,,,,,,,,,,,,,,,,,,,,,,,,,,,,,,,,,,
,,,,,,,0.001041667,0.666666667,1,0,0,0,9,9,13,1,0,0.67,17,001,2024-11-27_13h45.33.286,Attention_exp_legacy,2023.1.0,Win32,60.24096386,calibration_square,,,,,,,,,,,,,,,,,,,,,,,,,,,,,,,,,,,,,,,,,,,,,,,,,,,,,,,,
,,,,,,,0.328125,0.67037037,1,0,0,0,10,10,18,1,0.33,0.67,17,001,2024-11-27_13h45.33.286,Attention_exp_legacy,2023.1.0,Win32,60.24096386,calibration_square,,,,,,,,,,,,,,,,,,,,,,,,,,,,,,,,,,,,,,,,,,,,,,,,,,,,,,,,
,,,,,,,0.663541667,-0.672222222,1,0,0,0,11,11,20,1,0.67,-0.67,17,001,2024-11-27_13h45.33.286,Attention_exp_legacy,2023.1.0,Win32,60.24096386,calibration_square,,,,,,,,,,,,,,,,,,,,,,,,,,,,,,,,,,,,,,,,,,,,,,,,,,,,,,,,
,,,,,,,0.322916667,-0.677777778,1,0,0,0,12,12,14,1,0.33,-0.67,17,001,2024-11-27_13h45.33.286,Attention_exp_legacy,2023.1.0,Win32,60.24096386,calibration_square,,,,,,,,,,,,,,,,,,,,,,,,,,,,,,,,,,,,,,,,,,,,,,,,,,,,,,,,
,,,,,,,0.669791667,0.675925926,1,0,0,0,13,13,19,1,0.67,0.67,17,001,2024-11-27_13h45.33.286,Attention_exp_legacy,2023.1.0,Win32,60.24096386,calibration_square,,,,,,,,,,,,,,,,,,,,,,,,,,,,,,,,,,,,,,,,,,,,,,,,,,,,,,,,
,,,,,,,-0.327083333,-0.668518519,1,0,0,0,14,14,4,1,-0.33,-0.67,17,001,2024-11-27_13h45.33.286,Attention_exp_legacy,2023.1.0,Win32,60.24096386,calibration_square,,,,,,,,,,,,,,,,,,,,,,,,,,,,,,,,,,,,,,,,,,,,,,,,,,,,,,,,
,,,,,,,-0.004166667,0.009259259,1,0,0,0,15,15,11,1,0,0,17,001,2024-11-27_13h45.33.286,Attention_exp_legacy,2023.1.0,Win32,60.24096386,calibration_square,,,,,,,,,,,,,,,,,,,,,,,,,,,,,,,,,,,,,,,,,,,,,,,,,,,,,,,,
,,,,,,,-0.325,0.337037037,1,0,0,0,16,16,7,1,-0.33,0.33,17,001,2024-11-27_13h45.33.286,Attention_exp_legacy,2023.1.0,Win32,60.24096386,calibration_square,,,,,,,,,,,,,,,,,,,,,,,,,,,,,,,,,,,,,,,,,,,,,,,,,,,,,,,,
,,,,,,,0.328125,-0.322222222,1,0,0,0,17,17,15,1,0.33,-0.33,17,001,2024-11-27_13h45.33.286,Attention_exp_legacy,2023.1.0,Win32,60.24096386,calibration_square,,,,,,,,,,,,,,,,,,,,,,,,,,,,,,,,,,,,,,,,,,,,,,,,,,,,,,,,
,,,,,,,-0.003125,0.331481481,1,0,0,0,18,18,12,1,0,0.33,17,001,2024-11-27_13h45.33.286,Attention_exp_legacy,2023.1.0,Win32,60.24096386,calibration_square,,,,,,,,,,,,,,,,,,,,,,,,,,,,,,,,,,,,,,,,,,,,,,,,,,,,,,,,
,,,,,,,0.326041667,0.32962963,1,0,0,0,19,19,17,1,0.33,0.33,17,001,2024-11-27_13h45.33.286,Attention_exp_legacy,2023.1.0,Win32,60.24096386,calibration_square,,,,,,,,,,,,,,,,,,,,,,,,,,,,,,,,,,,,,,,,,,,,,,,,,,,,,,,,
,,,,,,,-0.335416667,-0.007407407,1,0,0,0,20,20,6,1,-0.33,0,17,001,2024-11-27_13h45.33.286,Attention_exp_legacy,2023.1.0,Win32,60.24096386,calibration_square,,,,,,,,,,,,,,,,,,,,,,,,,,,,,,,,,,,,,,,,,,,,,,,,,,,,,,,,
,,,,,,,,,,,,,,,,,,,17,001,2024-11-27_13h45.33.286,Attention_exp_legacy,2023.1.0,Win32,60.24096386,,"[1920,1080]","[640,480]",[0.021875],[-0.5111111111111111],[1],[0],[0],[4.376300000011923],"[""StartButton""]",[-0.09583333333333334],[0.5666666666666667],[1],[0],[0],[12.21120000001789],"[""Bus_label""]",Bus_label,1,13.2222,"[[0.019791666666666666,-0.22037037037037038],[0.019791666666666666,-0.22037037037037038],[0.019791666666666666,-0.22037037037037038],[0.019791666666666666,-0.22037037037037038],[0.019791666666666666,-0.22037037037037038],[0.019791666666666666,-0.22037037037037038],[0.019791666666666666,-0.22037037037037038],[0.019791666666666666,-0.22037037037037038],[0.019791666666666666,-0.22037037037037038],[0.019791666666666666,-0.22037037037037038],[0.019791666666666666,-0.22037037037037038],[0.019791666666666666,-0.22037037037037038],[0.019791666666666666,-0.22037037037037038],[0.019791666666666666,-0.22037037037037038],[0.019791666666666666,-0.22037037037037038],[0.019791666666666666,-0.21851851851851853],[0.019791666666666666,-0.21851851851851853],[0.021875,-0.21481481481481482],[0.022916666666666665,-0.20925925925925926],[0.025,-0.20555555555555555],[0.027083333333333334,-0.20185185185185187],[0.029166666666666667,-0.1962962962962963],[0.029166666666666667,-0.1925925925925926],[0.029166666666666667,-0.1925925925925926],[0.029166666666666667,-0.1925925925925926],[0.029166666666666667,-0.1925925925925926],[0.029166666666666667,-0.1925925925925926],[0.029166666666666667,-0.1925925925925926],[0.029166666666666667,-0.1925925925925926],[0.029166666666666667,-0.1925925925925926],[0.029166666666666667,-0.1925925925925926],[0.029166666666666667,-0.1925925925925926],[0.029166666666666667,-0.1925925925925926],[0.029166666666666667,-0.1925925925925926],[0.029166666666666667,-0.1925925925925926],[0.029166666666666667,-0.1925925925925926],[0.029166666666666667,-0.1925925925925926],[0.029166666666666667,-0.1925925925925926],[0.029166666666666667,-0.1925925925925926],[0.029166666666666667,-0.1925925925925926],[0.029166666666666667,-0.1925925925925926],[0.029166666666666667,-0.1925925925925926],[0.029166666666666667,-0.1925925925925926],[0.029166666666666667,-0.1925925925925926],[0.029166666666666667,-0.1925925925925926],[0.029166666666666667,-0.1925925925925926],[0.029166666666666667,-0.1925925925925926],[0.029166666666666667,-0.1925925925925926],[0.029166666666666667,-0.1925925925925926],[0.029166666666666667,-0.1925925925925926],[0.029166666666666667,-0.1925925925925926],[0.029166666666666667,-0.1925925925925926],[0.029166666666666667,-0.1925925925925926],[0.029166666666666667,-0.1925925925925926],[0.029166666666666667,-0.1925925925925926],[0.029166666666666667,-0.1925925925925926],[0.029166666666666667,-0.1925925925925926],[0.029166666666666667,-0.1925925925925926],[0.029166666666666667,-0.1925925925925926],[0.029166666666666667,-0.1925925925925926],[0.029166666666666667,-0.1925925925925926],[0.029166666666666667,-0.1925925925925926],[0.029166666666666667,-0.1925925925925926],[0.029166666666666667,-0.1925925925925926],[0.029166666666666667,-0.1925925925925926],[0.029166666666666667,-0.1925925925925926],[0.029166666666666667,-0.1925925925925926],[0.029166666666666667,-0.1925925925925926],[0.029166666666666667,-0.1925925925925926],[0.029166666666666667,-0.1925925925925926],[0.029166666666666667,-0.1925925925925926],[0.029166666666666667,-0.1925925925925926],[0.029166666666666667,-0.1925925925925926],[0.029166666666666667,-0.1925925925925926],[0.029166666666666667,-0.1925925925925926],[0.029166666666666667,-0.1925925925925926],[0.029166666666666667,-0.1925925925925926],[0.029166666666666667,-0.1925925925925926],[0.029166666666666667,-0.1925925925925926],[0.029166666666666667,-0.1925925925925926],[0.029166666666666667,-0.1925925925925926],[0.029166666666666667,-0.1925925925925926],[0.029166666666666667,-0.1925925925925926],[0.029166666666666667,-0.1925925925925926],[0.029166666666666667,-0.1925925925925926],[0.029166666666666667,-0.1925925925925926],[0.029166666666666667,-0.1925925925925926],[0.029166666666666667,-0.1925925925925926],[0.029166666666666667,-0.1925925925925926],[0.029166666666666667,-0.1925925925925926],[0.029166666666666667,-0.1925925925925926],[0.029166666666666667,-0.1925925925925926],[0.029166666666666667,-0.1925925925925926],[0.029166666666666667,-0.1925925925925926],[0.029166666666666667,-0.1925925925925926],[0.029166666666666667,-0.1925925925925926],[0.029166666666666667,-0.1925925925925926],[0.029166666666666667,-0.1925925925925926],[0.029166666666666667,-0.1925925925925926],[0.029166666666666667,-0.1925925925925926],[0.029166666666666667,-0.1925925925925926],[0.029166666666666667,-0.1925925925925926],[0.029166666666666667,-0.1925925925925926],[0.029166666666666667,-0.1925925925925926],[0.029166666666666667,-0.1925925925925926],[0.029166666666666667,-0.1925925925925926],[0.029166666666666667,-0.1925925925925926],[0.029166666666666667,-0.1925925925925926],[0.029166666666666667,-0.1925925925925926],[0.029166666666666667,-0.1925925925925926],[0.029166666666666667,-0.1925925925925926],[0.029166666666666667,-0.1925925925925926],[0.029166666666666667,-0.1925925925925926],[0.029166666666666667,-0.1925925925925926],[0.029166666666666667,-0.1925925925925926],[0.029166666666666667,-0.1925925925925926],[0.029166666666666667,-0.1925925925925926],[0.029166666666666667,-0.1925925925925926],[0.029166666666666667,-0.1925925925925926],[0.029166666666666667,-0.1925925925925926],[0.029166666666666667,-0.1925925925925926],[0.029166666666666667,-0.1925925925925926],[0.029166666666666667,-0.1925925925925926],[0.029166666666666667,-0.1925925925925926],[0.029166666666666667,-0.1925925925925926],[0.029166666666666667,-0.1925925925925926],[0.029166666666666667,-0.1925925925925926],[0.029166666666666667,-0.1925925925925926],[0.029166666666666667,-0.1925925925925926],[0.029166666666666667,-0.1925925925925926],[0.029166666666666667,-0.1925925925925926],[0.029166666666666667,-0.1925925925925926],[0.029166666666666667,-0.1925925925925926],[0.029166666666666667,-0.1925925925925926],[0.027083333333333334,-0.18888888888888888],[0.021875,-0.18518518518518517],[0.022916666666666665,-0.18518518518518517],[0.020833333333333332,-0.1814814814814815],[0.01875,-0.17407407407407408],[0.016666666666666666,-0.17222222222222222],[0.016666666666666666,-0.17222222222222222],[0.016666666666666666,-0.17222222222222222],[0.016666666666666666,-0.17222222222222222],[0.016666666666666666,-0.17222222222222222],[0.016666666666666666,-0.17222222222222222],[0.016666666666666666,-0.17222222222222222],[0.016666666666666666,-0.17222222222222222],[0.016666666666666666,-0.1685185185185185],[0.016666666666666666,-0.1685185185185185],[0.016666666666666666,-0.16666666666666666],[0.016666666666666666,-0.16666666666666666],[0.016666666666666666,-0.16666666666666666],[0.016666666666666666,-0.16666666666666666],[0.016666666666666666,-0.16666666666666666],[0.016666666666666666,-0.16666666666666666],[0.016666666666666666,-0.16666666666666666],[0.016666666666666666,-0.16666666666666666],[0.016666666666666666,-0.16666666666666666],[0.016666666666666666,-0.16666666666666666],[0.016666666666666666,-0.16666666666666666],[0.016666666666666666,-0.16666666666666666],[0.016666666666666666,-0.16666666666666666],[0.016666666666666666,-0.16666666666666666],[0.016666666666666666,-0.16666666666666666],[0.016666666666666666,-0.16666666666666666],[0.016666666666666666,-0.16666666666666666],[0.016666666666666666,-0.16666666666666666],[0.016666666666666666,-0.16666666666666666],[0.016666666666666666,-0.16666666666666666],[0.016666666666666666,-0.16666666666666666],[0.016666666666666666,-0.16666666666666666],[0.016666666666666666,-0.16666666666666666],[0.016666666666666666,-0.16666666666666666],[0.016666666666666666,-0.16666666666666666],[0.016666666666666666,-0.16666666666666666],[0.016666666666666666,-0.16666666666666666],[0.016666666666666666,-0.16666666666666666],[0.016666666666666666,-0.16666666666666666],[0.016666666666666666,-0.16666666666666666],[0.016666666666666666,-0.16666666666666666],[0.016666666666666666,-0.16666666666666666],[0.016666666666666666,-0.16666666666666666],[0.016666666666666666,-0.16666666666666666],[0.016666666666666666,-0.16666666666666666],[0.016666666666666666,-0.16666666666666666],[0.016666666666666666,-0.16666666666666666],[0.016666666666666666,-0.16666666666666666],[0.016666666666666666,-0.16666666666666666],[0.016666666666666666,-0.16666666666666666],[0.016666666666666666,-0.16666666666666666],[0.016666666666666666,-0.16666666666666666],[0.016666666666666666,-0.16666666666666666],[0.016666666666666666,-0.16666666666666666],[0.016666666666666666,-0.16666666666666666],[0.016666666666666666,-0.16666666666666666],[0.016666666666666666,-0.16666666666666666],[0.017708333333333333,-0.16666666666666666],[0.021875,-0.16666666666666666],[0.023958333333333335,-0.16666666666666666],[0.023958333333333335,-0.16666666666666666],[0.023958333333333335,-0.16666666666666666],[0.023958333333333335,-0.16666666666666666],[0.023958333333333335,-0.16666666666666666],[0.023958333333333335,-0.16666666666666666],[0.023958333333333335,-0.16666666666666666],[0.023958333333333335,-0.16666666666666666],[0.023958333333333335,-0.16666666666666666],[0.023958333333333335,-0.16666666666666666],[0.025,-0.16111111111111112],[0.025,-0.1537037037037037],[0.034375,-0.13148148148148148],[0.04791666666666667,-0.0962962962962963],[0.06354166666666666,-0.05925925925925926],[0.07916666666666666,-0.016666666666666666],[0.09166666666666666,0.020370370370370372],[0.11041666666666666,0.08518518518518518],[0.12083333333333333,0.13333333333333333],[0.12604166666666666,0.19074074074074074],[0.13125,0.21666666666666667],[0.13541666666666666,0.24074074074074073],[0.1375,0.25925925925925924],[0.140625,0.2796296296296296],[0.14270833333333333,0.3074074074074074],[0.14270833333333333,0.3296296296296296],[0.14270833333333333,0.35185185185185186],[0.14270833333333333,0.37222222222222223],[0.14270833333333333,0.3888888888888889],[0.14375,0.4],[0.14375,0.4222222222222222],[0.14583333333333334,0.4388888888888889],[0.14583333333333334,0.44814814814814813],[0.14583333333333334,0.45],[0.14479166666666668,0.4537037037037037],[0.14479166666666668,0.45555555555555555],[0.14479166666666668,0.45555555555555555],[0.14479166666666668,0.45555555555555555],[0.14479166666666668,0.45555555555555555],[0.14479166666666668,0.45555555555555555],[0.14479166666666668,0.45555555555555555],[0.14479166666666668,0.45555555555555555],[0.14479166666666668,0.45555555555555555],[0.14479166666666668,0.45555555555555555],[0.14479166666666668,0.45555555555555555],[0.14479166666666668,0.45555555555555555],[0.14479166666666668,0.45555555555555555],[0.14479166666666668,0.45555555555555555],[0.14479166666666668,0.45555555555555555],[0.14479166666666668,0.45555555555555555],[0.14479166666666668,0.45555555555555555],[0.14479166666666668,0.45555555555555555],[0.14479166666666668,0.45555555555555555],[0.14479166666666668,0.45555555555555555],[0.14479166666666668,0.45555555555555555],[0.14479166666666668,0.45555555555555555],[0.14479166666666668,0.45555555555555555],[0.14479166666666668,0.45555555555555555],[0.14479166666666668,0.45555555555555555],[0.14479166666666668,0.45555555555555555],[0.14479166666666668,0.45555555555555555],[0.14479166666666668,0.45555555555555555],[0.14479166666666668,0.45555555555555555],[0.14479166666666668,0.45555555555555555],[0.14479166666666668,0.45555555555555555],[0.14479166666666668,0.45925925925925926],[0.14479166666666668,0.45925925925925926],[0.14479166666666668,0.45925925925925926],[0.14479166666666668,0.45925925925925926],[0.14479166666666668,0.45925925925925926],[0.14479166666666668,0.45925925925925926],[0.14479166666666668,0.45925925925925926],[0.14479166666666668,0.45925925925925926],[0.14479166666666668,0.45925925925925926],[0.14479166666666668,0.45925925925925926],[0.14479166666666668,0.45925925925925926],[0.14479166666666668,0.45925925925925926],[0.14479166666666668,0.45925925925925926],[0.14479166666666668,0.45925925925925926],[0.14479166666666668,0.45925925925925926],[0.14479166666666668,0.45925925925925926],[0.14479166666666668,0.45925925925925926],[0.14479166666666668,0.45925925925925926],[0.14479166666666668,0.45925925925925926],[0.14479166666666668,0.45925925925925926],[0.14583333333333334,0.45925925925925926],[0.146875,0.45925925925925926],[0.146875,0.45555555555555555],[0.146875,0.45555555555555555],[0.146875,0.45555555555555555],[0.146875,0.45555555555555555],[0.146875,0.45555555555555555],[0.146875,0.45555555555555555],[0.146875,0.45555555555555555],[0.146875,0.45555555555555555],[0.146875,0.45555555555555555],[0.146875,0.45555555555555555],[0.146875,0.45555555555555555],[0.146875,0.45555555555555555],[0.146875,0.45555555555555555],[0.146875,0.45555555555555555],[0.146875,0.45555555555555555],[0.146875,0.45555555555555555],[0.146875,0.45555555555555555],[0.146875,0.45555555555555555],[0.146875,0.45555555555555555],[0.15,0.45555555555555555],[0.153125,0.45740740740740743],[0.15625,0.45740740740740743],[0.16041666666666668,0.45925925925925926],[0.16354166666666667,0.46111111111111114],[0.165625,0.4648148148148148],[0.16666666666666666,0.4685185185185185],[0.16666666666666666,0.4685185185185185],[0.16770833333333332,0.4703703703703704],[0.16770833333333332,0.4703703703703704],[0.16875,0.4703703703703704],[0.17083333333333334,0.4740740740740741],[0.17083333333333334,0.4740740740740741],[0.171875,0.4759259259259259],[0.171875,0.4759259259259259],[0.171875,0.4759259259259259],[0.171875,0.4759259259259259],[0.171875,0.4759259259259259],[0.171875,0.4759259259259259],[0.171875,0.4759259259259259],[0.171875,0.4759259259259259],[0.171875,0.4759259259259259],[0.171875,0.4759259259259259],[0.171875,0.4759259259259259],[0.171875,0.4759259259259259],[0.171875,0.4759259259259259],[0.171875,0.4759259259259259],[0.171875,0.4759259259259259],[0.171875,0.4759259259259259],[0.171875,0.4759259259259259],[0.171875,0.4759259259259259],[0.171875,0.4759259259259259],[0.171875,0.4759259259259259],[0.171875,0.4759259259259259],[0.171875,0.4759259259259259],[0.171875,0.4759259259259259],[0.171875,0.4759259259259259],[0.171875,0.4759259259259259],[0.171875,0.4759259259259259],[0.171875,0.4759259259259259],[0.171875,0.4759259259259259],[0.171875,0.4759259259259259],[0.171875,0.4759259259259259],[0.171875,0.4759259259259259],[0.171875,0.4759259259259259],[0.171875,0.4759259259259259],[0.171875,0.4759259259259259],[0.171875,0.4759259259259259],[0.171875,0.4759259259259259],[0.171875,0.4759259259259259],[0.171875,0.4759259259259259],[0.171875,0.4759259259259259],[0.17083333333333334,0.4759259259259259],[0.17083333333333334,0.4759259259259259],[0.17083333333333334,0.4759259259259259],[0.17083333333333334,0.4759259259259259],[0.17083333333333334,0.4759259259259259],[0.17083333333333334,0.4759259259259259],[0.17083333333333334,0.4759259259259259],[0.17083333333333334,0.4759259259259259],[0.17083333333333334,0.4759259259259259],[0.17083333333333334,0.4759259259259259],[0.17083333333333334,0.4759259259259259],[0.17083333333333334,0.4759259259259259],[0.17083333333333334,0.4759259259259259],[0.17083333333333334,0.4759259259259259],[0.17083333333333334,0.4759259259259259],[0.17083333333333334,0.4759259259259259],[0.17083333333333334,0.4759259259259259],[0.17083333333333334,0.4759259259259259],[0.17083333333333334,0.4759259259259259],[0.17083333333333334,0.4759259259259259],[0.17083333333333334,0.4759259259259259],[0.17083333333333334,0.4759259259259259],[0.17083333333333334,0.4759259259259259],[0.17083333333333334,0.4759259259259259],[0.17083333333333334,0.4759259259259259],[0.17083333333333334,0.4759259259259259],[0.17083333333333334,0.4759259259259259],[0.17083333333333334,0.4759259259259259],[0.17083333333333334,0.4759259259259259],[0.17083333333333334,0.4759259259259259],[0.17083333333333334,0.4759259259259259],[0.17083333333333334,0.4759259259259259],[0.17083333333333334,0.4759259259259259],[0.17083333333333334,0.4759259259259259],[0.17083333333333334,0.4759259259259259],[0.17083333333333334,0.4759259259259259],[0.17083333333333334,0.4759259259259259],[0.17083333333333334,0.4759259259259259],[0.17083333333333334,0.4759259259259259],[0.17083333333333334,0.4759259259259259],[0.17083333333333334,0.4759259259259259],[0.17083333333333334,0.4759259259259259],[0.17083333333333334,0.4759259259259259],[0.17083333333333334,0.4759259259259259],[0.17083333333333334,0.4759259259259259],[0.17083333333333334,0.4759259259259259],[0.17083333333333334,0.4759259259259259],[0.17083333333333334,0.4759259259259259],[0.17083333333333334,0.4759259259259259],[0.17083333333333334,0.4759259259259259],[0.17083333333333334,0.4759259259259259],[0.17083333333333334,0.4759259259259259],[0.17083333333333334,0.4759259259259259],[0.17083333333333334,0.4759259259259259],[0.17083333333333334,0.4759259259259259],[0.17083333333333334,0.4759259259259259],[0.17083333333333334,0.4759259259259259],[0.17083333333333334,0.4759259259259259],[0.16979166666666667,0.4759259259259259],[0.16979166666666667,0.4759259259259259],[0.16875,0.4759259259259259],[0.16875,0.4759259259259259],[0.16875,0.4759259259259259],[0.16875,0.4740740740740741],[0.16770833333333332,0.4722222222222222],[0.16770833333333332,0.4703703703703704],[0.16770833333333332,0.4703703703703704],[0.16770833333333332,0.4666666666666667],[0.16875,0.46111111111111114],[0.17083333333333334,0.45925925925925926],[0.17395833333333333,0.45740740740740743],[0.175,0.45555555555555555],[0.17708333333333334,0.45185185185185184],[0.17708333333333334,0.45185185185185184],[0.17708333333333334,0.45185185185185184],[0.17708333333333334,0.45185185185185184],[0.17708333333333334,0.45185185185185184],[0.17708333333333334,0.45185185185185184],[0.17708333333333334,0.45185185185185184],[0.17708333333333334,0.45185185185185184],[0.17708333333333334,0.45185185185185184],[0.17708333333333334,0.45185185185185184],[0.17708333333333334,0.45185185185185184],[0.17708333333333334,0.45185185185185184],[0.17708333333333334,0.45185185185185184],[0.17708333333333334,0.45185185185185184],[0.17708333333333334,0.45185185185185184],[0.17708333333333334,0.45185185185185184],[0.17708333333333334,0.45185185185185184],[0.17708333333333334,0.45185185185185184],[0.17708333333333334,0.45185185185185184],[0.17708333333333334,0.45185185185185184],[0.17708333333333334,0.45185185185185184],[0.17708333333333334,0.45185185185185184],[0.17708333333333334,0.45185185185185184],[0.17708333333333334,0.45185185185185184],[0.17708333333333334,0.45185185185185184],[0.17708333333333334,0.45185185185185184],[0.17708333333333334,0.45185185185185184],[0.17708333333333334,0.45185185185185184],[0.17708333333333334,0.45185185185185184],[0.17708333333333334,0.45185185185185184],[0.17708333333333334,0.45185185185185184],[0.17708333333333334,0.45185185185185184],[0.17708333333333334,0.45185185185185184],[0.17708333333333334,0.45185185185185184],[0.17708333333333334,0.45185185185185184],[0.17708333333333334,0.45185185185185184],[0.17708333333333334,0.45185185185185184],[0.17708333333333334,0.45185185185185184],[0.17708333333333334,0.45185185185185184],[0.17708333333333334,0.45185185185185184],[0.17708333333333334,0.45185185185185184],[0.17708333333333334,0.45185185185185184],[0.178125,0.45],[0.178125,0.45],[0.178125,0.45],[0.178125,0.45],[0.178125,0.45],[0.178125,0.45],[0.178125,0.45],[0.178125,0.45],[0.178125,0.45],[0.178125,0.45],[0.178125,0.45],[0.178125,0.45],[0.178125,0.45],[0.178125,0.45],[0.178125,0.45],[0.178125,0.45],[0.178125,0.45],[0.178125,0.45],[0.178125,0.45],[0.178125,0.45],[0.178125,0.45],[0.178125,0.45],[0.178125,0.45],[0.178125,0.45],[0.178125,0.45],[0.178125,0.45],[0.178125,0.45],[0.178125,0.45],[0.178125,0.45],[0.178125,0.45],[0.178125,0.45],[0.178125,0.45],[0.178125,0.45],[0.178125,0.45],[0.178125,0.45],[0.178125,0.45],[0.17708333333333334,0.45],[0.17708333333333334,0.45],[0.17708333333333334,0.45],[0.175,0.45],[0.175,0.45],[0.175,0.45],[0.175,0.45],[0.17395833333333333,0.45],[0.171875,0.45],[0.171875,0.45],[0.171875,0.45],[0.171875,0.45],[0.171875,0.45],[0.171875,0.45],[0.171875,0.45],[0.171875,0.45],[0.171875,0.45],[0.17083333333333334,0.45],[0.17083333333333334,0.45],[0.16979166666666667,0.45],[0.16875,0.4537037037037037],[0.16770833333333332,0.45555555555555555],[0.16770833333333332,0.45555555555555555],[0.16770833333333332,0.45555555555555555],[0.16666666666666666,0.45740740740740743],[0.165625,0.45925925925925926],[0.165625,0.45925925925925926],[0.165625,0.45925925925925926],[0.165625,0.45925925925925926],[0.165625,0.45925925925925926],[0.165625,0.45925925925925926],[0.165625,0.45925925925925926],[0.165625,0.45925925925925926],[0.165625,0.45925925925925926],[0.165625,0.45925925925925926],[0.165625,0.45925925925925926],[0.165625,0.45925925925925926],[0.165625,0.45925925925925926],[0.165625,0.45925925925925926],[0.165625,0.45925925925925926],[0.165625,0.45925925925925926],[0.165625,0.45925925925925926],[0.165625,0.45925925925925926],[0.165625,0.45925925925925926],[0.165625,0.45925925925925926],[0.165625,0.45925925925925926],[0.165625,0.45925925925925926],[0.16458333333333333,0.45925925925925926],[0.16458333333333333,0.45925925925925926],[0.16458333333333333,0.45925925925925926],[0.16458333333333333,0.45925925925925926],[0.16458333333333333,0.45925925925925926],[0.16458333333333333,0.45925925925925926],[0.16458333333333333,0.45925925925925926],[0.16458333333333333,0.45925925925925926],[0.16458333333333333,0.45925925925925926],[0.16354166666666667,0.45925925925925926],[0.16354166666666667,0.45925925925925926],[0.1625,0.45925925925925926],[0.1625,0.45925925925925926],[0.16145833333333334,0.45925925925925926],[0.159375,0.45925925925925926],[0.159375,0.45925925925925926],[0.159375,0.45925925925925926],[0.15625,0.45925925925925926],[0.15625,0.45925925925925926],[0.15520833333333334,0.45925925925925926],[0.15208333333333332,0.46111111111111114],[0.15104166666666666,0.46111111111111114],[0.14895833333333333,0.46111111111111114],[0.14583333333333334,0.46111111111111114],[0.14375,0.46111111111111114],[0.14270833333333333,0.46296296296296297],[0.14166666666666666,0.46296296296296297],[0.140625,0.4648148148148148],[0.1375,0.4648148148148148],[0.13541666666666666,0.4648148148148148],[0.13125,0.4648148148148148],[0.12916666666666668,0.4648148148148148],[0.12291666666666666,0.4648148148148148],[0.121875,0.4648148148148148],[0.11979166666666667,0.4648148148148148],[0.11666666666666667,0.4648148148148148],[0.1125,0.4685185185185185],[0.109375,0.4685185185185185],[0.109375,0.4685185185185185],[0.109375,0.4685185185185185],[0.10729166666666666,0.4685185185185185],[0.10729166666666666,0.4685185185185185],[0.10625,0.4685185185185185],[0.10520833333333333,0.4685185185185185],[0.10416666666666667,0.4685185185185185],[0.10104166666666667,0.4685185185185185],[0.1,0.4685185185185185],[0.09791666666666667,0.4685185185185185],[0.09791666666666667,0.4685185185185185],[0.09583333333333334,0.4685185185185185],[0.09479166666666666,0.4685185185185185],[0.09479166666666666,0.4685185185185185],[0.09479166666666666,0.4685185185185185],[0.09479166666666666,0.4685185185185185],[0.09479166666666666,0.4685185185185185],[0.096875,0.46296296296296297],[0.10416666666666667,0.45925925925925926],[0.10416666666666667,0.45925925925925926],[0.10416666666666667,0.45925925925925926],[0.10416666666666667,0.45925925925925926],[0.10416666666666667,0.45925925925925926],[0.10416666666666667,0.45925925925925926],[0.10416666666666667,0.45925925925925926],[0.10416666666666667,0.45925925925925926],[0.10416666666666667,0.45925925925925926],[0.10416666666666667,0.45925925925925926],[0.10416666666666667,0.45925925925925926],[0.10416666666666667,0.45925925925925926],[0.10416666666666667,0.45925925925925926],[0.10416666666666667,0.45925925925925926],[0.10416666666666667,0.45925925925925926],[0.10416666666666667,0.45925925925925926],[0.10416666666666667,0.45555555555555555],[0.10416666666666667,0.4537037037037037],[0.10208333333333333,0.45],[0.09583333333333334,0.45],[0.09895833333333333,0.45185185185185184],[0.09895833333333333,0.45185185185185184],[0.09895833333333333,0.45185185185185184],[0.09895833333333333,0.45185185185185184],[0.09895833333333333,0.45185185185185184],[0.10104166666666667,0.45185185185185184],[0.103125,0.45185185185185184],[0.103125,0.45185185185185184],[0.103125,0.45185185185185184],[0.10104166666666667,0.45555555555555555],[0.09895833333333333,0.45740740740740743],[0.09895833333333333,0.45740740740740743],[0.09791666666666667,0.45740740740740743],[0.09791666666666667,0.45740740740740743],[0.09791666666666667,0.45925925925925926],[0.09791666666666667,0.45925925925925926],[0.09791666666666667,0.45925925925925926],[0.09479166666666666,0.46111111111111114],[0.08854166666666667,0.46111111111111114],[0.08229166666666667,0.46111111111111114],[0.07708333333333334,0.46296296296296297],[0.07291666666666667,0.4648148148148148],[0.06875,0.4666666666666667],[0.06041666666666667,0.4703703703703704],[0.04895833333333333,0.48148148148148145],[0.035416666666666666,0.49074074074074076],[0.017708333333333333,0.5018518518518519],[-0.0010416666666666667,0.512962962962963],[-0.015625,0.524074074074074],[-0.01875,0.5259259259259259],[-0.023958333333333335,0.5314814814814814],[-0.027083333333333334,0.5314814814814814],[-0.028125,0.5333333333333333],[-0.03229166666666667,0.5370370370370371],[-0.035416666666666666,0.5388888888888889],[-0.040625,0.5425925925925926],[-0.046875,0.5444444444444444],[-0.053125,0.5462962962962963],[-0.06041666666666667,0.5518518518518518],[-0.06770833333333333,0.5537037037037037],[-0.075,0.5592592592592592],[-0.08125,0.5611111111111111],[-0.08125,0.5611111111111111],[-0.084375,0.562962962962963],[-0.08541666666666667,0.5648148148148148],[-0.09166666666666666,0.5648148148148148],[-0.09375,0.5648148148148148],[-0.09583333333333334,0.5666666666666667],[-0.09583333333333334,0.5666666666666667],[-0.09583333333333334,0.5666666666666667],[-0.09583333333333334,0.5666666666666667],[-0.09583333333333334,0.5666666666666667],[-0.09583333333333334,0.5666666666666667],[-0.09583333333333334,0.5666666666666667],[-0.09583333333333334,0.5666666666666667],[-0.09583333333333334,0.5666666666666667],[-0.09583333333333334,0.5666666666666667],[-0.09583333333333334,0.5666666666666667],[-0.09583333333333334,0.5666666666666667],[-0.09583333333333334,0.5666666666666667],[-0.09583333333333334,0.5666666666666667],[-0.09583333333333334,0.5666666666666667],[-0.09583333333333334,0.5666666666666667],[-0.09583333333333334,0.5666666666666667],[-0.09583333333333334,0.5666666666666667],[-0.09583333333333334,0.5666666666666667],[-0.09583333333333334,0.5666666666666667],[-0.09583333333333334,0.5666666666666667],[-0.09583333333333334,0.5666666666666667],[-0.09583333333333334,0.5666666666666667],[-0.09583333333333334,0.5666666666666667],[-0.09583333333333334,0.5666666666666667],[-0.09583333333333334,0.5666666666666667],[-0.09583333333333334,0.5666666666666667],[-0.09583333333333334,0.5666666666666667],[-0.09583333333333334,0.5666666666666667],[-0.09583333333333334,0.5666666666666667],[-0.09583333333333334,0.5666666666666667],[-0.09583333333333334,0.5666666666666667],[-0.09583333333333334,0.5666666666666667],[-0.09583333333333334,0.5666666666666667],[-0.09583333333333334,0.5666666666666667],[-0.09583333333333334,0.5666666666666667],[-0.09583333333333334,0.5666666666666667],[-0.09583333333333334,0.5666666666666667],[-0.09583333333333334,0.5666666666666667],[-0.09583333333333334,0.5666666666666667],[-0.09583333333333334,0.5666666666666667],[-0.09583333333333334,0.5666666666666667],[-0.09583333333333334,0.5666666666666667],[-0.09583333333333334,0.5666666666666667],[-0.09583333333333334,0.5666666666666667],[-0.09583333333333334,0.5666666666666667],[-0.09583333333333334,0.5666666666666667],[-0.09583333333333334,0.5666666666666667],[-0.09583333333333334,0.5666666666666667],[-0.09583333333333334,0.5666666666666667],[-0.09583333333333334,0.5666666666666667],[-0.09583333333333334,0.5666666666666667],[-0.09583333333333334,0.5666666666666667],[-0.09583333333333334,0.5666666666666667],[-0.09583333333333334,0.5666666666666667],[-0.09583333333333334,0.5666666666666667],[-0.09583333333333334,0.5666666666666667],[-0.09583333333333334,0.5666666666666667],[-0.09583333333333334,0.5666666666666667],[-0.09583333333333334,0.5666666666666667],[-0.09583333333333334,0.5666666666666667],[-0.09583333333333334,0.5666666666666667],[-0.09583333333333334,0.5666666666666667],[-0.09583333333333334,0.5666666666666667],[-0.09583333333333334,0.5666666666666667],[-0.09583333333333334,0.5666666666666667],[-0.09583333333333334,0.5666666666666667],[-0.09583333333333334,0.5666666666666667],[-0.09583333333333334,0.5666666666666667],[-0.09583333333333334,0.5666666666666667],[-0.09583333333333334,0.5666666666666667],[-0.09583333333333334,0.5666666666666667],[-0.09583333333333334,0.5666666666666667],[-0.09583333333333334,0.5666666666666667],[-0.09583333333333334,0.5666666666666667],[-0.09583333333333334,0.5666666666666667],[-0.09583333333333334,0.5666666666666667],[-0.09583333333333334,0.5666666666666667],[-0.09583333333333334,0.5666666666666667],[-0.09583333333333334,0.5666666666666667],[-0.09583333333333334,0.5666666666666667],[-0.09583333333333334,0.5666666666666667],[-0.09583333333333334,0.5666666666666667],[-0.09583333333333334,0.5666666666666667],[-0.09583333333333334,0.5666666666666667],[-0.09583333333333334,0.5666666666666667],[-0.09583333333333334,0.5666666666666667],[-0.09583333333333334,0.5666666666666667],[-0.09583333333333334,0.5666666666666667],[-0.09583333333333334,0.5666666666666667],[-0.09583333333333334,0.5666666666666667],[-0.09583333333333334,0.5666666666666667],[-0.09583333333333334,0.5666666666666667],[-0.09583333333333334,0.5666666666666667],[-0.09583333333333334,0.5666666666666667],[-0.09583333333333334,0.5666666666666667],[-0.09583333333333334,0.5666666666666667],[-0.09583333333333334,0.5666666666666667],[-0.09583333333333334,0.5666666666666667],[-0.09583333333333334,0.5666666666666667],[-0.09583333333333334,0.5666666666666667],[-0.09583333333333334,0.5666666666666667],[-0.09583333333333334,0.5666666666666667],[-0.09583333333333334,0.5666666666666667],[-0.09583333333333334,0.5666666666666667],[-0.096875,0.5666666666666667],[-0.09895833333333333,0.5666666666666667],[-0.10104166666666667,0.5648148148148148],[-0.103125,0.562962962962963],[-0.10416666666666667,0.562962962962963],[-0.10520833333333333,0.562962962962963],[-0.109375,0.5592592592592592],[-0.11145833333333334,0.5592592592592592],[-0.11354166666666667,0.5592592592592592],[-0.11666666666666667,0.5592592592592592],[-0.11770833333333333,0.5592592592592592]]","[[-0.4397916666666667,-0.5714814814814815],[-0.4397916666666667,-0.5714814814814815],[-0.4392708333333334,-0.5987037037037037],[-0.40947916666666667,-0.6562962962962963],[-0.3848958333333333,-0.6875925925925926],[-0.38739583333333333,-0.6640740740740741],[-0.3740625,-0.6620370370370371],[-0.3740625,-0.6620370370370371],[-0.3680208333333333,-0.6466666666666666],[-0.3657291666666667,-0.6418518518518519],[-0.3657291666666667,-0.6418518518518519],[-0.3592708333333333,-0.5911111111111111],[-0.34916666666666674,-0.5577777777777777],[-0.328125,-0.525],[-0.31135416666666665,-0.4607407407407408],[-0.29583333333333334,-0.41703703703703704],[-0.2742708333333333,-0.3531481481481481],[-0.2742708333333333,-0.3531481481481481],[-0.23875000000000005,-0.2962962962962963],[-0.20645833333333338,-0.24759259259259256],[-0.20645833333333338,-0.24759259259259256],[-0.17708333333333334,-0.18203703703703705],[-0.14375,-0.07537037037037035],[-0.14375,-0.07537037037037035],[-0.1421875,-0.04981481481481477],[-0.11375000000000005,-0.001851851851851852],[-0.1172916666666667,0.026851851851851852],[-0.09572916666666664,0.044999999999999915],[-0.08458333333333339,0.0742592592592593],[-0.07708333333333334,0.09055555555555551],[-0.06916666666666664,0.10277777777777777],[-0.06916666666666664,0.10277777777777777],[-0.07625000000000005,0.130925925925926],[-0.07364583333333338,0.15722222222222218],[-0.07124999999999998,0.152962962962963],[-0.050312499999999954,0.17851851851851847],[-0.050937499999999976,0.1794444444444444],[-0.027187500000000024,0.20629629629629626],[-0.02166666666666662,0.23166666666666672],[-0.009791666666666643,0.262037037037037],[0.007395833333333357,0.2718518518518518],[-0.01593749999999995,0.25333333333333324],[0.013125000000000024,0.24870370370370362],[-0.01229166666666662,0.22685185185185186],[-0.03166666666666664,0.2161111111111112],[-0.04552083333333338,0.21518518518518526],[-0.04552083333333338,0.21518518518518526],[-0.04364583333333331,0.20277777777777778],[-0.06510416666666667,0.17296296296296293],[-0.058124999999999954,0.13703703703703704],[-0.08666666666666671,0.12611111111111115],[-0.09322916666666667,0.10648148148148148],[-0.09520833333333331,0.12444444444444452],[-0.09520833333333331,0.12444444444444452],[-0.12468750000000005,0.14666666666666675],[-0.08010416666666664,0.1633333333333334],[-0.041562499999999974,0.16888888888888898],[0.001145833333333357,0.16074074074074066],[0.07854166666666676,0.1346296296296297],[0.13927083333333337,0.12074074074074083],[0.19666666666666663,0.11722222222222214],[0.28583333333333344,0.09981481481481477],[0.3541666666666667,0.1051851851851851],[0.4540625000000001,0.09000000000000004],[0.5470833333333334,0.02166666666666675],[0.6053124999999999,-0.04296296296296305],[0.6053124999999999,-0.04296296296296305],[0.6526041666666667,-0.08796296296296297],[0.6989583333333333,-0.12000000000000002],[0.6952083333333334,-0.11277777777777774],[0.7101041666666668,-0.10740740740740741],[0.7101041666666668,-0.10740740740740741],[0.7269791666666667,-0.11092592592592589],[0.7273958333333332,-0.122037037037037],[0.7243750000000001,-0.14814814814814814],[0.7345833333333334,-0.1757407407407407],[0.7452083333333335,-0.17537037037037034],[0.7417708333333333,-0.16500000000000004],[0.7388541666666666,-0.15111111111111114],[0.7363541666666668,-0.17296296296296293],[0.714375,-0.19074074074074074],[0.7147916666666667,-0.23037037037037034],[0.6849999999999999,-0.2631481481481482],[0.6634375000000001,-0.28703703703703703],[0.6364583333333333,-0.29666666666666663],[0.5941666666666667,-0.3122222222222223],[0.5941666666666667,-0.3122222222222223],[0.5190625,-0.307962962962963],[0.4340625000000001,-0.29000000000000004],[0.4340625000000001,-0.29000000000000004],[0.35947916666666657,-0.29518518518518516],[0.29583333333333334,-0.28185185185185185],[0.22760416666666666,-0.2824074074074074],[0.15416666666666667,-0.2707407407407407],[0.07322916666666662,-0.24407407407407408],[0.00625,-0.22462962962962965],[0.00625,-0.22462962962962965],[-0.059375,-0.21240740740740738],[-0.12437499999999997,-0.17925925925925928],[-0.16072916666666662,-0.1648148148148148],[-0.17322916666666663,-0.1624074074074074],[-0.1703125,-0.1594444444444445],[-0.1866666666666667,-0.1403703703703704],[-0.14281250000000004,-0.13629629629629633],[-0.09541666666666669,-0.1161111111111111],[-0.03239583333333336,-0.11092592592592589],[0.00458333333333331,-0.0727777777777778],[0.06020833333333329,-0.07518518518518523],[0.11166666666666672,-0.08462962962962961],[0.17062499999999994,-0.10574074074074079],[0.2397916666666667,-0.10481481481481486],[0.30916666666666665,-0.1492592592592593],[0.34562499999999996,-0.17333333333333337],[0.38312499999999994,-0.19888888888888884],[0.3915625000000001,-0.1935185185185185],[0.3870833333333332,-0.21444444444444447],[0.3870833333333332,-0.21444444444444447],[0.3759375000000001,-0.2227777777777778],[0.38270833333333343,-0.26722222222222225],[0.3633333333333333,-0.28592592592592586],[0.37218749999999995,-0.32703703703703707],[0.37218749999999995,-0.32703703703703707],[0.32145833333333323,-0.3322222222222222],[0.3037499999999999,-0.3435185185185185],[0.30229166666666674,-0.28851851851851856],[0.25791666666666657,-0.27740740740740744],[0.25791666666666657,-0.27740740740740744],[0.228125,-0.2577777777777778],[0.23572916666666663,-0.2922222222222222],[0.24500000000000005,-0.3037037037037037],[0.21604166666666677,-0.267037037037037],[0.21885416666666657,-0.2625925925925926],[0.1728125000000001,-0.23166666666666672],[0.1915625000000001,-0.24092592592592596],[0.14802083333333324,-0.21648148148148144],[0.14802083333333324,-0.21648148148148144],[0.12635416666666663,-0.2161111111111111],[0.11197916666666667,-0.16129629629629633],[0.11458333333333333,-0.1646296296296296],[0.08145833333333338,-0.09351851851851851],[0.06749999999999995,-0.08111111111111113],[0.06749999999999995,-0.08111111111111113],[0.04104166666666664,-0.034074074074074034],[0.03229166666666667,-0.00722222222222218],[0.05447916666666662,0.01722222222222214],[0.05406249999999998,0.05092592592592592],[0.051041666666666666,0.11999999999999991],[0.04666666666666662,0.1287037037037037],[0.03083333333333336,0.12907407407407415],[0.03083333333333336,0.12907407407407415],[0.018124999999999978,0.13277777777777786],[0.0005208333333333333,0.14444444444444443],[-0.006979166666666714,0.14462962962962966],[0.006458333333333381,0.12537037037037047],[0.00604166666666662,0.14981481481481476],[0.0007291666666667141,0.1477777777777777],[-0.03291666666666669,0.16518518518518527],[-0.03791666666666664,0.152962962962963],[-0.05583333333333336,0.16722222222222213],[-0.06083333333333331,0.16870370370370374],[-0.06916666666666664,0.20981481481481473],[-0.04781249999999997,0.2007407407407407],[-0.04583333333333333,0.22537037037037044],[-0.0578125,0.27092592592592585],[-0.04812500000000005,0.26296296296296295],[-0.0578125,0.290925925925926],[-0.036249999999999956,0.28703703703703703],[-0.022291666666666644,0.2912962962962962],[0.005416666666666714,0.2687037037037037],[0.01114583333333338,0.2683333333333333],[0.011041666666666691,0.22759259259259254],[-0.0046875,0.25703703703703695],[-0.012187500000000047,0.22907407407407415],[0.00927083333333331,0.20777777777777787],[0.011458333333333333,0.1816666666666667],[0.0015625,0.20259259259259255],[-0.008854166666666666,0.19222222222222213],[-0.03218749999999997,0.20388888888888893],[-0.04697916666666669,0.2116666666666666],[-0.04697916666666669,0.2116666666666666],[-0.0359375,0.2116666666666666],[0.005208333333333333,0.19518518518518516],[0.009895833333333333,0.17629629629629637],[0.013645833333333357,0.1705555555555556],[-0.036354166666666646,0.16722222222222213],[-0.06906249999999996,0.17314814814814813],[-0.06906249999999996,0.17314814814814813],[-0.09281250000000002,0.13944444444444437],[-0.10291666666666661,0.13944444444444437],[-0.06656249999999998,0.09981481481481477],[-0.09208333333333331,0.10018518518518522],[-0.1125,0.10333333333333325],[-0.18562500000000004,0.14129629629629623],[-0.19624999999999998,0.13499999999999995],[-0.21760416666666665,0.15999999999999995],[-0.171875,0.15018518518518523],[-0.171875,0.15018518518518523],[-0.15104166666666666,0.19222222222222213],[-0.12468750000000005,0.20259259259259255],[-0.10604166666666662,0.1983333333333334],[-0.12572916666666673,0.21500000000000005],[-0.12572916666666673,0.21500000000000005],[-0.08020833333333334,0.19944444444444454],[-0.043958333333333384,0.2116666666666666],[-0.010625000000000048,0.22981481481481486],[-0.001145833333333357,0.2411111111111112],[0.027083333333333334,0.23111111111111102],[0.024687500000000046,0.27814814814814826],[0.034687499999999954,0.25833333333333336],[0.034687499999999954,0.25833333333333336],[0.04781249999999997,0.31296296296296294],[0.06062500000000005,0.30055555555555546],[0.0515625,0.33129629629629626],[0.034895833333333334,0.33833333333333343],[0.0068750000000000235,0.35],[0.013854166666666619,0.31296296296296294],[0.024687500000000046,0.2992592592592593],[0.03968750000000002,0.26796296296296307],[0.03968750000000002,0.26796296296296307],[0.050729166666666714,0.21870370370370373],[-0.0020833333333333333,0.2579629629629629],[-0.05947916666666669,0.22759259259259254],[-0.05947916666666669,0.22759259259259254],[-0.06697916666666662,0.19000000000000003],[-0.05489583333333338,0.14666666666666675],[-0.05489583333333338,0.14666666666666675],[-0.050520833333333334,0.08314814814814811],[-0.01416666666666669,-0.009444444444444486],[-0.02000000000000005,-0.05388888888888893],[-0.0125,-0.10851851851851856],[-0.012187500000000047,-0.14425925925925923],[-0.012187500000000047,-0.14425925925925923],[-0.01552083333333331,-0.1705555555555556],[0.0296875,-0.2257407407407407],[0.07374999999999995,-0.2657407407407407],[0.0787499999999999,-0.24740740740740744],[0.08510416666666672,-0.24870370370370373],[0.0900000000000001,-0.23777777777777773],[0.08989583333333329,-0.22759259259259254],[0.11385416666666662,-0.2111111111111111],[0.12041666666666657,-0.19814814814814816],[0.1146874999999999,-0.13648148148148145],[0.11447916666666676,-0.1255555555555556],[0.096875,-0.0948148148148148],[0.11354166666666667,-0.12537037037037035],[0.09489583333333323,-0.07777777777777778],[0.09447916666666671,-0.07629629629629628],[0.09968750000000005,-0.04592592592592584],[0.11500000000000009,-0.0735185185185185],[0.11500000000000009,-0.0735185185185185],[0.0834374999999999,-0.04722222222222222],[0.0834374999999999,-0.04722222222222222],[0.0740624999999999,-0.03925925925925934],[0.06864583333333343,-0.06148148148148146],[0.06854166666666663,-0.07296296296296292],[0.06239583333333331,-0.06444444444444447],[0.06239583333333331,-0.06444444444444447],[0.07583333333333328,-0.05870370370370368],[0.07541666666666676,-0.08203703703703706],[0.08520833333333329,-0.11666666666666667],[0.06197916666666667,-0.1368518518518518],[0.06145833333333333,-0.11203703703703703],[0.075,-0.1962962962962963],[0.075,-0.1962962962962963],[0.053125,-0.24462962962962967],[0.04645833333333336,-0.3059259259259259],[0.04645833333333336,-0.3059259259259259],[0.035416666666666666,-0.34518518518518515],[0.04760416666666671,-0.43333333333333335],[0.01583333333333338,-0.45388888888888895],[0.017604166666666643,-0.5112962962962964],[0.005312500000000024,-0.5264814814814816],[0.029791666666666692,-0.5583333333333333],[-0.013333333333333286,-0.5859259259259259],[-0.010208333333333286,-0.5798148148148149],[-0.0067708333333333336,-0.5679629629629629],[-0.006666666666666643,-0.5609259259259259],[-0.018333333333333358,-0.5487037037037037],[-0.03187500000000002,-0.5425925925925926],[-0.06927083333333334,-0.515],[-0.10968749999999995,-0.487962962962963],[-0.16354166666666667,-0.46351851851851855],[-0.22583333333333327,-0.43629629629629635],[-0.2748958333333333,-0.3901851851851852],[-0.2716666666666666,-0.3781481481481481],[-0.2635416666666667,-0.3675925925925926],[-0.25333333333333335,-0.3698148148148148],[-0.23604166666666668,-0.3824074074074074],[-0.20666666666666664,-0.3977777777777778],[-0.20666666666666664,-0.3977777777777778],[-0.16447916666666665,-0.4183333333333333],[-0.12062499999999995,-0.4398148148148148],[-0.051041666666666666,-0.482962962962963],[-0.051041666666666666,-0.482962962962963],[0.01885416666666669,-0.5209259259259259],[0.08687500000000009,-0.5766666666666667],[0.09239583333333339,-0.5881481481481482],[0.11239583333333343,-0.6038888888888889],[0.1252083333333334,-0.5844444444444444],[0.1252083333333334,-0.5844444444444444],[0.14031250000000003,-0.5644444444444444],[0.13802083333333334,-0.5392592592592592],[0.15833333333333333,-0.5625925925925926],[0.18802083333333333,-0.5407407407407407],[0.20177083333333337,-0.5285185185185185],[0.20177083333333337,-0.5285185185185185],[0.2243750000000001,-0.517037037037037],[0.23760416666666656,-0.4559259259259259],[0.28322916666666675,-0.4368518518518518],[0.2747916666666666,-0.41870370370370374],[0.2955208333333334,-0.4542592592592593],[0.31395833333333345,-0.4903703703703704],[0.34406249999999994,-0.5327777777777778],[0.3476041666666667,-0.5024074074074074],[0.3607291666666666,-0.5390740740740741],[0.33468749999999997,-0.5203703703703704],[0.33468749999999997,-0.5203703703703704],[0.31145833333333334,-0.5183333333333333],[0.30791666666666656,-0.5505555555555556],[0.259375,-0.5435185185185185],[0.2669791666666666,-0.5507407407407408],[0.2763541666666666,-0.5255555555555556],[0.2859375,-0.5007407407407407],[0.2769791666666668,-0.4831481481481481],[0.28062500000000007,-0.5124074074074074],[0.2946875000000001,-0.5029629629629631],[0.31583333333333335,-0.5092592592592593],[0.3385416666666667,-0.5237037037037037],[0.36052083333333323,-0.5207407407407407],[0.39906249999999993,-0.5448148148148148],[0.4122916666666666,-0.5461111111111111],[0.4055208333333333,-0.55],[0.35989583333333336,-0.5251851851851852],[0.33177083333333335,-0.5085185185185186],[0.2920833333333334,-0.4625925925925926],[0.22291666666666668,-0.4087037037037037],[0.16760416666666675,-0.38129629629629624],[0.13010416666666677,-0.35907407407407405],[0.0709374999999999,-0.3212962962962963],[0.03177083333333333,-0.29203703703703704],[0.0013541666666666192,-0.2661111111111111],[-0.0453125,-0.24592592592592594],[-0.06270833333333338,-0.227962962962963],[-0.08406250000000005,-0.1955555555555556],[-0.08552083333333335,-0.18907407407407412],[-0.07885416666666671,-0.22537037037037036],[-0.06375000000000004,-0.24351851851851852],[-0.06177083333333329,-0.22611111111111115],[-0.04208333333333331,-0.27925925925925926],[-0.04093749999999995,-0.3127777777777777],[-0.030104166666666644,-0.3181481481481482],[-0.005416666666666714,-0.3301851851851852],[0.028750000000000022,-0.37092592592592594],[0.07270833333333329,-0.4103703703703704],[0.09239583333333339,-0.41814814814814816],[0.10854166666666672,-0.4072222222222222],[0.109375,-0.38055555555555554],[0.12999999999999995,-0.4316666666666667],[0.10760416666666663,-0.3937037037037037],[0.10072916666666672,-0.37518518518518523],[0.06864583333333343,-0.3653703703703704],[0.03812500000000003,-0.3635185185185185],[0.03812500000000003,-0.3635185185185185],[0.00927083333333331,-0.35259259259259257],[-0.00625,-0.36740740740740735],[-0.04614583333333329,-0.3638888888888889],[-0.08156249999999995,-0.3761111111111112],[-0.09302083333333329,-0.4168518518518519],[-0.12885416666666671,-0.37296296296296294],[-0.14416666666666664,-0.3642592592592592],[-0.17458333333333337,-0.35722222222222216],[-0.19729166666666664,-0.3562962962962963],[-0.21656249999999996,-0.3375925925925926],[-0.22093750000000004,-0.34388888888888886],[-0.26677083333333335,-0.2772222222222222],[-0.24489583333333337,-0.30407407407407405],[-0.24489583333333337,-0.30407407407407405],[-0.22447916666666667,-0.29444444444444445],[-0.21312500000000004,-0.26944444444444443],[-0.2061458333333333,-0.25018518518518523],[-0.18156249999999996,-0.2675925925925926],[-0.16843750000000005,-0.2511111111111112],[-0.13895833333333332,-0.2638888888888889],[-0.1328125,-0.2494444444444444],[-0.12843749999999995,-0.23962962962962958],[-0.13322916666666665,-0.24407407407407408],[-0.14135416666666673,-0.23944444444444446],[-0.15958333333333338,-0.2227777777777778],[-0.17677083333333338,-0.2074074074074074],[-0.20041666666666663,-0.22148148148148153],[-0.22291666666666668,-0.21277777777777773],[-0.22291666666666668,-0.21277777777777773],[-0.23999999999999996,-0.207962962962963],[-0.26510416666666664,-0.20611111111111113],[-0.28104166666666663,-0.21370370370370367],[-0.29791666666666666,-0.21444444444444447],[-0.2704166666666667,-0.22333333333333338],[-0.26677083333333335,-0.19870370370370372],[-0.2234375,-0.2168518518518519],[-0.16687500000000005,-0.24500000000000002],[-0.121875,-0.2448148148148148],[-0.07635416666666663,-0.23333333333333334],[-0.013125000000000024,-0.2477777777777778],[0.049583333333333354,-0.2433333333333333],[0.11302083333333333,-0.24592592592592594],[0.16520833333333323,-0.21888888888888886],[0.21583333333333338,-0.252962962962963],[0.2698958333333332,-0.2783333333333334],[0.2921875,-0.2916666666666667],[0.2913541666666667,-0.2611111111111111],[0.31302083333333336,-0.25685185185185183],[0.2894791666666668,-0.21851851851851853],[0.25510416666666674,-0.1492592592592593],[0.20125000000000004,-0.0742592592592593],[0.14677083333333343,-0.00722222222222218],[0.15572916666666667,-0.03129629629629625],[0.13947916666666677,-0.024814814814814772],[0.11791666666666671,0.00851851851851856],[0.11791666666666671,0.00851851851851856],[0.07947916666666661,0.07981481481481485],[0.030624999999999975,0.09277777777777782],[0.030624999999999975,0.09277777777777782],[-0.007083333333333286,0.09722222222222222],[-0.008958333333333356,0.05925925925925926],[-0.008958333333333356,0.05925925925925926],[0.005729166666666666,-0.011111111111111112],[0.0390625,-0.12833333333333335],[0.07802083333333343,-0.2442592592592592],[0.033749999999999974,-0.252962962962963],[0.004375000000000047,-0.25629629629629624],[-0.01885416666666669,-0.2551851851851852],[-0.01885416666666669,-0.2551851851851852],[-0.008333333333333333,-0.32703703703703707],[0.013437499999999976,-0.38370370370370366],[0.01427083333333338,-0.4172222222222222],[0.016562499999999977,-0.45129629629629625],[0.0010416666666666667,-0.4668518518518519],[-0.008645833333333287,-0.42407407407407405],[-0.0036458333333333334,-0.4155555555555555],[-0.008541666666666715,-0.3816666666666667],[0.005937500000000048,-0.39648148148148155],[0.0015625,-0.4081481481481481],[-0.007083333333333286,-0.41870370370370374],[-0.03572916666666662,-0.39148148148148143],[-0.04708333333333338,-0.4103703703703704],[-0.06781250000000003,-0.3861111111111111],[-0.060104166666666715,-0.41074074074074074],[-0.08270833333333331,-0.4072222222222222],[-0.1015625,-0.397037037037037],[-0.11499999999999998,-0.39944444444444444],[-0.1326041666666666,-0.38685185185185184],[-0.15364583333333334,-0.3609259259259259],[-0.16156250000000003,-0.36500000000000005],[-0.15958333333333338,-0.357962962962963],[-0.1577083333333333,-0.3151851851851852],[-0.1580208333333334,-0.3014814814814815],[-0.17239583333333333,-0.2588888888888889],[-0.16989583333333336,-0.26055555555555554],[-0.18229166666666666,-0.27555555555555555],[-0.18229166666666666,-0.27555555555555555],[-0.19333333333333336,-0.27092592592592596],[-0.20968749999999994,-0.27259259259259255],[-0.21864583333333332,-0.2975925925925926],[-0.23989583333333328,-0.27981481481481485],[-0.23989583333333328,-0.27981481481481485],[-0.24281250000000001,-0.3098148148148148],[-0.25625,-0.32037037037037036],[-0.23729166666666662,-0.3277777777777778],[-0.23729166666666662,-0.3277777777777778],[-0.24322916666666666,-0.3394444444444445],[-0.22229166666666664,-0.37481481481481477],[-0.18979166666666672,-0.3538888888888889],[-0.14791666666666667,-0.35777777777777775],[-0.14791666666666667,-0.35777777777777775],[-0.10239583333333328,-0.3516666666666666],[-0.10239583333333328,-0.3516666666666666],[-0.065625,-0.3442592592592592],[-0.019375000000000024,-0.35259259259259257],[0.013854166666666619,-0.3055555555555556],[0.04697916666666669,-0.33240740740740743],[0.050312499999999954,-0.31722222222222224],[0.050312499999999954,-0.31722222222222224],[0.08229166666666667,-0.3103703703703704],[0.08479166666666677,-0.24648148148148152],[0.08145833333333338,-0.22296296296296292],[0.06958333333333329,-0.22407407407407406],[0.06958333333333329,-0.22407407407407406],[0.04916666666666671,-0.20185185185185187],[0.05260416666666667,-0.20203703703703707],[0.04645833333333336,-0.1633333333333333],[0.04593750000000003,-0.1655555555555555],[0.04854166666666669,-0.11740740740740736],[0.06083333333333331,-0.09240740740740737],[0.07614583333333323,-0.08296296296296299],[0.11416666666666657,-0.08388888888888892],[0.14458333333333329,-0.06351851851851854],[0.18947916666666675,-0.029814814814814856],[0.24229166666666657,-0.040740740740740744],[0.27447916666666666,-0.05851851851851856],[0.30343749999999997,-0.06259259259259262],[0.34260416666666677,-0.05888888888888891],[0.3757291666666667,-0.056666666666666705],[0.40864583333333326,-0.07092592592592595],[0.4328125,-0.0787037037037037],[0.4421875,-0.10111111111111115],[0.4502083333333334,-0.11981481481481479],[0.4617708333333333,-0.15648148148148147],[0.4502083333333334,-0.1633333333333333],[0.45114583333333325,-0.13555555555555554],[0.4428124999999999,-0.1772222222222222],[0.4267708333333334,-0.1962962962962963],[0.40677083333333336,-0.23203703703703707],[0.37781250000000005,-0.22407407407407406],[0.33260416666666665,-0.2103703703703704],[0.28489583333333335,-0.20611111111111113],[0.28489583333333335,-0.20611111111111113],[0.2542708333333332,-0.2155555555555555],[0.2022916666666667,-0.20407407407407405],[0.17062499999999994,-0.2212962962962963],[0.14593749999999991,-0.23722222222222225],[0.14291666666666672,-0.2207407407407407],[0.14291666666666672,-0.2207407407407407],[0.13614583333333338,-0.23185185185185184],[0.1109375,-0.1787037037037037],[0.1349999999999999,-0.2548148148148149],[0.1580208333333334,-0.3101851851851852],[0.1580208333333334,-0.3101851851851852],[0.16083333333333344,-0.3435185185185185],[0.17302083333333323,-0.36648148148148146],[0.19302083333333328,-0.42018518518518516],[0.21593749999999995,-0.4381481481481482],[0.23854166666666668,-0.5011111111111112],[0.23854166666666668,-0.5011111111111112],[0.2638541666666666,-0.5455555555555556],[0.2617708333333333,-0.5833333333333334],[0.2617708333333333,-0.5833333333333334],[0.2868750000000001,-0.6411111111111111],[0.27843749999999995,-0.6551851851851852],[0.27489583333333345,-0.654074074074074],[0.2830208333333334,-0.6631481481481482],[0.24802083333333325,-0.6366666666666667],[0.24020833333333325,-0.5931481481481482],[0.22000000000000006,-0.5353703703703704],[0.20177083333333337,-0.4848148148148148],[0.15270833333333325,-0.40981481481481485],[0.15593750000000003,-0.3520370370370371],[0.1540625000000001,-0.3188888888888889],[0.15229166666666671,-0.26592592592592595],[0.12802083333333342,-0.20277777777777778],[0.11791666666666671,-0.1514814814814815],[0.13489583333333333,-0.12370370370370372],[0.13958333333333334,-0.11092592592592589],[0.14364583333333342,-0.09796296296296292],[0.15364583333333334,-0.10629629629629625],[0.16635416666666672,-0.10740740740740741],[0.16124999999999995,-0.1609259259259259],[0.16124999999999995,-0.1609259259259259],[0.15489583333333337,-0.14888888888888885],[0.1490624999999999,-0.18518518518518517],[0.15875000000000009,-0.23777777777777773],[0.16843750000000005,-0.2903703703703704],[0.19114583333333332,-0.3442592592592592],[0.20447916666666663,-0.41351851851851856],[0.2007291666666667,-0.45611111111111113],[0.19343750000000004,-0.4559259259259259],[0.19729166666666675,-0.48351851851851857],[0.19729166666666675,-0.48351851851851857],[0.18635416666666677,-0.45629629629629626],[0.1742708333333333,-0.49833333333333335],[0.15916666666666662,-0.48351851851851857],[0.15593750000000003,-0.47555555555555556],[0.15822916666666675,-0.45999999999999996],[0.11989583333333324,-0.42537037037037034],[0.10010416666666658,-0.3472222222222222],[0.10010416666666658,-0.3472222222222222],[0.10166666666666657,-0.33907407407407414],[0.11208333333333324,-0.36203703703703705],[0.11208333333333324,-0.36203703703703705],[0.10114583333333324,-0.3522222222222222],[0.10604166666666662,-0.3398148148148148],[0.1099999999999999,-0.31074074074074076],[0.1099999999999999,-0.31074074074074076],[0.11197916666666667,-0.3122222222222223],[0.07781250000000005,-0.2977777777777778],[0.04479166666666667,-0.2783333333333334],[0.042604166666666644,-0.2742592592592593],[0.04645833333333336,-0.33425925925925926],[0.04645833333333336,-0.33425925925925926],[0.051770833333333384,-0.33611111111111114],[0.0203125,-0.32111111111111107],[0.0002083333333333807,-0.31351851851851853],[0.0002083333333333807,-0.31351851851851853],[-0.01885416666666669,-0.31296296296296294],[-0.07135416666666666,-0.3237037037037037],[-0.09614583333333329,-0.31296296296296294],[-0.11333333333333329,-0.30388888888888893],[-0.10552083333333329,-0.29870370370370375],[-0.1390625,-0.29981481481481476],[-0.14958333333333335,-0.3005555555555556],[-0.14958333333333335,-0.3005555555555556],[-0.18958333333333333,-0.31148148148148147],[-0.1632291666666667,-0.32314814814814813],[-0.13510416666666672,-0.36129629629629634],[-0.13510416666666672,-0.36129629629629634],[-0.10760416666666663,-0.4185185185185185],[-0.08260416666666662,-0.4112962962962963],[-0.0672916666666667,-0.4101851851851852],[-0.025520833333333333,-0.4294444444444444],[-0.015416666666666618,-0.45740740740740743],[0.012187500000000047,-0.4703703703703704],[0.017812500000000023,-0.4631481481481482],[0.05520833333333333,-0.46296296296296297],[0.02666666666666669,-0.42851851851851847],[-0.013333333333333286,-0.4016666666666666],[-0.05302083333333331,-0.35351851851851845],[-0.05635416666666669,-0.34685185185185186],[-0.06364583333333336,-0.34518518518518515],[-0.07374999999999995,-0.3244444444444444],[-0.06708333333333331,-0.29685185185185187],[-0.06041666666666667,-0.2933333333333333],[-0.05416666666666667,-0.27611111111111114],[-0.05541666666666671,-0.26740740740740737],[-0.04052083333333331,-0.2814814814814815],[-0.01416666666666669,-0.287962962962963],[-0.016770833333333356,-0.2959259259259259],[-0.01895833333333338,-0.30092592592592593],[-0.022812499999999975,-0.3020370370370371],[-0.02374999999999995,-0.27518518518518525],[-0.026979166666666644,-0.2609259259259259],[-0.04041666666666662,-0.26500000000000007],[-0.04041666666666662,-0.26500000000000007],[-0.05020833333333338,-0.27907407407407403],[-0.04114583333333333,-0.2874074074074074],[-0.04635416666666667,-0.2933333333333333],[-0.0515625,-0.2992592592592593],[-0.0515625,-0.2992592592592593],[-0.02822916666666669,-0.30833333333333335],[-0.015625,-0.334074074074074],[-0.0068750000000000235,-0.35833333333333334],[-0.0068750000000000235,-0.35833333333333334],[0.00625,-0.40481481481481485],[0.003854166666666714,-0.4412962962962963],[0.026979166666666644,-0.47018518518518515],[0.030624999999999975,-0.4874074074074074],[0.010416666666666666,-0.4874074074074074],[0.013229166666666714,-0.49740740740740746],[0.022187499999999954,-0.48759259259259263],[0.030624999999999975,-0.487962962962963],[0.05010416666666669,-0.4740740740740741],[0.07802083333333343,-0.4662962962962963],[0.07802083333333343,-0.4662962962962963],[0.08322916666666676,-0.4644444444444445],[0.08322916666666676,-0.4644444444444445],[0.07145833333333323,-0.46222222222222226],[0.07145833333333323,-0.46222222222222226],[0.08385416666666666,-0.45796296296296296],[0.07718749999999991,-0.4631481481481482],[0.08250000000000005,-0.4655555555555555],[0.08250000000000005,-0.4655555555555555],[0.07291666666666667,-0.45999999999999996],[0.07291666666666667,-0.45999999999999996],[0.08052083333333329,-0.4946296296296297],[0.06614583333333333,-0.4842592592592593],[0.06614583333333333,-0.4842592592592593],[0.06343749999999998,-0.53],[0.05666666666666664,-0.571111111111111],[0.05666666666666664,-0.571111111111111],[0.03864583333333336,-0.5846296296296296],[0.027708333333333356,-0.5833333333333334],[0.034791666666666644,-0.5861111111111111],[0.025729166666666713,-0.582962962962963],[0.025729166666666713,-0.582962962962963],[0.00916666666666662,-0.5946296296296296],[0.022187499999999954,-0.6331481481481481],[-0.013854166666666619,-0.6403703703703704],[-0.0026041666666666665,-0.6812962962962963],[-0.004166666666666667,-0.6783333333333333],[-0.004166666666666667,-0.6783333333333333],[-0.03802083333333333,-0.6727777777777778],[-0.04906250000000002,-0.6811111111111111],[-0.04916666666666671,-0.7088888888888889],[-0.04916666666666671,-0.7088888888888889],[-0.10270833333333336,-0.6942592592592592],[-0.09927083333333328,-0.7124074074074074],[-0.041979166666666616,-0.7233333333333334],[-0.01729166666666669,-0.6881481481481482],[0.042499999999999954,-0.6805555555555556],[0.07791666666666662,-0.6694444444444444],[0.07791666666666662,-0.6694444444444444],[0.1304166666666667,-0.6688888888888889],[0.1304166666666667,-0.6688888888888889],[0.20843749999999991,-0.6548148148148148],[0.28635416666666674,-0.6709259259259259],[0.28635416666666674,-0.6709259259259259],[0.3578125,-0.6785185185185185],[0.3578125,-0.6785185185185185],[0.4552083333333333,-0.7277777777777777],[0.4552083333333333,-0.7277777777777777],[0.5055208333333333,-0.7131481481481482],[0.5160416666666667,-0.6977777777777778],[0.5361458333333334,-0.7162962962962963],[0.5456249999999999,-0.7233333333333334],[0.5711458333333332,-0.7246296296296296],[0.5681250000000001,-0.6846296296296296],[0.5784374999999999,-0.662962962962963],[0.5811458333333335,-0.6211111111111111],[0.5817708333333333,-0.5885185185185186],[0.5977083333333333,-0.5881481481481482],[0.6318749999999999,-0.6111111111111112],[0.6567708333333333,-0.6438888888888888],[0.6945833333333333,-0.64],[0.6945833333333333,-0.64],[0.7129166666666668,-0.6198148148148148],[0.7234375,-0.6146296296296296],[0.7467708333333334,-0.6559259259259259],[0.7551041666666668,-0.6872222222222223],[0.7607291666666666,-0.7088888888888889],[0.7837500000000001,-0.7448148148148148],[0.7745833333333333,-0.7261111111111112],[0.7724999999999999,-0.7116666666666667],[0.7623958333333334,-0.6942592592592592],[0.7384375000000001,-0.6872222222222223],[0.7352083333333332,-0.6912962962962963],[0.6920833333333334,-0.6646296296296296],[0.6476041666666668,-0.6222222222222222],[0.5407291666666666,-0.5383333333333333],[0.5407291666666666,-0.5383333333333333],[0.4586458333333333,-0.4764814814814815],[0.3453125,-0.39296296296296296],[0.22208333333333338,-0.3244444444444444],[0.11697916666666662,-0.2607407407407408],[0.009895833333333333,-0.1853703703703704],[-0.08656250000000003,-0.11259259259259262],[-0.1935416666666666,-0.05425925925925928],[-0.2803125,0.0031481481481482323],[-0.3523958333333333,0.05314814814814823],[-0.36124999999999996,0.054074074074074156],[-0.38645833333333335,0.06351851851851843],[-0.368125,0.08722222222222227],[-0.3407291666666667,0.06388888888888888],[-0.32843749999999994,0.026111111111111154],[-0.2905208333333333,0.000925925925925926],[-0.28020833333333334,-0.047037037037036995],[-0.24447916666666672,-0.08462962962962961],[-0.2079166666666667,-0.14481481481481479],[-0.1672916666666667,-0.20703703703703705],[-0.13208333333333327,-0.2657407407407407],[-0.08687499999999998,-0.3024074074074074],[-0.08791666666666664,-0.3331481481481481],[-0.09156249999999998,-0.3109259259259259],[-0.08854166666666667,-0.2948148148148148],[-0.09156249999999998,-0.33851851851851855],[-0.0702083333333333,-0.37240740740740746],[-0.09270833333333334,-0.3501851851851852],[-0.07677083333333339,-0.3616666666666667],[-0.08781249999999995,-0.3446296296296297],[-0.08781249999999995,-0.3446296296296297],[-0.09208333333333331,-0.3440740740740741],[-0.09750000000000002,-0.39814814814814814],[-0.08458333333333339,-0.4196296296296297],[-0.08197916666666671,-0.43148148148148147],[-0.0890625,-0.4179629629629629],[-0.10083333333333329,-0.40666666666666673],[-0.11260416666666669,-0.39537037037037037],[-0.11541666666666663,-0.4287037037037037],[-0.1492708333333333,-0.40777777777777774],[-0.190625,-0.37777777777777777],[-0.2341666666666666,-0.33499999999999996],[-0.26291666666666663,-0.2655555555555555],[-0.3081249999999999,-0.267037037037037],[-0.34177083333333336,-0.2727777777777778],[-0.3680208333333333,-0.2881481481481482],[-0.3680208333333333,-0.2881481481481482],[-0.40031249999999996,-0.2577777777777778],[-0.4467708333333333,-0.2183333333333333],[-0.47385416666666663,-0.175],[-0.49083333333333334,-0.15833333333333333],[-0.49375,-0.18759259259259262],[-0.4978125,-0.19222222222222224],[-0.4978125,-0.19222222222222224],[-0.5094791666666667,-0.1896296296296296],[-0.5094791666666667,-0.1896296296296296],[-0.4844791666666667,-0.21629629629629632],[-0.45031249999999995,-0.2588888888888889],[-0.4226041666666667,-0.3037037037037037],[-0.38708333333333333,-0.3483333333333334],[-0.34177083333333336,-0.4074074074074074],[-0.29583333333333334,-0.4777777777777778],[-0.2672916666666667,-0.522037037037037],[-0.23104166666666662,-0.5661111111111111],[-0.23104166666666662,-0.5661111111111111],[-0.184375,-0.6035185185185185]]","[[-0.4397916666666667,-0.5714814814814815,0.0003000000119186552],[-0.4397916666666667,-0.5714814814814815,0.055200000017876505],[-0.4392708333333334,-0.5987037037037037,0.07209999999403749],[-0.40947916666666667,-0.6562962962962963,0.08880000001192911],[-0.3848958333333333,-0.6875925925925926,0.10550000000000637],[-0.38739583333333333,-0.6640740740740741,0.12570000001788628],[-0.3740625,-0.6620370370370371,0.14259999999404727],[-0.3740625,-0.6620370370370371,0.15550000000000352],[-0.3680208333333333,-0.6466666666666666,0.17220000001788094],[-0.3657291666666667,-0.6418518518518519,0.19299999999999784],[-0.3657291666666667,-0.6418518518518519,0.20550000000000068],[-0.3592708333333333,-0.5911111111111111,0.2222000000178781],[-0.34916666666666674,-0.5577777777777777,0.2388000000119206],[-0.328125,-0.525,0.2554000000059631],[-0.31135416666666665,-0.4607407407407408,0.27559999999404283],[-0.29583333333333334,-0.41703703703703704,0.29399999999999693],[-0.2742708333333333,-0.3531481481481481,0.3099000000059675],[-0.2742708333333333,-0.3531481481481481,0.3223000000119214],[-0.23875000000000005,-0.2962962962962963,0.33899999999999864],[-0.20645833333333338,-0.24759259259259256,0.36090000000596945],[-0.20645833333333338,-0.24759259259259256,0.3724000000059675],[-0.17708333333333334,-0.18203703703703705,0.3915999999940425],[-0.14375,-0.07537037037037035,0.4164999999999992],[-0.14375,-0.07537037037037035,0.42430000001192525],[-0.1421875,-0.04981481481481477,0.43880000001192343],[-0.11375000000000005,-0.001851851851851852,0.4554000000059659],[-0.1172916666666667,0.026851851851851852,0.4720999999940432],[-0.09572916666666664,0.044999999999999915,0.4888000000119206],[-0.08458333333333339,0.0742592592592593,0.5054999999999978],[-0.07708333333333334,0.09055555555555551,0.5253000000119243],[-0.06916666666666664,0.10277777777777777,0.5407000000178783],[-0.06916666666666664,0.10277777777777777,0.555499999999995],[-0.07625000000000005,0.130925925925926,0.5722000000178866],[-0.07364583333333338,0.15722222222222218,0.5888000000119291],[-0.07124999999999998,0.152962962962963,0.6055999999940411],[-0.050312499999999954,0.17851851851851847,0.6247000000178815],[-0.050937499999999976,0.1794444444444444,0.6400999999940353],[-0.027187500000000024,0.20629629629629626,0.6555000000000035],[-0.02166666666666662,0.23166666666666672,0.6722000000178809],[-0.009791666666666643,0.262037037037037,0.6889000000059582],[0.007395833333333357,0.2718518518518518,0.7054000000059659],[-0.01593749999999995,0.25333333333333324,0.7228000000119295],[0.013125000000000024,0.24870370370370362,0.7402000000178788],[-0.01229166666666662,0.22685185185185186,0.7567000000178865],[-0.03166666666666664,0.2161111111111112,0.7753000000119243],[-0.04552083333333338,0.21518518518518526,0.7900000000000063],[-0.04552083333333338,0.21518518518518526,0.805499999999995],[-0.04364583333333331,0.20277777777777778,0.8220999999940375],[-0.06510416666666667,0.17296296296296293,0.8388000000119291],[-0.058124999999999954,0.13703703703703704,0.8557000000178903],[-0.08666666666666671,0.12611111111111115,0.8723000000119185],[-0.09322916666666667,0.10648148148148148,0.8888000000119263],[-0.09520833333333331,0.12444444444444452,0.9093000000119247],[-0.09520833333333331,0.12444444444444452,0.922099999994046],[-0.12468750000000005,0.14666666666666675,0.9388000000119234],[-0.08010416666666664,0.1633333333333334,0.9555000000000007],[-0.041562499999999974,0.16888888888888898,0.9720999999940432],[0.001145833333333357,0.16074074074074066,0.9889000000059696],[0.07854166666666676,0.1346296296296297,1.0054999999999978],[0.13927083333333337,0.12074074074074083,1.0253000000119243],[0.19666666666666663,0.11722222222222214,1.0390999999940362],[0.28583333333333344,0.09981481481481477,1.055499999999995],[0.3541666666666667,0.1051851851851851,1.0722000000178866],[0.4540625000000001,0.09000000000000004,1.0888000000119291],[0.5470833333333334,0.02166666666666675,1.1055000000000064],[0.6053124999999999,-0.04296296296296305,1.1238000000119257],[0.6053124999999999,-0.04296296296296305,1.1388000000119263],[0.6526041666666667,-0.08796296296296297,1.1555000000000035],[0.6989583333333333,-0.12000000000000002,1.176800000011923],[0.6952083333333334,-0.11277777777777774,1.192200000017877],[0.7101041666666668,-0.10740740740740741,1.2060999999940378],[0.7101041666666668,-0.10740740740740741,1.2220999999940432],[0.7269791666666667,-0.11092592592592589,1.2388000000119206],[0.7273958333333332,-0.122037037037037,1.2600000000000051],[0.7243750000000001,-0.14814814814814814,1.2753000000119243],[0.7345833333333334,-0.1757407407407407,1.2898000000119225],[0.7452083333333335,-0.17537037037037034,1.3054000000059602],[0.7417708333333333,-0.16500000000000004,1.324200000017882],[0.7388541666666666,-0.15111111111111114,1.3388000000119291],[0.7363541666666668,-0.17296296296296293,1.3555999999940411],[0.714375,-0.19074074074074074,1.3723000000119185],[0.7147916666666667,-0.23037037037037034,1.3888000000119263],[0.6849999999999999,-0.2631481481481482,1.4055000000000035],[0.6634375000000001,-0.28703703703703703,1.4224000000059647],[0.6364583333333333,-0.29666666666666663,1.4387000000178887],[0.5941666666666667,-0.3122222222222223,1.4555999999940354],[0.5941666666666667,-0.3122222222222223,1.4720999999940432],[0.5190625,-0.307962962962963,1.4888000000119206],[0.4340625000000001,-0.29000000000000004,1.5109999999999957],[0.4340625000000001,-0.29000000000000004,1.5223000000119242],[0.35947916666666657,-0.29518518518518516,1.5388000000119177],[0.29583333333333334,-0.28185185185185185,1.555499999999995],[0.22760416666666666,-0.2824074074074074,1.5720999999940375],[0.15416666666666667,-0.2707407407407407,1.5888000000119291],[0.07322916666666662,-0.24407407407407408,1.6055000000000064],[0.00625,-0.22462962962962965,1.6247000000178815],[0.00625,-0.22462962962962965,1.6388000000119263],[-0.059375,-0.21240740740740738,1.6554000000059688],[-0.12437499999999997,-0.17925925925925928,1.672099999994046],[-0.16072916666666662,-0.1648148148148148,1.6888000000119234],[-0.17322916666666663,-0.1624074074074074,1.7055000000000007],[-0.1703125,-0.1594444444444445,1.7220999999940432],[-0.1866666666666667,-0.1403703703703704,1.7390000000000114],[-0.14281250000000004,-0.13629629629629633,1.7554999999999907],[-0.09541666666666669,-0.1161111111111111,1.7720999999940332],[-0.03239583333333336,-0.11092592592592589,1.7889000000059596],[0.00458333333333331,-0.0727777777777778,1.805500000000002],[0.06020833333333329,-0.07518518518518523,1.8225999999940328],[0.11166666666666672,-0.08462962962962961,1.8388000000119362],[0.17062499999999994,-0.10574074074074079,1.8574000000059598],[0.2397916666666667,-0.10481481481481486,1.8744999999999905],[0.30916666666666665,-0.1492592592592593,1.8889999999999887],[0.34562499999999996,-0.17333333333333337,1.9088000000119294],[0.38312499999999994,-0.19888888888888884,1.9265999999940462],[0.3915625000000001,-0.1935185185185185,1.9418000000119164],[0.3870833333333332,-0.21444444444444447,1.9572000000178846],[0.3870833333333332,-0.21444444444444447,1.972200000017871],[0.3759375000000001,-0.2227777777777778,1.9888000000119135],[0.38270833333333343,-0.26722222222222225,2.0054999999999907],[0.3633333333333333,-0.28592592592592586,2.0220999999940332],[0.37218749999999995,-0.32703703703703707,2.0399000000059644],[0.37218749999999995,-0.32703703703703707,2.055500000000002],[0.32145833333333323,-0.3322222222222222,2.0720999999940446],[0.3037499999999999,-0.3435185185185185,2.088800000011936],[0.30229166666666674,-0.28851851851851856,2.1055000000000135],[0.25791666666666657,-0.27740740740740744,2.1244999999999905],[0.25791666666666657,-0.27740740740740744,2.138800000011919],[0.228125,-0.2577777777777778,2.1554999999999964],[0.23572916666666663,-0.2922222222222222,2.1730999999940437],[0.24500000000000005,-0.3037037037037037,2.192300000011933],[0.21604166666666677,-0.267037037037037,2.2088000000119123],[0.21885416666666657,-0.2625925925925926,2.22620000001789],[0.1728125000000001,-0.23166666666666672,2.240900000005958],[0.1915625000000001,-0.24092592592592596,2.2567000000178794],[0.14802083333333324,-0.21648148148148144,2.277800000011929],[0.14802083333333324,-0.21648148148148144,2.2892000000178783],[0.12635416666666663,-0.2161111111111111,2.305599999994037],[0.11197916666666667,-0.16129629629629633,2.324900000005961],[0.11458333333333333,-0.1646296296296296,2.34430000001192],[0.08145833333333338,-0.09351851851851851,2.359700000017888],[0.06749999999999995,-0.08111111111111113,2.374800000011909],[0.06749999999999995,-0.08111111111111113,2.388800000011919],[0.04104166666666664,-0.034074074074074034,2.4054999999999964],[0.03229166666666667,-0.00722222222222218,2.422900000005974],[0.05447916666666662,0.01722222222222214,2.4418000000119164],[0.05406249999999998,0.05092592592592592,2.4587000000178776],[0.051041666666666666,0.11999999999999991,2.474700000017897],[0.04666666666666662,0.1287037037037037,2.4914000000059744],[0.03083333333333336,0.12907407407407415,2.5065999999940303],[0.03083333333333336,0.12907407407407415,2.522300000011917],[0.018124999999999978,0.13277777777777786,2.538800000011925],[0.0005208333333333333,0.14444444444444443,2.5554000000059673],[-0.006979166666666714,0.14462962962962966,2.5722000000178937],[0.006458333333333381,0.12537037037037047,2.588800000011936],[0.00604166666666662,0.14981481481481476,2.609500000000004],[0.0007291666666667141,0.1477777777777777,2.6260999999940466],[-0.03291666666666669,0.16518518518518527,2.6423000000119217],[-0.03791666666666664,0.152962962962963,2.6578000000119246],[-0.05583333333333336,0.16722222222222213,2.676599999994046],[-0.06083333333333331,0.16870370370370374,2.6925999999940373],[-0.06916666666666664,0.20981481481481473,2.7094999999999985],[-0.04781249999999997,0.2007407407407407,2.7264000000059596],[-0.04583333333333333,0.22537037037037044,2.741800000011928],[-0.0578125,0.27092592592592585,2.7560000000000073],[-0.04812500000000005,0.26296296296296295,2.7753000000119314],[-0.0578125,0.290925925925926,2.789999999999999],[-0.036249999999999956,0.28703703703703703,2.8060999999940535],[-0.022291666666666644,0.2912962962962962,2.824400000005973],[0.005416666666666714,0.2687037037037037,2.8398000000119126],[0.01114583333333338,0.2683333333333333,2.858900000005953],[0.011041666666666691,0.22759259259259254,2.8742000000178862],[-0.0046875,0.25703703703703695,2.889099999994052],[-0.012187500000000047,0.22907407407407415,2.9054000000059617],[0.00927083333333331,0.20777777777777787,2.9240999999940485],[0.011458333333333333,0.1816666666666667,2.9420000000000144],[0.0015625,0.20259259259259255,2.9588000000119123],[-0.008854166666666666,0.19222222222222213,2.9758000000119367],[-0.03218749999999997,0.20388888888888893,2.9929000000059673],[-0.04697916666666669,0.2116666666666666,3.0120000000000076],[-0.04697916666666669,0.2116666666666666,3.0220999999940332],[-0.0359375,0.2116666666666666,3.03870000001789],[0.005208333333333333,0.19518518518518516,3.055500000000002],[0.009895833333333333,0.17629629629629637,3.0720999999940446],[0.013645833333333357,0.1705555555555556,3.088800000011936],[-0.036354166666666646,0.16722222222222213,3.1055000000000135],[-0.06906249999999996,0.17314814814814813,3.124300000011921],[-0.06906249999999996,0.17314814814814813,3.1387000000178844],[-0.09281250000000002,0.13944444444444437,3.1554000000059617],[-0.10291666666666661,0.13944444444444437,3.172099999994039],[-0.06656249999999998,0.09981481481481477,3.1888000000119305],[-0.09208333333333331,0.10018518518518522,3.2065000000000126],[-0.1125,0.10333333333333325,3.2264000000059596],[-0.18562500000000004,0.14129629629629623,3.2410999999940557],[-0.19624999999999998,0.13499999999999995,3.2567000000178794],[-0.21760416666666665,0.15999999999999995,3.2753000000119314],[-0.171875,0.15018518518518523,3.291200000017888],[-0.171875,0.15018518518518523,3.310400000005963],[-0.15104166666666666,0.19222222222222213,3.322499999999998],[-0.12468750000000005,0.20259259259259255,3.340400000005964],[-0.10604166666666662,0.1983333333333334,3.359000000000016],[-0.12572916666666673,0.21500000000000005,3.3744999999999905],[-0.12572916666666673,0.21500000000000005,3.388800000011919],[-0.08020833333333334,0.19944444444444454,3.4054000000059617],[-0.043958333333333384,0.2116666666666666,3.424400000005967],[-0.010625000000000048,0.22981481481481486,3.441900000005951],[-0.001145833333333357,0.2411111111111112,3.4565999999940473],[0.027083333333333334,0.23111111111111102,3.4725000000000037],[0.024687500000000046,0.27814814814814826,3.489900000005953],[0.034687499999999954,0.25833333333333336,3.5105999999940494],[0.034687499999999954,0.25833333333333336,3.5222000000178824],[0.04781249999999997,0.31296296296296294,3.5389999999999944],[0.06062500000000005,0.30055555555555546,3.5590999999940394],[0.0515625,0.33129629629629626,3.5745999999940423],[0.034895833333333334,0.33833333333333343,3.5890999999940405],[0.0068750000000000235,0.35,3.6090999999940507],[0.013854166666666619,0.31296296296296294,3.625800000011914],[0.024687500000000046,0.2992592592592593,3.641500000000015],[0.03968750000000002,0.26796296296296307,3.6602000000178876],[0.03968750000000002,0.26796296296296307,3.672300000011923],[0.050729166666666714,0.21870370370370373,3.689099999994035],[-0.0020833333333333333,0.2579629629629629,3.7070999999940355],[-0.05947916666666669,0.22759259259259254,3.7285999999940387],[-0.05947916666666669,0.22759259259259254,3.7389000000059767],[-0.06697916666666662,0.19000000000000003,3.7557000000178746],[-0.05489583333333338,0.14666666666666675,3.7752000000178967],[-0.05489583333333338,0.14666666666666675,3.7937000000178855],[-0.050520833333333334,0.08314814814814811,3.805599999994037],[-0.01416666666666669,-0.009444444444444486,3.8235999999940375],[-0.02000000000000005,-0.05388888888888893,3.844099999994036],[-0.0125,-0.10851851851851856,3.8599000000059576],[-0.012187500000000047,-0.14425925925925923,3.8749000000059723],[-0.012187500000000047,-0.14425925925925923,3.8889999999999887],[-0.01552083333333331,-0.1705555555555556,3.9085999999940455],[0.0296875,-0.2257407407407407,3.9272000000178835],[0.07374999999999995,-0.2657407407407407,3.9420000000000144],[0.0787499999999999,-0.24740740740740744,3.9584999999999937],[0.08510416666666672,-0.24870370370370373,3.974599999994048],[0.0900000000000001,-0.23777777777777773,3.989099999994046],[0.08989583333333329,-0.22759259259259254,4.005400000005956],[0.11385416666666662,-0.2111111111111111,4.022099999994033],[0.12041666666666657,-0.19814814814814816,4.03870000001789],[0.1146874999999999,-0.13648148148148145,4.055400000005967],[0.11447916666666676,-0.1255555555555556,4.07430000001191],[0.096875,-0.0948148148148148,4.08920000001789],[0.11354166666666667,-0.12537037037037035,4.109300000011935],[0.09489583333333323,-0.07777777777777778,4.12559999999403],[0.09447916666666671,-0.07629629629629628,4.141400000005952],[0.09968750000000005,-0.04592592592592584,4.156400000005966],[0.11500000000000009,-0.0735185185185185,4.176900000005965],[0.11500000000000009,-0.0735185185185185,4.196499999999993],[0.0834374999999999,-0.04722222222222222,4.214700000017878],[0.0834374999999999,-0.04722222222222222,4.223700000017892],[0.0740624999999999,-0.03925925925925934,4.2388000000119135],[0.06864583333333343,-0.06148148148148146,4.255400000005956],[0.06854166666666663,-0.07296296296296292,4.2750999999940476],[0.06239583333333331,-0.06444444444444447,4.291400000005957],[0.06239583333333331,-0.06444444444444447,4.305400000005967],[0.07583333333333328,-0.05870370370370368,4.322099999994045],[0.07541666666666676,-0.08203703703703706,4.338900000005971],[0.08520833333333329,-0.11666666666666667,4.35540000000595],[0.06197916666666667,-0.1368518518518518,4.3720999999940275],[0.06145833333333333,-0.11203703703703703,4.388700000017884],[0.075,-0.1962962962962963,4.405400000005962],[0.075,-0.1962962962962963,4.426599999994046],[0.053125,-0.24462962962962967,4.438700000017896],[0.04645833333333336,-0.3059259259259259,4.458300000011924],[0.04645833333333336,-0.3059259259259259,4.47209999999405],[0.035416666666666666,-0.34518518518518515,4.4888000000119135],[0.04760416666666671,-0.43333333333333335,4.505400000005956],[0.01583333333333338,-0.45388888888888895,4.5250999999940476],[0.017604166666666643,-0.5112962962962964,4.53870000001789],[0.005312500000000024,-0.5264814814814816,4.555400000005967],[0.029791666666666692,-0.5583333333333333,4.572099999994045],[-0.013333333333333286,-0.5859259259259259,4.588700000017873],[-0.010208333333333286,-0.5798148148148149,4.60540000000595],[-0.0067708333333333336,-0.5679629629629629,4.621999999999993],[-0.006666666666666643,-0.5609259259259259,4.638700000017884],[-0.018333333333333358,-0.5487037037037037,4.655499999999996],[-0.03187500000000002,-0.5425925925925926,4.672099999994039],[-0.06927083333333334,-0.515,4.688900000005965],[-0.10968749999999995,-0.487962962962963,4.705400000005973],[-0.16354166666666667,-0.46351851851851855,4.72209999999405],[-0.22583333333333327,-0.43629629629629635,4.738700000017879],[-0.2748958333333333,-0.3901851851851852,4.760599999994049],[-0.2716666666666666,-0.3781481481481481,4.775200000017897],[-0.2635416666666667,-0.3675925925925926,4.78890000000596],[-0.25333333333333335,-0.3698148148148148,4.809300000011923],[-0.23604166666666668,-0.3824074074074074,4.825400000005949],[-0.20666666666666664,-0.3977777777777778,4.84340000000595],[-0.20666666666666664,-0.3977777777777778,4.85540000000595],[-0.16447916666666665,-0.4183333333333333,4.872200000017877],[-0.12062499999999995,-0.4398148148148148,4.892400000005956],[-0.051041666666666666,-0.482962962962963,4.908800000011929],[-0.051041666666666666,-0.482962962962963,4.922099999994039],[0.01885416666666669,-0.5209259259259259,4.938700000017896],[0.08687500000000009,-0.5766666666666667,4.955400000005973],[0.09239583333333339,-0.5881481481481482,4.97209999999405],[0.11239583333333343,-0.6038888888888889,4.988700000017879],[0.1252083333333334,-0.5844444444444444,5.005400000005956],[0.1252083333333334,-0.5844444444444444,5.022099999994033],[0.14031250000000003,-0.5644444444444444,5.03870000001789],[0.13802083333333334,-0.5392592592592592,5.055500000000002],[0.15833333333333333,-0.5625925925925926,5.072099999994045],[0.18802083333333333,-0.5407407407407407,5.088800000011936],[0.20177083333333337,-0.5285185185185185,5.110900000005962],[0.20177083333333337,-0.5285185185185185,5.122200000017877],[0.2243750000000001,-0.517037037037037,5.138900000005954],[0.23760416666666656,-0.4559259259259259,5.155599999994031],[0.28322916666666675,-0.4368518518518518,5.173700000017881],[0.2747916666666666,-0.41870370370370374,5.192099999994049],[0.2955208333333334,-0.4542592592592593,5.20620000001788],[0.31395833333333345,-0.4903703703703704,5.2220000000000155],[0.34406249999999994,-0.5327777777777778,5.24040000000597],[0.3476041666666667,-0.5024074074074074,5.255400000005956],[0.3607291666666666,-0.5390740740740741,5.275000000000013],[0.33468749999999997,-0.5203703703703704,5.291800000011911],[0.33468749999999997,-0.5203703703703704,5.305500000000002],[0.31145833333333334,-0.5183333333333333,5.3223000000119285],[0.30791666666666656,-0.5505555555555556,5.338800000011936],[0.259375,-0.5435185185185185,5.358400000005965],[0.2669791666666666,-0.5507407407407408,5.37370000001787],[0.2763541666666666,-0.5255555555555556,5.388800000011919],[0.2859375,-0.5007407407407407,5.405400000005962],[0.2769791666666668,-0.4831481481481481,5.422099999994039],[0.28062500000000007,-0.5124074074074074,5.438700000017896],[0.2946875000000001,-0.5029629629629631,5.455400000005973],[0.31583333333333335,-0.5092592592592593,5.47209999999405],[0.3385416666666667,-0.5237037037037037,5.488700000017879],[0.36052083333333323,-0.5207407407407407,5.505400000005956],[0.39906249999999993,-0.5448148148148148,5.524000000000008],[0.4122916666666666,-0.5461111111111111,5.538999999999994],[0.4055208333333333,-0.55,5.555500000000002],[0.35989583333333336,-0.5251851851851852,5.572099999994045],[0.33177083333333335,-0.5085185185185186,5.588800000011936],[0.2920833333333334,-0.4625925925925926,5.60540000000595],[0.22291666666666668,-0.4087037037037037,5.621999999999993],[0.16760416666666675,-0.38129629629629624,5.638700000017884],[0.13010416666666677,-0.35907407407407405,5.655400000005962],[0.0709374999999999,-0.3212962962962963,5.672000000000004],[0.03177083333333333,-0.29203703703703704,5.688700000017896],[0.0013541666666666192,-0.2661111111111111,5.705400000005973],[-0.0453125,-0.24592592592592594,5.7220000000000155],[-0.06270833333333338,-0.227962962962963,5.7388000000119135],[-0.08406250000000005,-0.1955555555555556,5.755400000005956],[-0.08552083333333335,-0.18907407407407412,5.7719999999999985],[-0.07885416666666671,-0.22537037037037036,5.789099999994029],[-0.06375000000000004,-0.24351851851851852,5.805400000005967],[-0.06177083333333329,-0.22611111111111115,5.824999999999996],[-0.04208333333333331,-0.27925925925925926,5.8390999999940405],[-0.04093749999999995,-0.3127777777777777,5.8555000000000135],[-0.030104166666666644,-0.3181481481481482,5.8732000000178815],[-0.005416666666666714,-0.3301851851851852,5.888700000017884],[0.028750000000000022,-0.37092592592592594,5.905400000005962],[0.07270833333333329,-0.4103703703703704,5.922200000017888],[0.09239583333333339,-0.41814814814814816,5.938700000017896],[0.10854166666666672,-0.4072222222222222,5.955500000000008],[0.109375,-0.38055555555555554,5.974500000000013],[0.12999999999999995,-0.4316666666666667,5.988900000005977],[0.10760416666666663,-0.3937037037037037,6.005400000005956],[0.10072916666666672,-0.37518518518518523,6.024099999994043],[0.06864583333333343,-0.3653703703703704,6.03870000001789],[0.03812500000000003,-0.3635185185185185,6.055400000005967],[0.03812500000000003,-0.3635185185185185,6.07200000000001],[0.00927083333333331,-0.35259259259259257,6.088700000017873],[-0.00625,-0.36740740740740735,6.109599999994039],[-0.04614583333333329,-0.3638888888888889,6.125499999999995],[-0.08156249999999995,-0.3761111111111112,6.141400000005952],[-0.09302083333333329,-0.4168518518518519,6.156700000017885],[-0.12885416666666671,-0.37296296296296294,6.172000000000004],[-0.14416666666666664,-0.3642592592592592,6.192099999994049],[-0.17458333333333337,-0.35722222222222216,6.2085999999940285],[-0.19729166666666664,-0.3562962962962963,6.22640000000596],[-0.21656249999999996,-0.3375925925925926,6.2409999999999926],[-0.22093750000000004,-0.34388888888888886,6.255900000005973],[-0.26677083333333335,-0.2772222222222222,6.275400000005966],[-0.24489583333333337,-0.30407407407407405,6.290800000011934],[-0.24489583333333337,-0.30407407407407405,6.305400000005967],[-0.22447916666666667,-0.29444444444444445,6.32200000000001],[-0.21312500000000004,-0.26944444444444443,6.338700000017873],[-0.2061458333333333,-0.25018518518518523,6.3553000000119155],[-0.18156249999999996,-0.2675925925925926,6.373500000000014],[-0.16843750000000005,-0.2511111111111112,6.388700000017884],[-0.13895833333333332,-0.2638888888888889,6.405400000005962],[-0.1328125,-0.2494444444444444,6.422099999994039],[-0.12843749999999995,-0.23962962962962958,6.438700000017896],[-0.13322916666666665,-0.24407407407407408,6.455400000005973],[-0.14135416666666673,-0.23944444444444446,6.4720000000000155],[-0.15958333333333338,-0.2227777777777778,6.488700000017879],[-0.17677083333333338,-0.2074074074074074,6.505400000005956],[-0.20041666666666663,-0.22148148148148153,6.525999999999989],[-0.22291666666666668,-0.21277777777777773,6.541099999994039],[-0.22291666666666668,-0.21277777777777773,6.555400000005967],[-0.23999999999999996,-0.207962962962963,6.572099999994045],[-0.26510416666666664,-0.20611111111111113,6.588700000017873],[-0.28104166666666663,-0.21370370370370367,6.60540000000595],[-0.29791666666666666,-0.21444444444444447,6.625300000011926],[-0.2704166666666667,-0.22333333333333338,6.641099999994033],[-0.26677083333333335,-0.19870370370370372,6.656400000005966],[-0.2234375,-0.2168518518518519,6.672000000000004],[-0.16687500000000005,-0.24500000000000002,6.688700000017896],[-0.121875,-0.2448148148148148,6.706400000005949],[-0.07635416666666663,-0.23333333333333334,6.724800000011932],[-0.013125000000000024,-0.2477777777777778,6.740099999994051],[0.049583333333333354,-0.2433333333333333,6.755400000005956],[0.11302083333333333,-0.24592592592592594,6.772099999994033],[0.16520833333333323,-0.21888888888888886,6.788800000011925],[0.21583333333333338,-0.252962962962963,6.805400000005967],[0.2698958333333332,-0.2783333333333334,6.823800000011921],[0.2921875,-0.2916666666666667,6.840099999994045],[0.2913541666666667,-0.2611111111111111,6.859000000000016],[0.31302083333333336,-0.25685185185185183,6.874200000017886],[0.2894791666666668,-0.21851851851851853,6.888800000011919],[0.25510416666666674,-0.1492592592592593,6.90570000001788],[0.20125000000000004,-0.0742592592592593,6.922000000000004],[0.14677083333333343,-0.00722222222222218,6.9415999999940325],[0.15572916666666667,-0.03129629629629625,6.957300000011919],[0.13947916666666677,-0.024814814814814772,6.972400000005969],[0.11791666666666671,0.00851851851851856,6.993099999994037],[0.11791666666666671,0.00851851851851856,7.005400000005956],[0.07947916666666661,0.07981481481481485,7.025599999994036],[0.030624999999999975,0.09277777777777782,7.041200000017888],[0.030624999999999975,0.09277777777777782,7.055500000000002],[-0.007083333333333286,0.09722222222222222,7.07200000000001],[-0.008958333333333356,0.05925925925925926,7.093300000011915],[-0.008958333333333356,0.05925925925925926,7.10540000000595],[0.005729166666666666,-0.011111111111111112,7.122300000011911],[0.0390625,-0.12833333333333335,7.138800000011919],[0.07802083333333343,-0.2442592592592592,7.157999999999994],[0.033749999999999974,-0.252962962962963,7.172300000011923],[0.004375000000000047,-0.25629629629629624,7.1888000000119305],[-0.01885416666666669,-0.2551851851851852,7.206599999994047],[-0.01885416666666669,-0.2551851851851852,7.2220000000000155],[-0.008333333333333333,-0.32703703703703707,7.238700000017879],[0.013437499999999976,-0.38370370370370366,7.255400000005956],[0.01427083333333338,-0.4172222222222222,7.2719999999999985],[0.016562499999999977,-0.45129629629629625,7.28890000000596],[0.0010416666666666667,-0.4668518518518519,7.305400000005967],[-0.008645833333333287,-0.42407407407407405,7.323000000000015],[-0.0036458333333333334,-0.4155555555555555,7.338700000017873],[-0.008541666666666715,-0.3816666666666667,7.35740000000596],[0.005937500000000048,-0.39648148148148155,7.374000000000002],[0.0015625,-0.4081481481481481,7.389099999994052],[-0.007083333333333286,-0.41870370370370374,7.405599999994031],[-0.03572916666666662,-0.39148148148148143,7.422000000000004],[-0.04708333333333338,-0.4103703703703704,7.438700000017896],[-0.06781250000000003,-0.3861111111111111,7.455700000017892],[-0.060104166666666715,-0.41074074074074074,7.472300000011934],[-0.08270833333333331,-0.4072222222222222,7.488700000017879],[-0.1015625,-0.397037037037037,7.505400000005956],[-0.11499999999999998,-0.39944444444444444,7.524000000000008],[-0.1326041666666666,-0.38685185185185184,7.538999999999994],[-0.15364583333333334,-0.3609259259259259,7.555400000005967],[-0.16156250000000003,-0.36500000000000005,7.5723000000119285],[-0.15958333333333338,-0.357962962962963,7.588700000017873],[-0.1577083333333333,-0.3151851851851852,7.6053000000119155],[-0.1580208333333334,-0.3014814814814815,7.6244999999999905],[-0.17239583333333333,-0.2588888888888889,7.641099999994033],[-0.16989583333333336,-0.26055555555555554,7.6573000000119364],[-0.18229166666666666,-0.27555555555555555,7.673599999994032],[-0.18229166666666666,-0.27555555555555555,7.6888000000119305],[-0.19333333333333336,-0.27092592592592596,7.705400000005973],[-0.20968749999999994,-0.27259259259259255,7.7233000000119105],[-0.21864583333333332,-0.2975925925925926,7.7412000000178764],[-0.23989583333333328,-0.27981481481481485,7.757599999994035],[-0.23989583333333328,-0.27981481481481485,7.7719999999999985],[-0.24281250000000001,-0.3098148148148148,7.78870000001789],[-0.25625,-0.32037037037037036,7.805800000011921],[-0.23729166666666662,-0.3277777777777778,7.825700000017896],[-0.23729166666666662,-0.3277777777777778,7.838700000017873],[-0.24322916666666666,-0.3394444444444445,7.8553000000119155],[-0.22229166666666664,-0.37481481481481477,7.875499999999995],[-0.18979166666666672,-0.3538888888888889,7.892900000005973],[-0.14791666666666667,-0.35777777777777775,7.910200000017888],[-0.14791666666666667,-0.35777777777777775,7.930800000011921],[-0.10239583333333328,-0.3516666666666666,7.947400000005963],[-0.10239583333333328,-0.3516666666666666,7.955800000011926],[-0.065625,-0.3442592592592592,7.9720000000000155],[-0.019375000000000024,-0.35259259259259257,7.989099999994046],[0.013854166666666619,-0.3055555555555556,8.005400000005956],[0.04697916666666669,-0.33240740740740743,8.025099999994048],[0.050312499999999954,-0.31722222222222224,8.039700000017895],[0.050312499999999954,-0.31722222222222224,8.055400000005967],[0.08229166666666667,-0.3103703703703704,8.072099999994045],[0.08479166666666677,-0.24648148148148152,8.088700000017873],[0.08145833333333338,-0.22296296296296292,8.105300000011916],[0.06958333333333329,-0.22407407407407406,8.123800000011933],[0.06958333333333329,-0.22407407407407406,8.138700000017884],[0.04916666666666671,-0.20185185185185187,8.155499999999996],[0.05260416666666667,-0.20203703703703707,8.172200000017888],[0.04645833333333336,-0.1633333333333333,8.188700000017896],[0.04593750000000003,-0.1655555555555555,8.20530000001191],[0.04854166666666669,-0.11740740740740736,8.222400000005969],[0.06083333333333331,-0.09240740740740737,8.239200000017895],[0.07614583333333323,-0.08296296296296299,8.255400000005956],[0.11416666666666657,-0.08388888888888892,8.275000000000013],[0.14458333333333329,-0.06351851851851854,8.28870000001789],[0.18947916666666675,-0.029814814814814856,8.305300000011933],[0.24229166666666657,-0.040740740740740744,8.323400000005968],[0.27447916666666666,-0.05851851851851856,8.338800000011936],[0.30343749999999997,-0.06259259259259262,8.355300000011916],[0.34260416666666677,-0.05888888888888891,8.371999999999993],[0.3757291666666667,-0.056666666666666705,8.388700000017884],[0.40864583333333326,-0.07092592592592595,8.405400000005962],[0.4328125,-0.0787037037037037,8.422099999994039],[0.4421875,-0.10111111111111115,8.438900000005965],[0.4502083333333334,-0.11981481481481479,8.455400000005973],[0.4617708333333333,-0.15648148148148147,8.474599999994048],[0.4502083333333334,-0.1633333333333333,8.48859999999403],[0.45114583333333325,-0.13555555555555554,8.505400000005956],[0.4428124999999999,-0.1772222222222222,8.525500000000001],[0.42