inst1_resp.keys,inst1_resp.rt,calibrationMouse.x,calibrationMouse.y,calibrationMouse.leftButton,calibrationMouse.midButton,calibrationMouse.rightButton,calibrationClick.x,calibrationClick.y,calibrationClick.leftButton,calibrationClick.midButton,calibrationClick.rightButton,trialsc.thisRepN,trialsc.thisTrialN,trialsc.thisN,trialsc.thisIndex,trialsc.ran,calibration_x,calibration_y,participant,session,date,expName,psychopyVersion,OS,frameRate,ScreenRes_pixels,Camera_pixels,mouse_2.x,mouse_2.y,mouse_2.leftButton,mouse_2.midButton,mouse_2.rightButton,mouse_2.time,mouse_2.clicked_name,mouse.x,mouse.y,mouse.leftButton,mouse.midButton,mouse.rightButton,mouse.time,mouse.clicked_name,Choice,Trial,TrialDuration,MOUSE_GAZE,ET_GAZE,ET_GAZE_x_T,time,unixTime,ET_GAZE_NF,Loc_Bus_label,Loc_Metro_label,Loc_RH_label,Loc_Cost_label,Loc_Travel_label,Loc_Comfort_label,Loc_Bus_cost,Loc_Metro_cost,Loc_RH_cost,Loc_Bus_travel,Loc_Metro_travel,Loc_RH_travel,Loc_Bus_comfort,Loc_Metro_comfort,Loc_RH_comfort,trials.thisRepN,trials.thisTrialN,trials.thisN,trials.thisIndex,trials.ran,Block,Device,RH_cost,RH_travel_time,RH_Comfort,metro_cost,metro_travel_time,metro_Comfort,Bus_cost,Bus_travel_time,Bus_Comfort
space,1.6209,-0.19375,0.388888889,1,0,0,-0.305208333,0.437037037,0,0,0,0,0,0,13,1,0,0.67,31,001,2024-11-18_12h10.48.319,Attention_exp_legacy,2023.1.0,Win32,59.88023952,,,,,,,,,,,,,,,,,,,,,,,,,,,,,,,,,,,,,,,,,,,,,,,,,,,,,,,,
,,,,,,,-0.305208333,0.437037037,0,0,0,0,1,1,0,1,-0.67,-0.67,31,001,2024-11-18_12h10.48.319,Attention_exp_legacy,2023.1.0,Win32,59.88023952,,,,,,,,,,,,,,,,,,,,,,,,,,,,,,,,,,,,,,,,,,,,,,,,,,,,,,,,
,,,,,,,-0.305208333,0.437037037,0,0,0,0,2,2,8,1,-0.33,0.67,31,001,2024-11-18_12h10.48.319,Attention_exp_legacy,2023.1.0,Win32,59.88023952,,,,,,,,,,,,,,,,,,,,,,,,,,,,,,,,,,,,,,,,,,,,,,,,,,,,,,,,
,,,,,,,-0.305208333,0.437037037,0,0,0,0,3,3,5,1,-0.33,-0.33,31,001,2024-11-18_12h10.48.319,Attention_exp_legacy,2023.1.0,Win32,59.88023952,,,,,,,,,,,,,,,,,,,,,,,,,,,,,,,,,,,,,,,,,,,,,,,,,,,,,,,,
,,,,,,,-0.305208333,0.437037037,0,0,0,0,4,4,20,1,0.67,-0.67,31,001,2024-11-18_12h10.48.319,Attention_exp_legacy,2023.1.0,Win32,59.88023952,,,,,,,,,,,,,,,,,,,,,,,,,,,,,,,,,,,,,,,,,,,,,,,,,,,,,,,,
,,,,,,,-0.305208333,0.437037037,0,0,0,0,5,5,6,1,-0.33,0,31,001,2024-11-18_12h10.48.319,Attention_exp_legacy,2023.1.0,Win32,59.88023952,,,,,,,,,,,,,,,,,,,,,,,,,,,,,,,,,,,,,,,,,,,,,,,,,,,,,,,,
,,,,,,,-0.305208333,0.437037037,0,0,0,0,6,6,9,1,0,-0.67,31,001,2024-11-18_12h10.48.319,Attention_exp_legacy,2023.1.0,Win32,59.88023952,,,,,,,,,,,,,,,,,,,,,,,,,,,,,,,,,,,,,,,,,,,,,,,,,,,,,,,,
,,,,,,,-0.305208333,0.437037037,0,0,0,0,7,7,1,1,-0.67,-0.33,31,001,2024-11-18_12h10.48.319,Attention_exp_legacy,2023.1.0,Win32,59.88023952,,,,,,,,,,,,,,,,,,,,,,,,,,,,,,,,,,,,,,,,,,,,,,,,,,,,,,,,
,,,,,,,-0.305208333,0.437037037,0,0,0,0,8,8,15,1,0.33,-0.33,31,001,2024-11-18_12h10.48.319,Attention_exp_legacy,2023.1.0,Win32,59.88023952,,,,,,,,,,,,,,,,,,,,,,,,,,,,,,,,,,,,,,,,,,,,,,,,,,,,,,,,
,,,,,,,-0.305208333,0.437037037,0,0,0,0,9,9,14,1,0.33,-0.67,31,001,2024-11-18_12h10.48.319,Attention_exp_legacy,2023.1.0,Win32,59.88023952,,,,,,,,,,,,,,,,,,,,,,,,,,,,,,,,,,,,,,,,,,,,,,,,,,,,,,,,
,,,,,,,-0.305208333,0.437037037,0,0,0,0,10,10,12,1,0,0.33,31,001,2024-11-18_12h10.48.319,Attention_exp_legacy,2023.1.0,Win32,59.88023952,,,,,,,,,,,,,,,,,,,,,,,,,,,,,,,,,,,,,,,,,,,,,,,,,,,,,,,,
,,,,,,,-0.305208333,0.437037037,0,0,0,0,11,11,18,1,0.33,0.67,31,001,2024-11-18_12h10.48.319,Attention_exp_legacy,2023.1.0,Win32,59.88023952,,,,,,,,,,,,,,,,,,,,,,,,,,,,,,,,,,,,,,,,,,,,,,,,,,,,,,,,
,,,,,,,-0.305208333,0.437037037,0,0,0,0,12,12,2,1,-0.67,0,31,001,2024-11-18_12h10.48.319,Attention_exp_legacy,2023.1.0,Win32,59.88023952,,,,,,,,,,,,,,,,,,,,,,,,,,,,,,,,,,,,,,,,,,,,,,,,,,,,,,,,
,,,,,,,-0.305208333,0.437037037,0,0,0,0,13,13,10,1,0,-0.33,31,001,2024-11-18_12h10.48.319,Attention_exp_legacy,2023.1.0,Win32,59.88023952,,,,,,,,,,,,,,,,,,,,,,,,,,,,,,,,,,,,,,,,,,,,,,,,,,,,,,,,
,,,,,,,-0.305208333,0.437037037,0,0,0,0,14,14,17,1,0.33,0.33,31,001,2024-11-18_12h10.48.319,Attention_exp_legacy,2023.1.0,Win32,59.88023952,,,,,,,,,,,,,,,,,,,,,,,,,,,,,,,,,,,,,,,,,,,,,,,,,,,,,,,,
,,,,,,,-0.305208333,0.437037037,0,0,0,0,15,15,16,1,0.33,0,31,001,2024-11-18_12h10.48.319,Attention_exp_legacy,2023.1.0,Win32,59.88023952,,,,,,,,,,,,,,,,,,,,,,,,,,,,,,,,,,,,,,,,,,,,,,,,,,,,,,,,
,,,,,,,-0.305208333,0.437037037,0,0,0,0,16,16,3,1,-0.67,0.33,31,001,2024-11-18_12h10.48.319,Attention_exp_legacy,2023.1.0,Win32,59.88023952,,,,,,,,,,,,,,,,,,,,,,,,,,,,,,,,,,,,,,,,,,,,,,,,,,,,,,,,
,,,,,,,-0.305208333,0.437037037,0,0,0,0,17,17,19,1,0.67,0.67,31,001,2024-11-18_12h10.48.319,Attention_exp_legacy,2023.1.0,Win32,59.88023952,,,,,,,,,,,,,,,,,,,,,,,,,,,,,,,,,,,,,,,,,,,,,,,,,,,,,,,,
,,,,,,,-0.305208333,0.437037037,0,0,0,0,18,18,4,1,-0.33,-0.67,31,001,2024-11-18_12h10.48.319,Attention_exp_legacy,2023.1.0,Win32,59.88023952,,,,,,,,,,,,,,,,,,,,,,,,,,,,,,,,,,,,,,,,,,,,,,,,,,,,,,,,
,,,,,,,-0.305208333,0.437037037,0,0,0,0,19,19,7,1,-0.33,0.33,31,001,2024-11-18_12h10.48.319,Attention_exp_legacy,2023.1.0,Win32,59.88023952,,,,,,,,,,,,,,,,,,,,,,,,,,,,,,,,,,,,,,,,,,,,,,,,,,,,,,,,
,,,,,,,-0.305208333,0.437037037,0,0,0,0,20,20,11,1,0,0,31,001,2024-11-18_12h10.48.319,Attention_exp_legacy,2023.1.0,Win32,59.88023952,,,,,,,,,,,,,,,,,,,,,,,,,,,,,,,,,,,,,,,,,,,,,,,,,,,,,,,,
,,,,,,,,,,,,,,,,,,,31,001,2024-11-18_12h10.48.319,Attention_exp_legacy,2023.1.0,Win32,59.88023952,"[1920,1080]","[640,480]",[-0.03958333333333333],[-0.5296296296296297],[1],[0],[0],[3.049599999904629],"[""StartButton""]",[0.16770833333333332],[0.6092592592592593],[1],[0],[0],[6.900800000190728],"[""Metro_label""]",Metro_label,1,7.925,"[[-0.06145833333333333,-0.524074074074074],[-0.06145833333333333,-0.524074074074074],[-0.06145833333333333,-0.524074074074074],[-0.06145833333333333,-0.524074074074074],[-0.06145833333333333,-0.524074074074074],[-0.06145833333333333,-0.524074074074074],[-0.06145833333333333,-0.524074074074074],[-0.06145833333333333,-0.524074074074074],[-0.06145833333333333,-0.524074074074074],[-0.06145833333333333,-0.524074074074074],[-0.06145833333333333,-0.524074074074074],[-0.06145833333333333,-0.524074074074074],[-0.06145833333333333,-0.524074074074074],[-0.06145833333333333,-0.524074074074074],[-0.06145833333333333,-0.524074074074074],[-0.06145833333333333,-0.524074074074074],[-0.06145833333333333,-0.524074074074074],[-0.06145833333333333,-0.524074074074074],[-0.06145833333333333,-0.524074074074074],[-0.06145833333333333,-0.524074074074074],[-0.06145833333333333,-0.524074074074074],[-0.06145833333333333,-0.524074074074074],[-0.06145833333333333,-0.524074074074074],[-0.06145833333333333,-0.524074074074074],[-0.06145833333333333,-0.524074074074074],[-0.06145833333333333,-0.524074074074074],[-0.06145833333333333,-0.524074074074074],[-0.06145833333333333,-0.524074074074074],[-0.06145833333333333,-0.524074074074074],[-0.06145833333333333,-0.524074074074074],[-0.06145833333333333,-0.524074074074074],[-0.06145833333333333,-0.524074074074074],[-0.06145833333333333,-0.524074074074074],[-0.06145833333333333,-0.524074074074074],[-0.06145833333333333,-0.524074074074074],[-0.06145833333333333,-0.524074074074074],[-0.06145833333333333,-0.524074074074074],[-0.06145833333333333,-0.524074074074074],[-0.06145833333333333,-0.524074074074074],[-0.06145833333333333,-0.524074074074074],[-0.06145833333333333,-0.524074074074074],[-0.06145833333333333,-0.524074074074074],[-0.06145833333333333,-0.524074074074074],[-0.06145833333333333,-0.524074074074074],[-0.06145833333333333,-0.524074074074074],[-0.06145833333333333,-0.524074074074074],[-0.06145833333333333,-0.524074074074074],[-0.06145833333333333,-0.524074074074074],[-0.06145833333333333,-0.524074074074074],[-0.06145833333333333,-0.524074074074074],[-0.06145833333333333,-0.524074074074074],[-0.06145833333333333,-0.524074074074074],[-0.06145833333333333,-0.524074074074074],[-0.06145833333333333,-0.524074074074074],[-0.06145833333333333,-0.524074074074074],[-0.06145833333333333,-0.524074074074074],[-0.06145833333333333,-0.524074074074074],[-0.06145833333333333,-0.524074074074074],[-0.06145833333333333,-0.524074074074074],[-0.06145833333333333,-0.524074074074074],[-0.06145833333333333,-0.524074074074074],[-0.06145833333333333,-0.524074074074074],[-0.06145833333333333,-0.524074074074074],[-0.06145833333333333,-0.524074074074074],[-0.06145833333333333,-0.524074074074074],[-0.06145833333333333,-0.524074074074074],[-0.06145833333333333,-0.524074074074074],[-0.06145833333333333,-0.524074074074074],[-0.06145833333333333,-0.524074074074074],[-0.06145833333333333,-0.524074074074074],[-0.06145833333333333,-0.524074074074074],[-0.06145833333333333,-0.524074074074074],[-0.06145833333333333,-0.524074074074074],[-0.06145833333333333,-0.524074074074074],[-0.06145833333333333,-0.524074074074074],[-0.06145833333333333,-0.524074074074074],[-0.06145833333333333,-0.524074074074074],[-0.06145833333333333,-0.524074074074074],[-0.06145833333333333,-0.524074074074074],[-0.06145833333333333,-0.524074074074074],[-0.06145833333333333,-0.524074074074074],[-0.06145833333333333,-0.524074074074074],[-0.06145833333333333,-0.524074074074074],[-0.06145833333333333,-0.524074074074074],[-0.06145833333333333,-0.524074074074074],[-0.06145833333333333,-0.524074074074074],[-0.06145833333333333,-0.524074074074074],[-0.06145833333333333,-0.524074074074074],[-0.06145833333333333,-0.524074074074074],[-0.06145833333333333,-0.524074074074074],[-0.06145833333333333,-0.524074074074074],[-0.06145833333333333,-0.524074074074074],[-0.06145833333333333,-0.524074074074074],[-0.06145833333333333,-0.524074074074074],[-0.06145833333333333,-0.524074074074074],[-0.06145833333333333,-0.524074074074074],[-0.06145833333333333,-0.524074074074074],[-0.06145833333333333,-0.524074074074074],[-0.06145833333333333,-0.524074074074074],[-0.06145833333333333,-0.524074074074074],[-0.06145833333333333,-0.524074074074074],[-0.06145833333333333,-0.524074074074074],[-0.06145833333333333,-0.524074074074074],[-0.06145833333333333,-0.524074074074074],[-0.06145833333333333,-0.524074074074074],[-0.06145833333333333,-0.524074074074074],[-0.06145833333333333,-0.524074074074074],[-0.06145833333333333,-0.524074074074074],[-0.06145833333333333,-0.524074074074074],[-0.06145833333333333,-0.524074074074074],[-0.06145833333333333,-0.524074074074074],[-0.06145833333333333,-0.524074074074074],[-0.06145833333333333,-0.524074074074074],[-0.06145833333333333,-0.524074074074074],[-0.06145833333333333,-0.524074074074074],[-0.06145833333333333,-0.524074074074074],[-0.06145833333333333,-0.524074074074074],[-0.06145833333333333,-0.524074074074074],[-0.06145833333333333,-0.524074074074074],[-0.06145833333333333,-0.524074074074074],[-0.06145833333333333,-0.524074074074074],[-0.06145833333333333,-0.524074074074074],[-0.06145833333333333,-0.524074074074074],[-0.06145833333333333,-0.524074074074074],[-0.06145833333333333,-0.524074074074074],[-0.06145833333333333,-0.524074074074074],[-0.06145833333333333,-0.524074074074074],[-0.06145833333333333,-0.524074074074074],[-0.06145833333333333,-0.524074074074074],[-0.06145833333333333,-0.524074074074074],[-0.06145833333333333,-0.524074074074074],[-0.06145833333333333,-0.524074074074074],[-0.06145833333333333,-0.524074074074074],[-0.06145833333333333,-0.524074074074074],[-0.06145833333333333,-0.524074074074074],[-0.06145833333333333,-0.524074074074074],[-0.06145833333333333,-0.524074074074074],[-0.06145833333333333,-0.524074074074074],[-0.06145833333333333,-0.524074074074074],[-0.06145833333333333,-0.524074074074074],[-0.06145833333333333,-0.524074074074074],[-0.06145833333333333,-0.524074074074074],[-0.06145833333333333,-0.524074074074074],[-0.06145833333333333,-0.524074074074074],[-0.06145833333333333,-0.524074074074074],[-0.06145833333333333,-0.524074074074074],[-0.06145833333333333,-0.524074074074074],[-0.06145833333333333,-0.524074074074074],[-0.06145833333333333,-0.524074074074074],[-0.06145833333333333,-0.524074074074074],[-0.06145833333333333,-0.524074074074074],[-0.06145833333333333,-0.524074074074074],[-0.06145833333333333,-0.524074074074074],[-0.06145833333333333,-0.524074074074074],[-0.06145833333333333,-0.524074074074074],[-0.06145833333333333,-0.524074074074074],[-0.06145833333333333,-0.524074074074074],[-0.06145833333333333,-0.524074074074074],[-0.06145833333333333,-0.524074074074074],[-0.06145833333333333,-0.524074074074074],[-0.06145833333333333,-0.524074074074074],[-0.06145833333333333,-0.524074074074074],[-0.06145833333333333,-0.524074074074074],[-0.06145833333333333,-0.524074074074074],[-0.06145833333333333,-0.524074074074074],[-0.06145833333333333,-0.524074074074074],[-0.06145833333333333,-0.524074074074074],[-0.06145833333333333,-0.524074074074074],[-0.06145833333333333,-0.524074074074074],[-0.06145833333333333,-0.524074074074074],[-0.06145833333333333,-0.524074074074074],[-0.06145833333333333,-0.524074074074074],[-0.06145833333333333,-0.524074074074074],[-0.06145833333333333,-0.5148148148148148],[-0.057291666666666664,-0.5018518518518519],[-0.053125,-0.4888888888888889],[-0.051041666666666666,-0.48333333333333334],[-0.04791666666666667,-0.4759259259259259],[-0.04479166666666667,-0.4685185185185185],[-0.03229166666666667,-0.4425925925925926],[-0.021875,-0.4166666666666667],[-0.0125,-0.39444444444444443],[-0.003125,-0.37222222222222223],[0.009375,-0.34444444444444444],[0.022916666666666665,-0.31851851851851853],[0.051041666666666666,-0.2814814814814815],[0.06875,-0.26296296296296295],[0.08020833333333334,-0.2462962962962963],[0.08854166666666667,-0.23703703703703705],[0.09375,-0.22777777777777777],[0.096875,-0.2222222222222222],[0.10208333333333333,-0.21296296296296297],[0.109375,-0.20185185185185187],[0.13020833333333334,-0.17037037037037037],[0.14270833333333333,-0.15555555555555556],[0.146875,-0.1537037037037037],[0.14895833333333333,-0.15],[0.14895833333333333,-0.15],[0.14895833333333333,-0.15],[0.14895833333333333,-0.15],[0.14895833333333333,-0.15],[0.14895833333333333,-0.15],[0.14895833333333333,-0.15],[0.14895833333333333,-0.15],[0.14895833333333333,-0.15],[0.14895833333333333,-0.15],[0.14895833333333333,-0.15],[0.14895833333333333,-0.15],[0.14895833333333333,-0.15],[0.14895833333333333,-0.15],[0.14895833333333333,-0.15],[0.14895833333333333,-0.15],[0.14895833333333333,-0.15],[0.14895833333333333,-0.15],[0.14895833333333333,-0.15],[0.14895833333333333,-0.15],[0.14895833333333333,-0.15],[0.14895833333333333,-0.15],[0.14895833333333333,-0.15],[0.14895833333333333,-0.15],[0.14895833333333333,-0.15],[0.14895833333333333,-0.15],[0.14895833333333333,-0.15],[0.14895833333333333,-0.15],[0.14895833333333333,-0.15],[0.14895833333333333,-0.15],[0.14895833333333333,-0.15],[0.14895833333333333,-0.15],[0.14895833333333333,-0.15],[0.14895833333333333,-0.15],[0.14895833333333333,-0.15],[0.14895833333333333,-0.15],[0.14895833333333333,-0.15],[0.14895833333333333,-0.15],[0.14895833333333333,-0.15],[0.14895833333333333,-0.15],[0.14895833333333333,-0.15],[0.14895833333333333,-0.15],[0.14895833333333333,-0.15],[0.14895833333333333,-0.15],[0.14895833333333333,-0.15],[0.14895833333333333,-0.15],[0.14895833333333333,-0.15],[0.14895833333333333,-0.15],[0.14895833333333333,-0.15],[0.14895833333333333,-0.15],[0.14895833333333333,-0.15],[0.14895833333333333,-0.15],[0.14895833333333333,-0.15],[0.14895833333333333,-0.15],[0.14895833333333333,-0.15],[0.14895833333333333,-0.15],[0.14895833333333333,-0.15],[0.14895833333333333,-0.15],[0.14895833333333333,-0.15],[0.14895833333333333,-0.15],[0.14895833333333333,-0.15],[0.14895833333333333,-0.15],[0.14791666666666667,-0.15185185185185185],[0.14791666666666667,-0.15185185185185185],[0.14791666666666667,-0.15555555555555556],[0.146875,-0.15925925925925927],[0.146875,-0.16111111111111112],[0.146875,-0.16111111111111112],[0.146875,-0.16111111111111112],[0.146875,-0.16111111111111112],[0.146875,-0.16111111111111112],[0.146875,-0.16111111111111112],[0.146875,-0.16111111111111112],[0.146875,-0.16111111111111112],[0.146875,-0.16111111111111112],[0.146875,-0.16111111111111112],[0.146875,-0.1685185185185185],[0.146875,-0.1814814814814815],[0.14375,-0.2111111111111111],[0.14270833333333333,-0.24444444444444444],[0.140625,-0.2740740740740741],[0.1375,-0.3037037037037037],[0.13645833333333332,-0.31666666666666665],[0.13645833333333332,-0.3333333333333333],[0.13645833333333332,-0.3388888888888889],[0.13333333333333333,-0.35],[0.13333333333333333,-0.3592592592592593],[0.13333333333333333,-0.3648148148148148],[0.13333333333333333,-0.37222222222222223],[0.13333333333333333,-0.37777777777777777],[0.13333333333333333,-0.3851851851851852],[0.13333333333333333,-0.3907407407407407],[0.13333333333333333,-0.39814814814814814],[0.13333333333333333,-0.40370370370370373],[0.134375,-0.4111111111111111],[0.134375,-0.4222222222222222],[0.134375,-0.42777777777777776],[0.134375,-0.44074074074074077],[0.134375,-0.4444444444444444],[0.134375,-0.45],[0.13229166666666667,-0.46296296296296297],[0.13125,-0.4759259259259259],[0.13125,-0.4981481481481482],[0.12916666666666668,-0.524074074074074],[0.12708333333333333,-0.5425925925925926],[0.12604166666666666,-0.5518518518518518],[0.125,-0.5574074074074075],[0.125,-0.5574074074074075],[0.125,-0.5592592592592592],[0.125,-0.562962962962963],[0.12395833333333334,-0.5666666666666667],[0.12395833333333334,-0.5666666666666667],[0.12395833333333334,-0.5666666666666667],[0.12395833333333334,-0.5666666666666667],[0.12395833333333334,-0.5666666666666667],[0.12395833333333334,-0.5666666666666667],[0.12395833333333334,-0.5666666666666667],[0.12395833333333334,-0.5666666666666667],[0.12395833333333334,-0.5666666666666667],[0.12395833333333334,-0.5666666666666667],[0.12395833333333334,-0.5666666666666667],[0.12395833333333334,-0.5666666666666667],[0.12395833333333334,-0.5666666666666667],[0.12395833333333334,-0.5666666666666667],[0.12395833333333334,-0.5666666666666667],[0.12395833333333334,-0.5666666666666667],[0.12395833333333334,-0.5666666666666667],[0.12395833333333334,-0.5666666666666667],[0.12395833333333334,-0.5666666666666667],[0.12395833333333334,-0.5666666666666667],[0.12395833333333334,-0.5666666666666667],[0.12395833333333334,-0.5666666666666667],[0.12395833333333334,-0.5666666666666667],[0.12395833333333334,-0.5666666666666667],[0.12395833333333334,-0.5666666666666667],[0.12395833333333334,-0.5666666666666667],[0.12395833333333334,-0.5666666666666667],[0.12395833333333334,-0.5666666666666667],[0.12395833333333334,-0.5666666666666667],[0.12395833333333334,-0.5666666666666667],[0.12395833333333334,-0.5685185185185185],[0.12395833333333334,-0.5685185185185185],[0.12395833333333334,-0.5685185185185185],[0.125,-0.5666666666666667],[0.12708333333333333,-0.5648148148148148],[0.12708333333333333,-0.5648148148148148],[0.12708333333333333,-0.5592592592592592],[0.12708333333333333,-0.5555555555555556],[0.12916666666666668,-0.5462962962962963],[0.13125,-0.5277777777777778],[0.13229166666666667,-0.4925925925925926],[0.134375,-0.39814814814814814],[0.134375,-0.3574074074074074],[0.134375,-0.29814814814814816],[0.134375,-0.2351851851851852],[0.134375,-0.17777777777777778],[0.134375,-0.1259259259259259],[0.134375,-0.03148148148148148],[0.134375,0.020370370370370372],[0.134375,0.05740740740740741],[0.13229166666666667,0.08518518518518518],[0.13229166666666667,0.1],[0.13229166666666667,0.11481481481481481],[0.13229166666666667,0.12777777777777777],[0.13229166666666667,0.13703703703703704],[0.13229166666666667,0.14444444444444443],[0.13229166666666667,0.14444444444444443],[0.13229166666666667,0.14814814814814814],[0.13229166666666667,0.15555555555555556],[0.13333333333333333,0.2037037037037037],[0.13333333333333333,0.25],[0.13333333333333333,0.29444444444444445],[0.13333333333333333,0.3314814814814815],[0.13645833333333332,0.36666666666666664],[0.13958333333333334,0.3962962962962963],[0.14479166666666668,0.42592592592592593],[0.14895833333333333,0.45555555555555555],[0.15520833333333334,0.4888888888888889],[0.16041666666666668,0.5222222222222223],[0.16458333333333333,0.55],[0.16875,0.5722222222222222],[0.171875,0.5962962962962963],[0.17395833333333333,0.6018518518518519],[0.175,0.6074074074074074],[0.175,0.6074074074074074],[0.175,0.6074074074074074],[0.175,0.6074074074074074],[0.175,0.6074074074074074],[0.175,0.6074074074074074],[0.175,0.6074074074074074],[0.175,0.6074074074074074],[0.175,0.6074074074074074],[0.175,0.6074074074074074],[0.175,0.6074074074074074],[0.175,0.6074074074074074],[0.175,0.6074074074074074],[0.175,0.6074074074074074],[0.175,0.6074074074074074],[0.175,0.6074074074074074],[0.175,0.6092592592592593],[0.175,0.6092592592592593],[0.17291666666666666,0.6092592592592593],[0.171875,0.6092592592592593],[0.17083333333333334,0.6092592592592593],[0.16979166666666667,0.6092592592592593],[0.16770833333333332,0.6092592592592593],[0.16770833333333332,0.6092592592592593],[0.16770833333333332,0.6092592592592593],[0.16770833333333332,0.6092592592592593],[0.16770833333333332,0.6092592592592593],[0.16770833333333332,0.6092592592592593],[0.16770833333333332,0.6092592592592593],[0.16770833333333332,0.6092592592592593],[0.16770833333333332,0.6092592592592593],[0.16770833333333332,0.6092592592592593],[0.16770833333333332,0.6092592592592593],[0.16770833333333332,0.6092592592592593],[0.16770833333333332,0.6092592592592593],[0.16770833333333332,0.6092592592592593],[0.16770833333333332,0.6092592592592593],[0.16770833333333332,0.6092592592592593],[0.16770833333333332,0.6092592592592593],[0.16770833333333332,0.6092592592592593],[0.16770833333333332,0.6092592592592593],[0.16770833333333332,0.6092592592592593],[0.16770833333333332,0.6092592592592593],[0.16770833333333332,0.6092592592592593],[0.16770833333333332,0.6092592592592593],[0.16770833333333332,0.6092592592592593],[0.16770833333333332,0.6092592592592593],[0.16770833333333332,0.6092592592592593],[0.16770833333333332,0.6092592592592593],[0.16770833333333332,0.6092592592592593],[0.16770833333333332,0.6092592592592593],[0.16770833333333332,0.6092592592592593],[0.16770833333333332,0.6092592592592593],[0.16770833333333332,0.6092592592592593],[0.16770833333333332,0.6092592592592593],[0.16770833333333332,0.6092592592592593],[0.16770833333333332,0.6092592592592593],[0.16770833333333332,0.6092592592592593],[0.16770833333333332,0.6092592592592593],[0.16770833333333332,0.6092592592592593],[0.16770833333333332,0.6092592592592593],[0.16770833333333332,0.6092592592592593],[0.16770833333333332,0.6092592592592593],[0.16770833333333332,0.6092592592592593],[0.16770833333333332,0.6092592592592593],[0.16770833333333332,0.6092592592592593],[0.16770833333333332,0.6092592592592593],[0.16770833333333332,0.6092592592592593],[0.16770833333333332,0.6092592592592593],[0.16770833333333332,0.6092592592592593],[0.16770833333333332,0.6092592592592593],[0.16770833333333332,0.6092592592592593],[0.16770833333333332,0.6092592592592593],[0.16770833333333332,0.6092592592592593],[0.16770833333333332,0.6092592592592593],[0.16770833333333332,0.6092592592592593],[0.16770833333333332,0.6092592592592593],[0.16770833333333332,0.6092592592592593],[0.16770833333333332,0.6092592592592593],[0.16770833333333332,0.6092592592592593],[0.16770833333333332,0.6092592592592593],[0.16770833333333332,0.6092592592592593],[0.16770833333333332,0.6092592592592593],[0.16770833333333332,0.6092592592592593],[0.16770833333333332,0.6092592592592593],[0.16770833333333332,0.6092592592592593],[0.16770833333333332,0.6092592592592593],[0.16770833333333332,0.6092592592592593],[0.16770833333333332,0.6092592592592593],[0.16770833333333332,0.6092592592592593],[0.16770833333333332,0.6092592592592593],[0.16770833333333332,0.6092592592592593],[0.16770833333333332,0.6092592592592593],[0.16770833333333332,0.6092592592592593],[0.16770833333333332,0.6092592592592593]]","[[-0.23052083333333329,-0.2146296296296296],[-0.23052083333333329,-0.2146296296296296],[-0.22999999999999995,-0.22999999999999998],[-0.22947916666666662,-0.24537037037037038],[-0.23062499999999997,-0.25925925925925924],[-0.23177083333333334,-0.27314814814814814],[-0.2319791666666667,-0.2866666666666667],[-0.23072916666666668,-0.2868518518518518],[-0.228125,-0.27981481481481485],[-0.22625000000000003,-0.272037037037037],[-0.2163541666666667,-0.2522222222222222],[-0.21260416666666668,-0.23944444444444446],[-0.20260416666666667,-0.21185185185185182],[-0.19968750000000005,-0.20055555555555557],[-0.1907291666666667,-0.17851851851851847],[-0.18177083333333333,-0.15648148148148147],[-0.18177083333333333,-0.15648148148148147],[-0.17395833333333333,-0.1381481481481482],[-0.1658333333333334,-0.12370370370370372],[-0.15885416666666666,-0.11500000000000005],[-0.15114583333333337,-0.10703703703703706],[-0.15125000000000005,-0.11629629629629631],[-0.14312499999999997,-0.09833333333333337],[-0.1430208333333333,-0.10240740740740743],[-0.1373958333333333,-0.10537037037037032],[-0.1373958333333333,-0.11481481481481481],[-0.1373958333333333,-0.11481481481481481],[-0.13697916666666668,-0.11314814814814819],[-0.13500000000000004,-0.11296296296296296],[-0.13479166666666664,-0.11851851851851852],[-0.13447916666666668,-0.11537037037037039],[-0.13385416666666666,-0.10888888888888891],[-0.13114583333333332,-0.1],[-0.13072916666666667,-0.1037037037037037],[-0.13958333333333334,-0.13222222222222219],[-0.14468749999999997,-0.13944444444444445],[-0.15218750000000003,-0.15481481481481485],[-0.16010416666666671,-0.18129629629629626],[-0.16072916666666662,-0.18277777777777776],[-0.16072916666666662,-0.18111111111111114],[-0.16458333333333333,-0.17074074074074072],[-0.16875,-0.16370370370370366],[-0.17052083333333337,-0.14500000000000002],[-0.17468750000000005,-0.12907407407407406],[-0.17114583333333327,-0.08962962962962959],[-0.16697916666666662,-0.04981481481481477],[-0.15968749999999995,-0.009999999999999959],[-0.15239583333333329,0.029814814814814856],[-0.1514583333333333,0.04870370370370362],[-0.15052083333333333,0.06759259259259259],[-0.14656250000000004,0.07907407407407416],[-0.14104166666666665,0.09277777777777782],[-0.13687499999999997,0.07185185185185176],[-0.13687499999999997,0.07185185185185176],[-0.13156249999999994,0.06592592592592597],[-0.12562500000000001,0.04814814814814815],[-0.13156249999999994,0.007037037037036953],[-0.13156249999999994,0.007037037037036953],[-0.13843749999999996,-0.029814814814814856],[-0.13843749999999996,-0.029814814814814856],[-0.14770833333333327,-0.07574074074074069],[-0.14770833333333327,-0.07574074074074069],[-0.15531250000000002,-0.10166666666666663],[-0.15531250000000002,-0.10166666666666663],[-0.16218750000000004,-0.13481481481481483],[-0.1664583333333333,-0.16648148148148145],[-0.1664583333333333,-0.16648148148148145],[-0.17406250000000004,-0.2131481481481482],[-0.17406250000000004,-0.2131481481481482],[-0.17541666666666664,-0.22037037037037038],[-0.17552083333333332,-0.2375925925925926],[-0.178125,-0.2448148148148148],[-0.178125,-0.2448148148148148],[-0.1720833333333334,-0.24000000000000005],[-0.16145833333333334,-0.20611111111111113],[-0.1484375,-0.16314814814814818],[-0.1373958333333333,-0.13648148148148145],[-0.12749999999999997,-0.09888888888888885],[-0.12864583333333332,-0.10981481481481484],[-0.12364583333333339,-0.1007407407407407],[-0.12843749999999995,-0.10666666666666672],[-0.13291666666666668,-0.1051851851851852],[-0.13479166666666664,-0.11296296296296296],[-0.1328125,-0.09703703703703699],[-0.13489583333333333,-0.11185185185185181],[-0.13489583333333333,-0.11185185185185181],[-0.13697916666666668,-0.12666666666666662],[-0.13697916666666668,-0.12666666666666662],[-0.14802083333333335,-0.16259259259259262],[-0.15916666666666662,-0.19166666666666668],[-0.15895833333333337,-0.18037037037037032],[-0.16312500000000002,-0.17629629629629628],[-0.16375000000000003,-0.16722222222222224],[-0.16854166666666662,-0.17407407407407408],[-0.1748958333333333,-0.17240740740740745],[-0.18468749999999995,-0.1896296296296296],[-0.19166666666666668,-0.19796296296296292],[-0.2001041666666667,-0.20981481481481484],[-0.19781249999999997,-0.19592592592592595],[-0.19500000000000003,-0.1925925925925926],[-0.19500000000000003,-0.19314814814814818],[-0.1961458333333333,-0.19462962962962968],[-0.19895833333333332,-0.1983333333333334],[-0.20031249999999995,-0.1985185185185185],[-0.19937499999999997,-0.19462962962962968],[-0.1984375,-0.19074074074074074],[-0.20197916666666665,-0.20240740740740742],[-0.20364583333333333,-0.2094444444444445],[-0.20906250000000004,-0.22092592592592594],[-0.21156250000000001,-0.22851851851851848],[-0.21458333333333332,-0.23537037037037042],[-0.21645833333333328,-0.24129629629629631],[-0.21375000000000005,-0.23925925925925923],[-0.21104166666666668,-0.23722222222222225],[-0.20572916666666666,-0.222037037037037],[-0.20041666666666663,-0.20685185185185184],[-0.19395833333333337,-0.18333333333333332],[-0.18218749999999997,-0.14722222222222223],[-0.16604166666666664,-0.08111111111111113],[-0.15281250000000005,-0.018888888888888972],[-0.13895833333333332,0.022592592592592678],[-0.13145833333333337,0.052407407407407326],[-0.12635416666666663,0.08351851851851856],[-0.11916666666666664,0.12166666666666676],[-0.11291666666666664,0.1574074074074074],[-0.11291666666666664,0.1574074074074074],[-0.10677083333333333,0.1675925925925926],[-0.09947916666666666,0.20055555555555546],[-0.09895833333333333,0.22185185185185177],[-0.10031249999999996,0.21648148148148144],[-0.10010416666666669,0.2162962962962962],[-0.09937499999999998,0.23666666666666658],[-0.09281250000000002,0.26944444444444443],[-0.0875,0.2898148148148148],[-0.08302083333333338,0.30685185185185193],[-0.08166666666666664,0.3116666666666666],[-0.07854166666666665,0.3453703703703704],[-0.07760416666666667,0.35555555555555557],[-0.0765625,0.36148148148148157],[-0.07552083333333333,0.36740740740740735],[-0.07604166666666666,0.36814814814814806],[-0.07718750000000002,0.36055555555555563],[-0.07291666666666667,0.3574074074074074],[-0.06614583333333333,0.3581481481481481],[-0.06187499999999998,0.35537037037037034],[-0.06187499999999998,0.35537037037037034],[-0.057604166666666616,0.35259259259259257],[-0.057604166666666616,0.35259259259259257],[-0.057500000000000044,0.34888888888888886],[-0.057500000000000044,0.34888888888888886],[-0.0546875,0.34666666666666673],[-0.0546875,0.34666666666666673],[-0.05166666666666669,0.34],[-0.049687500000000044,0.3388888888888889],[-0.04895833333333333,0.3362962962962963],[-0.044270833333333336,0.3522222222222223],[-0.04541666666666669,0.3566666666666667],[-0.04812500000000005,0.36129629629629634],[-0.05145833333333331,0.3616666666666666],[-0.05479166666666669,0.36203703703703705],[-0.05541666666666671,0.36203703703703705],[-0.05770833333333331,0.36129629629629634],[-0.058645833333333286,0.36814814814814806],[-0.058541666666666714,0.36944444444444446],[-0.057187499999999974,0.37222222222222223],[-0.05656249999999995,0.36925925925925923],[-0.05593750000000005,0.37296296296296294],[-0.05666666666666664,0.37296296296296294],[-0.05458333333333331,0.3827777777777779],[-0.05270833333333336,0.39148148148148143],[-0.05260416666666667,0.3985185185185186],[-0.05385416666666672,0.39166666666666666],[-0.05520833333333333,0.3911111111111112],[-0.05541666666666671,0.39222222222222214],[-0.05697916666666671,0.3972222222222222],[-0.06114583333333338,0.3977777777777777],[-0.06333333333333328,0.4075925925925926],[-0.06333333333333328,0.4075925925925926],[-0.06364583333333336,0.4207407407407408],[-0.06364583333333336,0.4207407407407408],[-0.06593749999999995,0.4301851851851851],[-0.06593749999999995,0.4301851851851851],[-0.06166666666666672,0.43574074074074065],[-0.06166666666666672,0.43574074074074065],[-0.05593750000000005,0.41444444444444434],[-0.05593750000000005,0.41444444444444434],[-0.04729166666666664,0.41796296296296304],[-0.04729166666666664,0.41796296296296304],[-0.033749999999999974,0.40851851851851856],[-0.028125,0.42055555555555557],[-0.013541666666666667,0.4009259259259259],[0.0016666666666666904,0.3925925925925926],[0.011562500000000024,0.3624074074074075],[0.02374999999999995,0.33277777777777784],[0.034375,0.3022222222222223],[0.03864583333333336,0.2766666666666666],[0.043020833333333286,0.27092592592592585],[0.04989583333333331,0.23499999999999996],[0.049374999999999974,0.21055555555555563],[0.05562499999999997,0.16296296296296298],[0.05364583333333333,0.14370370370370375],[0.046875,0.105925925925926],[0.04562499999999995,0.07462962962962955],[0.04239583333333338,0.05222222222222231],[0.04239583333333338,0.05222222222222231],[0.0515625,0.044999999999999915],[0.0515625,0.044999999999999915],[0.060104166666666715,0.03037037037037033],[0.060104166666666715,0.03037037037037033],[0.059791666666666646,-0.03629629629629634],[0.04812500000000005,-0.07666666666666662],[0.03843749999999998,-0.1227777777777778],[0.028750000000000022,-0.16888888888888887],[0.02791666666666662,-0.2116666666666667],[0.03208333333333328,-0.24148148148148144],[0.035000000000000024,-0.2655555555555555],[0.03104166666666662,-0.3103703703703704],[0.01729166666666669,-0.3714814814814815],[0.007604166666666619,-0.42055555555555557],[0.0067708333333333336,-0.41092592592592586],[0.010312499999999976,-0.40611111111111114],[0.01427083333333338,-0.4022222222222222],[0.024166666666666715,-0.3990740740740741],[0.024062500000000025,-0.39666666666666667],[0.02385416666666664,-0.4007407407407407],[0.02010416666666662,-0.4124074074074074],[0.017916666666666713,-0.4166666666666667],[0.01572916666666669,-0.4209259259259259],[0.006666666666666643,-0.42833333333333334],[0.006666666666666643,-0.42833333333333334],[-0.002395833333333286,-0.43574074074074076],[-0.012083333333333357,-0.4440740740740741],[-0.027499999999999976,-0.4631481481481482],[-0.04479166666666667,-0.47018518518518515],[-0.06031249999999998,-0.4905555555555555],[-0.0765625,-0.5101851851851852],[-0.09500000000000004,-0.5238888888888888],[-0.11166666666666672,-0.5259259259259259],[-0.12177083333333331,-0.5105555555555555],[-0.13020833333333334,-0.5077777777777778],[-0.13989583333333327,-0.5070370370370371],[-0.1460416666666667,-0.507962962962963],[-0.12906249999999997,-0.4487037037037037],[-0.11927083333333334,-0.397037037037037],[-0.11218750000000005,-0.3322222222222222],[-0.10447916666666662,-0.2722222222222222],[-0.09312499999999997,-0.21388888888888888],[-0.0765625,-0.15925925925925927],[-0.06229166666666662,-0.12537037037037035],[-0.04552083333333338,-0.07740740740740742],[-0.024895833333333308,-0.01629629629629621],[-0.004270833333333357,0.04518518518518514],[-0.004999999999999952,0.06074074074074066],[-0.002708333333333357,0.07388888888888885],[-0.000833333333333286,0.07481481481481478],[-0.000833333333333286,0.07481481481481478],[0.000416666666666643,0.08055555555555556],[-0.005520833333333286,0.10388888888888893],[-0.013125000000000024,0.1257407407407407],[0.000416666666666643,0.14148148148148143],[0.013229166666666714,0.15425925925925918],[0.021875,0.1596296296296297],[0.03156249999999995,0.16018518518518518],[0.04479166666666667,0.1581481481481481],[0.051041666666666666,0.15259259259259256],[0.051041666666666666,0.15259259259259256],[0.06041666666666667,0.15629629629629627],[0.06041666666666667,0.15629629629629627],[0.07104166666666671,0.16537037037037028],[0.09020833333333324,0.15648148148148147],[0.1078125,0.14240740740740737],[0.1,0.13777777777777775],[0.09322916666666667,0.13148148148148148],[0.09468750000000009,0.12925925925925918],[0.08958333333333333,0.1175925925925926],[0.08447916666666658,0.105925925925926],[0.07833333333333338,0.09462962962962967],[0.08375000000000009,0.10870370370370379],[0.06593749999999995,0.07592592592592592],[0.04885416666666664,0.04685185185185177],[0.04885416666666664,0.04685185185185177],[0.0546875,0.06944444444444445],[0.0546875,0.06944444444444445],[0.0546875,0.07703703703703708],[0.058124999999999954,0.09722222222222222],[0.05489583333333338,0.10962962962962972],[0.05489583333333338,0.10962962962962972],[0.06052083333333336,0.14666666666666675],[0.06635416666666671,0.1868518518518518],[0.07958333333333342,0.22314814814814815],[0.07958333333333342,0.22314814814814815],[0.07927083333333323,0.23277777777777786],[0.10145833333333343,0.28833333333333344],[0.12635416666666663,0.3485185185185186],[0.12989583333333338,0.3592592592592593],[0.13927083333333337,0.38499999999999995],[0.14229166666666657,0.4038888888888889],[0.14229166666666657,0.4038888888888889],[0.14416666666666675,0.42111111111111105],[0.14416666666666675,0.42111111111111105],[0.1443749999999999,0.4196296296296297],[0.1443749999999999,0.4196296296296297],[0.13895833333333343,0.4196296296296297],[0.13895833333333343,0.4196296296296297],[0.13802083333333334,0.4335185185185186],[0.13802083333333334,0.4335185185185186],[0.1400000000000001,0.45925925925925926],[0.1414583333333333,0.48055555555555557],[0.13531250000000009,0.4898148148148148],[0.13531250000000009,0.4898148148148148],[0.12833333333333338,0.49981481481481477],[0.11281249999999995,0.4612962962962963],[0.09291666666666672,0.415925925925926],[0.07927083333333323,0.39277777777777784],[0.0671875,0.3731481481481482],[0.06052083333333336,0.34888888888888886],[0.05406249999999998,0.33185185185185195],[0.04666666666666662,0.3042592592592592],[0.03739583333333331,0.26129629629629636],[0.03302083333333338,0.2257407407407407],[0.02645833333333331,0.19240740740740736],[0.028750000000000022,0.20999999999999996],[0.03947916666666664,0.21907407407407398],[0.042604166666666644,0.19444444444444445],[0.04083333333333338,0.1742592592592593],[0.04083333333333338,0.1742592592592593],[0.036458333333333336,0.17333333333333337],[0.036458333333333336,0.17333333333333337],[0.021041666666666715,0.127962962962963],[-0.0020833333333333333,0.06648148148148143],[-0.014999999999999977,0.03833333333333342],[-0.02791666666666662,0.010185185185185186],[-0.03864583333333336,-0.020185185185185143],[-0.053125,-0.06092592592592588],[-0.06635416666666671,-0.08074074074074078],[-0.07739583333333329,-0.06888888888888887],[-0.0889583333333333,-0.0794444444444444],[-0.0889583333333333,-0.0794444444444444],[-0.08052083333333329,-0.041111111111111195],[-0.06114583333333338,0.04351851851851852],[-0.03458333333333338,0.1270370370370371],[-0.01854166666666662,0.1925925925925926],[-0.0037500000000000237,0.25259259259259254],[0.011041666666666691,0.31259259259259253],[0.028645833333333332,0.369074074074074],[0.049479166666666664,0.4316666666666667],[0.07208333333333337,0.4788888888888889],[0.09718749999999995,0.5498148148148148],[0.09718749999999995,0.5498148148148148],[0.09947916666666666,0.5599999999999999],[0.09114583333333333,0.5348148148148147],[0.09114583333333333,0.5348148148148147],[0.09208333333333343,0.49425925925925923],[0.09760416666666671,0.4757407407407407],[0.10072916666666672,0.4527777777777778],[0.10072916666666672,0.4527777777777778],[0.10729166666666666,0.4005555555555555],[0.1125,0.3668518518518519],[0.10906250000000005,0.30925925925925923],[0.10791666666666658,0.24018518518518528],[0.10729166666666666,0.18185185185185193],[0.11354166666666667,0.11462962962962958],[0.11354166666666667,0.11462962962962958],[0.12614583333333323,0.07166666666666675],[0.1306250000000001,0.1007407407407407],[0.12927083333333325,0.09018518518518527],[0.13250000000000003,0.029814814814814856],[0.13229166666666667,-0.0012962962962963806],[0.13635416666666675,-0.02296296296296292],[0.1404166666666666,-0.03592592592592588],[0.1404166666666666,-0.03592592592592588],[0.1412499999999999,-0.049074074074074076],[0.14177083333333323,-0.08555555555555554],[0.1408333333333334,-0.1205555555555556],[0.1408333333333334,-0.1412962962962963],[0.1408333333333334,-0.1412962962962963],[0.14114583333333333,-0.23777777777777773],[0.1430208333333333,-0.31296296296296294],[0.14010416666666667,-0.2740740740740741],[0.14427083333333332,-0.29314814814814816],[0.1412499999999999,-0.31574074074074077],[0.14020833333333324,-0.3388888888888889],[0.14416666666666675,-0.36666666666666664],[0.1460416666666667,-0.37092592592592594],[0.14197916666666663,-0.3507407407407407],[0.14197916666666663,-0.3507407407407407],[0.13854166666666667,-0.34740740740740744],[0.13854166666666667,-0.34740740740740744],[0.134375,-0.28833333333333333],[0.12489583333333343,-0.2683333333333333],[0.10989583333333333,-0.31296296296296294],[0.09208333333333343,-0.31611111111111106],[0.09208333333333343,-0.31611111111111106],[0.07635416666666663,-0.31722222222222224],[0.07635416666666663,-0.31722222222222224],[0.0625,-0.32629629629629625],[0.06197916666666667,-0.32685185185185184],[0.06302083333333333,-0.33925925925925926],[0.06479166666666672,-0.37407407407407406],[0.06479166666666672,-0.37407407407407406],[0.05281250000000005,-0.41351851851851856],[0.03875000000000005,-0.4648148148148148],[0.03875000000000005,-0.4648148148148148],[0.035104166666666714,-0.5096296296296297],[0.03843749999999998,-0.5433333333333333],[0.042916666666666714,-0.5477777777777778],[0.04885416666666664,-0.5733333333333334],[0.05291666666666662,-0.590925925925926],[0.03885416666666662,-0.6012962962962963],[0.024791666666666618,-0.6116666666666667],[0.016875000000000046,-0.6253703703703704],[0.021562500000000047,-0.637962962962963],[0.0265625,-0.6553703703703704],[0.02833333333333338,-0.6438888888888888],[0.03166666666666664,-0.6375925925925926],[0.02958333333333331,-0.6440740740740741],[0.02958333333333331,-0.6440740740740741],[0.03104166666666662,-0.6527777777777778],[0.03104166666666662,-0.6527777777777778],[0.030520833333333285,-0.6481481481481481],[0.030520833333333285,-0.6481481481481481],[0.033749999999999974,-0.6457407407407407],[0.033749999999999974,-0.6457407407407407],[0.04072916666666669,-0.6505555555555556],[0.043333333333333356,-0.6616666666666667],[0.043333333333333356,-0.6616666666666667],[0.04770833333333328,-0.6735185185185185],[0.04770833333333328,-0.6735185185185185],[0.058124999999999954,-0.6805555555555556],[0.06760416666666676,-0.6892592592592592],[0.08020833333333334,-0.6892592592592592],[0.09281249999999991,-0.6892592592592592],[0.10020833333333339,-0.6803703703703703],[0.10958333333333338,-0.6848148148148149],[0.11593749999999996,-0.6892592592592592],[0.11927083333333334,-0.6874074074074074],[0.12406249999999991,-0.6794444444444444],[0.12708333333333333,-0.6707407407407407],[0.12614583333333323,-0.6312962962962962],[0.12614583333333323,-0.5901851851851851],[0.12406249999999991,-0.5438888888888889],[0.12406249999999991,-0.5438888888888889],[0.12260416666666671,-0.4968518518518519],[0.12260416666666671,-0.4968518518518519],[0.1258333333333333,-0.4612962962962963],[0.1258333333333333,-0.4612962962962963],[0.12979166666666658,-0.43388888888888894],[0.13802083333333334,-0.40129629629629626],[0.14552083333333338,-0.3677777777777778],[0.15333333333333338,-0.34500000000000003],[0.16114583333333338,-0.32222222222222224],[0.16843750000000005,-0.33777777777777773],[0.1736458333333334,-0.34444444444444444],[0.1736458333333334,-0.34444444444444444],[0.17687499999999995,-0.35240740740740745],[0.18416666666666662,-0.3774074074074074],[0.18979166666666672,-0.39148148148148143],[0.18979166666666672,-0.37111111111111106],[0.17833333333333337,-0.34500000000000003],[0.1696875000000001,-0.3346296296296296],[0.16270833333333337,-0.31203703703703706],[0.15239583333333329,-0.305],[0.14208333333333342,-0.29796296296296293],[0.14208333333333342,-0.29796296296296293],[0.1345833333333334,-0.2887037037037037],[0.12750000000000009,-0.28351851851851856],[0.11572916666666658,-0.262037037037037],[0.10437500000000005,-0.2572222222222222],[0.09791666666666667,-0.27870370370370373],[0.09802083333333324,-0.30574074074074076],[0.09562499999999995,-0.3022222222222222],[0.096875,-0.30944444444444447],[0.10145833333333343,-0.30111111111111116],[0.10031249999999996,-0.3025925925925925]]","[[-0.23052083333333329,-0.2146296296296296,0.0003000001907338401],[-0.23052083333333329,-0.2146296296296296,0.049000000000006594],[-0.22999999999999995,-0.22999999999999998,0.062400000095365726],[-0.22947916666666662,-0.24537037037037038,0.07880000019073918],[-0.23062499999999997,-0.25925925925925924,0.09359999990464019],[-0.23177083333333334,-0.27314814814814814,0.10850000000000648],[-0.2319791666666667,-0.2866666666666667,0.12490000009536573],[-0.23072916666666668,-0.2868518518518518,0.14150000000000773],[-0.228125,-0.27981481481481485,0.15820000028610082],[-0.22625000000000003,-0.272037037037037,0.17770000028610866],[-0.2163541666666667,-0.2522222222222222,0.1915000000000049],[-0.21260416666666668,-0.23944444444444446,0.20859999990463507],[-0.20260416666666667,-0.21185185185185182,0.2269000000953696],[-0.19968750000000005,-0.20055555555555557,0.24159999990463632],[-0.1907291666666667,-0.17851851851851847,0.25849999999999795],[-0.18177083333333333,-0.15648148148148147,0.2802000002861007],[-0.18177083333333333,-0.15648148148148147,0.2945999999046336],[-0.17395833333333333,-0.1381481481481482,0.3082000002861065],[-0.1658333333333334,-0.12370370370370372,0.32490000009536857],[-0.15885416666666666,-0.11500000000000005,0.3415000000000106],[-0.15114583333333337,-0.10703703703703706,0.3584000000953722],[-0.15125000000000005,-0.11629629629629631,0.3749000000953657],[-0.14312499999999997,-0.09833333333333337,0.391599999904642],[-0.1430208333333333,-0.10240740740740743,0.40840000009536936],[-0.1373958333333333,-0.10537037037037032,0.42500000000001137],[-0.1373958333333333,-0.11481481481481481,0.444500000000005],[-0.1373958333333333,-0.11481481481481481,0.4584000000953665],[-0.13697916666666668,-0.11314814814814819,0.4750000000000085],[-0.13500000000000004,-0.11296296296296296,0.4957000002861065],[-0.13479166666666664,-0.11851851851851852,0.5110999999046442],[-0.13447916666666668,-0.11537037037037039,0.52509999990464],[-0.13385416666666666,-0.10888888888888891,0.5415999999046335],[-0.13114583333333332,-0.1,0.5582000002861065],[-0.13072916666666667,-0.1037037037037037,0.5778000001907344],[-0.13958333333333334,-0.13222222222222219,0.5915999999046306],[-0.14468749999999997,-0.13944444444444445,0.6082000002861037],[-0.15218750000000003,-0.15481481481481485,0.6252000002861138],[-0.16010416666666671,-0.18129629629629626,0.6415000000000077],[-0.16072916666666662,-0.18277777777777776,0.6582000002861008],[-0.16072916666666662,-0.18111111111111114,0.6807000002861088],[-0.16458333333333333,-0.17074074074074072,0.6954000000953755],[-0.16875,-0.16370370370370366,0.7095999999046398],[-0.17052083333333337,-0.14500000000000002,0.7249000000953743],[-0.17468750000000005,-0.12907407407407406,0.741500000000002],[-0.17114583333333327,-0.08962962962962959,0.7583000001907436],[-0.16697916666666662,-0.04981481481481477,0.7778000001907373],[-0.15968749999999995,-0.009999999999999959,0.7935000000000088],[-0.15239583333333329,0.029814814814814856,0.8102000002861018],[-0.1514583333333333,0.04870370370370362,0.8250000000000028],[-0.15052083333333333,0.06759259259259259,0.8415999999046306],[-0.14656250000000004,0.07907407407407416,0.8583000001907379],[-0.14104166666666665,0.09277777777777782,0.8773000001907434],[-0.13687499999999997,0.07185185185185176,0.8918000001907416],[-0.13687499999999997,0.07185185185185176,0.9083000001907351],[-0.13156249999999994,0.06592592592592597,0.9248000001907428],[-0.12562500000000001,0.04814814814814815,0.9448000001907388],[-0.13156249999999994,0.007037037037036953,0.9640999999046329],[-0.13156249999999994,0.007037037037036953,0.9750000000000085],[-0.13843749999999996,-0.029814814814814856,0.9915999999046363],[-0.13843749999999996,-0.029814814814814856,1.0082000002861093],[-0.14770833333333327,-0.07574074074074069,1.0249000000953714],[-0.14770833333333327,-0.07574074074074069,1.0414999999999992],[-0.15531250000000002,-0.10166666666666663,1.0583000001907408],[-0.15531250000000002,-0.10166666666666663,1.0752000002861024],[-0.16218750000000004,-0.13481481481481483,1.0915999999046306],[-0.1664583333333333,-0.16648148148148145,1.1135999999046362],[-0.1664583333333333,-0.16648148148148145,1.1249000000953657],[-0.17406250000000004,-0.2131481481481482,1.1415000000000077],[-0.17406250000000004,-0.2131481481481482,1.158300000190735],[-0.17541666666666664,-0.22037037037037038,1.1750000000000114],[-0.17552083333333332,-0.2375925925925926,1.1928000001907435],[-0.178125,-0.2448148148148148,1.2083000001907465],[-0.178125,-0.2448148148148148,1.2249000000953743],[-0.1720833333333334,-0.24000000000000005,1.2420000000000044],[-0.16145833333333334,-0.20611111111111113,1.260300000190739],[-0.1484375,-0.16314814814814818,1.2787000002861078],[-0.1373958333333333,-0.13648148148148145,1.2935000000000088],[-0.12749999999999997,-0.09888888888888885,1.3087000002861089],[-0.12864583333333332,-0.10981481481481484,1.3249000000953686],[-0.12364583333333339,-0.1007407407407407,1.3422000002861125],[-0.12843749999999995,-0.10666666666666672,1.358700000286106],[-0.13291666666666668,-0.1051851851851852,1.3792000002861045],[-0.13479166666666664,-0.11296296296296296,1.3967000002861027],[-0.1328125,-0.09703703703703699,1.4122000002861057],[-0.13489583333333333,-0.11185185185185181,1.4265999999046386],[-0.13489583333333333,-0.11185185185185181,1.4415999999046392],[-0.13697916666666668,-0.12666666666666662,1.4583000001907465],[-0.13697916666666668,-0.12666666666666662,1.4750000000000085],[-0.14802083333333335,-0.16259259259259262,1.4917000002861016],[-0.15916666666666662,-0.19166666666666668,1.5082000002861093],[-0.15895833333333337,-0.18037037037037032,1.5249000000953714],[-0.16312500000000002,-0.17629629629629628,1.5415999999046335],[-0.16375000000000003,-0.16722222222222224,1.5587000002861089],[-0.16854166666666662,-0.17407407407407408,1.5773000001907462],[-0.1748958333333333,-0.17240740740740745,1.5940000000000083],[-0.18468749999999995,-0.1896296296296296,1.6114000000953723],[-0.19166666666666668,-0.19796296296296292,1.6272000002861091],[-0.2001041666666667,-0.20981481481481484,1.6443000001907393],[-0.19781249999999997,-0.19592592592592595,1.6625999999046428],[-0.19500000000000003,-0.1925925925925926,1.6795000000000044],[-0.19500000000000003,-0.19314814814814818,1.695599999904644],[-0.1961458333333333,-0.19462962962962968,1.7113000001907466],[-0.19895833333333332,-0.1983333333333334,1.7283000001907425],[-0.20031249999999995,-0.1985185185185185,1.7455999999046412],[-0.19937499999999997,-0.19462962962962968,1.7625000000000028],[-0.1984375,-0.19074074074074074,1.778800000190742],[-0.20197916666666665,-0.20240740740740742,1.7960000000000065],[-0.20364583333333333,-0.2094444444444445,1.8128000001907338],[-0.20906250000000004,-0.22092592592592594,1.828400000095371],[-0.21156250000000001,-0.22851851851851848,1.8449000000953788],[-0.21458333333333332,-0.23537037037037042,1.8603000001907333],[-0.21645833333333328,-0.24129629629629631,1.878200000286114],[-0.21375000000000005,-0.23925925925925923,1.8933000001907345],[-0.21104166666666668,-0.23722222222222225,1.9110999999046356],[-0.20572916666666666,-0.222037037037037,1.9267000002861039],[-0.20041666666666663,-0.20685185185185184,1.9415000000000049],[-0.19395833333333337,-0.18333333333333332,1.9582000002861122],[-0.18218749999999997,-0.14722222222222223,1.9749000000953743],[-0.16604166666666664,-0.08111111111111113,1.9945999999046364],[-0.15281250000000005,-0.018888888888888972,2.010700000286107],[-0.13895833333333332,0.022592592592592678,2.0249000000953714],[-0.13145833333333337,0.052407407407407326,2.04330000019074],[-0.12635416666666663,0.08351851851851856,2.0582000002861065],[-0.11916666666666664,0.12166666666666676,2.076900000095378],[-0.11291666666666664,0.1574074074074074,2.0915000000000106],[-0.11291666666666664,0.1574074074074074,2.108300000190738],[-0.10677083333333333,0.1675925925925926,2.1248000001907457],[-0.09947916666666666,0.20055555555555546,2.14209999990463],[-0.09895833333333333,0.22185185185185177,2.1607000002861128],[-0.10031249999999996,0.21648148148148144,2.176800000190738],[-0.10010416666666669,0.2162962962962962,2.191500000000005],[-0.09937499999999998,0.23666666666666658,2.2083000001907465],[-0.09281250000000002,0.26944444444444443,2.2249000000953743],[-0.0875,0.2898148148148148,2.241500000000002],[-0.08302083333333338,0.30685185185185193,2.260000000000005],[-0.08166666666666664,0.3116666666666666,2.2785999999046425],[-0.07854166666666665,0.3453703703703704,2.2934000000953745],[-0.07760416666666667,0.35555555555555557,2.308099999904641],[-0.0765625,0.36148148148148157,2.3249000000953686],[-0.07552083333333333,0.36740740740740735,2.3415000000000106],[-0.07604166666666666,0.36814814814814806,2.3585999999046408],[-0.07718750000000002,0.36055555555555563,2.3774000000953777],[-0.07291666666666667,0.3574074074074074,2.393400000095369],[-0.06614583333333333,0.3581481481481481,2.4115000000000038],[-0.06187499999999998,0.35537037037037034,2.424800000190743],[-0.06187499999999998,0.35537037037037034,2.441599999904639],[-0.057604166666666616,0.35259259259259257,2.4583000001907465],[-0.057604166666666616,0.35259259259259257,2.4749000000953743],[-0.057500000000000044,0.34888888888888886,2.4915999999046363],[-0.057500000000000044,0.34888888888888886,2.5082000002861093],[-0.0546875,0.34666666666666673,2.5249000000953714],[-0.0546875,0.34666666666666673,2.541700000286113],[-0.05166666666666669,0.34,2.5583000001907408],[-0.049687500000000044,0.3388888888888889,2.5778000001907344],[-0.04895833333333333,0.3362962962962963,2.59170000028611],[-0.044270833333333336,0.3522222222222223,2.6082000002861037],[-0.04541666666666669,0.3566666666666667,2.625400000095368],[-0.04812500000000005,0.36129629629629634,2.6415000000000077],[-0.05145833333333331,0.3616666666666666,2.658300000190735],[-0.05479166666666669,0.36203703703703705,2.6795999999046387],[-0.05541666666666671,0.36203703703703705,2.693300000190746],[-0.05770833333333331,0.36129629629629634,2.708200000286112],[-0.058645833333333286,0.36814814814814806,2.7249000000953743],[-0.058541666666666714,0.36944444444444446,2.741500000000002],[-0.057187499999999974,0.37222222222222223,2.7582000002861093],[-0.05656249999999995,0.36925925925925923,2.7764000000953786],[-0.05593750000000005,0.37296296296296294,2.791499999999999],[-0.05666666666666664,0.37296296296296294,2.8082000002861065],[-0.05458333333333331,0.3827777777777779,2.8248000001907343],[-0.05270833333333336,0.39148148148148143,2.8415000000000106],[-0.05260416666666667,0.3985185185185186,2.8582000002861037],[-0.05385416666666672,0.39166666666666666,2.878700000286102],[-0.05520833333333333,0.3911111111111112,2.8929000000953664],[-0.05541666666666671,0.39222222222222214,2.9110999999046356],[-0.05697916666666671,0.3972222222222222,2.928200000286111],[-0.06114583333333338,0.3977777777777777,2.944200000286102],[-0.06333333333333328,0.4075925925925926,2.972599999904631],[-0.06333333333333328,0.4075925925925926,2.9809000000953745],[-0.06364583333333336,0.4207407407407408,2.9917000002861016],[-0.06364583333333336,0.4207407407407408,3.008499999999998],[-0.06593749999999995,0.4301851851851851,3.0297000002861125],[-0.06593749999999995,0.4301851851851851,3.041800000190733],[-0.06166666666666672,0.43574074074074065,3.0585000000000093],[-0.06166666666666672,0.43574074074074065,3.0792000002861073],[-0.05593750000000005,0.41444444444444434,3.0918000001907444],[-0.05593750000000005,0.41444444444444434,3.1085000000000065],[-0.04729166666666664,0.41796296296296304,3.130599999904632],[-0.04729166666666664,0.41796296296296304,3.1418000001907416],[-0.033749999999999974,0.40851851851851856,3.1585000000000036],[-0.028125,0.42055555555555557,3.180000000000007],[-0.013541666666666667,0.4009259259259259,3.1954000000953755],[0.0016666666666666904,0.3925925925925926,3.2098000001907394],[0.011562500000000024,0.3624074074074075,3.2310000000000088],[0.02374999999999995,0.33277777777777784,3.245200000286104],[0.034375,0.3022222222222223,3.2623000001907343],[0.03864583333333336,0.2766666666666666,3.278400000095374],[0.043020833333333286,0.27092592592592585,3.295900000095372],[0.04989583333333331,0.23499999999999996,3.311000000000007],[0.049374999999999974,0.21055555555555563,3.3267000002861096],[0.05562499999999997,0.16296296296296298,3.3430000000000035],[0.05364583333333333,0.14370370370370375,3.358400000095372],[0.046875,0.105925925925926,3.3777000002861115],[0.04562499999999995,0.07462962962962955,3.391599999904642],[0.04239583333333338,0.05222222222222231,3.4158000001907425],[0.04239583333333338,0.05222222222222231,3.424900000095377],[0.0515625,0.044999999999999915,3.441599999904639],[0.0515625,0.044999999999999915,3.458200000286112],[0.060104166666666715,0.03037037037037033,3.4749000000953743],[0.060104166666666715,0.03037037037037033,3.4915999999046363],[0.059791666666666646,-0.03629629629629634,3.5082000002861093],[0.04812500000000005,-0.07666666666666662,3.5263000001907443],[0.03843749999999998,-0.1227777777777778,3.541499999999999],[0.028750000000000022,-0.16888888888888887,3.5582000002861065],[0.02791666666666662,-0.2116666666666667,3.580599999904635],[0.03208333333333328,-0.24148148148148144,3.5947000002861103],[0.035000000000000024,-0.2655555555555555,3.610500000000002],[0.03104166666666662,-0.3103703703703704,3.6262000002861043],[0.01729166666666669,-0.3714814814814815,3.641900000095376],[0.007604166666666619,-0.42055555555555557,3.658200000286101],[0.0067708333333333336,-0.41092592592592586,3.679000000000002],[0.010312499999999976,-0.40611111111111114,3.6940000000000026],[0.01427083333333338,-0.4022222222222222,3.708200000286112],[0.024166666666666715,-0.3990740740740741,3.7269000000953696],[0.024062500000000025,-0.39666666666666667,3.7435000000000116],[0.02385416666666664,-0.4007407407407407,3.758099999904644],[0.02010416666666662,-0.4124074074074074,3.778000000000006],[0.017916666666666713,-0.4166666666666667,3.7934000000953745],[0.01572916666666669,-0.4209259259259259,3.8095],[0.006666666666666643,-0.42833333333333334,3.8248000001907343],[0.006666666666666643,-0.42833333333333334,3.8415000000000106],[-0.002395833333333286,-0.43574074074074076,3.8580999999046384],[-0.012083333333333357,-0.4440740740740741,3.8769000000953753],[-0.027499999999999976,-0.4631481481481482,3.893500000000003],[-0.04479166666666667,-0.47018518518518515,3.9080999999046355],[-0.06031249999999998,-0.4905555555555555,3.9262000002861015],[-0.0765625,-0.5101851851851852,3.9440000000000026],[-0.09500000000000004,-0.5238888888888888,3.961900000095369],[-0.11166666666666672,-0.5259259259259259,3.9787000002861106],[-0.12177083333333331,-0.5105555555555555,3.995599999904641],[-0.13020833333333334,-0.5077777777777778,4.012500000000003],[-0.13989583333333327,-0.5070370370370371,4.02830000019074],[-0.1460416666666667,-0.507962962962963,4.044499999999999],[-0.12906249999999997,-0.4487037037037037,4.059700000286114],[-0.11927083333333334,-0.397037037037037,4.077800000190734],[-0.11218750000000005,-0.3322222222222222,4.09470000028611],[-0.10447916666666662,-0.2722222222222222,4.1110999999046385],[-0.09312499999999997,-0.21388888888888888,4.124900000095366],[-0.0765625,-0.15925925925925927,4.141900000095376],[-0.06229166666666662,-0.12537037037037035,4.158200000286101],[-0.04552083333333338,-0.07740740740740742,4.1773000001907405],[-0.024895833333333308,-0.01629629629629621,4.1935],[-0.004270833333333357,0.04518518518518514,4.208500000000001],[-0.004999999999999952,0.06074074074074066,4.224900000095374],[-0.002708333333333357,0.07388888888888885,4.244099999904634],[-0.000833333333333286,0.07481481481481478,4.259700000286102],[-0.000833333333333286,0.07481481481481478,4.274900000095371],[0.000416666666666643,0.08055555555555556,4.2915999999046335],[-0.005520833333333286,0.10388888888888893,4.310300000190736],[-0.013125000000000024,0.1257407407407407,4.327800000190734],[0.000416666666666643,0.14148148148148143,4.34170000028611],[0.013229166666666714,0.15425925925925918,4.358400000095372],[0.021875,0.1596296296296297,4.380200000286109],[0.03156249999999995,0.16018518518518518,4.394500000000008],[0.04479166666666667,0.1581481481481481,4.410400000095379],[0.051041666666666666,0.15259259259259256,4.425700000286113],[0.051041666666666666,0.15259259259259256,4.441599999904639],[0.06041666666666667,0.15629629629629627,4.458200000286112],[0.06041666666666667,0.15629629629629627,4.474900000095374],[0.07104166666666671,0.16537037037037028,4.491500000000002],[0.09020833333333324,0.15648148148148147,4.508700000286112],[0.1078125,0.14240740740740737,4.524900000095371],[0.1,0.13777777777777775,4.54330000019074],[0.09322916666666667,0.13148148148148148,4.563099999904637],[0.09468750000000009,0.12925925925925918,4.57859999990464],[0.08958333333333333,0.1175925925925926,4.593300000190737],[0.08447916666666658,0.105925925925926,4.608300000190738],[0.07833333333333338,0.09462962962962967,4.628599999904637],[0.08375000000000009,0.10870370370370379,4.644300000190739],[0.06593749999999995,0.07592592592592592,4.660000000000011],[0.04885416666666664,0.04685185185185177,4.682900000095373],[0.04885416666666664,0.04685185185185177,4.6917000002861045],[0.0546875,0.06944444444444445,4.7084000000953665],[0.0546875,0.06944444444444445,4.725099999904643],[0.0546875,0.07703703703703708,4.745900000095375],[0.058124999999999954,0.09722222222222222,4.762700000286102],[0.05489583333333338,0.10962962962962972,4.779300000190744],[0.05489583333333338,0.10962962962962972,4.7953000001907355],[0.06052083333333336,0.14666666666666675,4.808599999904644],[0.06635416666666671,0.1868518518518518,4.8270999999046325],[0.07958333333333342,0.22314814814814815,4.8455999999046355],[0.07958333333333342,0.22314814814814815,4.8585000000000065],[0.07927083333333323,0.23277777777777786,4.875],[0.10145833333333343,0.28833333333333344,4.892300000190744],[0.12635416666666663,0.3485185185185186,4.911800000190738],[0.12989583333333338,0.3592592592592593,4.926599999904639],[0.13927083333333337,0.38499999999999995,4.9417000002861045],[0.14229166666666657,0.4038888888888889,4.9654000000953715],[0.14229166666666657,0.4038888888888889,4.976700000286101],[0.14416666666666675,0.42111111111111105,4.991800000190736],[0.14416666666666675,0.42111111111111105,5.008300000190744],[0.1443749999999999,0.4196296296296297,5.029000000000011],[0.1443749999999999,0.4196296296296297,5.041800000190733],[0.13895833333333343,0.4196296296296297,5.058599999904644],[0.13895833333333343,0.4196296296296297,5.074900000095369],[0.13802083333333334,0.4335185185185186,5.0955999999046355],[0.13802083333333334,0.4335185185185186,5.108400000095372],[0.1400000000000001,0.45925925925925926,5.125099999904634],[0.1414583333333333,0.48055555555555557,5.145400000095378],[0.13531250000000009,0.4898148148148148,5.163599999904633],[0.13531250000000009,0.4898148148148148,5.174800000190743],[0.12833333333333338,0.49981481481481477,5.191500000000005],[0.11281249999999995,0.4612962962962963,5.211400000095367],[0.09291666666666672,0.415925925925926,5.2250000000000085],[0.07927083333333323,0.39277777777777784,5.241500000000002],[0.0671875,0.3731481481481482,5.258700000286112],[0.06052083333333336,0.34888888888888886,5.2779000000953715],[0.05406249999999998,0.33185185185185195,5.2934000000953745],[0.04666666666666662,0.3042592592592592,5.310200000286102],[0.03739583333333331,0.26129629629629636,5.324800000190734],[0.03302083333333338,0.2257407407407407,5.341599999904631],[0.02645833333333331,0.19240740740740736,5.358700000286106],[0.028750000000000022,0.20999999999999996,5.377900000095366],[0.03947916666666664,0.21907407407407398,5.391900000095376],[0.042604166666666644,0.19444444444444445,5.410900000095367],[0.04083333333333338,0.1742592592592593,5.425200000286111],[0.04083333333333338,0.1742592592592593,5.441599999904639],[0.036458333333333336,0.17333333333333337,5.4583000001907465],[0.036458333333333336,0.17333333333333337,5.474900000095374],[0.021041666666666715,0.127962962962963,5.491500000000002],[-0.0020833333333333333,0.06648148148148143,5.508300000190744],[-0.014999999999999977,0.03833333333333342,5.525200000286105],[-0.02791666666666662,0.010185185185185186,5.541700000286113],[-0.03864583333333336,-0.020185185185185143,5.558599999904644],[-0.053125,-0.06092592592592588,5.577900000095369],[-0.06635416666666671,-0.08074074074074078,5.593300000190737],[-0.07739583333333329,-0.06888888888888887,5.608200000286104],[-0.0889583333333333,-0.0794444444444444,5.632400000095373],[-0.0889583333333333,-0.0794444444444444,5.641500000000008],[-0.08052083333333329,-0.041111111111111195,5.658200000286101],[-0.06114583333333338,0.04351851851851852,5.678300000190745],[-0.03458333333333338,0.1270370370370371,5.6954000000953755],[-0.01854166666666662,0.1925925925925926,5.7109000000953785],[-0.0037500000000000237,0.25259259259259254,5.726400000095367],[0.011041666666666691,0.31259259259259253,5.741700000286102],[0.028645833333333332,0.369074074074074,5.762599999904637],[0.049479166666666664,0.4316666666666667,5.778700000286108],[0.07208333333333337,0.4788888888888889,5.794599999904634],[0.09718749999999995,0.5498148148148148,5.814900000095378],[0.09718749999999995,0.5498148148148148,5.8255999999046395],[0.09947916666666666,0.5599999999999999,5.841900000095379],[0.09114583333333333,0.5348148148148147,5.859700000286111],[0.09114583333333333,0.5348148148148147,5.8818000001907365],[0.09208333333333343,0.49425925925925923,5.891800000190742],[0.09760416666666671,0.4757407407407407,5.910000000000011],[0.10072916666666672,0.4527777777777778,5.930400000095375],[0.10072916666666672,0.4527777777777778,5.9417000002861045],[0.10729166666666666,0.4005555555555555,5.9584000000953665],[0.1125,0.3668518518518519,5.975599999904631],[0.10906250000000005,0.30925925925925923,5.9942000002861135],[0.10791666666666658,0.24018518518518528,6.0120000000000005],[0.10729166666666666,0.18185185185185193,6.02809999990464],[0.11354166666666667,0.11462962962962958,6.047000000000011],[0.11354166666666667,0.11462962962962958,6.0582000002861065],[0.12614583333333323,0.07166666666666675,6.075000000000003],[0.1306250000000001,0.1007407407407407,6.091999999999999],[0.12927083333333325,0.09018518518518527,6.11180000019074],[0.13250000000000003,0.029814814814814856,6.127099999904644],[0.13229166666666667,-0.0012962962962963806,6.143599999904637],[0.13635416666666675,-0.02296296296296292,6.162700000286108],[0.1404166666666666,-0.03592592592592588,6.178900000095368],[0.1404166666666666,-0.03592592592592588,6.191800000190739],[0.1412499999999999,-0.049074074074074076,6.212000000000003],[0.14177083333333323,-0.08555555555555554,6.2265000000000015],[0.1408333333333334,-0.1205555555555556,6.2439000000953655],[0.1408333333333334,-0.1412962962962963,6.263400000095373],[0.1408333333333334,-0.1412962962962963,6.27509999990464],[0.14114583333333333,-0.23777777777777773,6.291700000286113],[0.1430208333333333,-0.31296296296296294,6.313300000190736],[0.14010416666666667,-0.2740740740740741,6.328000000000003],[0.14427083333333332,-0.29314814814814816,6.342500000000001],[0.1412499999999999,-0.31574074074074077,6.362300000190743],[0.14020833333333324,-0.3388888888888889,6.3785000000000025],[0.14416666666666675,-0.36666666666666664,6.393400000095369],[0.1460416666666667,-0.37092592592592594,6.410300000190745],[0.14197916666666663,-0.3507407407407407,6.424800000190743],[0.14197916666666663,-0.3507407407407407,6.441599999904639],[0.13854166666666667,-0.34740740740740744,6.4583000001907465],[0.13854166666666667,-0.34740740740740744,6.474900000095374],[0.134375,-0.28833333333333333,6.491500000000002],[0.12489583333333343,-0.2683333333333333,6.511300000190744],[0.10989583333333333,-0.31296296296296294,6.525700000286108],[0.09208333333333343,-0.31611111111111106,6.557000000000002],[0.09208333333333343,-0.31611111111111106,6.565900000095368],[0.07635416666666663,-0.31722222222222224,6.574900000095369],[0.07635416666666663,-0.31722222222222224,6.591500000000011],[0.0625,-0.32629629629629625,6.611400000095372],[0.06197916666666667,-0.32685185185185184,6.628],[0.06302083333333333,-0.33925925925925926,6.6432000002861],[0.06479166666666672,-0.37407407407407406,6.666000000000011],[0.06479166666666672,-0.37407407407407406,6.674900000095377],[0.05281250000000005,-0.41351851851851856,6.691800000190739],[0.03875000000000005,-0.4648148148148148,6.714099999904633],[0.03875000000000005,-0.4648148148148148,6.72480000019074],[0.035104166666666714,-0.5096296296296297,6.741500000000002],[0.03843749999999998,-0.5433333333333333,6.760099999904639],[0.042916666666666714,-0.5477777777777778,6.77830000019074],[0.04885416666666664,-0.5733333333333334,6.794800000190733],[0.05291666666666662,-0.590925925925926,6.811700000286109],[0.03885416666666662,-0.6012962962962963,6.8277000002861],[0.024791666666666618,-0.6116666666666667,6.843400000095372],[0.016875000000000046,-0.6253703703703704,6.858599999904641],[0.021562500000000047,-0.637962962962963,6.8777000002861115],[0.0265625,-0.6553703703703704,6.891500000000008],[0.02833333333333338,-0.6438888888888888,6.910900000095367],[0.03166666666666664,-0.6375925925925926,6.926800000190738],[0.02958333333333331,-0.6440740740740741,6.9435],[0.02958333333333331,-0.6440740740740741,6.958099999904633],[0.03104166666666662,-0.6527777777777778,6.97480000019074],[0.03104166666666662,-0.6527777777777778,6.991500000000002],[0.030520833333333285,-0.6481481481481481,7.008200000286109],[0.030520833333333285,-0.6481481481481481,7.024900000095371],[0.033749999999999974,-0.6457407407407407,7.041499999999999],[0.033749999999999974,-0.6457407407407407,7.0582000002861065],[0.04072916666666669,-0.6505555555555556,7.074800000190734],[0.043333333333333356,-0.6616666666666667,7.097800000190745],[0.043333333333333356,-0.6616666666666667,7.108200000286104],[0.04770833333333328,-0.6735185185185185,7.124800000190746],[0.04770833333333328,-0.6735185185185185,7.141500000000008],[0.058124999999999954,-0.6805555555555556,7.1580999999046355],[0.06760416666666676,-0.6892592592592592,7.1788000001907335],[0.08020833333333334,-0.6892592592592592,7.194500000000005],[0.09281249999999991,-0.6892592592592592,7.210800000190744],[0.10020833333333339,-0.6803703703703703,7.226400000095367],[0.10958333333333338,-0.6848148148148149,7.241800000190736],[0.11593749999999996,-0.6892592592592592,7.258599999904632],[0.11927083333333334,-0.6874074074074074,7.276499999999999],[0.12406249999999991,-0.6794444444444444,7.293200000286106],[0.12708333333333333,-0.6707407407407407,7.309800000190734],[0.12614583333333323,-0.6312962962962962,7.324800000190734],[0.12614583333333323,-0.5901851851851851,7.342900000095369],[0.12406249999999991,-0.5438888888888889,7.3604000000953675],[0.12406249999999991,-0.5438888888888889,7.394300000190739],[0.12260416666666671,-0.4968518518518519,7.4165999999046335],[0.12260416666666671,-0.4968518518518519,7.4280000000000115],[0.1258333333333333,-0.4612962962962963,7.441599999904639],[0.1258333333333333,-0.4612962962962963,7.458200000286112],[0.12979166666666658,-0.43388888888888894,7.474900000095374],[0.13802083333333334,-0.40129629629629626,7.491500000000002],[0.14552083333333338,-0.3677777777777778,7.510099999904639],[0.15333333333333338,-0.34500000000000003,7.524800000190737],[0.16114583333333338,-0.32222222222222224,7.541499999999999],[0.16843750000000005,-0.33777777777777773,7.558099999904641],[0.1736458333333334,-0.34444444444444444,7.577200000286112],[0.1736458333333334,-0.34444444444444444,7.591500000000011],[0.17687499999999995,-0.35240740740740745,7.608200000286104],[0.18416666666666662,-0.3774074074074074,7.624800000190746],[0.18979166666666672,-0.39148148148148143,7.6414000000953735],[0.18979166666666672,-0.37111111111111106,7.6580999999046355],[0.17833333333333337,-0.34500000000000003,7.674800000190743],[0.1696875000000001,-0.3346296296296296,7.691500000000005],[0.16270833333333337,-0.31203703703703706,7.7084000000953665],[0.15239583333333329,-0.305,7.72480000019074],[0.14208333333333342,-0.29796296296296293,7.741500000000002],[0.14208333333333342,-0.29796296296296293,7.758099999904644],[0.1345833333333334,-0.2887037037037037,7.774800000190737],[0.12750000000000009,-0.28351851851851856,7.791499999999999],[0.11572916666666658,-0.262037037037037,7.808099999904641],[0.10437500000000005,-0.2572222222222222,7.824800000190734],[0.09791666666666667,-0.27870370370370373,7.841500000000011],[0.09802083333333324,-0.30574074074074076,7.858200000286104],[0.09562499999999995,-0.3022222222222222,7.876800000190741],[0.096875,-0.30944444444444447,7.891500000000008],[0.10145833333333343,-0.30111111111111116,7.9088000001907375],[0.10031249999999996,-0.3025925925925925,7.925000000000011]]","[0.0003000001907338401,0.049000000000006594,0.062400000095365726,0.07880000019073918,0.09359999990464019,0.10850000000000648,0.12490000009536573,0.14150000000000773,0.15820000028610082,0.17770000028610866,0.1915000000000049,0.20859999990463507,0.2269000000953696,0.24159999990463632,0.25849999999999795,0.2802000002861007,0.2945999999046336,0.3082000002861065,0.32490000009536857,0.3415000000000106,0.3584000000953722,0.3749000000953657,0.391599999904642,0.40840000009536936,0.42500000000001137,0.444500000000005,0.4584000000953665,0.4750000000000085,0.4957000002861065,0.5110999999046442,0.52509999990464,0.5415999999046335,0.5582000002861065,0.5778000001907344,0.5915999999046306,0.6082000002861037,0.6252000002861138,0.6415000000000077,0.6582000002861008,0.6807000002861088,0.6954000000953755,0.7095999999046398,0.7249000000953743,0.741500000000002,0.7583000001907436,0.7778000001907373,0.7935000000000088,0.8102000002861018,0.8250000000000028,0.8415999999046306,0.8583000001907379,0.8773000001907434,0.8918000001907416,0.9083000001907351,0.9248000001907428,0.9448000001907388,0.9640999999046329,0.9750000000000085,0.9915999999046363,1.0082000002861093,1.0249000000953714,1.0414999999999992,1.0583000001907408,1.0752000002861024,1.0915999999046306,1.1135999999046362,1.1249000000953657,1.1415000000000077,1.158300000190735,1.1750000000000114,1.1928000001907435,1.2083000001907465,1.2249000000953743,1.2420000000000044,1.260300000190739,1.2787000002861078,1.2935000000000088,1.3087000002861089,1.3249000000953686,1.3422000002861125,1.358700000286106,1.3792000002861045,1.3967000002861027,1.4122000002861057,1.4265999999046386,1.4415999999046392,1.4583000001907465,1.4750000000000085,1.4917000002861016,1.5082000002861093,1.5249000000953714,1.5415999999046335,1.5587000002861089,1.5773000001907462,1.5940000000000083,1.6114000000953723,1.6272000002861091,1.6443000001907393,1.6625999999046428,1.6795000000000044,1.695599999904644,1.7113000001907466,1.7283000001907425,1.7455999999046412,1.7625000000000028,1.778800000190742,1.7960000000000065,1.8128000001907338,1.828400000095371,1.8449000000953788,1.8603000001907333,1.878200000286114,1.8933000001907345,1.9110999999046356,1.9267000002861039,1.9415000000000049,1.9582000002861122,1.9749000000953743,1.9945999999046364,2.010700000286107,2.0249000000953714,2.04330000019074,2.0582000002861065,2.076900000095378,2.0915000000000106,2.108300000190738,2.1248000001907457,2.14209999990463,2.1607000002861128,2.176800000190738,2.191500000000005,2.2083000001907465,2.2249000000953743,2.241500000000002,2.260000000000005,2.2785999999046425,2.2934000000953745,2.308099999904641,2.3249000000953686,2.3415000000000106,2.3585999999046408,2.3774000000953777,2.393400000095369,2.4115000000000038,2.424800000190743,2.441599999904639,2.4583000001907465,2.4749000000953743,2.4915999999046363,2.5082000002861093,2.5249000000953714,2.541700000286113,2.5583000001907408,2.5778000001907344,2.59170000028611,2.6082000002861037,2.625400000095368,2.6415000000000077,2.658300000190735,2.6795999999046387,2.693300000190746,2.708200000286112,2.7249000000953743,2.741500000000002,2.7582000002861093,2.7764000000953786,2.791499999999999,2.8082000002861065,2.8248000001907343,2.8415000000000106,2.8582000002861037,2.878700000286102,2.8929000000953664,2.9110999999046356,2.928200000286111,2.944200000286102,2.972599999904631,2.9809000000953745,2.9917000002861016,3.008499999999998,3.0297000002861125,3.041800000190733,3.0585000000000093,3.0792000002861073,3.0918000001907444,3.1085000000000065,3.130599999904632,3.1418000001907416,3.1585000000000036,3.180000000000007,3.1954000000953755,3.2098000001907394,3.2310000000000088,3.245200000286104,3.2623000001907343,3.278400000095374,3.295900000095372,3.311000000000007,3.3267000002861096,3.3430000000000035,3.358400000095372,3.3777000002861115,3.391599999904642,3.4158000001907425,3.424900000095377,3.441599999904639,3.458200000286112,3.4749000000953743,3.4915999999046363,3.5082000002861093,3.5263000001907443,3.541499999999999,3.5582000002861065,3.580599999904635,3.5947000002861103,3.610500000000002,3.6262000002861043,3.641900000095376,3.658200000286101,3.679000000000002,3.6940000000000026,3.708200000286112,3.7269000000953696,3.7435000000000116,3.758099999904644,3.778000000000006,3.7934000000953745,3.8095,3.8248000001907343,3.8415000000000106,3.8580999999046384,3.8769000000953753,3.893500000000003,3.9080999999046355,3.9262000002861015,3.9440000000000026,3.961900000095369,3.9787000002861106,3.995599999904641,4.012500000000003,4.02830000019074,4.044499999999999,4.059700000286114,4.077800000190734,4.09470000028611,4.1110999999046385,4.124900000095366,4.141900000095376,4.158200000286101,4.1773000001907405,4.1935,4.208500000000001,4.224900000095374,4.244099999904634,4.259700000286102,4.274900000095371,4.2915999999046335,4.310300000190736,4.327800000190734,4.34170000028611,4.358400000095372,4.380200000286109,4.394500000000008,4.410400000095379,4.425700000286113,4.441599999904639,4.458200000286112,4.474900000095374,4.491500000000002,4.508700000286112,4.524900000095371,4.54330000019074,4.563099999904637,4.57859999990464,4.593300000190737,4.608300000190738,4.628599999904637,4.644300000190739,4.660000000000011,4.682900000095373,4.6917000002861045,4.7084000000953665,4.725099999904643,4.745900000095375,4.762700000286102,4.779300000190744,4.7953000001907355,4.808599999904644,4.8270999999046325,4.8455999999046355,4.8585000000000065,4.875,4.892300000190744,4.911800000190738,4.926599999904639,4.9417000002861045,4.9654000000953715,4.976700000286101,4.991800000190736,5.008300000190744,5.029000000000011,5.041800000190733,5.058599999904644,5.074900000095369,5.0955999999046355,5.108400000095372,5.125099999904634,5.145400000095378,5.163599999904633,5.174800000190743,5.191500000000005,5.211400000095367,5.2250000000000085,5.241500000000002,5.258700000286112,5.2779000000953715,5.2934000000953745,5.310200000286102,5.324800000190734,5.341599999904631,5.358700000286106,5.377900000095366,5.391900000095376,5.410900000095367,5.425200000286111,5.441599999904639,5.4583000001907465,5.474900000095374,5.491500000000002,5.508300000190744,5.525200000286105,5.541700000286113,5.558599999904644,5.577900000095369,5.593300000190737,5.608200000286104,5.632400000095373,5.641500000000008,5.658200000286101,5.678300000190745,5.6954000000953755,5.7109000000953785,5.726400000095367,5.741700000286102,5.762599999904637,5.778700000286108,5.794599999904634,5.814900000095378,5.8255999999046395,5.841900000095379,5.859700000286111,5.8818000001907365,5.891800000190742,5.910000000000011,5.930400000095375,5.9417000002861045,5.9584000000953665,5.975599999904631,5.9942000002861135,6.0120000000000005,6.02809999990464,6.047000000000011,6.0582000002861065,6.075000000000003,6.091999999999999,6.11180000019074,6.127099999904644,6.143599999904637,6.162700000286108,6.178900000095368,6.191800000190739,6.212000000000003,6.2265000000000015,6.2439000000953655,6.263400000095373,6.27509999990464,6.291700000286113,6.313300000190736,6.328000000000003,6.342500000000001,6.362300000190743,6.3785000000000025,6.393400000095369,6.410300000190745,6.424800000190743,6.441599999904639,6.4583000001907465,6.474900000095374,6.491500000000002,6.511300000190744,6.525700000286108,6.557000000000002,6.565900000095368,6.574900000095369,6.591500000000011,6.611400000095372,6.628,6.6432000002861,6.666000000000011,6.674900000095377,6.691800000190739,6.714099999904633,6.72480000019074,6.741500000000002,6.760099999904639,6.77830000019074,6.794800000190733,6.811700000286109,6.8277000002861,6.843400000095372,6.858599999904641,6.8777000002861115,6.891500000000008,6.910900000095367,6.926800000190738,6.9435,6.958099999904633,6.97480000019074,6.991500000000002,7.008200000286109,7.024900000095371,7.041499999999999,7.0582000002861065,7.074800000190734,7.097800000190745,7.108200000286104,7.124800000190746,7.141500000000008,7.1580999999046355,7.1788000001907335,7.194500000000005,7.210800000190744,7.226400000095367,7.241800000190736,7.258599999904632,7.276499999999999,7.293200000286106,7.309800000190734,7.324800000190734,7.342900000095369,7.3604000000953675,7.394300000190739,7.4165999999046335,7.4280000000000115,7.441599999904639,7.458200000286112,7.474900000095374,7.491500000000002,7.510099999904639,7.524800000190737,7.541499999999999,7.558099999904641,7.577200000286112,7.591500000000011,7.608200000286104,7.624800000190746,7.6414000000953735,7.6580999999046355,7.674800000190743,7.691500000000005,7.7084000000953665,7.72480000019074,7.741500000000002,7.758099999904644,7.774800000190737,7.791499999999999,7.808099999904641,7.824800000190734,7.841500000000011,7.858200000286104,7.876800000190741,7.891500000000008,7.9088000001907375,7.925000000000011]","[1731903135155,1731903135194,1731903135207,1731903135223,1731903135238,1731903135253,1731903135269,1731903135286,1731903135303,1731903135322,1731903135336,1731903135353,1731903135371,1731903135386,1731903135403,1731903135425,1731903135439,1731903135453,1731903135469,1731903135486,1731903135503,1731903135519,1731903135536,1731903135553,1731903135569,1731903135589,1731903135603,1731903135619,1731903135640,1731903135656,1731903135670,1731903135686,1731903135703,1731903135722,1731903135736,1731903135753,1731903135770,1731903135786,1731903135803,1731903135825,1731903135840,1731903135854,1731903135869,1731903135886,1731903135903,1731903135922,1731903135938,1731903135955,1731903135970,1731903135986,1731903136003,1731903136022,1731903136036,1731903136053,1731903136069,1731903136089,1731903136109,1731903136119,1731903136136,1731903136153,1731903136169,1731903136186,1731903136203,1731903136220,1731903136236,1731903136258,1731903136269,1731903136286,1731903136303,1731903136319,1731903136337,1731903136353,1731903136369,1731903136386,1731903136405,1731903136423,1731903136438,1731903136453,1731903136469,1731903136487,1731903136503,1731903136524,1731903136541,1731903136557,1731903136571,1731903136586,1731903136603,1731903136620,1731903136636,1731903136653,1731903136669,1731903136686,1731903136703,1731903136722,1731903136738,1731903136756,1731903136772,1731903136789,1731903136807,1731903136824,1731903136840,1731903136856,1731903136873,1731903136890,1731903136907,1731903136923,1731903136940,1731903136957,1731903136973,1731903136989,1731903137005,1731903137023,1731903137038,1731903137056,1731903137071,1731903137086,1731903137103,1731903137119,1731903137139,1731903137155,1731903137169,1731903137188,1731903137203,1731903137221,1731903137236,1731903137253,1731903137269,1731903137287,1731903137305,1731903137321,1731903137336,1731903137353,1731903137369,1731903137386,1731903137405,1731903137423,1731903137438,1731903137453,1731903137469,1731903137486,1731903137503,1731903137522,1731903137538,1731903137556,1731903137569,1731903137586,1731903137603,1731903137619,1731903137636,1731903137653,1731903137669,1731903137686,1731903137703,1731903137722,1731903137736,1731903137753,1731903137770,1731903137786,1731903137803,1731903137824,1731903137838,1731903137853,1731903137869,1731903137886,1731903137903,1731903137921,1731903137936,1731903137953,1731903137969,1731903137986,1731903138003,1731903138023,1731903138037,1731903138055,1731903138073,1731903138089,1731903138117,1731903138125,1731903138136,1731903138153,1731903138174,1731903138186,1731903138203,1731903138224,1731903138236,1731903138253,1731903138275,1731903138286,1731903138303,1731903138324,1731903138340,1731903138354,1731903138375,1731903138390,1731903138407,1731903138423,1731903138440,1731903138455,1731903138471,1731903138487,1731903138503,1731903138522,1731903138536,1731903138560,1731903138569,1731903138586,1731903138603,1731903138619,1731903138636,1731903138653,1731903138671,1731903138686,1731903138703,1731903138725,1731903138739,1731903138755,1731903138771,1731903138786,1731903138803,1731903138823,1731903138838,1731903138853,1731903138871,1731903138888,1731903138903,1731903138922,1731903138938,1731903138954,1731903138969,1731903138986,1731903139003,1731903139021,1731903139038,1731903139053,1731903139071,1731903139088,1731903139106,1731903139123,1731903139140,1731903139157,1731903139173,1731903139189,1731903139204,1731903139222,1731903139239,1731903139256,1731903139269,1731903139286,1731903139303,1731903139322,1731903139338,1731903139353,1731903139369,1731903139389,1731903139404,1731903139419,1731903139436,1731903139455,1731903139472,1731903139486,1731903139503,1731903139525,1731903139539,1731903139555,1731903139570,1731903139586,1731903139603,1731903139619,1731903139636,1731903139653,1731903139669,1731903139688,1731903139708,1731903139723,1731903139738,1731903139753,1731903139773,1731903139789,1731903139804,1731903139827,1731903139836,1731903139853,1731903139870,1731903139890,1731903139907,1731903139924,1731903139940,1731903139953,1731903139972,1731903139990,1731903140003,1731903140020,1731903140037,1731903140056,1731903140071,1731903140086,1731903140110,1731903140121,1731903140136,1731903140153,1731903140173,1731903140186,1731903140203,1731903140219,1731903140240,1731903140253,1731903140270,1731903140290,1731903140308,1731903140319,1731903140336,1731903140356,1731903140369,1731903140386,1731903140403,1731903140422,1731903140438,1731903140455,1731903140469,1731903140486,1731903140503,1731903140522,1731903140536,1731903140555,1731903140570,1731903140586,1731903140603,1731903140619,1731903140636,1731903140653,1731903140670,1731903140686,1731903140703,1731903140722,1731903140738,1731903140753,1731903140777,1731903140786,1731903140803,1731903140823,1731903140840,1731903140855,1731903140871,1731903140886,1731903140907,1731903140923,1731903140939,1731903140959,1731903140970,1731903140986,1731903141004,1731903141026,1731903141036,1731903141054,1731903141075,1731903141086,1731903141103,1731903141120,1731903141139,1731903141156,1731903141173,1731903141191,1731903141203,1731903141219,1731903141237,1731903141256,1731903141272,1731903141288,1731903141307,1731903141323,1731903141336,1731903141357,1731903141371,1731903141388,1731903141408,1731903141420,1731903141436,1731903141458,1731903141473,1731903141487,1731903141507,1731903141523,1731903141538,1731903141555,1731903141569,1731903141586,1731903141603,1731903141619,1731903141636,1731903141656,1731903141670,1731903141701,1731903141710,1731903141719,1731903141736,1731903141756,1731903141772,1731903141788,1731903141810,1731903141819,1731903141836,1731903141859,1731903141869,1731903141886,1731903141905,1731903141923,1731903141939,1731903141956,1731903141972,1731903141988,1731903142003,1731903142022,1731903142036,1731903142055,1731903142071,1731903142088,1731903142103,1731903142119,1731903142136,1731903142153,1731903142169,1731903142186,1731903142203,1731903142219,1731903142242,1731903142253,1731903142269,1731903142286,1731903142303,1731903142323,1731903142339,1731903142355,1731903142371,1731903142386,1731903142403,1731903142421,1731903142438,1731903142454,1731903142469,1731903142487,1731903142505,1731903142539,1731903142561,1731903142573,1731903142586,1731903142603,1731903142619,1731903142636,1731903142655,1731903142669,1731903142686,1731903142703,1731903142722,1731903142736,1731903142753,1731903142769,1731903142786,1731903142803,1731903142819,1731903142836,1731903142853,1731903142869,1731903142886,1731903142903,1731903142919,1731903142936,1731903142953,1731903142969,1731903142986,1731903143003,1731903143021,1731903143036,1731903143053,1731903143069]","[[738.7,424.1],[738.7,424.1],[739.2,415.8],[739.7,407.5],[738.6,400],[737.5,392.5],[737.3,385.2],[738.5,385.1],[741,388.9],[742.8,393.1],[752.3,403.8],[755.9,410.7],[765.5,425.6],[768.3,431.7],[776.9,443.6],[785.5,455.5],[785.5,455.5],[793,465.4],[800.8,473.2],[807.5,477.9],[814.9,482.2],[814.8,477.2],[822.6,486.9],[822.7,484.7],[828.1,483.1],[828.1,478],[828.1,478],[828.5,478.9],[830.4,479],[830.6,476],[830.9,477.7],[831.5,481.2],[834.1,486],[834.5,484],[826,468.6],[821.1,464.7],[813.9,456.4],[806.3,442.1],[805.7,441.3],[805.7,442.2],[802,447.8],[798,451.6],[796.3,461.7],[792.3,470.3],[795.7,491.6],[799.7,513.1],[806.7,534.6],[813.7,556.1],[814.6,566.3],[815.5,576.5],[819.3,582.7],[824.6,590.1],[828.6,578.8],[828.6,578.8],[833.7,575.6],[839.4,566],[833.7,543.8],[833.7,543.8],[827.1,523.9],[827.1,523.9],[818.2,499.1],[818.2,499.1],[810.9,485.1],[810.9,485.1],[804.3,467.2],[800.2,450.1],[800.2,450.1],[792.9,424.9],[792.9,424.9],[791.6,421],[791.5,411.7],[789,407.8],[789,407.8],[794.8,410.4],[805,428.7],[817.5,451.9],[828.1,466.3],[837.6,486.6],[836.5,480.7],[841.3,485.6],[836.7,482.4],[832.4,483.2],[830.6,479],[832.5,487.6],[830.5,479.6],[830.5,479.6],[828.5,471.6],[828.5,471.6],[817.9,452.2],[807.2,436.5],[807.4,442.6],[803.4,444.8],[802.8,449.7],[798.2,446],[792.1,446.9],[782.7,437.6],[776,433.1],[767.9,426.7],[770.1,434.2],[772.8,436],[772.8,435.7],[771.7,434.9],[769,432.9],[767.7,432.8],[768.6,434.9],[769.5,437],[766.1,430.7],[764.5,426.9],[759.3,420.7],[756.9,416.6],[754,412.9],[752.2,409.7],[754.8,410.8],[757.4,411.9],[762.5,420.1],[767.6,428.3],[773.8,441],[785.1,460.5],[800.6,496.2],[813.3,529.8],[826.6,552.2],[833.8,568.3],[838.7,585.1],[845.6,605.7],[851.6,625],[851.6,625],[857.5,630.5],[864.5,648.3],[865,659.8],[863.7,656.9],[863.9,656.8],[864.6,667.8],[870.9,685.5],[876,696.5],[880.3,705.7],[881.6,708.3],[884.6,726.5],[885.5,732],[886.5,735.2],[887.5,738.4],[887,738.8],[885.9,734.7],[890,733],[896.5,733.4],[900.6,731.9],[900.6,731.9],[904.7,730.4],[904.7,730.4],[904.8,728.4],[904.8,728.4],[907.5,727.2],[907.5,727.2],[910.4,723.6],[912.3,723],[913,721.6],[917.5,730.2],[916.4,732.6],[913.8,735.1],[910.6,735.3],[907.4,735.5],[906.8,735.5],[904.6,735.1],[903.7,738.8],[903.8,739.5],[905.1,741],[905.7,739.4],[906.3,741.4],[905.6,741.4],[907.6,746.7],[909.4,751.4],[909.5,755.2],[908.3,751.5],[907,751.2],[906.8,751.8],[905.3,754.5],[901.3,754.8],[899.2,760.1],[899.2,760.1],[898.9,767.2],[898.9,767.2],[896.7,772.3],[896.7,772.3],[900.8,775.3],[900.8,775.3],[906.3,763.8],[906.3,763.8],[914.6,765.7],[914.6,765.7],[927.6,760.6],[933,767.1],[947,756.5],[961.6,752],[971.1,735.7],[982.8,719.7],[993,703.2],[997.1,689.4],[1001.3,686.3],[1007.9,666.9],[1007.4,653.7],[1013.4,628],[1011.5,617.6],[1005,597.2],[1003.8,580.3],[1000.7,568.2],[1000.7,568.2],[1009.5,564.3],[1009.5,564.3],[1017.7,556.4],[1017.7,556.4],[1017.4,520.4],[1006.2,498.6],[996.9,473.7],[987.6,448.8],[986.8,425.7],[990.8,409.6],[993.6,396.6],[989.8,372.4],[976.6,339.4],[967.3,312.9],[966.5,318.1],[969.9,320.7],[973.7,322.8],[983.2,324.5],[983.1,325.8],[982.9,323.6],[979.3,317.3],[977.2,315],[975.1,312.7],[966.4,308.7],[966.4,308.7],[957.7,304.7],[948.4,300.2],[933.6,289.9],[917,286.1],[902.1,275.1],[886.5,264.5],[868.8,257.1],[852.8,256],[843.1,264.3],[835,265.8],[825.7,266.2],[819.8,265.7],[836.1,297.7],[845.5,325.6],[852.3,360.6],[859.7,393],[870.6,424.5],[886.5,454],[900.2,472.3],[916.3,498.2],[936.1,531.2],[955.9,564.4],[955.2,572.8],[957.4,579.9],[959.2,580.4],[959.2,580.4],[960.4,583.5],[954.7,596.1],[947.4,607.9],[960.4,616.4],[972.7,623.3],[981,626.2],[990.3,626.5],[1003,625.4],[1009,622.4],[1009,622.4],[1018,624.4],[1018,624.4],[1028.2,629.3],[1046.6,624.5],[1063.5,616.9],[1056,614.4],[1049.5,611],[1050.9,609.8],[1046,603.5],[1041.1,597.2],[1035.2,591.1],[1040.4,598.7],[1023.3,581],[1006.9,565.3],[1006.9,565.3],[1012.5,577.5],[1012.5,577.5],[1012.5,581.6],[1015.8,592.5],[1012.7,599.2],[1012.7,599.2],[1018.1,619.2],[1023.7,640.9],[1036.4,660.5],[1036.4,660.5],[1036.1,665.7],[1057.4,695.7],[1081.3,728.2],[1084.7,734],[1093.7,747.9],[1096.6,758.1],[1096.6,758.1],[1098.4,767.4],[1098.4,767.4],[1098.6,766.6],[1098.6,766.6],[1093.4,766.6],[1093.4,766.6],[1092.5,774.1],[1092.5,774.1],[1094.4,788],[1095.8,799.5],[1089.9,804.5],[1089.9,804.5],[1083.2,809.9],[1068.3,789.1],[1049.2,764.6],[1036.1,752.1],[1024.5,741.5],[1018.1,728.4],[1011.9,719.2],[1004.8,704.3],[995.9,681.1],[991.7,661.9],[985.4,643.9],[987.6,653.4],[997.9,658.3],[1000.9,645],[999.2,634.1],[999.2,634.1],[995,633.6],[995,633.6],[980.2,609.1],[958,575.9],[945.6,560.7],[933.2,545.5],[922.9,529.1],[909,507.1],[896.3,496.4],[885.7,502.8],[874.6,497.1],[874.6,497.1],[882.7,517.8],[901.3,563.5],[926.8,608.6],[942.2,644],[956.4,676.4],[970.6,708.8],[987.5,739.3],[1007.5,773.1],[1029.2,798.6],[1053.3,836.9],[1053.3,836.9],[1055.5,842.4],[1047.5,828.8],[1047.5,828.8],[1048.4,806.9],[1053.7,796.9],[1056.7,784.5],[1056.7,784.5],[1063,756.3],[1068,738.1],[1064.7,707],[1063.6,669.7],[1063,638.2],[1069,601.9],[1069,601.9],[1081.1,578.7],[1085.4,594.4],[1084.1,588.7],[1087.2,556.1],[1087,539.3],[1090.9,527.6],[1094.8,520.6],[1094.8,520.6],[1095.6,513.5],[1096.1,493.8],[1095.2,474.9],[1095.2,463.7],[1095.2,463.7],[1095.5,411.6],[1097.3,371],[1094.5,392],[1098.5,381.7],[1095.6,369.5],[1094.6,357],[1098.4,342],[1100.2,339.7],[1096.3,350.6],[1096.3,350.6],[1093,352.4],[1093,352.4],[1089,384.3],[1079.9,395.1],[1065.5,371],[1048.4,369.3],[1048.4,369.3],[1033.3,368.7],[1033.3,368.7],[1020,363.8],[1019.5,363.5],[1020.5,356.8],[1022.2,338],[1022.2,338],[1010.7,316.7],[997.2,289],[997.2,289],[993.7,264.8],[996.9,246.6],[1001.2,244.2],[1006.9,230.4],[1010.8,220.9],[997.3,215.3],[983.8,209.7],[976.2,202.3],[980.7,195.5],[985.5,186.1],[987.2,192.3],[990.4,195.7],[988.4,192.2],[988.4,192.2],[989.8,187.5],[989.8,187.5],[989.3,190],[989.3,190],[992.4,191.3],[992.4,191.3],[999.1,188.7],[1001.6,182.7],[1001.6,182.7],[1005.8,176.3],[1005.8,176.3],[1015.8,172.5],[1024.9,167.8],[1037,167.8],[1049.1,167.8],[1056.2,172.6],[1065.2,170.2],[1071.3,167.8],[1074.5,168.8],[1079.1,173.1],[1082,177.8],[1081.1,199.1],[1081.1,221.3],[1079.1,246.3],[1079.1,246.3],[1077.7,271.7],[1077.7,271.7],[1080.8,290.9],[1080.8,290.9],[1084.6,305.7],[1092.5,323.3],[1099.7,341.4],[1107.2,353.7],[1114.7,366],[1121.7,357.6],[1126.7,354],[1126.7,354],[1129.8,349.7],[1136.8,336.2],[1142.2,328.6],[1142.2,339.6],[1131.2,353.7],[1122.9,359.3],[1116.2,371.5],[1106.3,375.3],[1096.4,379.1],[1096.4,379.1],[1089.2,384.1],[1082.4,386.9],[1071.1,398.5],[1060.2,401.1],[1054,389.5],[1054.1,374.9],[1051.8,376.8],[1053,372.9],[1057.4,377.4],[1056.3,376.6]]","[-0.2,0.6000000000000001]","[0.2,0.6000000000000001]","[0.6000000000000001,0.6000000000000001]","[-0.6000000000000001,-0.6000000000000001]","[-0.6000000000000001,0.2]","[-0.6000000000000001,-0.2]","[-0.2,-0.6000000000000001]","[0.2,-0.6000000000000001]","[0.6000000000000001,-0.6000000000000001]","[-0.2,0.2]","[0.2,0.2]","[0.6000000000000001,0.2]","[-0.2,-0.2]","[0.2,-0.2]","[0.6000000000000001,-0.2]",0,0,0,0,1,4,Monitor,25,20,8,1,60,4,1,60,3
