inst1_resp.keys,inst1_resp.rt,calibrationMouse.x,calibrationMouse.y,calibrationMouse.leftButton,calibrationMouse.midButton,calibrationMouse.rightButton,calibrationClick.x,calibrationClick.y,calibrationClick.leftButton,calibrationClick.midButton,calibrationClick.rightButton,calibrationClick.clicked_name,trialsc.thisRepN,trialsc.thisTrialN,trialsc.thisN,trialsc.thisIndex,trialsc.ran,calibration_x,calibration_y,participant,session,date,expName,psychopyVersion,OS,frameRate,ScreenRes_pixels,Camera_pixels,mouse_2.x,mouse_2.y,mouse_2.leftButton,mouse_2.midButton,mouse_2.rightButton,mouse_2.time,mouse_2.clicked_name,mouse.x,mouse.y,mouse.leftButton,mouse.midButton,mouse.rightButton,mouse.time,mouse.clicked_name,Choice,Trial,TrialDuration,MOUSE_GAZE,ET_GAZE,ET_GAZE_x_T,time,unixTime,ET_GAZE_NF,Loc_Bus_label,Loc_Metro_label,Loc_RH_label,Loc_Cost_label,Loc_Travel_label,Loc_Comfort_label,Loc_Bus_cost,Loc_Metro_cost,Loc_RH_cost,Loc_Bus_travel,Loc_Metro_travel,Loc_RH_travel,Loc_Bus_comfort,Loc_Metro_comfort,Loc_RH_comfort,trials.thisRepN,trials.thisTrialN,trials.thisN,trials.thisIndex,trials.ran,Block,Device,RH_cost,RH_travel_time,RH_Comfort,metro_cost,metro_travel_time,metro_Comfort,Bus_cost,Bus_travel_time,Bus_Comfort
space,1.1978,0.080208333,0.190740741,1,0,0,0.003125,0.664814815,1,0,0,calibration_square,0,0,0,13,1,0,0.67,48,001,2024-11-26_15h39.36.588,Attention_exp_legacy,2023.1.0,Win32,60.24096386,,,,,,,,,,,,,,,,,,,,,,,,,,,,,,,,,,,,,,,,,,,,,,,,,,,,,,,,
,,,,,,,0.328125,0,1,0,0,calibration_square,0,1,1,16,1,0.33,0,48,001,2024-11-26_15h39.36.588,Attention_exp_legacy,2023.1.0,Win32,60.24096386,,,,,,,,,,,,,,,,,,,,,,,,,,,,,,,,,,,,,,,,,,,,,,,,,,,,,,,,
,,,,,,,0.669791667,-0.67962963,1,0,0,calibration_square,0,2,2,20,1,0.67,-0.67,48,001,2024-11-26_15h39.36.588,Attention_exp_legacy,2023.1.0,Win32,60.24096386,,,,,,,,,,,,,,,,,,,,,,,,,,,,,,,,,,,,,,,,,,,,,,,,,,,,,,,,
,,,,,,,-0.003125,-0.001851852,1,0,0,calibration_square,0,3,3,11,1,0,0,48,001,2024-11-26_15h39.36.588,Attention_exp_legacy,2023.1.0,Win32,60.24096386,,,,,,,,,,,,,,,,,,,,,,,,,,,,,,,,,,,,,,,,,,,,,,,,,,,,,,,,
,,,,,,,-0.336458333,0.664814815,1,0,0,calibration_square,0,4,4,8,1,-0.33,0.67,48,001,2024-11-26_15h39.36.588,Attention_exp_legacy,2023.1.0,Win32,60.24096386,,,,,,,,,,,,,,,,,,,,,,,,,,,,,,,,,,,,,,,,,,,,,,,,,,,,,,,,
,,,,,,,-0.005208333,-0.659259259,1,0,0,,0,5,5,9,1,0,-0.67,48,001,2024-11-26_15h39.36.588,Attention_exp_legacy,2023.1.0,Win32,60.24096386,,,,,,,,,,,,,,,,,,,,,,,,,,,,,,,,,,,,,,,,,,,,,,,,,,,,,,,,
,,,,,,,-0.33125,-0.007407407,1,0,0,calibration_square,0,6,6,6,1,-0.33,0,48,001,2024-11-26_15h39.36.588,Attention_exp_legacy,2023.1.0,Win32,60.24096386,,,,,,,,,,,,,,,,,,,,,,,,,,,,,,,,,,,,,,,,,,,,,,,,,,,,,,,,
,,,,,,,0.333333333,-0.662962963,1,0,0,calibration_square,0,7,7,14,1,0.33,-0.67,48,001,2024-11-26_15h39.36.588,Attention_exp_legacy,2023.1.0,Win32,60.24096386,,,,,,,,,,,,,,,,,,,,,,,,,,,,,,,,,,,,,,,,,,,,,,,,,,,,,,,,
,,,,,,,-0.671875,-0.674074074,1,0,0,calibration_square,0,8,8,0,1,-0.67,-0.67,48,001,2024-11-26_15h39.36.588,Attention_exp_legacy,2023.1.0,Win32,60.24096386,,,,,,,,,,,,,,,,,,,,,,,,,,,,,,,,,,,,,,,,,,,,,,,,,,,,,,,,
,,,,,,,0.329166667,0.318518519,1,0,0,,0,9,9,17,1,0.33,0.33,48,001,2024-11-26_15h39.36.588,Attention_exp_legacy,2023.1.0,Win32,60.24096386,,,,,,,,,,,,,,,,,,,,,,,,,,,,,,,,,,,,,,,,,,,,,,,,,,,,,,,,
,,,,,,,-0.670833333,-0.324074074,1,0,0,calibration_square,0,10,10,1,1,-0.67,-0.33,48,001,2024-11-26_15h39.36.588,Attention_exp_legacy,2023.1.0,Win32,60.24096386,,,,,,,,,,,,,,,,,,,,,,,,,,,,,,,,,,,,,,,,,,,,,,,,,,,,,,,,
,,,,,,,-0.013541667,0.337037037,1,0,0,,0,11,11,12,1,0,0.33,48,001,2024-11-26_15h39.36.588,Attention_exp_legacy,2023.1.0,Win32,60.24096386,,,,,,,,,,,,,,,,,,,,,,,,,,,,,,,,,,,,,,,,,,,,,,,,,,,,,,,,
,,,,,,,-0.666666667,0.333333333,1,0,0,calibration_square,0,12,12,3,1,-0.67,0.33,48,001,2024-11-26_15h39.36.588,Attention_exp_legacy,2023.1.0,Win32,60.24096386,,,,,,,,,,,,,,,,,,,,,,,,,,,,,,,,,,,,,,,,,,,,,,,,,,,,,,,,
,,,,,,,-0.004166667,-0.331481481,1,0,0,calibration_square,0,13,13,10,1,0,-0.33,48,001,2024-11-26_15h39.36.588,Attention_exp_legacy,2023.1.0,Win32,60.24096386,,,,,,,,,,,,,,,,,,,,,,,,,,,,,,,,,,,,,,,,,,,,,,,,,,,,,,,,
,,,,,,,-0.334375,-0.324074074,1,0,0,calibration_square,0,14,14,5,1,-0.33,-0.33,48,001,2024-11-26_15h39.36.588,Attention_exp_legacy,2023.1.0,Win32,60.24096386,,,,,,,,,,,,,,,,,,,,,,,,,,,,,,,,,,,,,,,,,,,,,,,,,,,,,,,,
,,,,,,,-0.667708333,0,1,0,0,calibration_square,0,15,15,2,1,-0.67,0,48,001,2024-11-26_15h39.36.588,Attention_exp_legacy,2023.1.0,Win32,60.24096386,,,,,,,,,,,,,,,,,,,,,,,,,,,,,,,,,,,,,,,,,,,,,,,,,,,,,,,,
,,,,,,,0.332291667,0.67037037,1,0,0,calibration_square,0,16,16,18,1,0.33,0.67,48,001,2024-11-26_15h39.36.588,Attention_exp_legacy,2023.1.0,Win32,60.24096386,,,,,,,,,,,,,,,,,,,,,,,,,,,,,,,,,,,,,,,,,,,,,,,,,,,,,,,,
,,,,,,,-0.329166667,0.327777778,1,0,0,calibration_square,0,17,17,7,1,-0.33,0.33,48,001,2024-11-26_15h39.36.588,Attention_exp_legacy,2023.1.0,Win32,60.24096386,,,,,,,,,,,,,,,,,,,,,,,,,,,,,,,,,,,,,,,,,,,,,,,,,,,,,,,,
,,,,,,,0.334375,-0.331481481,1,0,0,calibration_square,0,18,18,15,1,0.33,-0.33,48,001,2024-11-26_15h39.36.588,Attention_exp_legacy,2023.1.0,Win32,60.24096386,,,,,,,,,,,,,,,,,,,,,,,,,,,,,,,,,,,,,,,,,,,,,,,,,,,,,,,,
,,,,,,,0.660416667,0.690740741,1,0,0,,0,19,19,19,1,0.67,0.67,48,001,2024-11-26_15h39.36.588,Attention_exp_legacy,2023.1.0,Win32,60.24096386,,,,,,,,,,,,,,,,,,,,,,,,,,,,,,,,,,,,,,,,,,,,,,,,,,,,,,,,
,,,,,,,-0.335416667,-0.67962963,1,0,0,calibration_square,0,20,20,4,1,-0.33,-0.67,48,001,2024-11-26_15h39.36.588,Attention_exp_legacy,2023.1.0,Win32,60.24096386,,,,,,,,,,,,,,,,,,,,,,,,,,,,,,,,,,,,,,,,,,,,,,,,,,,,,,,,
,,,,,,,,,,,,,,,,,,,,48,001,2024-11-26_15h39.36.588,Attention_exp_legacy,2023.1.0,Win32,60.24096386,"[1920,1080]","[640,480]",[-0.028125],[-0.5166666666666667],[1],[0],[0],[1.131200000002977],"[""StartButton""]",[-0.10104166666666667],[0.6481481481481481],[1],[0],[0],[5.27470000000298],"[""Bus_label""]",Bus_label,1,6.2853,"[[0.09270833333333334,-0.3074074074074074],[0.09270833333333334,-0.3074074074074074],[0.09270833333333334,-0.3074074074074074],[0.09270833333333334,-0.3074074074074074],[0.09270833333333334,-0.3074074074074074],[0.09270833333333334,-0.3074074074074074],[0.09270833333333334,-0.3074074074074074],[0.09270833333333334,-0.3074074074074074],[0.09270833333333334,-0.3074074074074074],[0.09270833333333334,-0.3074074074074074],[0.09270833333333334,-0.3074074074074074],[0.09270833333333334,-0.3074074074074074],[0.09270833333333334,-0.3074074074074074],[0.09270833333333334,-0.3074074074074074],[0.09270833333333334,-0.3074074074074074],[0.09270833333333334,-0.3074074074074074],[0.09270833333333334,-0.3074074074074074],[0.09270833333333334,-0.3074074074074074],[0.09270833333333334,-0.3074074074074074],[0.09270833333333334,-0.3074074074074074],[0.09270833333333334,-0.3074074074074074],[0.09270833333333334,-0.3074074074074074],[0.09270833333333334,-0.3074074074074074],[0.09270833333333334,-0.3074074074074074],[0.09270833333333334,-0.3074074074074074],[0.09270833333333334,-0.3074074074074074],[0.09270833333333334,-0.3074074074074074],[0.09270833333333334,-0.3074074074074074],[0.09270833333333334,-0.3074074074074074],[0.09270833333333334,-0.3074074074074074],[0.09270833333333334,-0.3074074074074074],[0.09270833333333334,-0.3074074074074074],[0.09270833333333334,-0.3074074074074074],[0.09270833333333334,-0.3074074074074074],[0.09270833333333334,-0.3074074074074074],[0.09270833333333334,-0.3074074074074074],[0.09270833333333334,-0.3074074074074074],[0.09270833333333334,-0.3074074074074074],[0.09270833333333334,-0.3074074074074074],[0.09270833333333334,-0.3074074074074074],[0.09270833333333334,-0.3074074074074074],[0.09270833333333334,-0.3074074074074074],[0.09270833333333334,-0.3074074074074074],[0.09270833333333334,-0.3074074074074074],[0.09270833333333334,-0.3074074074074074],[0.09270833333333334,-0.3074074074074074],[0.09270833333333334,-0.3074074074074074],[0.09270833333333334,-0.3074074074074074],[0.09270833333333334,-0.3074074074074074],[0.09270833333333334,-0.3074074074074074],[0.09375,-0.3037037037037037],[0.09375,-0.3037037037037037],[0.09895833333333333,-0.30185185185185187],[0.09895833333333333,-0.30185185185185187],[0.10416666666666667,-0.30185185185185187],[0.10625,-0.30185185185185187],[0.121875,-0.30185185185185187],[0.13229166666666667,-0.3037037037037037],[0.14479166666666668,-0.3111111111111111],[0.15520833333333334,-0.31296296296296294],[0.17604166666666668,-0.32592592592592595],[0.19270833333333334,-0.3388888888888889],[0.20729166666666668,-0.34814814814814815],[0.21770833333333334,-0.35555555555555557],[0.228125,-0.3648148148148148],[0.23541666666666666,-0.37037037037037035],[0.240625,-0.37592592592592594],[0.24479166666666666,-0.3814814814814815],[0.24791666666666667,-0.387037037037037],[0.25,-0.3888888888888889],[0.2520833333333333,-0.3907407407407407],[0.2520833333333333,-0.3925925925925926],[0.2520833333333333,-0.3925925925925926],[0.2520833333333333,-0.3925925925925926],[0.2520833333333333,-0.3925925925925926],[0.2520833333333333,-0.3925925925925926],[0.2520833333333333,-0.3925925925925926],[0.2520833333333333,-0.3925925925925926],[0.2520833333333333,-0.3925925925925926],[0.2520833333333333,-0.3925925925925926],[0.2520833333333333,-0.3925925925925926],[0.2520833333333333,-0.3925925925925926],[0.2520833333333333,-0.3925925925925926],[0.2520833333333333,-0.3925925925925926],[0.2520833333333333,-0.3925925925925926],[0.2520833333333333,-0.3925925925925926],[0.2520833333333333,-0.3925925925925926],[0.2520833333333333,-0.3925925925925926],[0.2520833333333333,-0.3925925925925926],[0.2520833333333333,-0.3925925925925926],[0.2520833333333333,-0.3925925925925926],[0.2520833333333333,-0.3925925925925926],[0.2520833333333333,-0.3925925925925926],[0.2520833333333333,-0.3925925925925926],[0.2520833333333333,-0.3925925925925926],[0.2520833333333333,-0.3925925925925926],[0.2520833333333333,-0.3925925925925926],[0.2520833333333333,-0.3925925925925926],[0.2520833333333333,-0.3925925925925926],[0.2520833333333333,-0.3925925925925926],[0.253125,-0.3925925925925926],[0.253125,-0.3925925925925926],[0.253125,-0.3925925925925926],[0.2552083333333333,-0.3925925925925926],[0.2604166666666667,-0.3925925925925926],[0.26458333333333334,-0.3925925925925926],[0.2677083333333333,-0.3925925925925926],[0.26875,-0.3925925925925926],[0.2708333333333333,-0.3925925925925926],[0.2708333333333333,-0.3925925925925926],[0.271875,-0.3925925925925926],[0.271875,-0.3925925925925926],[0.27395833333333336,-0.3925925925925926],[0.27395833333333336,-0.3925925925925926],[0.27395833333333336,-0.3925925925925926],[0.27395833333333336,-0.3925925925925926],[0.27395833333333336,-0.3925925925925926],[0.27395833333333336,-0.3925925925925926],[0.27395833333333336,-0.3925925925925926],[0.27395833333333336,-0.3925925925925926],[0.27395833333333336,-0.3925925925925926],[0.27395833333333336,-0.3925925925925926],[0.27395833333333336,-0.3925925925925926],[0.27395833333333336,-0.3925925925925926],[0.27395833333333336,-0.3925925925925926],[0.27395833333333336,-0.3925925925925926],[0.27395833333333336,-0.3925925925925926],[0.27395833333333336,-0.3925925925925926],[0.27395833333333336,-0.3925925925925926],[0.27395833333333336,-0.3925925925925926],[0.27395833333333336,-0.3925925925925926],[0.27395833333333336,-0.3925925925925926],[0.27395833333333336,-0.3925925925925926],[0.27395833333333336,-0.3925925925925926],[0.27395833333333336,-0.3925925925925926],[0.27395833333333336,-0.3925925925925926],[0.27395833333333336,-0.3925925925925926],[0.27395833333333336,-0.3925925925925926],[0.27395833333333336,-0.3925925925925926],[0.27395833333333336,-0.3925925925925926],[0.27395833333333336,-0.3925925925925926],[0.27395833333333336,-0.3925925925925926],[0.27395833333333336,-0.3925925925925926],[0.27395833333333336,-0.3925925925925926],[0.27395833333333336,-0.3925925925925926],[0.27395833333333336,-0.3925925925925926],[0.27395833333333336,-0.3925925925925926],[0.27395833333333336,-0.3925925925925926],[0.27395833333333336,-0.3925925925925926],[0.27395833333333336,-0.3925925925925926],[0.27395833333333336,-0.3925925925925926],[0.27395833333333336,-0.3925925925925926],[0.27395833333333336,-0.3925925925925926],[0.27395833333333336,-0.3925925925925926],[0.27395833333333336,-0.3925925925925926],[0.27395833333333336,-0.3925925925925926],[0.27395833333333336,-0.3925925925925926],[0.27395833333333336,-0.3925925925925926],[0.27395833333333336,-0.3925925925925926],[0.27395833333333336,-0.3925925925925926],[0.27395833333333336,-0.3925925925925926],[0.27395833333333336,-0.3925925925925926],[0.27395833333333336,-0.3925925925925926],[0.27395833333333336,-0.3925925925925926],[0.27395833333333336,-0.3925925925925926],[0.27395833333333336,-0.3925925925925926],[0.27395833333333336,-0.3925925925925926],[0.27395833333333336,-0.3925925925925926],[0.27395833333333336,-0.3925925925925926],[0.27395833333333336,-0.3925925925925926],[0.27395833333333336,-0.3925925925925926],[0.27395833333333336,-0.3925925925925926],[0.27395833333333336,-0.3925925925925926],[0.27395833333333336,-0.3925925925925926],[0.27395833333333336,-0.3925925925925926],[0.27395833333333336,-0.3925925925925926],[0.27395833333333336,-0.3925925925925926],[0.27395833333333336,-0.3925925925925926],[0.275,-0.3925925925925926],[0.275,-0.3925925925925926],[0.275,-0.3925925925925926],[0.275,-0.3925925925925926],[0.275,-0.3925925925925926],[0.275,-0.3925925925925926],[0.275,-0.3925925925925926],[0.275,-0.3925925925925926],[0.275,-0.3925925925925926],[0.275,-0.3925925925925926],[0.275,-0.3925925925925926],[0.275,-0.3925925925925926],[0.275,-0.3925925925925926],[0.275,-0.3925925925925926],[0.275,-0.3925925925925926],[0.275,-0.3925925925925926],[0.275,-0.3925925925925926],[0.275,-0.3925925925925926],[0.275,-0.3925925925925926],[0.275,-0.3925925925925926],[0.275,-0.3925925925925926],[0.275,-0.3925925925925926],[0.275,-0.3925925925925926],[0.275,-0.3925925925925926],[0.275,-0.3925925925925926],[0.275,-0.3925925925925926],[0.275,-0.3925925925925926],[0.275,-0.3925925925925926],[0.275,-0.3925925925925926],[0.275,-0.3925925925925926],[0.275,-0.3907407407407407],[0.275,-0.3888888888888889],[0.275,-0.387037037037037],[0.275,-0.3851851851851852],[0.275,-0.38333333333333336],[0.27291666666666664,-0.37777777777777777],[0.27291666666666664,-0.37592592592592594],[0.27291666666666664,-0.3592592592592593],[0.27291666666666664,-0.337037037037037],[0.27291666666666664,-0.3148148148148148],[0.26875,-0.2759259259259259],[0.26666666666666666,-0.24444444444444444],[0.26458333333333334,-0.2074074074074074],[0.26458333333333334,-0.16296296296296298],[0.2625,-0.11296296296296296],[0.25833333333333336,-0.07037037037037037],[0.25625,-0.025925925925925925],[0.2552083333333333,0.011111111111111112],[0.2520833333333333,0.04814814814814815],[0.24791666666666667,0.08703703703703704],[0.24270833333333333,0.11851851851851852],[0.23645833333333333,0.1574074074074074],[0.22604166666666667,0.21296296296296297],[0.22083333333333333,0.2462962962962963],[0.215625,0.2777777777777778],[0.2125,0.3037037037037037],[0.20833333333333334,0.3296296296296296],[0.20416666666666666,0.35],[0.2,0.37407407407407406],[0.19791666666666666,0.39444444444444443],[0.19791666666666666,0.4148148148148148],[0.19479166666666667,0.43148148148148147],[0.19375,0.45740740740740743],[0.19270833333333334,0.4703703703703704],[0.19270833333333334,0.4888888888888889],[0.190625,0.5055555555555555],[0.18958333333333333,0.5222222222222223],[0.1875,0.5351851851851852],[0.1875,0.5462962962962963],[0.18541666666666667,0.5555555555555556],[0.18333333333333332,0.562962962962963],[0.18229166666666666,0.5666666666666667],[0.18125,0.5703703703703704],[0.18020833333333333,0.5722222222222222],[0.17916666666666667,0.5740740740740741],[0.17916666666666667,0.5740740740740741],[0.17916666666666667,0.5740740740740741],[0.178125,0.575925925925926],[0.178125,0.5777777777777777],[0.17708333333333334,0.5796296296296296],[0.17708333333333334,0.5796296296296296],[0.17708333333333334,0.5851851851851851],[0.17708333333333334,0.5888888888888889],[0.17708333333333334,0.5925925925925926],[0.17708333333333334,0.6],[0.17604166666666668,0.6111111111111112],[0.17604166666666668,0.6129629629629629],[0.17604166666666668,0.6185185185185185],[0.17604166666666668,0.6259259259259259],[0.17604166666666668,0.6314814814814815],[0.175,0.6351851851851852],[0.17395833333333333,0.6370370370370371],[0.17395833333333333,0.6425925925925926],[0.17291666666666666,0.6462962962962963],[0.171875,0.6481481481481481],[0.16875,0.6537037037037037],[0.16666666666666666,0.6555555555555556],[0.16458333333333333,0.6555555555555556],[0.16145833333333334,0.6574074074074074],[0.15729166666666666,0.6574074074074074],[0.14791666666666667,0.6574074074074074],[0.1375,0.6574074074074074],[0.12916666666666668,0.6574074074074074],[0.11770833333333333,0.6574074074074074],[0.103125,0.6537037037037037],[0.0875,0.65],[0.07083333333333333,0.65],[0.05625,0.65],[0.0375,0.65],[0.021875,0.65],[0.005208333333333333,0.65],[-0.020833333333333332,0.65],[-0.036458333333333336,0.65],[-0.051041666666666666,0.65],[-0.06875,0.65],[-0.08645833333333333,0.65],[-0.1,0.65],[-0.109375,0.65],[-0.1125,0.65],[-0.1125,0.65],[-0.11458333333333333,0.65],[-0.11458333333333333,0.65],[-0.11458333333333333,0.65],[-0.11458333333333333,0.6481481481481481],[-0.10833333333333334,0.6481481481481481],[-0.10625,0.6481481481481481],[-0.10208333333333333,0.6481481481481481],[-0.10104166666666667,0.6481481481481481],[-0.10104166666666667,0.6481481481481481],[-0.10104166666666667,0.6481481481481481],[-0.10104166666666667,0.6481481481481481],[-0.10104166666666667,0.6481481481481481],[-0.10104166666666667,0.6481481481481481],[-0.10104166666666667,0.6481481481481481],[-0.10104166666666667,0.6481481481481481],[-0.10104166666666667,0.6481481481481481],[-0.10104166666666667,0.6481481481481481],[-0.10104166666666667,0.6481481481481481],[-0.10104166666666667,0.6481481481481481],[-0.10104166666666667,0.6481481481481481],[-0.10104166666666667,0.6481481481481481],[-0.10104166666666667,0.6481481481481481],[-0.10104166666666667,0.6481481481481481],[-0.10104166666666667,0.6481481481481481],[-0.10104166666666667,0.6481481481481481],[-0.10104166666666667,0.6481481481481481],[-0.10104166666666667,0.6481481481481481],[-0.10104166666666667,0.6481481481481481],[-0.10104166666666667,0.6481481481481481],[-0.10104166666666667,0.6481481481481481],[-0.10104166666666667,0.6481481481481481],[-0.10104166666666667,0.6481481481481481],[-0.10104166666666667,0.6481481481481481],[-0.10104166666666667,0.6481481481481481],[-0.10104166666666667,0.6481481481481481],[-0.10104166666666667,0.6481481481481481],[-0.10104166666666667,0.6481481481481481],[-0.10104166666666667,0.6481481481481481],[-0.10104166666666667,0.6481481481481481],[-0.10104166666666667,0.6481481481481481],[-0.10104166666666667,0.6481481481481481],[-0.10104166666666667,0.6481481481481481],[-0.10104166666666667,0.6481481481481481],[-0.10104166666666667,0.6481481481481481],[-0.10104166666666667,0.6481481481481481],[-0.10104166666666667,0.6481481481481481],[-0.10104166666666667,0.6481481481481481],[-0.10104166666666667,0.6481481481481481],[-0.10104166666666667,0.6481481481481481],[-0.10104166666666667,0.6481481481481481],[-0.10104166666666667,0.6481481481481481],[-0.10104166666666667,0.6481481481481481],[-0.10104166666666667,0.6481481481481481],[-0.09791666666666667,0.6462962962962963],[-0.09479166666666666,0.6444444444444445],[-0.090625,0.6407407407407407],[-0.0875,0.6388888888888888],[-0.08333333333333333,0.6351851851851852],[-0.07916666666666666,0.6314814814814815],[-0.07604166666666666,0.6314814814814815],[-0.07291666666666667,0.6296296296296297],[-0.07083333333333333,0.6277777777777778],[-0.06770833333333333,0.6240740740740741],[-0.065625,0.6240740740740741],[-0.06458333333333334,0.6222222222222222],[-0.0625,0.6185185185185185],[-0.0625,0.6185185185185185],[-0.06145833333333333,0.6185185185185185],[-0.059375,0.6166666666666667],[-0.059375,0.6148148148148148],[-0.059375,0.6148148148148148],[-0.057291666666666664,0.6129629629629629],[-0.057291666666666664,0.6129629629629629],[-0.05625,0.6129629629629629],[-0.05625,0.6111111111111112],[-0.05625,0.6111111111111112],[-0.05520833333333333,0.6092592592592593],[-0.05416666666666667,0.6074074074074074]]","[[0.0234375,0.7796296296296297],[0.0234375,0.7796296296296297],[0.0234375,0.7796296296296297],[0.007500000000000047,0.7090740740740741],[0.007500000000000047,0.7090740740740741],[0.002916666666666619,0.6279629629629631],[0.002916666666666619,0.6279629629629631],[-0.0012500000000000473,0.5637037037037037],[-0.0012500000000000473,0.5637037037037037],[-0.0009374999999999763,0.4722222222222222],[-0.0009374999999999763,0.4722222222222222],[-0.022291666666666644,0.39518518518518514],[-0.022291666666666644,0.39518518518518514],[-0.042604166666666644,0.3111111111111111],[-0.042604166666666644,0.3111111111111111],[-0.029999999999999954,0.259074074074074],[-0.029999999999999954,0.259074074074074],[-0.01739583333333338,0.20703703703703696],[-0.01739583333333338,0.20703703703703696],[-0.014583333333333334,0.16314814814814818],[-0.014583333333333334,0.16314814814814818],[-0.030729166666666665,0.10166666666666663],[-0.030729166666666665,0.10166666666666663],[-0.03708333333333336,0.04666666666666675],[-0.03708333333333336,0.04666666666666675],[-0.05541666666666671,0.005000000000000084],[-0.05541666666666671,0.005000000000000084],[-0.04895833333333333,-0.04796296296296292],[-0.04895833333333333,-0.04796296296296292],[-0.04604166666666672,-0.08888888888888889],[-0.04604166666666672,-0.08888888888888889],[-0.0421875,-0.1255555555555556],[-0.0421875,-0.1255555555555556],[-0.0421875,-0.1255555555555556],[-0.0421875,-0.1255555555555556],[-0.035416666666666666,-0.1425925925925926],[-0.035416666666666666,-0.1425925925925926],[-0.04895833333333333,-0.20777777777777776],[-0.04895833333333333,-0.20777777777777776],[-0.04895833333333333,-0.20777777777777776],[-0.04895833333333333,-0.20777777777777776],[-0.02822916666666669,-0.2759259259259259],[-0.02822916666666669,-0.2759259259259259],[-0.009791666666666643,-0.3485185185185185],[-0.009791666666666643,-0.3485185185185185],[0.0234375,-0.4064814814814815],[0.0234375,-0.4064814814814815],[0.0234375,-0.4064814814814815],[0.06666666666666667,-0.44166666666666665],[0.06666666666666667,-0.44166666666666665],[0.12468750000000005,-0.4787037037037037],[0.12468750000000005,-0.4787037037037037],[0.13562500000000005,-0.41],[0.13562500000000005,-0.41],[0.15437500000000004,-0.3292592592592593],[0.15437500000000004,-0.3292592592592593],[0.2046875,-0.2681481481481482],[0.2046875,-0.2681481481481482],[0.2243750000000001,-0.21740740740740735],[0.22999999999999995,-0.13796296296296295],[0.2013541666666666,-0.05555555555555555],[0.18624999999999994,0.0301851851851851],[0.1803124999999999,0.11907407407407399],[0.1803124999999999,0.11907407407407399],[0.17531249999999995,0.21092592592592588],[0.1493750000000001,0.3077777777777779],[0.16291666666666677,0.29981481481481476],[0.16656250000000009,0.31740740740740736],[0.15364583333333334,0.3638888888888889],[0.15364583333333334,0.3638888888888889],[0.15927083333333342,0.39814814814814814],[0.17999999999999997,0.44666666666666677],[0.20114583333333325,0.4714814814814815],[0.178125,0.4816666666666667],[0.15510416666666677,0.4918518518518519],[0.13729166666666662,0.5146296296296295],[0.1259375000000001,0.5296296296296297],[0.11239583333333343,0.5518518518518518],[0.090625,0.562962962962963],[0.06843750000000005,0.5603703703703704],[0.05249999999999998,0.5657407407407408],[0.025416666666666643,0.5712962962962963],[-0.0020833333333333333,0.6005555555555555],[-0.0020833333333333333,0.6005555555555555],[-0.0017708333333333807,0.6420370370370371],[-0.03197916666666671,0.6846296296296297],[-0.07270833333333329,0.7098148148148147],[-0.10645833333333338,0.7094444444444444],[-0.10645833333333338,0.7094444444444444],[-0.13802083333333334,0.7018518518518518],[-0.1592708333333333,0.687962962962963],[-0.18697916666666667,0.7118518518518518],[-0.21468750000000003,0.7357407407407407],[-0.2509375,0.7346296296296297],[-0.2509375,0.7346296296296297],[-0.28718750000000004,0.7335185185185186],[-0.3178125,0.7214814814814815],[-0.3351041666666667,0.718888888888889],[-0.33489583333333334,0.7024074074074074],[-0.3038541666666667,0.6935185185185185],[-0.2838541666666667,0.6955555555555556],[-0.23864583333333336,0.6679629629629631],[-0.18656250000000002,0.6162962962962962],[-0.1388541666666666,0.5705555555555556],[-0.1388541666666666,0.5705555555555556],[-0.0734375,0.5314814814814814],[-0.0734375,0.5314814814814814],[-0.015104166666666667,0.5051851851851851],[0.04781249999999997,0.4711111111111111],[0.15125000000000005,0.43703703703703706],[0.2326041666666666,0.41277777777777774],[0.27322916666666663,0.4125925925925925],[0.30531249999999993,0.3983333333333334],[0.30531249999999993,0.3983333333333334],[0.3302083333333333,0.41277777777777774],[0.3408333333333334,0.43925925925925935],[0.3558333333333332,0.45981481481481473],[0.3558333333333332,0.45981481481481473],[0.36447916666666674,0.467962962962963],[0.37510416666666657,0.45759259259259266],[0.37395833333333334,0.46592592592592597],[0.34739583333333335,0.43925925925925935],[0.32541666666666674,0.4166666666666667],[0.3246875000000001,0.35759259259259263],[0.3492708333333333,0.3025925925925925],[0.35427083333333326,0.23870370370370367],[0.37354166666666655,0.16277777777777774],[0.39812500000000006,0.08629629629629634],[0.4196875000000001,0.021296296296296296],[0.4487499999999999,-0.03833333333333342],[0.46885416666666657,-0.10314814814814813],[0.48718750000000005,-0.14629629629629629],[0.5055208333333333,-0.18944444444444447],[0.5123958333333334,-0.1983333333333334],[0.5135416666666667,-0.2081481481481481],[0.5135416666666667,-0.2081481481481481],[0.5195833333333333,-0.21185185185185182],[0.5071875000000001,-0.1977777777777778],[0.48947916666666674,-0.18314814814814812],[0.47072916666666675,-0.175],[0.4495833333333332,-0.16648148148148145],[0.4339583333333332,-0.15388888888888894],[0.42218749999999994,-0.13851851851851854],[0.42218749999999994,-0.13851851851851854],[0.4110416666666666,-0.11722222222222224],[0.4110416666666666,-0.11722222222222224],[0.39510416666666665,-0.09759259259259258],[0.3841666666666666,-0.09537037037037037],[0.3841666666666666,-0.09537037037037037],[0.3689583333333334,-0.09444444444444444],[0.36395833333333344,-0.12333333333333338],[0.37177083333333344,-0.14000000000000004],[0.3806250000000001,-0.15018518518518523],[0.3807291666666667,-0.1766666666666666],[0.3807291666666667,-0.1766666666666666],[0.3851041666666667,-0.18333333333333332],[0.38552083333333326,-0.20555555555555555],[0.37614583333333323,-0.2140740740740741],[0.3323958333333332,-0.24351851851851852],[0.28364583333333326,-0.25555555555555554],[0.23489583333333333,-0.2675925925925926],[0.20010416666666658,-0.252962962962963],[0.1525000000000001,-0.2505555555555556],[0.11302083333333333,-0.2644444444444445],[0.07395833333333333,-0.2544444444444444],[0.035312499999999976,-0.2611111111111111],[0.0006250000000000236,-0.2522222222222222],[-0.027395833333333286,-0.2505555555555556],[-0.025,-0.2351851851851852],[-0.008124999999999953,-0.2116666666666667],[-0.008124999999999953,-0.2116666666666667],[0.008749999999999977,-0.1881481481481482],[0.017499999999999953,-0.1675925925925926],[0.036666666666666715,-0.16166666666666668],[0.04770833333333328,-0.13944444444444445],[0.04770833333333328,-0.13944444444444445],[0.04208333333333331,-0.12685185185185185],[0.05364583333333333,-0.1037037037037037],[0.05364583333333333,-0.1037037037037037],[0.0703125,-0.0705555555555556],[0.08624999999999995,-0.044444444444444446],[0.12135416666666667,0.008703703703703788],[0.14197916666666663,0.053703703703703705],[0.14427083333333332,0.1361111111111111],[0.14427083333333332,0.1361111111111111],[0.14895833333333333,0.20685185185185193],[0.13322916666666676,0.3138888888888889],[0.10364583333333334,0.39444444444444443],[0.0990624999999999,0.4770370370370371],[0.0578125,0.5314814814814814],[0.011458333333333333,0.575925925925926],[-0.0296875,0.6233333333333334],[-0.08500000000000002,0.655925925925926],[-0.13958333333333334,0.6616666666666666],[-0.17395833333333333,0.6453703703703704],[-0.21927083333333333,0.612037037037037],[-0.2641666666666667,0.568888888888889],[-0.28781249999999997,0.5281481481481483],[-0.31145833333333334,0.4874074074074075],[-0.3186458333333333,0.46703703703703714],[-0.3258333333333333,0.44666666666666677],[-0.3336458333333333,0.41518518518518527],[-0.3445833333333333,0.3764814814814814],[-0.3579166666666667,0.36444444444444435],[-0.37312500000000004,0.337037037037037],[-0.3734375,0.32037037037037036],[-0.3654166666666666,0.29370370370370374],[-0.34739583333333335,0.2675925925925926],[-0.32937500000000003,0.24148148148148144],[-0.32937500000000003,0.24148148148148144],[-0.25906250000000003,0.2449999999999999],[-0.2077083333333333,0.22074074074074082],[-0.1577083333333333,0.1992592592592593],[-0.09614583333333329,0.19685185185185178],[-0.09614583333333329,0.19685185185185178],[-0.03291666666666669,0.19462962962962968],[0.0234375,0.20185185185185187],[0.07906250000000009,0.21481481481481482],[0.1359375,0.22592592592592592],[0.18229166666666666,0.262037037037037],[0.22864583333333333,0.29814814814814816],[0.23312499999999994,0.30388888888888893],[0.23312499999999994,0.30388888888888893],[0.24322916666666666,0.287962962962963],[0.2570833333333333,0.3116666666666666],[0.2423958333333334,0.29000000000000004],[0.2423958333333334,0.29000000000000004],[0.26552083333333343,0.2518518518518518],[0.2955208333333334,0.20425925925925917],[0.30656249999999996,0.20055555555555546],[0.30270833333333325,0.15759259259259265],[0.2919791666666666,0.11314814814814819],[0.28125,0.06870370370370374],[0.28125,0.06870370370370374],[0.2603125000000001,0.004444444444444402],[0.2603125000000001,0.004444444444444402],[0.26145833333333335,0.043703703703703745],[0.26145833333333335,0.043703703703703745],[0.25635416666666655,0.10444444444444441],[0.2604166666666667,0.18777777777777774],[0.23145833333333338,0.15481481481481485],[0.19187500000000005,0.14685185185185176],[0.19187500000000005,0.14685185185185176],[0.17843749999999994,0.06481481481481481],[0.17843749999999994,0.06481481481481481],[0.17416666666666672,0.01629629629629621],[0.17541666666666675,-0.031111111111111027],[0.16739583333333338,-0.06370370370370367],[0.1609375,-0.08055555555555556],[0.1609375,-0.08055555555555556],[0.13677083333333329,-0.09351851851851851],[0.10677083333333333,-0.20777777777777776],[0.10677083333333333,-0.20777777777777776],[0.1046875,-0.34592592592592597],[0.0978125000000001,-0.3512962962962963],[0.09552083333333337,-0.37240740740740746],[0.09552083333333337,-0.37240740740740746],[0.07999999999999995,-0.3816666666666667],[0.07645833333333343,-0.37333333333333335],[0.05562499999999997,-0.36259259259259263],[0.06354166666666666,-0.3824074074074074],[0.0640625,-0.33481481481481484],[0.07677083333333339,-0.3587037037037037],[0.08677083333333328,-0.384074074074074],[0.08677083333333328,-0.384074074074074],[0.09177083333333323,-0.39666666666666667],[0.07760416666666667,-0.3859259259259259],[0.06708333333333343,-0.3866666666666667],[0.06708333333333343,-0.3866666666666667],[0.08093750000000005,-0.39166666666666666],[0.07916666666666666,-0.4155555555555555],[0.07531249999999995,-0.3875925925925926],[0.07531249999999995,-0.3875925925925926],[0.0743750000000001,-0.3875925925925926],[0.0743750000000001,-0.3875925925925926],[0.08041666666666672,-0.45981481481481484],[0.08322916666666676,-0.5185185185185185],[0.08333333333333333,-0.5274074074074074],[0.04729166666666664,-0.5168518518518519],[0.04729166666666664,-0.5168518518518519],[0.06145833333333333,-0.5514814814814815],[0.0821875000000001,-0.5642592592592592],[0.08083333333333324,-0.5461111111111111],[0.07135416666666666,-0.5444444444444444],[0.07572916666666671,-0.5981481481481481],[0.08416666666666663,-0.63],[0.08416666666666663,-0.63],[0.07166666666666661,-0.6183333333333333],[0.059062500000000046,-0.6179629629629629],[0.09197916666666663,-0.6794444444444444],[0.1053124999999999,-0.6801851851851852],[0.08395833333333323,-0.654074074074074],[0.058437500000000024,-0.6475925925925926],[0.030312500000000023,-0.6631481481481482],[0.022916666666666665,-0.6596296296296296],[0.01114583333333338,-0.6477777777777778],[-0.027083333333333334,-0.6140740740740741],[-0.027083333333333334,-0.6140740740740741],[-0.034895833333333334,-0.6301851851851852],[-0.034895833333333334,-0.6301851851851852],[-0.04520833333333331,-0.6392592592592592],[-0.07979166666666669,-0.5894444444444444],[-0.07374999999999995,-0.605],[-0.07374999999999995,-0.605],[-0.036354166666666646,-0.6275925925925926],[0.014895833333333285,-0.6746296296296297],[0.016770833333333356,-0.679074074074074],[0.028645833333333332,-0.6837037037037037],[0.04489583333333336,-0.6966666666666667],[0.07083333333333333,-0.6681481481481482],[0.08770833333333337,-0.6285185185185185],[0.13333333333333333,-0.49148148148148146],[0.17145833333333324,-0.35962962962962963],[0.23666666666666672,-0.24814814814814815],[0.2741666666666667,-0.1346296296296296],[0.3306250000000001,0.0025925925925925505],[0.3306250000000001,0.0025925925925925505],[0.4154166666666666,0.1259259259259259],[0.4106250000000001,0.23111111111111102],[0.4027083333333332,0.3227777777777777],[0.4027083333333332,0.3227777777777777],[0.3851041666666667,0.37296296296296294],[0.37395833333333334,0.35759259259259263],[0.3240624999999999,0.24722222222222223],[0.2741666666666667,0.1368518518518518],[0.2127083333333334,0.03148148148148148],[0.15125000000000005,-0.07388888888888885],[0.05,-0.15851851851851856],[-0.027083333333333334,-0.25759259259259265],[-0.027083333333333334,-0.25759259259259265],[-0.004375000000000047,-0.3605555555555555],[-0.034062500000000044,-0.4190740740740741],[-0.03770833333333338,-0.4975925925925926],[-0.022812499999999975,-0.52],[0.0046875,-0.5405555555555556],[-0.0017708333333333807,-0.542962962962963],[-0.02374999999999995,-0.53],[-0.04822916666666662,-0.5438888888888889],[-0.06572916666666669,-0.5777777777777777],[-0.049791666666666616,-0.6114814814814815],[-0.058749999999999976,-0.6188888888888888],[-0.030520833333333285,-0.6451851851851852],[-0.012083333333333357,-0.653888888888889],[-0.029062499999999977,-0.6155555555555555],[-0.04229166666666669,-0.6011111111111112],[-0.028854166666666715,-0.5940740740740741],[-0.02302083333333336,-0.5659259259259259],[-0.014374999999999952,-0.5172222222222222],[-0.005729166666666666,-0.4685185185185185],[-0.020833333333333332,-0.41074074074074074],[-0.020833333333333332,-0.41074074074074074],[-0.030104166666666644,-0.3655555555555555],[-0.030104166666666644,-0.3655555555555555],[-0.04864583333333338,-0.33129629629629626],[-0.05687500000000002,-0.29148148148148145],[-0.07010416666666662,-0.2933333333333333],[-0.08708333333333336,-0.2712962962962963],[-0.08708333333333336,-0.2712962962962963],[-0.10322916666666669,-0.2881481481481482],[-0.11822916666666666,-0.3227777777777778],[-0.13354166666666673,-0.35111111111111115],[-0.15427083333333336,-0.4105555555555555],[-0.1626041666666667,-0.452962962962963],[-0.17937500000000003,-0.4842592592592593],[-0.17937500000000003,-0.4842592592592593],[-0.16854166666666662,-0.5166666666666667],[-0.17541666666666664,-0.5633333333333334],[-0.17625000000000005,-0.5744444444444444],[-0.17708333333333334,-0.5855555555555555],[-0.18406250000000005,-0.5914814814814814],[-0.16333333333333327,-0.5987037037037037],[-0.14104166666666665,-0.6109259259259259],[-0.11333333333333329,-0.592037037037037],[-0.13510416666666672,-0.5831481481481481],[-0.15281250000000005,-0.5724074074074075],[-0.14791666666666667,-0.5633333333333334]]","[[0.0234375,0.7796296296296297,0.00029999999701857405],[0.0234375,0.7796296296296297,0.049700000002978584],[0.0234375,0.7796296296296297,0.05139999999106237],[0.007500000000000047,0.7090740740740741,0.08509999999404272],[0.007500000000000047,0.7090740740740741,0.09429999999701977],[0.002916666666666619,0.6279629629629631,0.12009999999403931],[0.002916666666666619,0.6279629629629631,0.12739999999105578],[-0.0012500000000000473,0.5637037037037037,0.1557999999970221],[-0.0012500000000000473,0.5637037037037037,0.16279999999702],[-0.0009374999999999763,0.4722222222222222,0.18829999999702096],[-0.0009374999999999763,0.4722222222222222,0.19620000000298177],[-0.022291666666666644,0.39518518518518514,0.21999999999999886],[-0.022291666666666644,0.39518518518518514,0.2297000000029783],[-0.042604166666666644,0.3111111111111111,0.25339999999106055],[-0.042604166666666644,0.3111111111111111,0.26079999999701897],[-0.029999999999999954,0.259074074074074,0.2873999999910595],[-0.029999999999999954,0.259074074074074,0.29420000000298074],[-0.01739583333333338,0.20703703703703696,0.322499999999998],[-0.01739583333333338,0.20703703703703696,0.3307000000029774],[-0.014583333333333334,0.16314814814814818,0.35409999999404107],[-0.014583333333333334,0.16314814814814818,0.3607999999970204],[-0.030729166666666665,0.10166666666666663,0.3873999999910609],[-0.030729166666666665,0.10166666666666663,0.3962000000029775],[-0.03708333333333336,0.04666666666666675,0.42009999999403647],[-0.03708333333333336,0.04666666666666675,0.42739999999106004],[-0.05541666666666671,0.005000000000000084,0.45320000000297966],[-0.05541666666666671,0.005000000000000084,0.4598999999910589],[-0.04895833333333333,-0.04796296296296292,0.48850000000000193],[-0.04895833333333333,-0.04796296296296292,0.5],[-0.04604166666666672,-0.08888888888888889,0.5205999999940403],[-0.04604166666666672,-0.08888888888888889,0.5275000000000034],[-0.0421875,-0.1255555555555556,0.5537999999970182],[-0.0421875,-0.1255555555555556,0.5630000000000024],[-0.0421875,-0.1255555555555556,0.5678999999910559],[-0.0421875,-0.1255555555555556,0.585599999994038],[-0.035416666666666666,-0.1425925925925926,0.6197999999970207],[-0.035416666666666666,-0.1425925925925926,0.6268999999910605],[-0.04895833333333333,-0.20777777777777776,0.654299999997022],[-0.04895833333333333,-0.20777777777777776,0.6617999999970223],[-0.04895833333333333,-0.20777777777777776,0.6678999999910573],[-0.04895833333333333,-0.20777777777777776,0.6855999999940394],[-0.02822916666666669,-0.2759259259259259,0.7199999999999989],[-0.02822916666666669,-0.2759259259259259,0.7302999999970226],[-0.009791666666666643,-0.3485185185185185,0.7537999999970211],[-0.009791666666666643,-0.3485185185185185,0.7717999999970218],[0.0234375,-0.4064814814814815,0.7872999999970176],[0.0234375,-0.4064814814814815,0.7987000000029809],[0.0234375,-0.4064814814814815,0.801700000002981],[0.06666666666666667,-0.44166666666666665,0.836399999991059],[0.06666666666666667,-0.44166666666666665,0.8432999999970221],[0.12468750000000005,-0.4787037037037037,0.8719999999999999],[0.12468750000000005,-0.4787037037037037,0.8813999999910607],[0.13562500000000005,-0.41,0.9054999999999964],[0.13562500000000005,-0.41,0.9128999999910619],[0.15437500000000004,-0.3292592592592593,0.9377999999970186],[0.15437500000000004,-0.3292592592592593,0.945200000002977],[0.2046875,-0.2681481481481482,0.9697999999970222],[0.2046875,-0.2681481481481482,0.9918999999910625],[0.2243750000000001,-0.21740740740740735,1.001399999991058],[0.22999999999999995,-0.13796296296296295,1.0180000000000007],[0.2013541666666666,-0.05555555555555555,1.0388999999910595],[0.18624999999999994,0.0301851851851851,1.0530999999940391],[0.1803124999999999,0.11907407407407399,1.0720000000000027],[0.1803124999999999,0.11907407407407399,1.0850000000000009],[0.17531249999999995,0.21092592592592588,1.1052000000029807],[0.1493750000000001,0.3077777777777779,1.1197000000029789],[0.16291666666666677,0.29981481481481476,1.1347999999970213],[0.16656250000000009,0.31740740740740736,1.1513999999910567],[0.15364583333333334,0.3638888888888889,1.1710999999940412],[0.15364583333333334,0.3638888888888889,1.1847999999970185],[0.15927083333333342,0.39814814814814814,1.201299999997019],[0.17999999999999997,0.44666666666666677,1.2184999999999988],[0.20114583333333325,0.4714814814814815,1.234499999999997],[0.178125,0.4816666666666667,1.2532999999970187],[0.15510416666666677,0.4918518518518519,1.2677999999970169],[0.13729166666666662,0.5146296296296295,1.2845000000000013],[0.1259375000000001,0.5296296296296297,1.301700000002981],[0.11239583333333343,0.5518518518518518,1.317899999991056],[0.090625,0.562962962962963,1.3357999999970218],[0.06843750000000005,0.5603703703703704,1.351200000002983],[0.05249999999999998,0.5657407407407408,1.3678999999910602],[0.025416666666666643,0.5712962962962963,1.3845000000000027],[-0.0020833333333333333,0.6005555555555555,1.405799999997022],[-0.0020833333333333333,0.6005555555555555,1.4177999999970226],[-0.0017708333333333807,0.6420370370370371,1.4345999999940418],[-0.03197916666666671,0.6846296296296297,1.451299999997019],[-0.07270833333333329,0.7098148148148147,1.4678999999910616],[-0.10645833333333338,0.7094444444444444,1.490700000002981],[-0.10645833333333338,0.7094444444444444,1.5012000000029815],[-0.13802083333333334,0.7018518518518518,1.5177999999970169],[-0.1592708333333333,0.687962962962963,1.5347999999970199],[-0.18697916666666667,0.7118518518518518,1.5510999999940367],[-0.21468750000000003,0.7357407407407407,1.567899999991056],[-0.2509375,0.7346296296296297,1.5852999999970194],[-0.2509375,0.7346296296296297,1.601200000002983],[-0.28718750000000004,0.7335185185185186,1.6178999999910602],[-0.3178125,0.7214814814814815,1.6345000000000027],[-0.3351041666666667,0.718888888888889,1.6510999999940381],[-0.33489583333333334,0.7024074074074074,1.668899999991062],[-0.3038541666666667,0.6935185185185185,1.6844999999999999],[-0.2838541666666667,0.6955555555555556,1.7042999999970192],[-0.23864583333333336,0.6679629629629631,1.7232000000029828],[-0.18656250000000002,0.6162962962962962,1.73839999999106],[-0.1388541666666666,0.5705555555555556,1.754599999994042],[-0.1388541666666666,0.5705555555555556,1.7680000000000007],[-0.0734375,0.5314814814814814,1.7848999999910617],[-0.0734375,0.5314814814814814,1.8013999999910624],[-0.015104166666666667,0.5051851851851851,1.821700000002977],[0.04781249999999997,0.4711111111111111,1.83720000000298],[0.15125000000000005,0.43703703703703706,1.8527999999970177],[0.2326041666666666,0.41277777777777774,1.8680999999940369],[0.27322916666666663,0.4125925925925925,1.8845000000000027],[0.30531249999999993,0.3983333333333334,1.9068999999910616],[0.30531249999999993,0.3983333333333334,1.9177999999970226],[0.3302083333333333,0.41277777777777774,1.9344999999999999],[0.3408333333333334,0.43925925925925935,1.9522999999970168],[0.3558333333333332,0.45981481481481473,1.9678999999910616],[0.3558333333333332,0.45981481481481473,1.984499999999997],[0.36447916666666674,0.467962962962963,2.0012000000029815],[0.37510416666666657,0.45759259259259266,2.017799999997017],[0.37395833333333334,0.46592592592592597,2.0345000000000013],[0.34739583333333335,0.43925925925925935,2.0510999999940367],[0.32541666666666674,0.4166666666666667,2.067999999999998],[0.3246875000000001,0.35759259259259263,2.088000000000001],[0.3492708333333333,0.3025925925925925,2.104200000002983],[0.35427083333333326,0.23870370370370367,2.1192999999970183],[0.37354166666666655,0.16277777777777774,2.1345999999940375],[0.39812500000000006,0.08629629629629634,2.15120000000298],[0.4196875000000001,0.021296296296296296,2.1692999999970226],[0.4487499999999999,-0.03833333333333342,2.1845],[0.46885416666666657,-0.10314814814814813,2.2025000000000006],[0.48718750000000005,-0.14629629629629629,2.2188999999910592],[0.5055208333333333,-0.18944444444444447,2.234399999991062],[0.5123958333333334,-0.1983333333333334,2.2532999999970187],[0.5135416666666667,-0.2081481481481481,2.267799999997017],[0.5135416666666667,-0.2081481481481481,2.2845000000000013],[0.5195833333333333,-0.21185185185185182,2.3013999999910624],[0.5071875000000001,-0.1977777777777778,2.321799999997019],[0.48947916666666674,-0.18314814814814812,2.335599999994038],[0.47072916666666675,-0.175,2.351200000002983],[0.4495833333333332,-0.16648148148148145,2.371000000000002],[0.4339583333333332,-0.15388888888888894,2.387399999991061],[0.42218749999999994,-0.13851851851851854,2.4054999999999964],[0.42218749999999994,-0.13851851851851854,2.4179999999999993],[0.4110416666666666,-0.11722222222222224,2.4345999999940418],[0.4110416666666666,-0.11722222222222224,2.451200000002977],[0.39510416666666665,-0.09759259259259258,2.4679999999999964],[0.3841666666666666,-0.09537037037037037,2.4902999999970206],[0.3841666666666666,-0.09537037037037037,2.5012999999970162],[0.3689583333333334,-0.09444444444444444,2.5178999999910587],[0.36395833333333344,-0.12333333333333338,2.535700000002983],[0.37177083333333344,-0.14000000000000004,2.551499999999997],[0.3806250000000001,-0.15018518518518523,2.567799999997021],[0.3807291666666667,-0.1766666666666666,2.587299999997022],[0.3807291666666667,-0.1766666666666666,2.601200000002983],[0.3851041666666667,-0.18333333333333332,2.6177999999970183],[0.38552083333333326,-0.20555555555555555,2.6345000000000027],[0.37614583333333323,-0.2140740740740741,2.6540999999940382],[0.3323958333333332,-0.24351851851851852,2.670499999999997],[0.28364583333333326,-0.25555555555555554,2.6845],[0.23489583333333333,-0.2675925925925926,2.703700000002982],[0.20010416666666658,-0.252962962962963,2.719200000002978],[0.1525000000000001,-0.2505555555555556,2.734499999999997],[0.11302083333333333,-0.2644444444444445,2.753200000002977],[0.07395833333333333,-0.2544444444444444,2.7682000000029774],[0.035312499999999976,-0.2611111111111111,2.788499999999999],[0.0006250000000000236,-0.2522222222222222,2.8034999999999997],[-0.027395833333333286,-0.2505555555555556,2.8220000000000027],[-0.025,-0.2351851851851852,2.8367000000029776],[-0.008124999999999953,-0.2116666666666667,2.851200000002983],[-0.008124999999999953,-0.2116666666666667,2.86789999999106],[0.008749999999999977,-0.1881481481481482,2.8845999999940375],[0.017499999999999953,-0.1675925925925926,2.9040999999940382],[0.036666666666666715,-0.16166666666666668,2.9200000000000017],[0.04770833333333328,-0.13944444444444445,2.934399999991058],[0.04770833333333328,-0.13944444444444445,2.951200000002977],[0.04208333333333331,-0.12685185185185185,2.9677999999970197],[0.05364583333333333,-0.1037037037037037,2.9919999999999973],[0.05364583333333333,-0.1037037037037037,3.0055999999940397],[0.0703125,-0.0705555555555556,3.017799999997017],[0.08624999999999995,-0.044444444444444446,3.034599999994036],[0.12135416666666667,0.008703703703703788,3.0510999999940367],[0.14197916666666663,0.053703703703703705,3.067799999997021],[0.14427083333333332,0.1361111111111111,3.087299999997022],[0.14427083333333332,0.1361111111111111,3.101200000002983],[0.14895833333333333,0.20685185185185193,3.11789999999106],[0.13322916666666676,0.3138888888888889,3.1345999999940375],[0.10364583333333334,0.39444444444444443,3.155799999997022],[0.0990624999999999,0.4770370370370371,3.1698999999910598],[0.0578125,0.5314814814814814,3.185799999997016],[0.011458333333333333,0.575925925925926,3.2040999999940425],[-0.0296875,0.6233333333333334,3.219200000002978],[-0.08500000000000002,0.655925925925926,3.234499999999997],[-0.13958333333333334,0.6616666666666666,3.252200000002979],[-0.17395833333333333,0.6453703703703704,3.267799999997017],[-0.21927083333333333,0.612037037037037,3.284599999994036],[-0.2641666666666667,0.568888888888889,3.303099999994039],[-0.28781249999999997,0.5281481481481483,3.321899999991061],[-0.31145833333333334,0.4874074074074075,3.336399999991059],[-0.3186458333333333,0.46703703703703714,3.3515999999940362],[-0.3258333333333333,0.44666666666666677,3.36789999999106],[-0.3336458333333333,0.41518518518518527,3.3845000000000027],[-0.3445833333333333,0.3764814814814814,3.4060999999940407],[-0.3579166666666667,0.36444444444444435,3.4207999999970227],[-0.37312500000000004,0.337037037037037,3.434399999991058],[-0.3734375,0.32037037037037036,3.4525999999940424],[-0.3654166666666666,0.29370370370370374,3.4677999999970197],[-0.34739583333333335,0.2675925925925926,3.484599999994039],[-0.32937500000000003,0.24148148148148144,3.506899999991056],[-0.32937500000000003,0.24148148148148144,3.5178999999910587],[-0.25906250000000003,0.2449999999999999,3.534700000002978],[-0.2077083333333333,0.22074074074074082,3.5512999999970205],[-0.1577083333333333,0.1992592592592593,3.571899999991061],[-0.09614583333333329,0.19685185185185178,3.589500000000001],[-0.09614583333333329,0.19685185185185178,3.6012999999970177],[-0.03291666666666669,0.19462962962962968,3.621000000000002],[0.0234375,0.20185185185185187,3.636000000000003],[0.07906250000000009,0.21481481481481482,3.6514999999999986],[0.1359375,0.22592592592592592,3.6709999999999994],[0.18229166666666666,0.262037037037037,3.6902999999970163],[0.22864583333333333,0.29814814814814816,3.7040999999940425],[0.23312499999999994,0.30388888888888893,3.7240999999940385],[0.23312499999999994,0.30388888888888893,3.734599999994039],[0.24322916666666666,0.287962962962963,3.751399999991058],[0.2570833333333333,0.3116666666666666,3.7689999999999984],[0.2423958333333334,0.29000000000000004,3.7925999999940387],[0.2423958333333334,0.29000000000000004,3.8012999999970205],[0.26552083333333343,0.2518518518518518,3.8180999999940397],[0.2955208333333334,0.20425925925925917,3.835599999994038],[0.30656249999999996,0.20055555555555546,3.8550999999940387],[0.30270833333333325,0.15759259259259265,3.8707999999970184],[0.2919791666666666,0.11314814814814819,3.8877000000029796],[0.28125,0.06870370370370374,3.9084999999999965],[0.28125,0.06870370370370374,3.918099999994041],[0.2603125000000001,0.004444444444444402,3.9347000000029766],[0.2603125000000001,0.004444444444444402,3.951299999997019],[0.26145833333333335,0.043703703703703745,3.9702999999970174],[0.26145833333333335,0.043703703703703745,3.987599999994039],[0.25635416666666655,0.10444444444444441,4.0015],[0.2604166666666667,0.18777777777777774,4.021599999994038],[0.23145833333333338,0.15481481481481485,4.036799999997022],[0.19187500000000005,0.14685185185185176,4.052599999994037],[0.19187500000000005,0.14685185185185176,4.071899999991061],[0.17843749999999994,0.06481481481481481,4.084700000002982],[0.17843749999999994,0.06481481481481481,4.101299999997018],[0.17416666666666672,0.01629629629629621,4.121200000002979],[0.17541666666666675,-0.031111111111111027,4.135799999997019],[0.16739583333333338,-0.06370370370370367,4.151399999991057],[0.1609375,-0.08055555555555556,4.170899999991057],[0.1609375,-0.08055555555555556,4.1847999999970185],[0.13677083333333329,-0.09351851851851851,4.201299999997019],[0.10677083333333333,-0.20777777777777776,4.22529999999702],[0.10677083333333333,-0.20777777777777776,4.234700000002981],[0.1046875,-0.34592592592592597,4.2512000000029815],[0.0978125000000001,-0.3512962962962963,4.267799999997017],[0.09552083333333337,-0.37240740740740746,4.289200000002978],[0.09552083333333337,-0.37240740740740746,4.301799999997023],[0.07999999999999995,-0.3816666666666667,4.31809999999404],[0.07645833333333343,-0.37333333333333335,4.33570000000298],[0.05562499999999997,-0.36259259259259263,4.35479999999702],[0.06354166666666666,-0.3824074074074074,4.369599999994037],[0.0640625,-0.33481481481481484,4.3845999999940375],[0.07677083333333339,-0.3587037037037037,4.4017000000029824],[0.08677083333333328,-0.384074074074074,4.422099999994039],[0.08677083333333328,-0.384074074074074,4.434599999994042],[0.09177083333333323,-0.39666666666666667,4.451299999997019],[0.07760416666666667,-0.3859259259259259,4.467999999999996],[0.06708333333333343,-0.3866666666666667,4.493000000000002],[0.06708333333333343,-0.3866666666666667,4.5015],[0.08093750000000005,-0.39166666666666666,4.518000000000001],[0.07916666666666666,-0.4155555555555555,4.538099999994039],[0.07531249999999995,-0.3875925925925926,4.557099999994037],[0.07531249999999995,-0.3875925925925926,4.570700000002979],[0.0743750000000001,-0.3875925925925926,4.588200000002978],[0.0743750000000001,-0.3875925925925926,4.615099999994037],[0.08041666666666672,-0.45981481481481484,4.618899999991058],[0.08322916666666676,-0.5185185185185185,4.6345999999940375],[0.08333333333333333,-0.5274074074074074,4.651499999999999],[0.04729166666666664,-0.5168518518518519,4.670599999994039],[0.04729166666666664,-0.5168518518518519,4.6847999999970185],[0.06145833333333333,-0.5514814814814815,4.701399999991061],[0.0821875000000001,-0.5642592592592592,4.71820000000298],[0.08083333333333324,-0.5461111111111111,4.738599999994037],[0.07135416666666666,-0.5444444444444444,4.7527000000029815],[0.07572916666666671,-0.5981481481481481,4.768000000000001],[0.08416666666666663,-0.63,4.78929999999702],[0.08416666666666663,-0.63,4.8012999999970205],[0.07166666666666661,-0.6183333333333333,4.81809999999404],[0.059062500000000046,-0.6179629629629629,4.835000000000001],[0.09197916666666663,-0.6794444444444444,4.854500000000002],[0.1053124999999999,-0.6801851851851852,4.8683999999910625],[0.08395833333333323,-0.654074074074074,4.884700000002979],[0.058437500000000024,-0.6475925925925926,4.9015999999940405],[0.030312500000000023,-0.6631481481481482,4.92029999999702],[0.022916666666666665,-0.6596296296296296,4.934599999994042],[0.01114583333333338,-0.6477777777777778,4.952500000000001],[-0.027083333333333334,-0.6140740740740741,4.968099999994038],[-0.027083333333333334,-0.6140740740740741,4.984599999994039],[-0.034895833333333334,-0.6301851851851852,5.003799999997021],[-0.034895833333333334,-0.6301851851851852,5.017700000002982],[-0.04520833333333331,-0.6392592592592592,5.034399999991059],[-0.07979166666666669,-0.5894444444444444,5.0512999999970205],[-0.07374999999999995,-0.605,5.0720999999940375],[-0.07374999999999995,-0.605,5.084700000002982],[-0.036354166666666646,-0.6275925925925926,5.101599999994036],[0.014895833333333285,-0.6746296296296297,5.121200000002979],[0.016770833333333356,-0.679074074074074,5.136499999999998],[0.028645833333333332,-0.6837037037037037,5.155000000000001],[0.04489583333333336,-0.6966666666666667,5.168299999997018],[0.07083333333333333,-0.6681481481481482,5.188299999997021],[0.08770833333333337,-0.6285185185185185,5.204299999997019],[0.13333333333333333,-0.49148148148148146,5.220099999994041],[0.17145833333333324,-0.35962962962962963,5.238899999991062],[0.23666666666666672,-0.24814814814814815,5.253799999997021],[0.2741666666666667,-0.1346296296296296,5.267899999991059],[0.3306250000000001,0.0025925925925925505,5.2850999999940385],[0.3306250000000001,0.0025925925925925505,5.3012999999970205],[0.4154166666666666,0.1259259259259259,5.317899999991056],[0.4106250000000001,0.23111111111111102,5.334899999991059],[0.4027083333333332,0.3227777777777777,5.351200000002983],[0.4027083333333332,0.3227777777777777,5.367799999997018],[0.3851041666666667,0.37296296296296294,5.3845999999940375],[0.37395833333333334,0.35759259259259263,5.405099999994036],[0.3240624999999999,0.24722222222222223,5.420399999991062],[0.2741666666666667,0.1368518518518518,5.4345],[0.2127083333333334,0.03148148148148148,5.451099999994042],[0.15125000000000005,-0.07388888888888885,5.46779999999702],[0.05,-0.15851851851851856,5.484599999994039],[-0.027083333333333334,-0.25759259259259265,5.504599999994042],[-0.027083333333333334,-0.25759259259259265,5.517799999997017],[-0.004375000000000047,-0.3605555555555555,5.534399999991059],[-0.034062500000000044,-0.4190740740740741,5.551200000002979],[-0.03770833333333338,-0.4975925925925926,5.567799999997021],[-0.022812499999999975,-0.52,5.585500000000003],[0.0046875,-0.5405555555555556,5.6013999999910595],[-0.0017708333333333807,-0.542962962962963,5.618799999997023],[-0.02374999999999995,-0.53,5.634399999991061],[-0.04822916666666662,-0.5438888888888889,5.651099999994038],[-0.06572916666666669,-0.5777777777777777,5.668999999999997],[-0.049791666666666616,-0.6114814814814815,5.6845],[-0.058749999999999976,-0.6188888888888888,5.702899999991061],[-0.030520833333333285,-0.6451851851851852,5.71779999999702],[-0.012083333333333357,-0.653888888888889,5.734499999999997],[-0.029062499999999977,-0.6155555555555555,5.751399999991058],[-0.04229166666666669,-0.6011111111111112,5.767799999997017],[-0.028854166666666715,-0.5940740740740741,5.784500000000001],[-0.02302083333333336,-0.5659259259259259,5.801599999994039],[-0.014374999999999952,-0.5172222222222222,5.817700000002979],[-0.005729166666666666,-0.4685185185185185,5.835500000000003],[-0.020833333333333332,-0.41074074074074074,5.851099999994041],[-0.020833333333333332,-0.41074074074074074,5.8677000000029835],[-0.030104166666666644,-0.3655555555555555,5.889899999991059],[-0.030104166666666644,-0.3655555555555555,5.9015999999940405],[-0.04864583333333338,-0.33129629629629626,5.918099999994041],[-0.05687500000000002,-0.29148148148148145,5.937399999991058],[-0.07010416666666662,-0.2933333333333333,5.952299999997017],[-0.08708333333333336,-0.2712962962962963,5.967899999991062],[-0.08708333333333336,-0.2712962962962963,5.989700000002983],[-0.10322916666666669,-0.2881481481481482,6.0015],[-0.11822916666666666,-0.3227777777777778,6.018000000000001],[-0.13354166666666673,-0.35111111111111115,6.034599999994036],[-0.15427083333333336,-0.4105555555555555,6.053099999994039],[-0.1626041666666667,-0.452962962962963,6.072000000000003],[-0.17937500000000003,-0.4842592592592593,6.087700000002982],[-0.17937500000000003,-0.4842592592592593,6.101299999997018],[-0.16854166666666662,-0.5166666666666667,6.119700000002979],[-0.17541666666666664,-0.5633333333333334,6.1345999999940375],[-0.17625000000000005,-0.5744444444444444,6.151499999999999],[-0.17708333333333334,-0.5855555555555555,6.169299999997023],[-0.18406250000000005,-0.5914814814814814,6.1875],[-0.16333333333333327,-0.5987037037037037,6.202200000002982],[-0.14104166666666665,-0.6109259259259259,6.217899999991062],[-0.11333333333333329,-0.592037037037037,6.234599999994039],[-0.13510416666666672,-0.5831481481481481,6.252099999994037],[-0.15281250000000005,-0.5724074074074075,6.270499999999998],[-0.14791666666666667,-0.5633333333333334,6.285299999997022]]","[0.00029999999701857405,0.049700000002978584,0.05139999999106237,0.08509999999404272,0.09429999999701977,0.12009999999403931,0.12739999999105578,0.1557999999970221,0.16279999999702,0.18829999999702096,0.19620000000298177,0.21999999999999886,0.2297000000029783,0.25339999999106055,0.26079999999701897,0.2873999999910595,0.29420000000298074,0.322499999999998,0.3307000000029774,0.35409999999404107,0.3607999999970204,0.3873999999910609,0.3962000000029775,0.42009999999403647,0.42739999999106004,0.45320000000297966,0.4598999999910589,0.48850000000000193,0.5,0.5205999999940403,0.5275000000000034,0.5537999999970182,0.5630000000000024,0.5678999999910559,0.585599999994038,0.6197999999970207,0.6268999999910605,0.654299999997022,0.6617999999970223,0.6678999999910573,0.6855999999940394,0.7199999999999989,0.7302999999970226,0.7537999999970211,0.7717999999970218,0.7872999999970176,0.7987000000029809,0.801700000002981,0.836399999991059,0.8432999999970221,0.8719999999999999,0.8813999999910607,0.9054999999999964,0.9128999999910619,0.9377999999970186,0.945200000002977,0.9697999999970222,0.9918999999910625,1.001399999991058,1.0180000000000007,1.0388999999910595,1.0530999999940391,1.0720000000000027,1.0850000000000009,1.1052000000029807,1.1197000000029789,1.1347999999970213,1.1513999999910567,1.1710999999940412,1.1847999999970185,1.201299999997019,1.2184999999999988,1.234499999999997,1.2532999999970187,1.2677999999970169,1.2845000000000013,1.301700000002981,1.317899999991056,1.3357999999970218,1.351200000002983,1.3678999999910602,1.3845000000000027,1.405799999997022,1.4177999999970226,1.4345999999940418,1.451299999997019,1.4678999999910616,1.490700000002981,1.5012000000029815,1.5177999999970169,1.5347999999970199,1.5510999999940367,1.567899999991056,1.5852999999970194,1.601200000002983,1.6178999999910602,1.6345000000000027,1.6510999999940381,1.668899999991062,1.6844999999999999,1.7042999999970192,1.7232000000029828,1.73839999999106,1.754599999994042,1.7680000000000007,1.7848999999910617,1.8013999999910624,1.821700000002977,1.83720000000298,1.8527999999970177,1.8680999999940369,1.8845000000000027,1.9068999999910616,1.9177999999970226,1.9344999999999999,1.9522999999970168,1.9678999999910616,1.984499999999997,2.0012000000029815,2.017799999997017,2.0345000000000013,2.0510999999940367,2.067999999999998,2.088000000000001,2.104200000002983,2.1192999999970183,2.1345999999940375,2.15120000000298,2.1692999999970226,2.1845,2.2025000000000006,2.2188999999910592,2.234399999991062,2.2532999999970187,2.267799999997017,2.2845000000000013,2.3013999999910624,2.321799999997019,2.335599999994038,2.351200000002983,2.371000000000002,2.387399999991061,2.4054999999999964,2.4179999999999993,2.4345999999940418,2.451200000002977,2.4679999999999964,2.4902999999970206,2.5012999999970162,2.5178999999910587,2.535700000002983,2.551499999999997,2.567799999997021,2.587299999997022,2.601200000002983,2.6177999999970183,2.6345000000000027,2.6540999999940382,2.670499999999997,2.6845,2.703700000002982,2.719200000002978,2.734499999999997,2.753200000002977,2.7682000000029774,2.788499999999999,2.8034999999999997,2.8220000000000027,2.8367000000029776,2.851200000002983,2.86789999999106,2.8845999999940375,2.9040999999940382,2.9200000000000017,2.934399999991058,2.951200000002977,2.9677999999970197,2.9919999999999973,3.0055999999940397,3.017799999997017,3.034599999994036,3.0510999999940367,3.067799999997021,3.087299999997022,3.101200000002983,3.11789999999106,3.1345999999940375,3.155799999997022,3.1698999999910598,3.185799999997016,3.2040999999940425,3.219200000002978,3.234499999999997,3.252200000002979,3.267799999997017,3.284599999994036,3.303099999994039,3.321899999991061,3.336399999991059,3.3515999999940362,3.36789999999106,3.3845000000000027,3.4060999999940407,3.4207999999970227,3.434399999991058,3.4525999999940424,3.4677999999970197,3.484599999994039,3.506899999991056,3.5178999999910587,3.534700000002978,3.5512999999970205,3.571899999991061,3.589500000000001,3.6012999999970177,3.621000000000002,3.636000000000003,3.6514999999999986,3.6709999999999994,3.6902999999970163,3.7040999999940425,3.7240999999940385,3.734599999994039,3.751399999991058,3.7689999999999984,3.7925999999940387,3.8012999999970205,3.8180999999940397,3.835599999994038,3.8550999999940387,3.8707999999970184,3.8877000000029796,3.9084999999999965,3.918099999994041,3.9347000000029766,3.951299999997019,3.9702999999970174,3.987599999994039,4.0015,4.021599999994038,4.036799999997022,4.052599999994037,4.071899999991061,4.084700000002982,4.101299999997018,4.121200000002979,4.135799999997019,4.151399999991057,4.170899999991057,4.1847999999970185,4.201299999997019,4.22529999999702,4.234700000002981,4.2512000000029815,4.267799999997017,4.289200000002978,4.301799999997023,4.31809999999404,4.33570000000298,4.35479999999702,4.369599999994037,4.3845999999940375,4.4017000000029824,4.422099999994039,4.434599999994042,4.451299999997019,4.467999999999996,4.493000000000002,4.5015,4.518000000000001,4.538099999994039,4.557099999994037,4.570700000002979,4.588200000002978,4.615099999994037,4.618899999991058,4.6345999999940375,4.651499999999999,4.670599999994039,4.6847999999970185,4.701399999991061,4.71820000000298,4.738599999994037,4.7527000000029815,4.768000000000001,4.78929999999702,4.8012999999970205,4.81809999999404,4.835000000000001,4.854500000000002,4.8683999999910625,4.884700000002979,4.9015999999940405,4.92029999999702,4.934599999994042,4.952500000000001,4.968099999994038,4.984599999994039,5.003799999997021,5.017700000002982,5.034399999991059,5.0512999999970205,5.0720999999940375,5.084700000002982,5.101599999994036,5.121200000002979,5.136499999999998,5.155000000000001,5.168299999997018,5.188299999997021,5.204299999997019,5.220099999994041,5.238899999991062,5.253799999997021,5.267899999991059,5.2850999999940385,5.3012999999970205,5.317899999991056,5.334899999991059,5.351200000002983,5.367799999997018,5.3845999999940375,5.405099999994036,5.420399999991062,5.4345,5.451099999994042,5.46779999999702,5.484599999994039,5.504599999994042,5.517799999997017,5.534399999991059,5.551200000002979,5.567799999997021,5.585500000000003,5.6013999999910595,5.618799999997023,5.634399999991061,5.651099999994038,5.668999999999997,5.6845,5.702899999991061,5.71779999999702,5.734499999999997,5.751399999991058,5.767799999997017,5.784500000000001,5.801599999994039,5.817700000002979,5.835500000000003,5.851099999994041,5.8677000000029835,5.889899999991059,5.9015999999940405,5.918099999994041,5.937399999991058,5.952299999997017,5.967899999991062,5.989700000002983,6.0015,6.018000000000001,6.034599999994036,6.053099999994039,6.072000000000003,6.087700000002982,6.101299999997018,6.119700000002979,6.1345999999940375,6.151499999999999,6.169299999997023,6.1875,6.202200000002982,6.217899999991062,6.234599999994039,6.252099999994037,6.270499999999998,6.285299999997022]","[1732606817412,1732606817451,1732606817453,1732606817487,1732606817496,1732606817522,1732606817529,1732606817558,1732606817565,1732606817590,1732606817598,1732606817622,1732606817632,1732606817655,1732606817663,1732606817689,1732606817696,1732606817724,1732606817732,1732606817756,1732606817763,1732606817789,1732606817798,1732606817822,1732606817829,1732606817855,1732606817862,1732606817890,1732606817902,1732606817922,1732606817929,1732606817956,1732606817965,1732606817970,1732606817987,1732606818022,1732606818029,1732606818056,1732606818064,1732606818070,1732606818087,1732606818122,1732606818132,1732606818156,1732606818174,1732606818189,1732606818200,1732606818204,1732606818238,1732606818245,1732606818274,1732606818283,1732606818307,1732606818315,1732606818340,1732606818347,1732606818372,1732606818394,1732606818403,1732606818420,1732606818441,1732606818455,1732606818474,1732606818487,1732606818507,1732606818521,1732606818537,1732606818553,1732606818573,1732606818587,1732606818603,1732606818620,1732606818636,1732606818655,1732606818670,1732606818686,1732606818703,1732606818720,1732606818738,1732606818753,1732606818770,1732606818786,1732606818808,1732606818820,1732606818836,1732606818853,1732606818870,1732606818892,1732606818903,1732606818920,1732606818937,1732606818953,1732606818970,1732606818987,1732606819003,1732606819020,1732606819036,1732606819053,1732606819071,1732606819086,1732606819106,1732606819125,1732606819140,1732606819156,1732606819170,1732606819187,1732606819203,1732606819223,1732606819239,1732606819255,1732606819270,1732606819286,1732606819309,1732606819320,1732606819336,1732606819354,1732606819370,1732606819386,1732606819403,1732606819420,1732606819436,1732606819453,1732606819470,1732606819490,1732606819506,1732606819521,1732606819536,1732606819553,1732606819571,1732606819586,1732606819604,1732606819621,1732606819636,1732606819655,1732606819670,1732606819686,1732606819703,1732606819724,1732606819737,1732606819753,1732606819773,1732606819789,1732606819807,1732606819820,1732606819836,1732606819853,1732606819870,1732606819892,1732606819903,1732606819920,1732606819937,1732606819953,1732606819970,1732606819989,1732606820003,1732606820020,1732606820036,1732606820056,1732606820072,1732606820086,1732606820106,1732606820121,1732606820136,1732606820155,1732606820170,1732606820190,1732606820205,1732606820224,1732606820238,1732606820253,1732606820270,1732606820286,1732606820306,1732606820322,1732606820336,1732606820353,1732606820370,1732606820394,1732606820407,1732606820420,1732606820436,1732606820453,1732606820470,1732606820489,1732606820503,1732606820521,1732606820537,1732606820559,1732606820573,1732606820589,1732606820607,1732606820622,1732606820637,1732606820655,1732606820671,1732606820688,1732606820706,1732606820725,1732606820739,1732606820755,1732606820771,1732606820787,1732606820809,1732606820824,1732606820837,1732606820856,1732606820871,1732606820888,1732606820910,1732606820921,1732606820938,1732606820954,1732606820975,1732606820992,1732606821004,1732606821024,1732606821039,1732606821054,1732606821074,1732606821093,1732606821107,1732606821127,1732606821138,1732606821154,1732606821172,1732606821196,1732606821204,1732606821221,1732606821239,1732606821258,1732606821274,1732606821291,1732606821311,1732606821321,1732606821338,1732606821354,1732606821373,1732606821391,1732606821404,1732606821425,1732606821440,1732606821456,1732606821475,1732606821488,1732606821504,1732606821524,1732606821539,1732606821554,1732606821574,1732606821588,1732606821604,1732606821628,1732606821638,1732606821654,1732606821671,1732606821692,1732606821705,1732606821721,1732606821739,1732606821758,1732606821773,1732606821788,1732606821805,1732606821825,1732606821838,1732606821854,1732606821871,1732606821896,1732606821904,1732606821921,1732606821941,1732606821960,1732606821974,1732606821991,1732606822018,1732606822022,1732606822038,1732606822054,1732606822073,1732606822088,1732606822104,1732606822121,1732606822142,1732606822156,1732606822171,1732606822192,1732606822204,1732606822221,1732606822238,1732606822257,1732606822271,1732606822288,1732606822305,1732606822323,1732606822338,1732606822355,1732606822371,1732606822387,1732606822407,1732606822421,1732606822437,1732606822454,1732606822475,1732606822488,1732606822505,1732606822524,1732606822539,1732606822558,1732606822571,1732606822591,1732606822607,1732606822623,1732606822642,1732606822657,1732606822671,1732606822688,1732606822704,1732606822721,1732606822738,1732606822754,1732606822771,1732606822788,1732606822808,1732606822823,1732606822837,1732606822854,1732606822871,1732606822888,1732606822907,1732606822921,1732606822937,1732606822954,1732606822971,1732606822988,1732606823004,1732606823022,1732606823037,1732606823054,1732606823072,1732606823087,1732606823106,1732606823121,1732606823137,1732606823154,1732606823171,1732606823187,1732606823205,1732606823221,1732606823238,1732606823254,1732606823271,1732606823293,1732606823305,1732606823321,1732606823340,1732606823355,1732606823371,1732606823393,1732606823404,1732606823421,1732606823437,1732606823456,1732606823475,1732606823491,1732606823504,1732606823523,1732606823538,1732606823554,1732606823572,1732606823590,1732606823605,1732606823621,1732606823638,1732606823655,1732606823673,1732606823688]","[[982.5,961],[982.5,961],[982.5,961],[967.2,922.9],[967.2,922.9],[962.8,879.1],[962.8,879.1],[958.8,844.4],[958.8,844.4],[959.1,795],[959.1,795],[938.6,753.4],[938.6,753.4],[919.1,708],[919.1,708],[931.2,679.9],[931.2,679.9],[943.3,651.8],[943.3,651.8],[946,628.1],[946,628.1],[930.5,594.9],[930.5,594.9],[924.4,565.2],[924.4,565.2],[906.8,542.7],[906.8,542.7],[913,514.1],[913,514.1],[915.8,492],[915.8,492],[919.5,472.2],[919.5,472.2],[919.5,472.2],[919.5,472.2],[926,463],[926,463],[913,427.8],[913,427.8],[913,427.8],[913,427.8],[932.9,391],[932.9,391],[950.6,351.8],[950.6,351.8],[982.5,320.5],[982.5,320.5],[982.5,320.5],[1024,301.5],[1024,301.5],[1079.7,281.5],[1079.7,281.5],[1090.2,318.6],[1090.2,318.6],[1108.2,362.2],[1108.2,362.2],[1156.5,395.2],[1156.5,395.2],[1175.4,422.6],[1180.8,465.5],[1153.3,510],[1138.8,556.3],[1133.1,604.3],[1133.1,604.3],[1128.3,653.9],[1103.4,706.2],[1116.4,701.9],[1119.9,711.4],[1107.5,736.5],[1107.5,736.5],[1112.9,755],[1132.8,781.2],[1153.1,794.6],[1131,800.1],[1108.9,805.6],[1091.8,817.9],[1080.9,826],[1067.9,838],[1047,844],[1025.7,842.6],[1010.4,845.5],[984.4,848.5],[958,864.3],[958,864.3],[958.3,886.7],[929.3,909.7],[890.2,923.3],[857.8,923.1],[857.8,923.1],[827.5,919],[807.1,911.5],[780.5,924.4],[753.9,937.3],[719.1,936.7],[719.1,936.7],[684.3,936.1],[654.9,929.6],[638.3,928.2],[638.5,919.3],[668.3,914.5],[687.5,915.6],[730.9,900.7],[780.9,872.8],[826.7,848.1],[826.7,848.1],[889.5,827],[889.5,827],[945.5,812.8],[1005.9,794.4],[1105.2,776],[1183.3,762.9],[1222.3,762.8],[1253.1,755.1],[1253.1,755.1],[1277,762.9],[1287.2,777.2],[1301.6,788.3],[1301.6,788.3],[1309.9,792.7],[1320.1,787.1],[1319,791.6],[1293.5,777.2],[1272.4,765],[1271.7,733.1],[1295.3,703.4],[1300.1,668.9],[1318.6,627.9],[1342.2,586.6],[1362.9,551.5],[1390.8,519.3],[1410.1,484.3],[1427.7,461],[1445.3,437.7],[1451.9,432.9],[1453,427.6],[1453,427.6],[1458.8,425.6],[1446.9,433.2],[1429.9,441.1],[1411.9,445.5],[1391.6,450.1],[1376.6,456.9],[1365.3,465.2],[1365.3,465.2],[1354.6,476.7],[1354.6,476.7],[1339.3,487.3],[1328.8,488.5],[1328.8,488.5],[1314.2,489],[1309.4,473.4],[1316.9,464.4],[1325.4,458.9],[1325.5,444.6],[1325.5,444.6],[1329.7,441],[1330.1,429],[1321.1,424.4],[1279.1,408.5],[1232.3,402],[1185.5,395.5],[1152.1,403.4],[1106.4,404.7],[1068.5,397.2],[1031,402.6],[993.9,399],[960.6,403.8],[933.7,404.7],[936,413],[952.2,425.7],[952.2,425.7],[968.4,438.4],[976.8,449.5],[995.2,452.7],[1005.8,464.7],[1005.8,464.7],[1000.4,471.5],[1011.5,484],[1011.5,484],[1027.5,501.9],[1042.8,516],[1076.5,544.7],[1096.3,569],[1098.5,613.5],[1098.5,613.5],[1103,651.7],[1087.9,709.5],[1059.5,753],[1055.1,797.6],[1015.5,827],[971,851],[931.5,876.6],[878.4,894.2],[826,897.3],[793,888.5],[749.5,870.5],[706.4,847.2],[683.7,825.2],[661,803.2],[654.1,792.2],[647.2,781.2],[639.7,764.2],[629.2,743.3],[616.4,736.8],[601.8,722],[601.5,713],[609.2,698.6],[626.5,684.5],[643.8,670.4],[643.8,670.4],[711.3,672.3],[760.6,659.2],[808.6,647.6],[867.7,646.3],[867.7,646.3],[928.4,645.1],[982.5,649],[1035.9,656],[1090.5,662],[1135,681.5],[1179.5,701],[1183.8,704.1],[1183.8,704.1],[1193.5,695.5],[1206.8,708.3],[1192.7,696.6],[1192.7,696.6],[1214.9,676],[1243.7,650.3],[1254.3,648.3],[1250.6,625.1],[1240.3,601.1],[1230,577.1],[1230,577.1],[1209.9,542.4],[1209.9,542.4],[1211,563.6],[1211,563.6],[1206.1,596.4],[1210,641.4],[1182.2,623.6],[1144.2,619.3],[1144.2,619.3],[1131.3,575],[1131.3,575],[1127.2,548.8],[1128.4,523.2],[1120.7,505.6],[1114.5,496.5],[1114.5,496.5],[1091.3,489.5],[1062.5,427.8],[1062.5,427.8],[1060.5,353.2],[1053.9,350.3],[1051.7,338.9],[1051.7,338.9],[1036.8,333.9],[1033.4,338.4],[1013.4,344.2],[1021,333.5],[1021.5,359.2],[1033.7,346.3],[1043.3,332.6],[1043.3,332.6],[1048.1,325.8],[1034.5,331.6],[1024.4,331.2],[1024.4,331.2],[1037.7,328.5],[1036,315.6],[1032.3,330.7],[1032.3,330.7],[1031.4,330.7],[1031.4,330.7],[1037.2,291.7],[1039.9,260],[1040,255.2],[1005.4,260.9],[1005.4,260.9],[1019,242.2],[1038.9,235.3],[1037.6,245.1],[1028.5,246],[1032.7,217],[1040.8,199.8],[1040.8,199.8],[1028.8,206.1],[1016.7,206.3],[1048.3,173.1],[1061.1,172.7],[1040.6,186.8],[1016.1,190.3],[989.1,181.9],[982,183.8],[970.7,190.2],[934,208.4],[934,208.4],[926.5,199.7],[926.5,199.7],[916.6,194.8],[883.4,221.7],[889.2,213.3],[889.2,213.3],[925.1,201.1],[974.3,175.7],[976.1,173.3],[987.5,170.8],[1003.1,163.8],[1028,179.2],[1044.2,200.6],[1088,274.6],[1124.6,345.8],[1187.2,406],[1223.2,467.3],[1277.4,541.4],[1277.4,541.4],[1358.8,608],[1354.2,664.8],[1346.6,714.3],[1346.6,714.3],[1329.7,741.4],[1319,733.1],[1271.1,673.5],[1223.2,613.9],[1164.2,557],[1105.2,500.1],[1008,454.4],[934,400.9],[934,400.9],[955.8,345.3],[927.3,313.7],[923.8,271.3],[938.1,259.2],[964.5,248.1],[958.3,246.8],[937.2,253.8],[913.7,246.3],[896.9,228],[912.2,209.8],[903.6,205.8],[930.7,191.6],[948.4,186.9],[932.1,207.6],[919.4,215.4],[932.3,219.2],[937.9,234.4],[946.2,260.7],[954.5,287],[940,318.2],[940,318.2],[931.1,342.6],[931.1,342.6],[913.3,361.1],[905.4,382.6],[892.7,381.6],[876.4,393.5],[876.4,393.5],[860.9,384.4],[846.5,365.7],[831.8,350.4],[811.9,318.3],[803.9,295.4],[787.8,278.5],[787.8,278.5],[798.2,261],[791.6,235.8],[790.8,229.8],[790,223.8],[783.3,220.6],[803.2,216.7],[824.6,210.1],[851.2,220.3],[830.3,225.1],[813.3,230.9],[818,235.8]]","[-0.2,0.6000000000000001]","[0.2,0.6000000000000001]","[0.6000000000000001,0.6000000000000001]","[-0.6000000000000001,-0.2]","[-0.6000000000000001,-0.6000000000000001]","[-0.6000000000000001,0.2]","[-0.2,-0.2]","[0.2,-0.2]","[0.6000000000000001,-0.2]","[-0.2,-0.6000000000000001]","[0.2,-0.6000000000000001]","[0.6000000000000001,-0.6000000000000001]","[-0.2,0.2]","[0.2,0.2]","[0.6000000000000001,0.2]",0,0,0,0,1,1,Monitor,20,20,7,2,70,4,2,70,4
