inst1_resp.keys,inst1_resp.rt,calibrationMouse.x,calibrationMouse.y,calibrationMouse.leftButton,calibrationMouse.midButton,calibrationMouse.rightButton,calibrationClick.x,calibrationClick.y,calibrationClick.leftButton,calibrationClick.midButton,calibrationClick.rightButton,calibrationClick.clicked_name,trialsc.thisRepN,trialsc.thisTrialN,trialsc.thisN,trialsc.thisIndex,trialsc.ran,calibration_x,calibration_y,participant,session,date,expName,psychopyVersion,OS,frameRate,ScreenRes_pixels,Camera_pixels,mouse_2.x,mouse_2.y,mouse_2.leftButton,mouse_2.midButton,mouse_2.rightButton,mouse_2.time,mouse_2.clicked_name,mouse.x,mouse.y,mouse.leftButton,mouse.midButton,mouse.rightButton,mouse.time,mouse.clicked_name,Choice,Trial,TrialDuration,MOUSE_GAZE,ET_GAZE,ET_GAZE_x_T,time,unixTime,ET_GAZE_NF,Loc_Bus_label,Loc_Metro_label,Loc_RH_label,Loc_Cost_label,Loc_Travel_label,Loc_Comfort_label,Loc_Bus_cost,Loc_Metro_cost,Loc_RH_cost,Loc_Bus_travel,Loc_Metro_travel,Loc_RH_travel,Loc_Bus_comfort,Loc_Metro_comfort,Loc_RH_comfort,trials.thisRepN,trials.thisTrialN,trials.thisN,trials.thisIndex,trials.ran,Block,Device,RH_cost,RH_travel_time,RH_Comfort,metro_cost,metro_travel_time,metro_Comfort,Bus_cost,Bus_travel_time,Bus_Comfort
space,2.1489,0.008333333,-0.137037037,1,0,0,-0.677083333,-0.672222222,1,0,0,calibration_square,0,0,0,0,1,-0.67,-0.67,48,001,2024-11-27_15h32.09.805,Attention_exp_legacy,2023.1.0,Win32,59.88023952,,,,,,,,,,,,,,,,,,,,,,,,,,,,,,,,,,,,,,,,,,,,,,,,,,,,,,,,
,,,,,,,-0.678125,-0.003703704,1,0,0,calibration_square,0,1,1,2,1,-0.67,0,48,001,2024-11-27_15h32.09.805,Attention_exp_legacy,2023.1.0,Win32,59.88023952,,,,,,,,,,,,,,,,,,,,,,,,,,,,,,,,,,,,,,,,,,,,,,,,,,,,,,,,
,,,,,,,-0.341666667,0,1,0,0,,0,2,2,6,1,-0.33,0,48,001,2024-11-27_15h32.09.805,Attention_exp_legacy,2023.1.0,Win32,59.88023952,,,,,,,,,,,,,,,,,,,,,,,,,,,,,,,,,,,,,,,,,,,,,,,,,,,,,,,,
,,,,,,,0.326041667,0.009259259,1,0,0,calibration_square,0,3,3,16,1,0.33,0,48,001,2024-11-27_15h32.09.805,Attention_exp_legacy,2023.1.0,Win32,59.88023952,,,,,,,,,,,,,,,,,,,,,,,,,,,,,,,,,,,,,,,,,,,,,,,,,,,,,,,,
,,,,,,,0.003125,-0.662962963,1,0,0,calibration_square,0,4,4,9,1,0,-0.67,48,001,2024-11-27_15h32.09.805,Attention_exp_legacy,2023.1.0,Win32,59.88023952,,,,,,,,,,,,,,,,,,,,,,,,,,,,,,,,,,,,,,,,,,,,,,,,,,,,,,,,
,,,,,,,-0.665625,0.335185185,1,0,0,calibration_square,0,5,5,3,1,-0.67,0.33,48,001,2024-11-27_15h32.09.805,Attention_exp_legacy,2023.1.0,Win32,59.88023952,,,,,,,,,,,,,,,,,,,,,,,,,,,,,,,,,,,,,,,,,,,,,,,,,,,,,,,,
,,,,,,,0.328125,-0.672222222,1,0,0,calibration_square,0,6,6,14,1,0.33,-0.67,48,001,2024-11-27_15h32.09.805,Attention_exp_legacy,2023.1.0,Win32,59.88023952,,,,,,,,,,,,,,,,,,,,,,,,,,,,,,,,,,,,,,,,,,,,,,,,,,,,,,,,
,,,,,,,0.002083333,0.65,1,0,0,,0,7,7,13,1,0,0.67,48,001,2024-11-27_15h32.09.805,Attention_exp_legacy,2023.1.0,Win32,59.88023952,,,,,,,,,,,,,,,,,,,,,,,,,,,,,,,,,,,,,,,,,,,,,,,,,,,,,,,,
,,,,,,,0.321875,-0.314814815,1,0,0,,0,8,8,15,1,0.33,-0.33,48,001,2024-11-27_15h32.09.805,Attention_exp_legacy,2023.1.0,Win32,59.88023952,,,,,,,,,,,,,,,,,,,,,,,,,,,,,,,,,,,,,,,,,,,,,,,,,,,,,,,,
,,,,,,,-0.004166667,0.324074074,1,0,0,calibration_square,0,9,9,12,1,0,0.33,48,001,2024-11-27_15h32.09.805,Attention_exp_legacy,2023.1.0,Win32,59.88023952,,,,,,,,,,,,,,,,,,,,,,,,,,,,,,,,,,,,,,,,,,,,,,,,,,,,,,,,
,,,,,,,-0.001041667,-0.009259259,1,0,0,calibration_square,0,10,10,11,1,0,0,48,001,2024-11-27_15h32.09.805,Attention_exp_legacy,2023.1.0,Win32,59.88023952,,,,,,,,,,,,,,,,,,,,,,,,,,,,,,,,,,,,,,,,,,,,,,,,,,,,,,,,
,,,,,,,0.677083333,-0.653703704,1,0,0,,0,11,11,20,1,0.67,-0.67,48,001,2024-11-27_15h32.09.805,Attention_exp_legacy,2023.1.0,Win32,59.88023952,,,,,,,,,,,,,,,,,,,,,,,,,,,,,,,,,,,,,,,,,,,,,,,,,,,,,,,,
,,,,,,,0.314583333,0.659259259,1,0,0,,0,12,12,18,1,0.33,0.67,48,001,2024-11-27_15h32.09.805,Attention_exp_legacy,2023.1.0,Win32,59.88023952,,,,,,,,,,,,,,,,,,,,,,,,,,,,,,,,,,,,,,,,,,,,,,,,,,,,,,,,
,,,,,,,0.653125,0.661111111,1,0,0,,0,13,13,19,1,0.67,0.67,48,001,2024-11-27_15h32.09.805,Attention_exp_legacy,2023.1.0,Win32,59.88023952,,,,,,,,,,,,,,,,,,,,,,,,,,,,,,,,,,,,,,,,,,,,,,,,,,,,,,,,
,,,,,,,-0.666666667,-0.314814815,1,0,0,,0,14,14,1,1,-0.67,-0.33,48,001,2024-11-27_15h32.09.805,Attention_exp_legacy,2023.1.0,Win32,59.88023952,,,,,,,,,,,,,,,,,,,,,,,,,,,,,,,,,,,,,,,,,,,,,,,,,,,,,,,,
,,,,,,,-0.315625,-0.67962963,1,0,0,,0,15,15,4,1,-0.33,-0.67,48,001,2024-11-27_15h32.09.805,Attention_exp_legacy,2023.1.0,Win32,59.88023952,,,,,,,,,,,,,,,,,,,,,,,,,,,,,,,,,,,,,,,,,,,,,,,,,,,,,,,,
,,,,,,,0.329166667,0.344444444,1,0,0,,0,16,16,17,1,0.33,0.33,48,001,2024-11-27_15h32.09.805,Attention_exp_legacy,2023.1.0,Win32,59.88023952,,,,,,,,,,,,,,,,,,,,,,,,,,,,,,,,,,,,,,,,,,,,,,,,,,,,,,,,
,,,,,,,-0.011458333,-0.342592593,1,0,0,,0,17,17,10,1,0,-0.33,48,001,2024-11-27_15h32.09.805,Attention_exp_legacy,2023.1.0,Win32,59.88023952,,,,,,,,,,,,,,,,,,,,,,,,,,,,,,,,,,,,,,,,,,,,,,,,,,,,,,,,
,,,,,,,-0.320833333,-0.322222222,1,0,0,calibration_square,0,18,18,5,1,-0.33,-0.33,48,001,2024-11-27_15h32.09.805,Attention_exp_legacy,2023.1.0,Win32,59.88023952,,,,,,,,,,,,,,,,,,,,,,,,,,,,,,,,,,,,,,,,,,,,,,,,,,,,,,,,
,,,,,,,-0.34375,0.348148148,1,0,0,,0,19,19,7,1,-0.33,0.33,48,001,2024-11-27_15h32.09.805,Attention_exp_legacy,2023.1.0,Win32,59.88023952,,,,,,,,,,,,,,,,,,,,,,,,,,,,,,,,,,,,,,,,,,,,,,,,,,,,,,,,
,,,,,,,-0.317708333,0.655555556,1,0,0,,0,20,20,8,1,-0.33,0.67,48,001,2024-11-27_15h32.09.805,Attention_exp_legacy,2023.1.0,Win32,59.88023952,,,,,,,,,,,,,,,,,,,,,,,,,,,,,,,,,,,,,,,,,,,,,,,,,,,,,,,,
,,,,,,,,,,,,,,,,,,,,48,001,2024-11-27_15h32.09.805,Attention_exp_legacy,2023.1.0,Win32,59.88023952,"[1920,1080]","[640,480]",[0.017708333333333333],[-0.5259259259259259],[1],[0],[0],[3.379700000017884],"[""StartButton""]",[0.14166666666666666],[0.40370370370370373],[1],[0],[0],[6.227599999994041],"[""Metro_label""]",Metro_label,1,7.239,"[[0.021875,-0.48703703703703705],[0.021875,-0.48703703703703705],[0.021875,-0.48703703703703705],[0.021875,-0.48703703703703705],[0.021875,-0.48703703703703705],[0.021875,-0.48703703703703705],[0.021875,-0.48703703703703705],[0.021875,-0.48703703703703705],[0.021875,-0.48703703703703705],[0.021875,-0.48703703703703705],[0.021875,-0.48703703703703705],[0.021875,-0.48703703703703705],[0.021875,-0.48703703703703705],[0.021875,-0.48703703703703705],[0.021875,-0.48703703703703705],[0.021875,-0.48703703703703705],[0.021875,-0.48703703703703705],[0.021875,-0.48703703703703705],[0.021875,-0.48703703703703705],[0.021875,-0.48703703703703705],[0.021875,-0.48703703703703705],[0.021875,-0.48703703703703705],[0.021875,-0.48703703703703705],[0.021875,-0.48703703703703705],[0.021875,-0.48703703703703705],[0.021875,-0.48703703703703705],[0.021875,-0.48703703703703705],[0.021875,-0.48703703703703705],[0.021875,-0.48703703703703705],[0.021875,-0.48703703703703705],[0.021875,-0.48703703703703705],[0.021875,-0.48703703703703705],[0.021875,-0.48703703703703705],[0.021875,-0.48703703703703705],[0.021875,-0.48703703703703705],[0.021875,-0.48703703703703705],[0.021875,-0.48703703703703705],[0.021875,-0.48703703703703705],[0.021875,-0.48703703703703705],[0.019791666666666666,-0.48703703703703705],[0.017708333333333333,-0.48703703703703705],[0.005208333333333333,-0.4759259259259259],[-0.0020833333333333333,-0.4685185185185185],[-0.034375,-0.43703703703703706],[-0.04791666666666667,-0.4185185185185185],[-0.08645833333333333,-0.3611111111111111],[-0.10104166666666667,-0.3296296296296296],[-0.18645833333333334,-0.15925925925925927],[-0.22395833333333334,-0.08333333333333333],[-0.23645833333333333,-0.05555555555555555],[-0.26875,-0.001851851851851852],[-0.30104166666666665,0.05555555555555555],[-0.3072916666666667,0.06481481481481481],[-0.3145833333333333,0.07962962962962963],[-0.3177083333333333,0.09074074074074075],[-0.321875,0.1],[-0.325,0.1111111111111111],[-0.32708333333333334,0.11851851851851852],[-0.328125,0.12037037037037036],[-0.328125,0.12037037037037036],[-0.328125,0.12037037037037036],[-0.328125,0.12037037037037036],[-0.328125,0.12037037037037036],[-0.328125,0.12407407407407407],[-0.328125,0.12777777777777777],[-0.328125,0.13148148148148148],[-0.328125,0.13148148148148148],[-0.328125,0.13333333333333333],[-0.328125,0.13333333333333333],[-0.328125,0.13333333333333333],[-0.328125,0.13333333333333333],[-0.328125,0.13333333333333333],[-0.328125,0.13333333333333333],[-0.328125,0.13333333333333333],[-0.328125,0.13333333333333333],[-0.328125,0.13333333333333333],[-0.328125,0.13333333333333333],[-0.328125,0.13333333333333333],[-0.328125,0.13333333333333333],[-0.328125,0.13333333333333333],[-0.328125,0.13333333333333333],[-0.328125,0.13333333333333333],[-0.328125,0.13333333333333333],[-0.32708333333333334,0.13333333333333333],[-0.31145833333333334,0.1388888888888889],[-0.2947916666666667,0.14629629629629629],[-0.28541666666666665,0.15185185185185185],[-0.24791666666666667,0.17777777777777778],[-0.21875,0.19444444444444445],[-0.18854166666666666,0.2111111111111111],[-0.15625,0.22777777777777777],[-0.128125,0.24259259259259258],[-0.103125,0.25555555555555554],[-0.08125,0.26481481481481484],[-0.06354166666666666,0.2740740740740741],[-0.04479166666666667,0.2833333333333333],[-0.03958333333333333,0.2833333333333333],[-0.03229166666666667,0.28703703703703703],[-0.027083333333333334,0.28888888888888886],[-0.025,0.28888888888888886],[-0.022916666666666665,0.28888888888888886],[-0.017708333333333333,0.29074074074074074],[-0.0125,0.29444444444444445],[-0.010416666666666666,0.29444444444444445],[-0.010416666666666666,0.29444444444444445],[-0.010416666666666666,0.29444444444444445],[-0.010416666666666666,0.29444444444444445],[-0.010416666666666666,0.29444444444444445],[-0.010416666666666666,0.29444444444444445],[-0.010416666666666666,0.29444444444444445],[-0.010416666666666666,0.29444444444444445],[-0.010416666666666666,0.29444444444444445],[-0.010416666666666666,0.29444444444444445],[-0.010416666666666666,0.29444444444444445],[-0.010416666666666666,0.29444444444444445],[-0.010416666666666666,0.29444444444444445],[-0.010416666666666666,0.29444444444444445],[-0.010416666666666666,0.29444444444444445],[-0.010416666666666666,0.29444444444444445],[-0.005208333333333333,0.29814814814814816],[-0.0010416666666666667,0.30185185185185187],[0.014583333333333334,0.31296296296296294],[0.03229166666666667,0.32592592592592595],[0.03854166666666667,0.3296296296296296],[0.04375,0.3351851851851852],[0.05,0.3388888888888889],[0.05520833333333333,0.34444444444444444],[0.06354166666666666,0.35185185185185186],[0.071875,0.35555555555555557],[0.08125,0.3611111111111111],[0.084375,0.3611111111111111],[0.08645833333333333,0.362962962962963],[0.08645833333333333,0.362962962962963],[0.08645833333333333,0.362962962962963],[0.08645833333333333,0.362962962962963],[0.08645833333333333,0.362962962962963],[0.08645833333333333,0.362962962962963],[0.08645833333333333,0.362962962962963],[0.08645833333333333,0.362962962962963],[0.08645833333333333,0.362962962962963],[0.08645833333333333,0.362962962962963],[0.08645833333333333,0.362962962962963],[0.08645833333333333,0.362962962962963],[0.08645833333333333,0.362962962962963],[0.08645833333333333,0.362962962962963],[0.08645833333333333,0.362962962962963],[0.08645833333333333,0.362962962962963],[0.08645833333333333,0.362962962962963],[0.08645833333333333,0.362962962962963],[0.08645833333333333,0.362962962962963],[0.08645833333333333,0.362962962962963],[0.08645833333333333,0.362962962962963],[0.08645833333333333,0.362962962962963],[0.08645833333333333,0.362962962962963],[0.08645833333333333,0.362962962962963],[0.08645833333333333,0.362962962962963],[0.08645833333333333,0.362962962962963],[0.08645833333333333,0.362962962962963],[0.08645833333333333,0.362962962962963],[0.08645833333333333,0.362962962962963],[0.08645833333333333,0.362962962962963],[0.08645833333333333,0.362962962962963],[0.08645833333333333,0.362962962962963],[0.08645833333333333,0.362962962962963],[0.08645833333333333,0.362962962962963],[0.08645833333333333,0.362962962962963],[0.08645833333333333,0.362962962962963],[0.08645833333333333,0.362962962962963],[0.08645833333333333,0.362962962962963],[0.08645833333333333,0.362962962962963],[0.08645833333333333,0.362962962962963],[0.08645833333333333,0.362962962962963],[0.08645833333333333,0.362962962962963],[0.08645833333333333,0.362962962962963],[0.08645833333333333,0.362962962962963],[0.08645833333333333,0.362962962962963],[0.08645833333333333,0.362962962962963],[0.08645833333333333,0.362962962962963],[0.08645833333333333,0.362962962962963],[0.08645833333333333,0.362962962962963],[0.08645833333333333,0.362962962962963],[0.08645833333333333,0.362962962962963],[0.08645833333333333,0.362962962962963],[0.08645833333333333,0.362962962962963],[0.08645833333333333,0.362962962962963],[0.08645833333333333,0.362962962962963],[0.08645833333333333,0.362962962962963],[0.08645833333333333,0.362962962962963],[0.08645833333333333,0.362962962962963],[0.08645833333333333,0.362962962962963],[0.08645833333333333,0.362962962962963],[0.08645833333333333,0.362962962962963],[0.08645833333333333,0.362962962962963],[0.08645833333333333,0.362962962962963],[0.08645833333333333,0.362962962962963],[0.08645833333333333,0.362962962962963],[0.08645833333333333,0.362962962962963],[0.08645833333333333,0.362962962962963],[0.08645833333333333,0.362962962962963],[0.08645833333333333,0.362962962962963],[0.08645833333333333,0.362962962962963],[0.08645833333333333,0.362962962962963],[0.08645833333333333,0.362962962962963],[0.08645833333333333,0.362962962962963],[0.08645833333333333,0.362962962962963],[0.08645833333333333,0.362962962962963],[0.08645833333333333,0.362962962962963],[0.08645833333333333,0.362962962962963],[0.08645833333333333,0.362962962962963],[0.08645833333333333,0.362962962962963],[0.08645833333333333,0.362962962962963],[0.08645833333333333,0.362962962962963],[0.08645833333333333,0.362962962962963],[0.08645833333333333,0.362962962962963],[0.08645833333333333,0.362962962962963],[0.08645833333333333,0.362962962962963],[0.08645833333333333,0.362962962962963],[0.08645833333333333,0.362962962962963],[0.08645833333333333,0.362962962962963],[0.08645833333333333,0.362962962962963],[0.08645833333333333,0.362962962962963],[0.08645833333333333,0.362962962962963],[0.08645833333333333,0.362962962962963],[0.08645833333333333,0.362962962962963],[0.08645833333333333,0.362962962962963],[0.08645833333333333,0.362962962962963],[0.08645833333333333,0.362962962962963],[0.08645833333333333,0.362962962962963],[0.08645833333333333,0.362962962962963],[0.08645833333333333,0.362962962962963],[0.08645833333333333,0.362962962962963],[0.08645833333333333,0.362962962962963],[0.08645833333333333,0.362962962962963],[0.08645833333333333,0.362962962962963],[0.08645833333333333,0.362962962962963],[0.08645833333333333,0.362962962962963],[0.08645833333333333,0.362962962962963],[0.08645833333333333,0.362962962962963],[0.08645833333333333,0.362962962962963],[0.08645833333333333,0.362962962962963],[0.08645833333333333,0.362962962962963],[0.08645833333333333,0.362962962962963],[0.08645833333333333,0.362962962962963],[0.08645833333333333,0.362962962962963],[0.08645833333333333,0.362962962962963],[0.08645833333333333,0.362962962962963],[0.08645833333333333,0.362962962962963],[0.08645833333333333,0.362962962962963],[0.08645833333333333,0.362962962962963],[0.08645833333333333,0.362962962962963],[0.08645833333333333,0.362962962962963],[0.08645833333333333,0.362962962962963],[0.08645833333333333,0.362962962962963],[0.08645833333333333,0.362962962962963],[0.08645833333333333,0.362962962962963],[0.08645833333333333,0.362962962962963],[0.08645833333333333,0.362962962962963],[0.08645833333333333,0.362962962962963],[0.08645833333333333,0.362962962962963],[0.08645833333333333,0.362962962962963],[0.08645833333333333,0.362962962962963],[0.08645833333333333,0.362962962962963],[0.08645833333333333,0.362962962962963],[0.08645833333333333,0.362962962962963],[0.08645833333333333,0.362962962962963],[0.08645833333333333,0.362962962962963],[0.08645833333333333,0.362962962962963],[0.08645833333333333,0.362962962962963],[0.08645833333333333,0.362962962962963],[0.08645833333333333,0.362962962962963],[0.08645833333333333,0.362962962962963],[0.08645833333333333,0.362962962962963],[0.08645833333333333,0.362962962962963],[0.08645833333333333,0.362962962962963],[0.08645833333333333,0.362962962962963],[0.08645833333333333,0.362962962962963],[0.08645833333333333,0.362962962962963],[0.08645833333333333,0.362962962962963],[0.08645833333333333,0.362962962962963],[0.08645833333333333,0.362962962962963],[0.08645833333333333,0.362962962962963],[0.08645833333333333,0.362962962962963],[0.08645833333333333,0.362962962962963],[0.08645833333333333,0.362962962962963],[0.08645833333333333,0.362962962962963],[0.08645833333333333,0.362962962962963],[0.08645833333333333,0.362962962962963],[0.08645833333333333,0.362962962962963],[0.08645833333333333,0.362962962962963],[0.08645833333333333,0.362962962962963],[0.08645833333333333,0.362962962962963],[0.08645833333333333,0.362962962962963],[0.08645833333333333,0.362962962962963],[0.08645833333333333,0.362962962962963],[0.08645833333333333,0.362962962962963],[0.08645833333333333,0.362962962962963],[0.08645833333333333,0.362962962962963],[0.08645833333333333,0.362962962962963],[0.08645833333333333,0.362962962962963],[0.08645833333333333,0.3648148148148148],[0.08958333333333333,0.36666666666666664],[0.1,0.37037037037037035],[0.11458333333333333,0.37592592592592594],[0.12083333333333333,0.37777777777777777],[0.128125,0.37777777777777777],[0.13229166666666667,0.3814814814814815],[0.134375,0.38333333333333336],[0.134375,0.38333333333333336],[0.13645833333333332,0.38333333333333336],[0.13645833333333332,0.38333333333333336],[0.1375,0.38333333333333336],[0.1375,0.38333333333333336],[0.13958333333333334,0.3851851851851852],[0.13958333333333334,0.3851851851851852],[0.140625,0.3851851851851852],[0.14166666666666666,0.3851851851851852],[0.14166666666666666,0.3851851851851852],[0.14166666666666666,0.3851851851851852],[0.14166666666666666,0.3851851851851852],[0.14166666666666666,0.3851851851851852],[0.14166666666666666,0.3851851851851852],[0.14166666666666666,0.3851851851851852],[0.14166666666666666,0.3851851851851852],[0.14166666666666666,0.3851851851851852],[0.14166666666666666,0.3851851851851852],[0.14166666666666666,0.3851851851851852],[0.14166666666666666,0.3851851851851852],[0.14166666666666666,0.3851851851851852],[0.14166666666666666,0.3851851851851852],[0.14166666666666666,0.3851851851851852],[0.14166666666666666,0.3851851851851852],[0.14166666666666666,0.3851851851851852],[0.14166666666666666,0.3851851851851852],[0.14166666666666666,0.3851851851851852],[0.14166666666666666,0.3851851851851852],[0.14166666666666666,0.3851851851851852],[0.14166666666666666,0.3851851851851852],[0.14166666666666666,0.3851851851851852],[0.14166666666666666,0.3851851851851852],[0.14166666666666666,0.3851851851851852],[0.14166666666666666,0.3851851851851852],[0.14166666666666666,0.3851851851851852],[0.14166666666666666,0.3851851851851852],[0.14166666666666666,0.3851851851851852],[0.14166666666666666,0.3851851851851852],[0.14166666666666666,0.3851851851851852],[0.14166666666666666,0.3851851851851852],[0.14166666666666666,0.3851851851851852],[0.14166666666666666,0.3851851851851852],[0.14166666666666666,0.3851851851851852],[0.14166666666666666,0.3851851851851852],[0.14166666666666666,0.3851851851851852],[0.14166666666666666,0.3851851851851852],[0.14166666666666666,0.3851851851851852],[0.14166666666666666,0.3851851851851852],[0.14166666666666666,0.3851851851851852],[0.14166666666666666,0.3851851851851852],[0.14166666666666666,0.3851851851851852],[0.14166666666666666,0.3851851851851852],[0.14270833333333333,0.39444444444444443],[0.14270833333333333,0.3962962962962963],[0.14270833333333333,0.40185185185185185],[0.14166666666666666,0.40370370370370373],[0.14166666666666666,0.40370370370370373],[0.14166666666666666,0.40370370370370373],[0.14166666666666666,0.40370370370370373],[0.14166666666666666,0.40370370370370373],[0.14166666666666666,0.40370370370370373],[0.14166666666666666,0.40370370370370373],[0.14166666666666666,0.40370370370370373],[0.14166666666666666,0.40370370370370373],[0.14166666666666666,0.40370370370370373],[0.14166666666666666,0.40370370370370373],[0.14166666666666666,0.40370370370370373],[0.14166666666666666,0.40370370370370373],[0.14166666666666666,0.40370370370370373],[0.14166666666666666,0.40370370370370373],[0.14166666666666666,0.40370370370370373],[0.14166666666666666,0.40370370370370373],[0.14166666666666666,0.40370370370370373],[0.14166666666666666,0.40370370370370373],[0.14166666666666666,0.40370370370370373],[0.14166666666666666,0.40370370370370373],[0.14166666666666666,0.40370370370370373],[0.14166666666666666,0.40370370370370373],[0.14166666666666666,0.40370370370370373],[0.14166666666666666,0.40370370370370373],[0.14166666666666666,0.40370370370370373],[0.14166666666666666,0.40370370370370373],[0.14166666666666666,0.40370370370370373],[0.14166666666666666,0.40370370370370373],[0.14166666666666666,0.40370370370370373],[0.14166666666666666,0.40370370370370373],[0.14166666666666666,0.40370370370370373],[0.14166666666666666,0.40370370370370373],[0.14166666666666666,0.40370370370370373],[0.14166666666666666,0.40370370370370373],[0.14166666666666666,0.40370370370370373],[0.14166666666666666,0.40370370370370373],[0.14166666666666666,0.40370370370370373],[0.14166666666666666,0.40370370370370373],[0.14166666666666666,0.40370370370370373],[0.14166666666666666,0.40370370370370373],[0.14166666666666666,0.40370370370370373],[0.14166666666666666,0.40370370370370373],[0.14166666666666666,0.40370370370370373],[0.14166666666666666,0.40370370370370373],[0.14166666666666666,0.40370370370370373],[0.14166666666666666,0.40370370370370373],[0.14166666666666666,0.40370370370370373],[0.14166666666666666,0.40370370370370373],[0.14166666666666666,0.40370370370370373],[0.14166666666666666,0.40370370370370373],[0.14166666666666666,0.40370370370370373],[0.14166666666666666,0.40370370370370373],[0.14166666666666666,0.40370370370370373],[0.14166666666666666,0.40370370370370373],[0.14166666666666666,0.40370370370370373],[0.14166666666666666,0.40370370370370373],[0.14166666666666666,0.40370370370370373],[0.14166666666666666,0.40370370370370373],[0.14166666666666666,0.40370370370370373],[0.14166666666666666,0.40370370370370373],[0.14166666666666666,0.40370370370370373],[0.14166666666666666,0.40370370370370373],[0.14166666666666666,0.40555555555555556],[0.140625,0.40555555555555556],[0.13854166666666667,0.40370370370370373],[0.13541666666666666,0.40185185185185185],[0.13229166666666667,0.39814814814814814],[0.13020833333333334,0.39444444444444443],[0.128125,0.3907407407407407],[0.12291666666666666,0.387037037037037]]","[[0.14729166666666677,0.26888888888888896],[0.14729166666666677,0.26888888888888896],[0.14729166666666677,0.26888888888888896],[0.16072916666666662,0.22592592592592592],[0.16072916666666662,0.22592592592592592],[0.15552083333333327,0.20166666666666663],[0.15552083333333327,0.20166666666666663],[0.14208333333333342,0.20685185185185193],[0.14208333333333342,0.20685185185185193],[0.13562500000000005,0.21592592592592597],[0.13562500000000005,0.21592592592592597],[0.12489583333333343,0.13185185185185194],[0.12489583333333343,0.13185185185185194],[0.10697916666666671,0.053703703703703705],[0.10697916666666671,0.053703703703703705],[0.11135416666666677,-0.03092592592592601],[0.11135416666666677,-0.03092592592592601],[0.12322916666666663,-0.10722222222222218],[0.12322916666666663,-0.10722222222222218],[0.09510416666666661,-0.14888888888888885],[0.09510416666666661,-0.14888888888888885],[0.09510416666666661,-0.14888888888888885],[0.09510416666666661,-0.14888888888888885],[0.06354166666666666,-0.1714814814814815],[0.06354166666666666,-0.1714814814814815],[0.04624999999999998,-0.20111111111111116],[0.04624999999999998,-0.20111111111111116],[0.02000000000000005,-0.2616666666666667],[0.02000000000000005,-0.2616666666666667],[0.005624999999999976,-0.3001851851851852],[0.005624999999999976,-0.3001851851851852],[-0.02677083333333338,-0.3087037037037037],[-0.02677083333333338,-0.3087037037037037],[-0.03333333333333333,-0.23537037037037042],[-0.03333333333333333,-0.23537037037037042],[-0.03333333333333333,-0.23537037037037042],[-0.03333333333333333,-0.23537037037037042],[-0.05697916666666671,-0.16407407407407412],[-0.05697916666666671,-0.16407407407407412],[-0.10041666666666664,-0.10944444444444448],[-0.10041666666666664,-0.10944444444444448],[-0.1460416666666667,-0.02759259259259255],[-0.1460416666666667,-0.02759259259259255],[-0.15437500000000004,0.0242592592592593],[-0.15437500000000004,0.0242592592592593],[-0.16822916666666668,0.020185185185185143],[-0.16822916666666668,0.020185185185185143],[-0.23374999999999999,0.0492592592592593],[-0.23374999999999999,0.0492592592592593],[-0.23374999999999999,0.06462962962962959],[-0.24802083333333336,0.05277777777777778],[-0.25656249999999997,0.06370370370370367],[-0.25656249999999997,0.06370370370370367],[-0.27875,0.05277777777777778],[-0.29322916666666665,0.048333333333333374],[-0.2768749999999999,0.07574074074074069],[-0.2768749999999999,0.07574074074074069],[-0.2764583333333333,0.07351851851851861],[-0.2960416666666667,0.058703703703703786],[-0.2960416666666667,0.058703703703703786],[-0.33135416666666667,0.09722222222222222],[-0.2764583333333333,0.14018518518518527],[-0.2530208333333333,0.1925925925925926],[-0.20708333333333329,0.2837037037037038],[-0.21312500000000004,0.26592592592592595],[-0.18947916666666664,0.2594444444444445],[-0.1658333333333334,0.252962962962963],[-0.17145833333333335,0.2351851851851852],[-0.16010416666666671,0.19000000000000003],[-0.11041666666666666,0.22759259259259254],[-0.05572916666666667,0.22277777777777769],[-0.05427083333333336,0.17388888888888884],[-0.05927083333333331,0.14148148148148143],[-0.06770833333333333,0.10111111111111115],[-0.02781250000000005,0.13037037037037033],[-0.024062500000000025,0.11314814814814819],[-0.0203125,0.09592592592592585],[0.02333333333333331,0.08074074074074078],[0.06812500000000009,0.09537037037037037],[0.06875,0.057962962962962876],[0.08687500000000009,0.03888888888888889],[0.1118750000000001,0.07925925925925917],[0.13562500000000005,0.09888888888888885],[0.15343749999999995,0.11462962962962958],[0.11364583333333324,0.08444444444444449],[0.09166666666666666,0.06370370370370367],[0.09166666666666666,0.06370370370370367],[0.11333333333333329,0.08722222222222227],[0.06208333333333336,0.05],[0.01083333333333331,0.012777777777777735],[0.015312500000000047,0.030555555555555555],[0.015312500000000047,0.030555555555555555],[-0.008854166666666666,0.025925925925925925],[-0.023958333333333335,-0.030000000000000086],[-0.03781249999999995,-0.06518518518518517],[-0.08031250000000002,-0.10333333333333336],[-0.08031250000000002,-0.10333333333333336],[-0.06520833333333335,-0.0955555555555556],[-0.013229166666666714,-0.020740740740740823],[0.011874999999999976,0.007777777777777862],[0.08135416666666657,0.08722222222222227],[0.0931250000000001,0.10870370370370379],[0.09937500000000009,0.09462962962962967],[0.09072916666666657,0.06333333333333342],[0.09072916666666657,0.06333333333333342],[0.08520833333333329,0.04740740740740745],[0.06958333333333329,0.012407407407407492],[0.09833333333333343,-0.0031481481481482323],[0.09833333333333343,-0.0031481481481482323],[0.1805208333333333,0.056296296296296254],[0.2091666666666666,0.08333333333333333],[0.228125,0.1338888888888888],[0.24645833333333325,0.2014814814814814],[0.3338541666666667,0.37222222222222223],[0.36614583333333334,0.4846296296296297],[0.4694791666666667,0.6162962962962962],[0.5247916666666667,0.7312962962962962],[0.5755208333333334,0.8914814814814814],[0.6038541666666667,1.024259259259259],[0.5671875,1.0648148148148149],[0.5671875,1.0648148148148149],[0.49583333333333335,0.9718518518518517],[0.40770833333333345,0.8594444444444445],[0.3039583333333333,0.7411111111111112],[0.3039583333333333,0.7411111111111112],[0.23177083333333334,0.518888888888889],[0.23177083333333334,0.518888888888889],[0.1453125,0.37333333333333335],[0.03999999999999997,0.2588888888888888],[-0.10614583333333331,0.14148148148148143],[-0.2376041666666667,-0.0020370370370370794],[-0.2376041666666667,-0.0020370370370370794],[-0.28229166666666666,-0.14314814814814816],[-0.28145833333333337,-0.2518518518518518],[-0.2671875,-0.27925925925925926],[-0.24322916666666666,-0.3087037037037037],[-0.2765625,-0.32981481481481484],[-0.30531250000000004,-0.2838888888888889],[-0.30531250000000004,-0.2838888888888889],[-0.3194791666666667,-0.2796296296296296],[-0.2841666666666666,-0.33648148148148144],[-0.18187500000000004,-0.29888888888888887],[-0.07958333333333331,-0.26129629629629636],[-0.07677083333333339,-0.227962962962963],[-0.07677083333333339,-0.227962962962963],[-0.10499999999999995,-0.2368518518518518],[-0.07489583333333331,-0.21944444444444444],[-0.0811458333333333,-0.17981481481481484],[-0.010208333333333286,-0.1705555555555556],[0.01739583333333338,-0.1933333333333333],[0.08510416666666672,-0.18611111111111112],[0.08510416666666672,-0.18611111111111112],[0.10770833333333343,-0.12962962962962962],[0.1337500000000001,-0.1359259259259259],[0.15979166666666675,-0.14222222222222225],[0.18447916666666658,-0.2227777777777778],[0.20625,-0.27629629629629626],[0.20760416666666662,-0.28055555555555556],[0.24187500000000003,-0.2866666666666667],[0.26927083333333335,-0.32037037037037036],[0.2924999999999999,-0.3303703703703703],[0.2986458333333334,-0.36666666666666664],[0.27447916666666666,-0.3940740740740741],[0.2709374999999999,-0.4537037037037037],[0.27531249999999996,-0.5361111111111111],[0.30020833333333335,-0.5327777777777778],[0.3177083333333333,-0.5207407407407407],[0.3177083333333333,-0.5207407407407407],[0.3380208333333333,-0.5175925925925926],[0.33583333333333343,-0.55],[0.3368750000000001,-0.5438888888888889],[0.3355208333333332,-0.528888888888889],[0.31270833333333337,-0.5418518518518519],[0.32843749999999994,-0.5177777777777778],[0.32531249999999995,-0.4751851851851852],[0.30572916666666666,-0.4462962962962963],[0.30572916666666666,-0.4462962962962963],[0.30052083333333335,-0.3912962962962963],[0.3177083333333333,-0.34092592592592597],[0.31572916666666656,-0.33370370370370367],[0.3400000000000001,-0.3122222222222223],[0.3489583333333333,-0.31351851851851853],[0.3603125000000001,-0.3237037037037037],[0.39874999999999994,-0.29907407407407405],[0.42999999999999994,-0.34296296296296297],[0.45729166666666665,-0.3598148148148148],[0.4978125000000001,-0.2957407407407407],[0.49239583333333337,-0.31425925925925924],[0.49239583333333337,-0.31425925925925924],[0.49677083333333344,-0.2994444444444444],[0.4931250000000001,-0.2644444444444445],[0.4613541666666668,-0.20999999999999996],[0.4448958333333332,-0.13277777777777774],[0.43510416666666674,-0.0514814814814814],[0.41395833333333343,0.02111111111111107],[0.3884375000000001,0.08574074074074066],[0.3884375000000001,0.08574074074074066],[0.3290625000000001,0.10185185185185185],[0.284375,0.10185185185185185],[0.28135416666666657,0.15537037037037033],[0.23187499999999991,0.1294444444444444],[0.23187499999999991,0.1294444444444444],[0.19114583333333332,0.10648148148148148],[0.18322916666666675,0.07925925925925917],[0.17531249999999995,0.052037037037037076],[0.17833333333333337,0.027777777777777776],[0.18135416666666657,0.0035185185185184764],[0.16958333333333328,0.030555555555555555],[0.19562499999999997,0.07907407407407416],[0.2022916666666667,0.0992592592592593],[0.19114583333333332,0.09148148148148144],[0.1883333333333333,0.15111111111111114],[0.17937500000000003,0.169074074074074],[0.1478125000000001,0.19370370370370374],[0.11104166666666657,0.2024074074074073],[0.04822916666666662,0.1725925925925927],[-0.014583333333333334,0.1427777777777778],[-0.08364583333333328,0.06833333333333329],[-0.15270833333333336,-0.006111111111111027],[-0.2263541666666666,-0.06462962962962959],[-0.2263541666666666,-0.06462962962962959],[-0.29874999999999996,-0.10185185185185185],[-0.29874999999999996,-0.10185185185185185],[-0.35614583333333333,-0.14370370370370375],[-0.3610416666666667,-0.15796296296296297],[-0.3579166666666667,-0.1948148148148148],[-0.34958333333333336,-0.21574074074074073],[-0.34958333333333336,-0.21574074074074073],[-0.32406250000000003,-0.1983333333333334],[-0.29364583333333333,-0.13111111111111112],[-0.2607291666666666,-0.04222222222222214],[-0.2607291666666666,-0.04222222222222214],[-0.2219791666666667,0.04407407407407399],[-0.1844791666666667,0.11703703703703712],[-0.1408333333333334,0.18907407407407412],[-0.10364583333333334,0.20092592592592592],[-0.10364583333333334,0.20092592592592592],[-0.07770833333333335,0.255925925925926],[-0.03843749999999998,0.30388888888888893],[-0.014479166666666644,0.35407407407407415],[0.0007291666666667141,0.39740740740740743],[0.03354166666666671,0.38370370370370377],[0.07520833333333338,0.37333333333333335],[0.09354166666666662,0.36055555555555563],[0.1267708333333334,0.36055555555555563],[0.1502083333333334,0.3755555555555555],[0.17843749999999994,0.4300000000000001],[0.17395833333333333,0.425],[0.16572916666666657,0.4287037037037037],[0.18020833333333333,0.4348148148148147],[0.18552083333333325,0.43203703703703694],[0.18020833333333333,0.42888888888888893],[0.17489583333333342,0.4257407407407407],[0.2,0.459074074074074],[0.19249999999999995,0.45703703703703696],[0.18864583333333323,0.44092592592592594],[0.18864583333333323,0.44092592592592594],[0.18479166666666677,0.42481481481481476],[0.1727083333333333,0.4422222222222221],[0.16062500000000005,0.4596296296296297],[0.1553124999999999,0.4801851851851851],[0.12322916666666663,0.5020370370370371],[0.07927083333333323,0.5314814814814814],[0.01260416666666669,0.6162962962962962],[-0.06697916666666662,0.6696296296296297],[-0.13708333333333336,0.731851851851852],[-0.13708333333333336,0.731851851851852],[-0.20718749999999997,0.794074074074074],[-0.2904166666666666,0.8372222222222223],[-0.3351041666666667,0.8564814814814815],[-0.39083333333333337,0.8601851851851852],[-0.39083333333333337,0.8601851851851852],[-0.4610416666666667,0.8685185185185185],[-0.5234375,0.8572222222222222],[-0.5692708333333333,0.8507407407407407],[-0.5936458333333333,0.7624074074074075],[-0.6252083333333334,0.6722222222222223],[-0.5905208333333333,0.6153703703703702],[-0.5510416666666667,0.5661111111111112],[-0.45968749999999997,0.5114814814814815],[-0.39520833333333333,0.44000000000000006],[-0.31968749999999996,0.384074074074074],[-0.25656249999999997,0.3218518518518518],[-0.1748958333333333,0.2983333333333334],[-0.09416666666666665,0.28111111111111103],[-0.09416666666666665,0.28111111111111103],[-0.015416666666666618,0.3242592592592593],[-0.015416666666666618,0.3242592592592593],[0.053125,0.33648148148148155],[0.07416666666666671,0.3533333333333332],[0.09041666666666662,0.3625925925925925],[0.06843750000000005,0.36018518518518516],[0.04635416666666667,0.38074074074074077],[0.028125,0.4233333333333334],[0.028125,0.4233333333333334],[0.022604166666666713,0.45981481481481473],[0.04125000000000002,0.4905555555555555],[0.059687499999999956,0.5283333333333332],[0.06822916666666666,0.5287037037037037],[0.0859375,0.5183333333333333],[0.0859375,0.5183333333333333],[0.09479166666666666,0.45129629629629636],[0.1171875,0.39759259259259266],[0.1252083333333334,0.3731481481481482],[0.1252083333333334,0.3731481481481482],[0.16145833333333334,0.3387037037037037],[0.16145833333333334,0.3387037037037037],[0.18864583333333323,0.2698148148148149],[0.19729166666666675,0.23870370370370367],[0.19802083333333323,0.13703703703703704],[0.18333333333333332,0.01722222222222214],[0.1772916666666667,-0.09259259259259259],[0.1794791666666666,-0.1588888888888889],[0.21218750000000006,-0.18185185185185182],[0.23135416666666658,-0.21814814814814817],[0.25593750000000004,-0.23111111111111113],[0.25593750000000004,-0.23111111111111113],[0.23447916666666657,-0.2638888888888889],[0.23447916666666657,-0.2638888888888889],[0.2352083333333333,-0.24814814814814815],[0.2508333333333333,-0.3605555555555555],[0.24645833333333325,-0.35351851851851845],[0.24270833333333333,-0.34759259259259256],[0.2520833333333333,-0.34370370370370373],[0.26145833333333335,-0.3398148148148148],[0.24604166666666671,-0.38740740740740737],[0.2306250000000001,-0.43499999999999994],[0.21572916666666658,-0.4816666666666667],[0.20885416666666667,-0.4890740740740741],[0.2009375000000001,-0.524074074074074],[0.1857291666666666,-0.46222222222222226],[0.1857291666666666,-0.46222222222222226],[0.20114583333333325,-0.4766666666666666],[0.20864583333333328,-0.5166666666666667],[0.21343750000000009,-0.5357407407407407],[0.21354166666666666,-0.5694444444444444],[0.21354166666666666,-0.5694444444444444],[0.21208333333333323,-0.5651851851851851],[0.20760416666666662,-0.5314814814814814],[0.20968749999999994,-0.5135185185185185],[0.22218749999999995,-0.5061111111111112],[0.22937500000000005,-0.49611111111111106],[0.24749999999999991,-0.4925925925925926],[0.2459374999999999,-0.4570370370370371],[0.2561458333333334,-0.4057407407407408],[0.2538541666666667,-0.37759259259259254],[0.2538541666666667,-0.37759259259259254],[0.25625,-0.33481481481481484],[0.25625,-0.33481481481481484],[0.2703125,-0.2770370370370371],[0.2678124999999999,-0.28481481481481485],[0.23010416666666675,-0.24000000000000005],[0.19177083333333325,-0.1940740740740741],[0.1428124999999999,-0.15925925925925927],[0.13395833333333323,-0.16166666666666668],[0.12427083333333329,-0.17907407407407405],[0.1046875,-0.18611111111111112],[0.06708333333333343,-0.2227777777777778],[0.02947916666666662,-0.2594444444444445],[-0.024374999999999977,-0.30907407407407406],[-0.024374999999999977,-0.30907407407407406],[-0.02822916666666669,-0.30185185185185187],[-0.008229166666666643,-0.3624074074074074],[0.015312500000000047,-0.4374074074074074],[0.03895833333333331,-0.5125925925925926],[0.027291666666666714,-0.5662962962962963],[0.01885416666666669,-0.6153703703703703],[0.01260416666666669,-0.6624074074074073],[0.03093750000000005,-0.6820370370370371],[0.041666666666666664,-0.6909259259259259],[0.06291666666666665,-0.7281481481481481],[0.05,-0.765925925925926],[0.049791666666666616,-0.7901851851851852],[0.05604166666666662,-0.7651851851851852],[0.06322916666666671,-0.8122222222222223],[0.0765625,-0.7587037037037037],[0.09427083333333333,-0.678888888888889],[0.11520833333333323,-0.6005555555555556],[0.1506249999999999,-0.532962962962963],[0.19802083333333323,-0.4922222222222222],[0.2504166666666668,-0.44462962962962965],[0.2847916666666668,-0.3816666666666667],[0.31916666666666677,-0.31870370370370377],[0.3570833333333333,-0.2953703703703704],[0.3733333333333334,-0.23648148148148146],[0.38406250000000003,-0.26240740740740737],[0.39041666666666663,-0.3146296296296296],[0.39333333333333326,-0.3520370370370371],[0.39177083333333323,-0.34740740740740744],[0.37135416666666665,-0.28722222222222227],[0.34187500000000004,-0.23203703703703707],[0.31520833333333326,-0.24648148148148152],[0.2690624999999999,-0.28962962962962957],[0.21875,-0.28944444444444445],[0.18708333333333324,-0.2553703703703703],[0.15666666666666676,-0.2242592592592593],[0.15666666666666676,-0.2242592592592593],[0.12625000000000006,-0.19314814814814818],[0.10979166666666676,-0.18333333333333332],[0.08614583333333338,-0.1646296296296296],[0.08614583333333338,-0.1646296296296296],[0.07697916666666677,-0.1853703703703704],[0.05583333333333336,-0.1794444444444444],[0.024687500000000046,-0.17851851851851847],[0.013020833333333334,-0.14888888888888885],[-0.002291666666666714,-0.14296296296296293],[-0.03583333333333331,-0.15037037037037035],[-0.07437499999999998,-0.16018518518518518],[-0.11791666666666671,-0.1714814814814815],[-0.11791666666666671,-0.1714814814814815],[-0.16593749999999996,-0.14981481481481476],[-0.23729166666666662,-0.15925925925925927],[-0.3086458333333333,-0.16870370370370374],[-0.3429166666666667,-0.17592592592592593],[-0.34822916666666665,-0.1440740740740741],[-0.3686458333333333,-0.1081481481481481],[-0.3686458333333333,-0.1081481481481481],[-0.39479166666666665,-0.08703703703703704],[-0.4092708333333333,-0.05092592592592592],[-0.4311458333333333,-0.006481481481481481],[-0.44562499999999994,0.036666666666666584],[-0.47197916666666667,0.06555555555555552],[-0.4778125,0.08537037037037042],[-0.4761458333333334,0.11388888888888889],[-0.5160416666666666,0.10851851851851856],[-0.5413541666666667,0.13259259259259262],[-0.5413541666666667,0.13259259259259262],[-0.5127083333333333,0.08944444444444435],[-0.4744791666666667,0.07481481481481478],[-0.39249999999999996,0.047037037037036995],[-0.3047916666666667,0.01629629629629621],[-0.23343750000000002,0.0003703703703704546],[-0.16031249999999997,-0.05796296296296299]]","[[0.14729166666666677,0.26888888888888896,0.0001999999880837322],[0.14729166666666677,0.26888888888888896,0.05250000000000199],[0.14729166666666677,0.26888888888888896,0.05419999998808578],[0.16072916666666662,0.22592592592592592,0.08750000000000568],[0.16072916666666662,0.22592592592592592,0.09730000001192707],[0.15552083333333327,0.20166666666666663,0.12250000000000227],[0.15552083333333327,0.20166666666666663,0.13230000001192366],[0.14208333333333342,0.20685185185185193,0.15569999998808015],[0.14208333333333342,0.20685185185185193,0.16340000000596433],[0.13562500000000005,0.21592592592592597,0.19090000000596064],[0.13562500000000005,0.21592592592592597,0.19769999998808174],[0.12489583333333343,0.13185185185185194,0.22259999999404556],[0.12489583333333343,0.13185185185185194,0.2315999999940459],[0.10697916666666671,0.053703703703703705,0.25569999998808157],[0.10697916666666671,0.053703703703703705,0.2654000000059611],[0.11135416666666677,-0.03092592592592601,0.2889000000059667],[0.11135416666666677,-0.03092592592592601,0.29509999999404357],[0.12322916666666663,-0.10722222222222218,0.3206999999880793],[0.12322916666666663,-0.10722222222222218,0.3281999999880796],[0.09510416666666661,-0.14888888888888885,0.3575000000000017],[0.09510416666666661,-0.14888888888888885,0.36440000000596484],[0.09510416666666661,-0.14888888888888885,0.37000000000000455],[0.09510416666666661,-0.14888888888888885,0.3875999999940447],[0.06354166666666666,-0.1714814814814815,0.4249000000059624],[0.06354166666666666,-0.1714814814814815,0.4333000000119256],[0.04624999999999998,-0.20111111111111116,0.4559000000059612],[0.04624999999999998,-0.20111111111111116,0.46369999998808],[0.02000000000000005,-0.2616666666666667,0.4890000000000043],[0.02000000000000005,-0.2616666666666667,0.4960999999940441],[0.005624999999999976,-0.3001851851851852,0.5223000000119242],[0.005624999999999976,-0.3001851851851852,0.531800000011927],[-0.02677083333333338,-0.3087037037037037,0.5560999999940464],[-0.02677083333333338,-0.3087037037037037,0.5630999999940443],[-0.03333333333333333,-0.23537037037037042,0.5890999999940405],[-0.03333333333333333,-0.23537037037037042,0.597199999988085],[-0.03333333333333333,-0.23537037037037042,0.6031999999880853],[-0.03333333333333333,-0.23537037037037042,0.6209000000059604],[-0.05697916666666671,-0.16407407407407412,0.6555999999940454],[-0.05697916666666671,-0.16407407407407412,0.664400000005962],[-0.10041666666666664,-0.10944444444444448,0.6935000000000002],[-0.10041666666666664,-0.10944444444444448,0.699900000005961],[-0.1460416666666667,-0.02759259259259255,0.7225999999940456],[-0.1460416666666667,-0.02759259259259255,0.7310999999940435],[-0.15437500000000004,0.0242592592592593,0.7586999999880817],[-0.15437500000000004,0.0242592592592593,0.7653000000119263],[-0.16822916666666668,0.020185185185185143,0.7890000000000015],[-0.16822916666666668,0.020185185185185143,0.7966999999880855],[-0.23374999999999999,0.0492592592592593,0.8285000000000053],[-0.23374999999999999,0.0492592592592593,0.83869999998808],[-0.23374999999999999,0.06462962962962959,0.8535000000000039],[-0.24802083333333336,0.05277777777777778,0.8705999999940417],[-0.25656249999999997,0.06370370370370367,0.8971999999880822],[-0.25656249999999997,0.06370370370370367,0.9040000000000035],[-0.27875,0.05277777777777778,0.9203000000119275],[-0.29322916666666665,0.048333333333333374,0.9369000000059629],[-0.2768749999999999,0.07574074074074069,0.9558000000119264],[-0.2768749999999999,0.07574074074074069,0.9701999999880826],[-0.2764583333333333,0.07351851851851861,0.9870000000000019],[-0.2960416666666667,0.058703703703703786,1.0114000000059633],[-0.2960416666666667,0.058703703703703786,1.0200000000000031],[-0.33135416666666667,0.09722222222222222,1.0365999999940456],[-0.2764583333333333,0.14018518518518527,1.053400000005965],[-0.2530208333333333,0.1925925925925926,1.0700000000000003],[-0.20708333333333329,0.2837037037037038,1.091099999994043],[-0.21312500000000004,0.26592592592592595,1.1066999999880807],[-0.18947916666666664,0.2594444444444445,1.1230999999940394],[-0.1658333333333334,0.252962962962963,1.1395000000000053],[-0.17145833333333335,0.2351851851851852,1.1571999999880802],[-0.16010416666666671,0.19000000000000003,1.1746999999880856],[-0.11041666666666666,0.22759259259259254,1.189800000011921],[-0.05572916666666667,0.22277777777777769,1.20359999999404],[-0.05427083333333336,0.17388888888888884,1.220000000000006],[-0.05927083333333331,0.14148148148148143,1.2365999999940414],[-0.06770833333333333,0.10111111111111115,1.2534000000059606],[-0.02781250000000005,0.13037037037037033,1.2730000000000032],[-0.024062500000000025,0.11314814814814819,1.2876999999880852],[-0.0203125,0.09592592592592585,1.303199999988081],[0.02333333333333331,0.08074074074074078,1.3200000000000003],[0.06812500000000009,0.09537037037037037,1.3366999999880846],[0.06875,0.057962962962962876,1.3533000000119273],[0.08687500000000009,0.03888888888888889,1.3700999999940464],[0.1118750000000001,0.07925925925925917,1.3866999999880818],[0.13562500000000005,0.09888888888888885,1.4033000000119245],[0.15343749999999995,0.11462962962962958,1.4221999999880808],[0.11364583333333324,0.08444444444444449,1.4403000000119235],[0.09166666666666666,0.06370370370370367,1.456000000000003],[0.09166666666666666,0.06370370370370367,1.4700999999940407],[0.11333333333333329,0.08722222222222227,1.4896999999880833],[0.06208333333333336,0.05,1.5036999999880791],[0.01083333333333331,0.012777777777777735,1.5225999999940427],[0.015312500000000047,0.030555555555555555,1.5429000000059645],[0.015312500000000047,0.030555555555555555,1.5535000000000068],[-0.008854166666666666,0.025925925925925925,1.570199999988084],[-0.023958333333333335,-0.030000000000000086,1.5869000000059614],[-0.03781249999999995,-0.06518518518518517,1.606500000000004],[-0.08031250000000002,-0.10333333333333336,1.622699999988086],[-0.08031250000000002,-0.10333333333333336,1.6368000000119238],[-0.06520833333333335,-0.0955555555555556,1.6561999999880825],[-0.013229166666666714,-0.020740740740740823,1.671199999988083],[0.011874999999999976,0.007777777777777862,1.6900999999940396],[0.08135416666666657,0.08722222222222227,1.7083000000119242],[0.0931250000000001,0.10870370370370379,1.7235000000000014],[0.09937500000000009,0.09462962962962967,1.7395000000000067],[0.09072916666666657,0.06333333333333342,1.7601999999880817],[0.09072916666666657,0.06333333333333342,1.7699000000059613],[0.08520833333333329,0.04740740740740745,1.7866999999880804],[0.06958333333333329,0.012407407407407492,1.8073000000119208],[0.09833333333333343,-0.0031481481481482323,1.828800000011924],[0.09833333333333343,-0.0031481481481482323,1.8399000000059615],[0.1805208333333333,0.056296296296296254,1.8533000000119273],[0.2091666666666666,0.08333333333333333,1.8699000000059627],[0.228125,0.1338888888888888,1.8866999999880818],[0.24645833333333325,0.2014814814814814,1.9033000000119245],[0.3338541666666667,0.37222222222222223,1.9200000000000017],[0.36614583333333334,0.4846296296296297,1.9404000000059654],[0.4694791666666667,0.6162962962962962,1.9570999999940426],[0.5247916666666667,0.7312962962962962,1.9725999999940456],[0.5755208333333334,0.8914814814814814,1.989300000011923],[0.6038541666666667,1.024259259259259,2.0043000000119235],[0.5671875,1.0648148148148149,2.026400000005964],[0.5671875,1.0648148148148149,2.0366999999880804],[0.49583333333333335,0.9718518518518517,2.0536999999880834],[0.40770833333333345,0.8594444444444445,2.073199999988084],[0.3039583333333333,0.7411111111111112,2.0936999999880825],[0.3039583333333333,0.7411111111111112,2.103500000000004],[0.23177083333333334,0.518888888888889,2.120199999988081],[0.23177083333333334,0.518888888888889,2.136800000011924],[0.1453125,0.37333333333333335,2.1564000000059664],[0.03999999999999997,0.2588888888888888,2.1721999999880808],[-0.10614583333333331,0.14148148148148143,2.190000000000005],[-0.2376041666666667,-0.0020370370370370794,2.2089000000059613],[-0.2376041666666667,-0.0020370370370370794,2.2200999999940407],[-0.28229166666666666,-0.14314814814814816,2.236699999988083],[-0.28145833333333337,-0.2518518518518518,2.255400000005963],[-0.2671875,-0.27925925925925926,2.273300000011922],[-0.24322916666666666,-0.3087037037037037,2.290300000011925],[-0.2765625,-0.32981481481481484,2.3059000000059626],[-0.30531250000000004,-0.2838888888888889,2.324000000000005],[-0.30531250000000004,-0.2838888888888889,2.3365999999940428],[-0.3194791666666667,-0.2796296296296296,2.3533000000119273],[-0.2841666666666666,-0.33648148148148144,2.370300000011923],[-0.18187500000000004,-0.29888888888888887,2.3870000000000005],[-0.07958333333333331,-0.26129629629629636,2.4049000000059664],[-0.07677083333333339,-0.227962962962963,2.4204000000059622],[-0.07677083333333339,-0.227962962962963,2.436599999994044],[-0.10499999999999995,-0.2368518518518518,2.4533000000119216],[-0.07489583333333331,-0.21944444444444444,2.469900000005964],[-0.0811458333333333,-0.17981481481481484,2.487900000005965],[-0.010208333333333286,-0.1705555555555556,2.503199999988084],[0.01739583333333338,-0.1933333333333333,2.520000000000003],[0.08510416666666672,-0.18611111111111112,2.539400000005962],[0.08510416666666672,-0.18611111111111112,2.553300000011923],[0.10770833333333343,-0.12962962962962962,2.5699000000059655],[0.1337500000000001,-0.1359259259259259,2.5865999999940428],[0.15979166666666675,-0.14222222222222225,2.6031999999880853],[0.18447916666666658,-0.2227777777777778,2.621099999994044],[0.20625,-0.27629629629629626,2.640599999994045],[0.20760416666666662,-0.28055555555555556,2.656599999994043],[0.24187500000000003,-0.2866666666666667,2.6716999999880855],[0.26927083333333335,-0.32037037037037036,2.6900999999940396],[0.2924999999999999,-0.3303703703703703,2.703800000011924],[0.2986458333333334,-0.36666666666666664,2.7200999999940407],[0.27447916666666666,-0.3940740740740741,2.737900000005965],[0.2709374999999999,-0.4537037037037037,2.754800000011926],[0.27531249999999996,-0.5361111111111111,2.7735999999940404],[0.30020833333333335,-0.5327777777777778,2.7899000000059644],[0.3177083333333333,-0.5207407407407407,2.8075999999940464],[0.3177083333333333,-0.5207407407407407,2.8199000000059655],[0.3380208333333333,-0.5175925925925926,2.8366999999880846],[0.33583333333333343,-0.55,2.8568000000119227],[0.3368750000000001,-0.5438888888888889,2.871900000005965],[0.3355208333333332,-0.528888888888889,2.889699999988082],[0.31270833333333337,-0.5418518518518519,2.9060999999940407],[0.32843749999999994,-0.5177777777777778,2.9249000000059624],[0.32531249999999995,-0.4751851851851852,2.939900000005963],[0.30572916666666666,-0.4462962962962963,2.9565000000000055],[0.30572916666666666,-0.4462962962962963,2.969900000005964],[0.30052083333333335,-0.3912962962962963,2.986699999988083],[0.3177083333333333,-0.34092592592592597,3.003300000011926],[0.31572916666666656,-0.33370370370370367,3.0223000000119242],[0.3400000000000001,-0.3122222222222223,3.0380999999940457],[0.3489583333333333,-0.31351851851851853,3.0545000000000044],[0.3603125000000001,-0.3237037037037037,3.0711999999880817],[0.39874999999999994,-0.29907407407407405,3.08719999998808],[0.42999999999999994,-0.34296296296296297,3.107199999988083],[0.45729166666666665,-0.3598148148148148,3.123400000005965],[0.4978125000000001,-0.2957407407407407,3.140599999994045],[0.49239583333333337,-0.31425925925925924,3.1569000000059617],[0.49239583333333337,-0.31425925925925924,3.169900000005967],[0.49677083333333344,-0.2994444444444444,3.186900000005963],[0.4931250000000001,-0.2644444444444445,3.20359999999404],[0.4613541666666668,-0.20999999999999996,3.220699999988085],[0.4448958333333332,-0.13277777777777774,3.239300000011923],[0.43510416666666674,-0.0514814814814814,3.2556999999880816],[0.41395833333333343,0.02111111111111107,3.2738000000119243],[0.3884375000000001,0.08574074074074066,3.2895999999940457],[0.3884375000000001,0.08574074074074066,3.303300000011923],[0.3290625000000001,0.10185185185185185,3.3199000000059655],[0.284375,0.10185185185185185,3.3369000000059614],[0.28135416666666657,0.15537037037037033,3.3555000000000064],[0.23187499999999991,0.1294444444444444,3.3720999999940418],[0.23187499999999991,0.1294444444444444,3.386800000011924],[0.19114583333333332,0.10648148148148148,3.4031999999880824],[0.18322916666666675,0.07925925925925917,3.4200000000000017],[0.17531249999999995,0.052037037037037076,3.4400999999940396],[0.17833333333333337,0.027777777777777776,3.456099999994045],[0.18135416666666657,0.0035185185185184764,3.4725000000000037],[0.16958333333333328,0.030555555555555555,3.489400000005965],[0.19562499999999997,0.07907407407407416,3.503699999988079],[0.2022916666666667,0.0992592592592593,3.5235000000000056],[0.19114583333333332,0.09148148148148144,3.5400000000000063],[0.1883333333333333,0.15111111111111114,3.557199999988086],[0.17937500000000003,0.169074074074074,3.5720000000000027],[0.1478125000000001,0.19370370370370374,3.587099999994045],[0.11104166666666657,0.2024074074074073,3.605599999994041],[0.04822916666666662,0.1725925925925927,3.622900000005963],[-0.014583333333333334,0.1427777777777778,3.6400999999940424],[-0.08364583333333328,0.06833333333333329,3.6563000000119246],[-0.15270833333333336,-0.006111111111111027,3.6710000000000065],[-0.2263541666666666,-0.06462962962962959,3.6909000000059606],[-0.2263541666666666,-0.06462962962962959,3.7031999999880796],[-0.29874999999999996,-0.10185185185185185,3.720000000000006],[-0.29874999999999996,-0.10185185185185185,3.7365999999940414],[-0.35614583333333333,-0.14370370370370375,3.7534000000059606],[-0.3610416666666667,-0.15796296296296297,3.773300000011922],[-0.3579166666666667,-0.1948148148148148,3.7900000000000063],[-0.34958333333333336,-0.21574074074074073,3.8074000000059627],[-0.34958333333333336,-0.21574074074074073,3.8208000000119213],[-0.32406250000000003,-0.1983333333333334,3.8366999999880846],[-0.29364583333333333,-0.13111111111111112,3.8581999999880807],[-0.2607291666666666,-0.04222222222222214,3.872900000005963],[-0.2607291666666666,-0.04222222222222214,3.886699999988082],[-0.2219791666666667,0.04407407407407399,3.9033000000119245],[-0.1844791666666667,0.11703703703703712,3.9219000000059623],[-0.1408333333333334,0.18907407407407412,3.9403000000119235],[-0.10364583333333334,0.20092592592592592,3.9565000000000055],[-0.10364583333333334,0.20092592592592592,3.969900000005964],[-0.07770833333333335,0.255925925925926,3.9865999999940414],[-0.03843749999999998,0.30388888888888893,4.003199999988084],[-0.014479166666666644,0.35407407407407415,4.024199999988085],[0.0007291666666667141,0.39740740740740743,4.039400000005962],[0.03354166666666671,0.38370370370370377,4.0575000000000045],[0.07520833333333338,0.37333333333333335,4.072400000005963],[0.09354166666666662,0.36055555555555563,4.087900000005966],[0.1267708333333334,0.36055555555555563,4.106599999994046],[0.1502083333333334,0.3755555555555555,4.123000000000005],[0.17843749999999994,0.4300000000000001,4.140199999988084],[0.17395833333333333,0.425,4.156099999994041],[0.16572916666666657,0.4287037037037037,4.172199999988081],[0.18020833333333333,0.4348148148148147,4.1903000000119235],[0.18552083333333325,0.43203703703703694,4.20469999998808],[0.18020833333333333,0.42888888888888893,4.220300000011925],[0.17489583333333342,0.4257407407407407,4.239199999988081],[0.2,0.459074074074074,4.257900000005961],[0.19249999999999995,0.45703703703703696,4.273300000011922],[0.18864583333333323,0.44092592592592594,4.289400000005962],[0.18864583333333323,0.44092592592592594,4.303300000011923],[0.18479166666666677,0.42481481481481476,4.32],[0.1727083333333333,0.4422222222222221,4.336699999988085],[0.16062500000000005,0.4596296296296297,4.353300000011927],[0.1553124999999999,0.4801851851851851,4.370500000000007],[0.12322916666666663,0.5020370370370371,4.386699999988082],[0.07927083333333323,0.5314814814814814,4.404900000005966],[0.01260416666666669,0.6162962962962962,4.419900000005967],[-0.06697916666666662,0.6696296296296297,4.4385999999940395],[-0.13708333333333336,0.731851851851852,4.456800000011924],[-0.13708333333333336,0.731851851851852,4.470000000000006],[-0.20718749999999997,0.794074074074074,4.486599999994041],[-0.2904166666666666,0.8372222222222223,4.503300000011926],[-0.3351041666666667,0.8564814814814815,4.52209999999404],[-0.39083333333333337,0.8601851851851852,4.539199999988085],[-0.39083333333333337,0.8601851851851852,4.553400000005965],[-0.4610416666666667,0.8685185185185185,4.57],[-0.5234375,0.8572222222222222,4.586699999988085],[-0.5692708333333333,0.8507407407407407,4.605199999988081],[-0.5936458333333333,0.7624074074074075,4.621500000000005],[-0.6252083333333334,0.6722222222222223,4.640400000005961],[-0.5905208333333333,0.6153703703703702,4.655900000005964],[-0.5510416666666667,0.5661111111111112,4.670099999994044],[-0.45968749999999997,0.5114814814814815,4.686800000011921],[-0.39520833333333333,0.44000000000000006,4.703300000011922],[-0.31968749999999996,0.384074074074074,4.719900000005964],[-0.25656249999999997,0.3218518518518518,4.738800000011928],[-0.1748958333333333,0.2983333333333334,4.753699999988079],[-0.09416666666666665,0.28111111111111103,4.775300000011924],[-0.09416666666666665,0.28111111111111103,4.794199999988081],[-0.015416666666666618,0.3242592592592593,4.809400000005965],[-0.015416666666666618,0.3242592592592593,4.823199999988084],[0.053125,0.33648148148148155,4.836599999994043],[0.07416666666666671,0.3533333333333332,4.856300000011927],[0.09041666666666662,0.3625925925925925,4.87090000000596],[0.06843750000000005,0.36018518518518516,4.886699999988082],[0.04635416666666667,0.38074074074074077,4.903199999988082],[0.028125,0.4233333333333334,4.926099999994044],[0.028125,0.4233333333333334,4.936699999988079],[0.022604166666666713,0.45981481481481473,4.9534000000059635],[0.04125000000000002,0.4905555555555555,4.973199999988083],[0.059687499999999956,0.5283333333333332,4.988300000011925],[0.06822916666666666,0.5287037037037037,5.004400000005965],[0.0859375,0.5183333333333333,5.0259000000059615],[0.0859375,0.5183333333333333,5.03669999998808],[0.09479166666666666,0.45129629629629636,5.053400000005965],[0.1171875,0.39759259259259266,5.070900000005963],[0.1252083333333334,0.3731481481481482,5.092699999988085],[0.1252083333333334,0.3731481481481482,5.103500000000004],[0.16145833333333334,0.3387037037037037,5.120199999988081],[0.16145833333333334,0.3387037037037037,5.136699999988082],[0.18864583333333323,0.2698148148148149,5.153400000005966],[0.19729166666666675,0.23870370370370367,5.171599999994044],[0.19802083333333323,0.13703703703703704,5.189699999988079],[0.18333333333333332,0.01722222222222214,5.20359999999404],[0.1772916666666667,-0.09259259259259259,5.219900000005964],[0.1794791666666666,-0.1588888888888889,5.238300000011925],[0.21218750000000006,-0.18185185185185182,5.253300000011926],[0.23135416666666658,-0.21814814814814817,5.270099999994045],[0.25593750000000004,-0.23111111111111113,5.288900000005967],[0.25593750000000004,-0.23111111111111113,5.303199999988081],[0.23447916666666657,-0.2638888888888889,5.32],[0.23447916666666657,-0.2638888888888889,5.336599999994043],[0.2352083333333333,-0.24814814814814815,5.353300000011927],[0.2508333333333333,-0.3605555555555555,5.369900000005963],[0.24645833333333325,-0.35351851851851845,5.38659999999404],[0.24270833333333333,-0.34759259259259256,5.403400000005966],[0.2520833333333333,-0.34370370370370373,5.420199999988085],[0.26145833333333335,-0.3398148148148148,5.439599999994044],[0.24604166666666671,-0.38740740740740737,5.453900000005966],[0.2306250000000001,-0.43499999999999994,5.469900000005964],[0.21572916666666658,-0.4816666666666667,5.486599999994041],[0.20885416666666667,-0.4890740740740741,5.503300000011926],[0.2009375000000001,-0.524074074074074,5.519900000005961],[0.1857291666666666,-0.46222222222222226,5.538400000005964],[0.1857291666666666,-0.46222222222222226,5.553300000011923],[0.20114583333333325,-0.4766666666666666,5.5699000000059655],[0.20864583333333328,-0.5166666666666667,5.586500000000001],[0.21343750000000009,-0.5357407407407407,5.603199999988085],[0.21354166666666666,-0.5694444444444444,5.6200000000000045],[0.21354166666666666,-0.5694444444444444,5.63659999999404],[0.21208333333333323,-0.5651851851851851,5.6533000000119245],[0.20760416666666662,-0.5314814814814814,5.669900000005967],[0.20968749999999994,-0.5135185185185185,5.686699999988079],[0.22218749999999995,-0.5061111111111112,5.70359999999404],[0.22937500000000005,-0.49611111111111106,5.723699999988085],[0.24749999999999991,-0.4925925925925926,5.739300000011923],[0.2459374999999999,-0.4570370370370371,5.7545],[0.2561458333333334,-0.4057407407407408,5.773099999994045],[0.2538541666666667,-0.37759259259259254,5.789400000005962],[0.2538541666666667,-0.37759259259259254,5.803300000011923],[0.25625,-0.33481481481481484,5.82],[0.25625,-0.33481481481481484,5.836699999988085],[0.2703125,-0.2770370370370371,5.853400000005962],[0.2678124999999999,-0.28481481481481485,5.869900000005963],[0.23010416666666675,-0.24000000000000005,5.88659999999404],[0.19177083333333325,-0.1940740740740741,5.903199999988082],[0.1428124999999999,-0.15925925925925927,5.919900000005967],[0.13395833333333323,-0.16166666666666668,5.940000000000005],[0.12427083333333329,-0.17907407407407405,5.9555999999940425],[0.1046875,-0.18611111111111112,5.969900000005964],[0.06708333333333343,-0.2227777777777778,5.986800000011925],[0.02947916666666662,-0.2594444444444445,6.003699999988079],[-0.024374999999999977,-0.30907407407407406,6.02469999998808],[-0.024374999999999977,-0.30907407407407406,6.03669999998808],[-0.02822916666666669,-0.30185185185185187,6.053400000005965],[-0.008229166666666643,-0.3624074074074074,6.070099999994042],[0.015312500000000047,-0.4374074074074074,6.086599999994043],[0.03895833333333331,-0.5125925925925926,6.103199999988085],[0.027291666666666714,-0.5662962962962963,6.119900000005963],[0.01885416666666669,-0.6153703703703703,6.13659999999404],[0.01260416666666669,-0.6624074074074073,6.1533000000119245],[0.03093750000000005,-0.6820370370370371,6.169900000005967],[0.041666666666666664,-0.6909259259259259,6.186599999994044],[0.06291666666666665,-0.7281481481481481,6.204500000000003],[0.05,-0.765925925925926,6.220199999988083],[0.049791666666666616,-0.7901851851851852,6.238000000000007],[0.05604166666666662,-0.7651851851851852,6.253599999994044],[0.06322916666666671,-0.8122222222222223,6.270000000000003],[0.0765625,-0.7587037037037037,6.287900000005962],[0.09427083333333333,-0.678888888888889,6.303199999988081],[0.11520833333333323,-0.6005555555555556,6.323199999988084],[0.1506249999999999,-0.532962962962963,6.341400000005962],[0.19802083333333323,-0.4922222222222222,6.356699999988081],[0.2504166666666668,-0.44462962962962965,6.372199999988084],[0.2847916666666668,-0.3816666666666667,6.387900000005963],[0.31916666666666677,-0.31870370370370377,6.40419999998808],[0.3570833333333333,-0.2953703703703704,6.419900000005967],[0.3733333333333334,-0.23648148148148146,6.436500000000002],[0.38406250000000003,-0.26240740740740737,6.4534000000059635],[0.39041666666666663,-0.3146296296296296,6.469900000005964],[0.39333333333333326,-0.3520370370370371,6.486599999994041],[0.39177083333333323,-0.34740740740740744,6.503199999988084],[0.37135416666666665,-0.28722222222222227,6.519900000005961],[0.34187500000000004,-0.23203703703703707,6.538000000000004],[0.31520833333333326,-0.24648148148148152,6.553199999988081],[0.2690624999999999,-0.28962962962962957,6.5699000000059655],[0.21875,-0.28944444444444445,6.586599999994043],[0.18708333333333324,-0.2553703703703703,6.603199999988085],[0.15666666666666676,-0.2242592592592593,6.621199999988086],[0.15666666666666676,-0.2242592592592593,6.636500000000005],[0.12625000000000006,-0.19314814814814818,6.653199999988082],[0.10979166666666676,-0.18333333333333332,6.669900000005967],[0.08614583333333338,-0.1646296296296296,6.688900000005965],[0.08614583333333338,-0.1646296296296296,6.704400000005961],[0.07697916666666677,-0.1853703703703704,6.719900000005964],[0.05583333333333336,-0.1794444444444444,6.739000000000004],[0.024687500000000046,-0.17851851851851847,6.755300000011921],[0.013020833333333334,-0.14888888888888885,6.773300000011922],[-0.002291666666666714,-0.14296296296296293,6.789300000011927],[-0.03583333333333331,-0.15037037037037035,6.8060000000000045],[-0.07437499999999998,-0.16018518518518518,6.821900000005961],[-0.11791666666666671,-0.1714814814814815,6.842099999994041],[-0.11791666666666671,-0.1714814814814815,6.853300000011927],[-0.16593749999999996,-0.14981481481481476,6.8700000000000045],[-0.23729166666666662,-0.15925925925925927,6.88659999999404],[-0.3086458333333333,-0.16870370370370374,6.903400000005966],[-0.3429166666666667,-0.17592592592592593,6.919900000005967],[-0.34822916666666665,-0.1440740740740741,6.939699999988079],[-0.3686458333333333,-0.1081481481481481,6.955400000005966],[-0.3686458333333333,-0.1081481481481481,6.969900000005964],[-0.39479166666666665,-0.08703703703703704,6.986599999994041],[-0.4092708333333333,-0.05092592592592592,7.003199999988084],[-0.4311458333333333,-0.006481481481481481,7.0198000000119265],[-0.44562499999999994,0.036666666666666584,7.037099999994041],[-0.47197916666666667,0.06555555555555552,7.053300000011923],[-0.4778125,0.08537037037037042,7.0699000000059655],[-0.4761458333333334,0.11388888888888889,7.086599999994043],[-0.5160416666666666,0.10851851851851856,7.103199999988085],[-0.5413541666666667,0.13259259259259262,7.122],[-0.5413541666666667,0.13259259259259262,7.136699999988082],[-0.5127083333333333,0.08944444444444435,7.153500000000001],[-0.4744791666666667,0.07481481481481478,7.172000000000004],[-0.39249999999999996,0.047037037037036995,7.189800000011921],[-0.3047916666666667,0.01629629629629621,7.203300000011922],[-0.23343750000000002,0.0003703703703704546,7.22269999998808],[-0.16031249999999997,-0.05796296296296299,7.239000000000004]]","[0.0001999999880837322,0.05250000000000199,0.05419999998808578,0.08750000000000568,0.09730000001192707,0.12250000000000227,0.13230000001192366,0.15569999998808015,0.16340000000596433,0.19090000000596064,0.19769999998808174,0.22259999999404556,0.2315999999940459,0.25569999998808157,0.2654000000059611,0.2889000000059667,0.29509999999404357,0.3206999999880793,0.3281999999880796,0.3575000000000017,0.36440000000596484,0.37000000000000455,0.3875999999940447,0.4249000000059624,0.4333000000119256,0.4559000000059612,0.46369999998808,0.4890000000000043,0.4960999999940441,0.5223000000119242,0.531800000011927,0.5560999999940464,0.5630999999940443,0.5890999999940405,0.597199999988085,0.6031999999880853,0.6209000000059604,0.6555999999940454,0.664400000005962,0.6935000000000002,0.699900000005961,0.7225999999940456,0.7310999999940435,0.7586999999880817,0.7653000000119263,0.7890000000000015,0.7966999999880855,0.8285000000000053,0.83869999998808,0.8535000000000039,0.8705999999940417,0.8971999999880822,0.9040000000000035,0.9203000000119275,0.9369000000059629,0.9558000000119264,0.9701999999880826,0.9870000000000019,1.0114000000059633,1.0200000000000031,1.0365999999940456,1.053400000005965,1.0700000000000003,1.091099999994043,1.1066999999880807,1.1230999999940394,1.1395000000000053,1.1571999999880802,1.1746999999880856,1.189800000011921,1.20359999999404,1.220000000000006,1.2365999999940414,1.2534000000059606,1.2730000000000032,1.2876999999880852,1.303199999988081,1.3200000000000003,1.3366999999880846,1.3533000000119273,1.3700999999940464,1.3866999999880818,1.4033000000119245,1.4221999999880808,1.4403000000119235,1.456000000000003,1.4700999999940407,1.4896999999880833,1.5036999999880791,1.5225999999940427,1.5429000000059645,1.5535000000000068,1.570199999988084,1.5869000000059614,1.606500000000004,1.622699999988086,1.6368000000119238,1.6561999999880825,1.671199999988083,1.6900999999940396,1.7083000000119242,1.7235000000000014,1.7395000000000067,1.7601999999880817,1.7699000000059613,1.7866999999880804,1.8073000000119208,1.828800000011924,1.8399000000059615,1.8533000000119273,1.8699000000059627,1.8866999999880818,1.9033000000119245,1.9200000000000017,1.9404000000059654,1.9570999999940426,1.9725999999940456,1.989300000011923,2.0043000000119235,2.026400000005964,2.0366999999880804,2.0536999999880834,2.073199999988084,2.0936999999880825,2.103500000000004,2.120199999988081,2.136800000011924,2.1564000000059664,2.1721999999880808,2.190000000000005,2.2089000000059613,2.2200999999940407,2.236699999988083,2.255400000005963,2.273300000011922,2.290300000011925,2.3059000000059626,2.324000000000005,2.3365999999940428,2.3533000000119273,2.370300000011923,2.3870000000000005,2.4049000000059664,2.4204000000059622,2.436599999994044,2.4533000000119216,2.469900000005964,2.487900000005965,2.503199999988084,2.520000000000003,2.539400000005962,2.553300000011923,2.5699000000059655,2.5865999999940428,2.6031999999880853,2.621099999994044,2.640599999994045,2.656599999994043,2.6716999999880855,2.6900999999940396,2.703800000011924,2.7200999999940407,2.737900000005965,2.754800000011926,2.7735999999940404,2.7899000000059644,2.8075999999940464,2.8199000000059655,2.8366999999880846,2.8568000000119227,2.871900000005965,2.889699999988082,2.9060999999940407,2.9249000000059624,2.939900000005963,2.9565000000000055,2.969900000005964,2.986699999988083,3.003300000011926,3.0223000000119242,3.0380999999940457,3.0545000000000044,3.0711999999880817,3.08719999998808,3.107199999988083,3.123400000005965,3.140599999994045,3.1569000000059617,3.169900000005967,3.186900000005963,3.20359999999404,3.220699999988085,3.239300000011923,3.2556999999880816,3.2738000000119243,3.2895999999940457,3.303300000011923,3.3199000000059655,3.3369000000059614,3.3555000000000064,3.3720999999940418,3.386800000011924,3.4031999999880824,3.4200000000000017,3.4400999999940396,3.456099999994045,3.4725000000000037,3.489400000005965,3.503699999988079,3.5235000000000056,3.5400000000000063,3.557199999988086,3.5720000000000027,3.587099999994045,3.605599999994041,3.622900000005963,3.6400999999940424,3.6563000000119246,3.6710000000000065,3.6909000000059606,3.7031999999880796,3.720000000000006,3.7365999999940414,3.7534000000059606,3.773300000011922,3.7900000000000063,3.8074000000059627,3.8208000000119213,3.8366999999880846,3.8581999999880807,3.872900000005963,3.886699999988082,3.9033000000119245,3.9219000000059623,3.9403000000119235,3.9565000000000055,3.969900000005964,3.9865999999940414,4.003199999988084,4.024199999988085,4.039400000005962,4.0575000000000045,4.072400000005963,4.087900000005966,4.106599999994046,4.123000000000005,4.140199999988084,4.156099999994041,4.172199999988081,4.1903000000119235,4.20469999998808,4.220300000011925,4.239199999988081,4.257900000005961,4.273300000011922,4.289400000005962,4.303300000011923,4.32,4.336699999988085,4.353300000011927,4.370500000000007,4.386699999988082,4.404900000005966,4.419900000005967,4.4385999999940395,4.456800000011924,4.470000000000006,4.486599999994041,4.503300000011926,4.52209999999404,4.539199999988085,4.553400000005965,4.57,4.586699999988085,4.605199999988081,4.621500000000005,4.640400000005961,4.655900000005964,4.670099999994044,4.686800000011921,4.703300000011922,4.719900000005964,4.738800000011928,4.753699999988079,4.775300000011924,4.794199999988081,4.809400000005965,4.823199999988084,4.836599999994043,4.856300000011927,4.87090000000596,4.886699999988082,4.903199999988082,4.926099999994044,4.936699999988079,4.9534000000059635,4.973199999988083,4.988300000011925,5.004400000005965,5.0259000000059615,5.03669999998808,5.053400000005965,5.070900000005963,5.092699999988085,5.103500000000004,5.120199999988081,5.136699999988082,5.153400000005966,5.171599999994044,5.189699999988079,5.20359999999404,5.219900000005964,5.238300000011925,5.253300000011926,5.270099999994045,5.288900000005967,5.303199999988081,5.32,5.336599999994043,5.353300000011927,5.369900000005963,5.38659999999404,5.403400000005966,5.420199999988085,5.439599999994044,5.453900000005966,5.469900000005964,5.486599999994041,5.503300000011926,5.519900000005961,5.538400000005964,5.553300000011923,5.5699000000059655,5.586500000000001,5.603199999988085,5.6200000000000045,5.63659999999404,5.6533000000119245,5.669900000005967,5.686699999988079,5.70359999999404,5.723699999988085,5.739300000011923,5.7545,5.773099999994045,5.789400000005962,5.803300000011923,5.82,5.836699999988085,5.853400000005962,5.869900000005963,5.88659999999404,5.903199999988082,5.919900000005967,5.940000000000005,5.9555999999940425,5.969900000005964,5.986800000011925,6.003699999988079,6.02469999998808,6.03669999998808,6.053400000005965,6.070099999994042,6.086599999994043,6.103199999988085,6.119900000005963,6.13659999999404,6.1533000000119245,6.169900000005967,6.186599999994044,6.204500000000003,6.220199999988083,6.238000000000007,6.253599999994044,6.270000000000003,6.287900000005962,6.303199999988081,6.323199999988084,6.341400000005962,6.356699999988081,6.372199999988084,6.387900000005963,6.40419999998808,6.419900000005967,6.436500000000002,6.4534000000059635,6.469900000005964,6.486599999994041,6.503199999988084,6.519900000005961,6.538000000000004,6.553199999988081,6.5699000000059655,6.586599999994043,6.603199999988085,6.621199999988086,6.636500000000005,6.653199999988082,6.669900000005967,6.688900000005965,6.704400000005961,6.719900000005964,6.739000000000004,6.755300000011921,6.773300000011922,6.789300000011927,6.8060000000000045,6.821900000005961,6.842099999994041,6.853300000011927,6.8700000000000045,6.88659999999404,6.903400000005966,6.919900000005967,6.939699999988079,6.955400000005966,6.969900000005964,6.986599999994041,7.003199999988084,7.0198000000119265,7.037099999994041,7.053300000011923,7.0699000000059655,7.086599999994043,7.103199999988085,7.122,7.136699999988082,7.153500000000001,7.172000000000004,7.189800000011921,7.203300000011922,7.22269999998808,7.239000000000004]","[1732692776278,1732692776320,1732692776322,1732692776355,1732692776365,1732692776390,1732692776400,1732692776423,1732692776431,1732692776458,1732692776465,1732692776490,1732692776499,1732692776523,1732692776533,1732692776556,1732692776563,1732692776588,1732692776596,1732692776625,1732692776632,1732692776637,1732692776655,1732692776692,1732692776701,1732692776723,1732692776731,1732692776757,1732692776763,1732692776790,1732692776799,1732692776823,1732692776831,1732692776857,1732692776865,1732692776871,1732692776888,1732692776923,1732692776932,1732692776961,1732692776967,1732692776990,1732692776999,1732692777026,1732692777033,1732692777057,1732692777064,1732692777096,1732692777106,1732692777121,1732692777138,1732692777165,1732692777171,1732692777188,1732692777204,1732692777223,1732692777238,1732692777255,1732692777279,1732692777287,1732692777304,1732692777321,1732692777338,1732692777359,1732692777374,1732692777391,1732692777407,1732692777425,1732692777442,1732692777457,1732692777471,1732692777487,1732692777504,1732692777521,1732692777540,1732692777555,1732692777571,1732692777587,1732692777604,1732692777621,1732692777637,1732692777654,1732692777671,1732692777690,1732692777708,1732692777723,1732692777738,1732692777757,1732692777771,1732692777790,1732692777810,1732692777821,1732692777838,1732692777854,1732692777874,1732692777890,1732692777904,1732692777924,1732692777939,1732692777957,1732692777976,1732692777991,1732692778007,1732692778028,1732692778037,1732692778054,1732692778075,1732692778096,1732692778107,1732692778121,1732692778137,1732692778154,1732692778171,1732692778187,1732692778208,1732692778225,1732692778240,1732692778257,1732692778272,1732692778294,1732692778304,1732692778321,1732692778341,1732692778361,1732692778371,1732692778388,1732692778404,1732692778424,1732692778440,1732692778457,1732692778476,1732692778488,1732692778504,1732692778523,1732692778541,1732692778558,1732692778573,1732692778591,1732692778604,1732692778621,1732692778638,1732692778654,1732692778672,1732692778688,1732692778704,1732692778721,1732692778737,1732692778755,1732692778771,1732692778788,1732692778807,1732692778821,1732692778837,1732692778854,1732692778871,1732692778889,1732692778908,1732692778924,1732692778939,1732692778958,1732692778971,1732692778988,1732692779005,1732692779022,1732692779041,1732692779057,1732692779075,1732692779087,1732692779104,1732692779124,1732692779139,1732692779157,1732692779174,1732692779192,1732692779207,1732692779224,1732692779237,1732692779254,1732692779271,1732692779290,1732692779306,1732692779322,1732692779339,1732692779355,1732692779375,1732692779391,1732692779408,1732692779424,1732692779437,1732692779454,1732692779471,1732692779488,1732692779507,1732692779523,1732692779541,1732692779557,1732692779571,1732692779587,1732692779604,1732692779623,1732692779640,1732692779654,1732692779671,1732692779687,1732692779708,1732692779724,1732692779740,1732692779757,1732692779771,1732692779791,1732692779807,1732692779825,1732692779839,1732692779855,1732692779873,1732692779890,1732692779908,1732692779924,1732692779938,1732692779958,1732692779971,1732692779987,1732692780004,1732692780021,1732692780041,1732692780057,1732692780075,1732692780088,1732692780104,1732692780126,1732692780140,1732692780154,1732692780171,1732692780189,1732692780208,1732692780224,1732692780237,1732692780254,1732692780271,1732692780292,1732692780307,1732692780325,1732692780340,1732692780355,1732692780374,1732692780390,1732692780408,1732692780424,1732692780440,1732692780458,1732692780472,1732692780488,1732692780507,1732692780525,1732692780541,1732692780557,1732692780571,1732692780587,1732692780604,1732692780621,1732692780638,1732692780654,1732692780672,1732692780687,1732692780706,1732692780724,1732692780737,1732692780754,1732692780771,1732692780790,1732692780807,1732692780821,1732692780837,1732692780854,1732692780873,1732692780889,1732692780908,1732692780923,1732692780938,1732692780954,1732692780971,1732692780987,1732692781006,1732692781021,1732692781043,1732692781062,1732692781077,1732692781091,1732692781104,1732692781124,1732692781138,1732692781154,1732692781171,1732692781194,1732692781204,1732692781221,1732692781241,1732692781256,1732692781272,1732692781293,1732692781304,1732692781321,1732692781338,1732692781360,1732692781371,1732692781388,1732692781404,1732692781421,1732692781439,1732692781457,1732692781471,1732692781487,1732692781506,1732692781521,1732692781538,1732692781556,1732692781571,1732692781587,1732692781604,1732692781621,1732692781637,1732692781654,1732692781671,1732692781688,1732692781707,1732692781721,1732692781737,1732692781754,1732692781771,1732692781787,1732692781806,1732692781821,1732692781837,1732692781854,1732692781871,1732692781887,1732692781904,1732692781921,1732692781937,1732692781954,1732692781971,1732692781991,1732692782007,1732692782022,1732692782041,1732692782057,1732692782071,1732692782087,1732692782104,1732692782121,1732692782137,1732692782154,1732692782171,1732692782187,1732692782207,1732692782223,1732692782237,1732692782254,1732692782271,1732692782292,1732692782304,1732692782321,1732692782338,1732692782354,1732692782371,1732692782387,1732692782404,1732692782421,1732692782437,1732692782454,1732692782472,1732692782488,1732692782506,1732692782521,1732692782537,1732692782555,1732692782571,1732692782591,1732692782609,1732692782624,1732692782640,1732692782655,1732692782672,1732692782687,1732692782704,1732692782721,1732692782737,1732692782754,1732692782771,1732692782787,1732692782806,1732692782821,1732692782837,1732692782854,1732692782871,1732692782889,1732692782904,1732692782921,1732692782937,1732692782956,1732692782972,1732692782987,1732692783006,1732692783023,1732692783041,1732692783057,1732692783074,1732692783089,1732692783110,1732692783121,1732692783137,1732692783154,1732692783171,1732692783187,1732692783207,1732692783223,1732692783237,1732692783254,1732692783271,1732692783287,1732692783305,1732692783321,1732692783337,1732692783354,1732692783371,1732692783389,1732692783404,1732692783421,1732692783439,1732692783457,1732692783471,1732692783490,1732692783507]","[[1101.4,685.2],[1101.4,685.2],[1101.4,685.2],[1114.3,662],[1114.3,662],[1109.3,648.9],[1109.3,648.9],[1096.4,651.7],[1096.4,651.7],[1090.2,656.6],[1090.2,656.6],[1079.9,611.2],[1079.9,611.2],[1062.7,569],[1062.7,569],[1066.9,523.3],[1066.9,523.3],[1078.3,482.1],[1078.3,482.1],[1051.3,459.6],[1051.3,459.6],[1051.3,459.6],[1051.3,459.6],[1021,447.4],[1021,447.4],[1004.4,431.4],[1004.4,431.4],[979.2,398.7],[979.2,398.7],[965.4,377.9],[965.4,377.9],[934.3,373.3],[934.3,373.3],[928,412.9],[928,412.9],[928,412.9],[928,412.9],[905.3,451.4],[905.3,451.4],[863.6,480.9],[863.6,480.9],[819.8,525.1],[819.8,525.1],[811.8,553.1],[811.8,553.1],[798.5,550.9],[798.5,550.9],[735.6,566.6],[735.6,566.6],[735.6,574.9],[721.9,568.5],[713.7,574.4],[713.7,574.4],[692.4,568.5],[678.5,566.1],[694.2,580.9],[694.2,580.9],[694.6,579.7],[675.8,571.7],[675.8,571.7],[641.9,592.5],[694.6,615.7],[717.1,644],[761.2,693.2],[755.4,683.6],[778.1,680.1],[800.8,676.6],[795.4,667],[806.3,642.6],[854,662.9],[906.5,660.3],[907.9,633.9],[903.1,616.4],[895,594.6],[933.3,610.4],[936.9,601.1],[940.5,591.8],[982.4,583.6],[1025.4,591.5],[1026,571.3],[1043.4,561],[1067.4,582.8],[1090.2,593.4],[1107.3,601.9],[1069.1,585.6],[1048,574.4],[1048,574.4],[1068.8,587.1],[1019.6,567],[970.4,546.9],[974.7,556.5],[974.7,556.5],[951.5,554],[937,523.8],[923.7,504.8],[882.9,484.2],[882.9,484.2],[897.4,488.4],[947.3,528.8],[971.4,544.2],[1038.1,587.1],[1049.4,598.7],[1055.4,591.1],[1047.1,574.2],[1047.1,574.2],[1041.8,565.6],[1026.8,546.7],[1054.4,538.3],[1054.4,538.3],[1133.3,570.4],[1160.8,585],[1179,612.3],[1196.6,648.8],[1280.5,741],[1311.5,801.7],[1410.7,872.8],[1463.8,934.9],[1512.5,1021.4],[1539.7,1093.1],[1504.5,1115],[1504.5,1115],[1436,1064.8],[1351.4,1004.1],[1251.8,940.2],[1251.8,940.2],[1182.5,820.2],[1182.5,820.2],[1099.5,741.6],[998.4,679.8],[858.1,616.4],[731.9,538.9],[731.9,538.9],[689,462.7],[689.8,404],[703.5,389.2],[726.5,373.3],[694.5,361.9],[666.9,386.7],[666.9,386.7],[653.3,389],[687.2,358.3],[785.4,378.6],[883.6,398.9],[886.3,416.9],[886.3,416.9],[859.2,412.1],[888.1,421.5],[882.1,442.9],[950.2,447.9],[976.7,435.6],[1041.7,439.5],[1041.7,439.5],[1063.4,470],[1088.4,466.6],[1113.4,463.2],[1137.1,419.7],[1158,390.8],[1159.3,388.5],[1192.2,385.2],[1218.5,367],[1240.8,361.6],[1246.7,342],[1223.5,327.2],[1220.1,295],[1224.3,250.5],[1248.2,252.3],[1265,258.8],[1265,258.8],[1284.5,260.5],[1282.4,243],[1283.4,246.3],[1282.1,254.4],[1260.2,247.4],[1275.3,260.4],[1272.3,283.4],[1253.5,299],[1253.5,299],[1248.5,328.7],[1265,355.9],[1263.1,359.8],[1286.4,371.4],[1295,370.7],[1305.9,365.2],[1342.8,378.5],[1372.8,354.8],[1399,345.7],[1437.9,380.3],[1432.7,370.3],[1432.7,370.3],[1436.9,378.3],[1433.4,397.2],[1402.9,426.6],[1387.1,468.3],[1377.7,512.2],[1357.4,551.4],[1332.9,586.3],[1332.9,586.3],[1275.9,595],[1233,595],[1230.1,623.9],[1182.6,609.9],[1182.6,609.9],[1143.5,597.5],[1135.9,582.8],[1128.3,568.1],[1131.2,555],[1134.1,541.9],[1122.8,556.5],[1147.8,582.7],[1154.2,593.6],[1143.5,589.4],[1140.8,621.6],[1132.2,631.3],[1101.9,644.6],[1066.6,649.3],[1006.3,633.2],[946,617.1],[879.7,576.9],[813.4,536.7],[742.7,505.1],[742.7,505.1],[673.2,485],[673.2,485],[618.1,462.4],[613.4,454.7],[616.4,434.8],[624.4,423.5],[624.4,423.5],[648.9,432.9],[678.1,469.2],[709.7,517.2],[709.7,517.2],[746.9,563.8],[782.9,603.2],[824.8,642.1],[860.5,648.5],[860.5,648.5],[885.4,678.2],[923.1,704.1],[946.1,731.2],[960.7,754.6],[992.2,747.2],[1032.2,741.6],[1049.8,734.7],[1081.7,734.7],[1104.2,742.8],[1131.3,772.2],[1127,769.5],[1119.1,771.5],[1133,774.8],[1138.1,773.3],[1133,771.6],[1127.9,769.9],[1152,787.9],[1144.8,786.8],[1141.1,778.1],[1141.1,778.1],[1137.4,769.4],[1125.8,778.8],[1114.2,788.2],[1109.1,799.3],[1078.3,811.1],[1036.1,827],[972.1,872.8],[895.7,901.6],[828.4,935.2],[828.4,935.2],[761.1,968.8],[681.2,992.1],[638.3,1002.5],[584.8,1004.5],[584.8,1004.5],[517.4,1009],[457.5,1002.9],[413.5,999.4],[390.1,951.7],[359.8,903],[393.1,872.3],[431,845.7],[518.7,816.2],[580.6,777.6],[653.1,747.4],[713.7,713.8],[792.1,701.1],[869.6,691.8],[869.6,691.8],[945.2,715.1],[945.2,715.1],[1011,721.7],[1031.2,730.8],[1046.8,735.8],[1025.7,734.5],[1004.5,745.6],[987,768.6],[987,768.6],[981.7,788.3],[999.6,804.9],[1017.3,825.3],[1025.5,825.5],[1042.5,819.9],[1042.5,819.9],[1051,783.7],[1072.5,754.7],[1080.2,741.5],[1080.2,741.5],[1115,722.9],[1115,722.9],[1141.1,685.7],[1149.4,668.9],[1150.1,614],[1136,549.3],[1130.2,490],[1132.3,454.2],[1163.7,441.8],[1182.1,422.2],[1205.7,415.2],[1205.7,415.2],[1185.1,397.5],[1185.1,397.5],[1185.8,406],[1200.8,345.3],[1196.6,349.1],[1193,352.3],[1202,354.4],[1211,356.5],[1196.2,330.8],[1181.4,305.1],[1167.1,279.9],[1160.5,275.9],[1152.9,257],[1138.3,290.4],[1138.3,290.4],[1153.1,282.6],[1160.3,261],[1164.9,250.7],[1165,232.5],[1165,232.5],[1163.6,234.8],[1159.3,253],[1161.3,262.7],[1173.3,266.7],[1180.2,272.1],[1197.6,274],[1196.1,293.2],[1205.9,320.9],[1203.7,336.1],[1203.7,336.1],[1206,359.2],[1206,359.2],[1219.5,390.4],[1217.1,386.2],[1180.9,410.4],[1144.1,435.2],[1097.1,454],[1088.6,452.7],[1079.3,443.3],[1060.5,439.5],[1024.4,419.7],[988.3,399.9],[936.6,373.1],[936.6,373.1],[932.9,377],[952.1,344.3],[974.7,303.8],[997.4,263.2],[986.2,234.2],[978.1,207.7],[972.1,182.3],[989.7,171.7],[1000,166.9],[1020.4,146.8],[1008,126.4],[1007.8,113.3],[1013.8,126.8],[1020.7,101.4],[1033.5,130.3],[1050.5,173.4],[1070.6,215.7],[1104.6,252.2],[1150.1,274.2],[1200.4,299.9],[1233.4,333.9],[1266.4,367.9],[1302.8,380.5],[1318.4,412.3],[1328.7,398.3],[1334.8,370.1],[1337.6,349.9],[1336.1,352.4],[1316.5,384.9],[1288.2,414.7],[1262.6,406.9],[1218.3,383.6],[1170,383.7],[1139.6,402.1],[1110.4,418.9],[1110.4,418.9],[1081.2,435.7],[1065.4,441],[1042.7,451.1],[1042.7,451.1],[1033.9,439.9],[1013.6,443.1],[983.7,443.6],[972.5,459.6],[957.8,462.8],[925.6,458.8],[888.6,453.5],[846.8,447.4],[846.8,447.4],[800.7,459.1],[732.2,454],[663.7,448.9],[630.8,445],[625.7,462.2],[606.1,481.6],[606.1,481.6],[581,493],[567.1,512.5],[546.1,536.5],[532.2,559.8],[506.9,575.4],[501.3,586.1],[502.9,601.5],[464.6,598.6],[440.3,611.6],[440.3,611.6],[467.8,588.3],[504.5,580.4],[583.2,565.4],[667.4,548.8],[735.9,540.2],[806.1,508.7]]","[-0.132282,0.39684600000000003]","[0.132282,0.39684600000000003]","[0.39684600000000003,0.39684600000000003]","[-0.39684600000000003,-0.132282]","[-0.39684600000000003,-0.39684600000000003]","[-0.39684600000000003,0.132282]","[-0.132282,-0.132282]","[0.132282,-0.132282]","[0.39684600000000003,-0.132282]","[-0.132282,-0.39684600000000003]","[0.132282,-0.39684600000000003]","[0.39684600000000003,-0.39684600000000003]","[-0.132282,0.132282]","[0.132282,0.132282]","[0.39684600000000003,0.132282]",0,0,0,0,1,3,Tablet,25,40,9,1,50,4,1,60,5
