inst1_resp.keys,inst1_resp.rt,calibrationMouse.x,calibrationMouse.y,calibrationMouse.leftButton,calibrationMouse.midButton,calibrationMouse.rightButton,calibrationClick.x,calibrationClick.y,calibrationClick.leftButton,calibrationClick.midButton,calibrationClick.rightButton,trialsc.thisRepN,trialsc.thisTrialN,trialsc.thisN,trialsc.thisIndex,trialsc.ran,calibration_x,calibration_y,participant,session,date,expName,psychopyVersion,OS,frameRate,calibrationClick.clicked_name,ScreenRes_pixels,Camera_pixels,mouse_2.x,mouse_2.y,mouse_2.leftButton,mouse_2.midButton,mouse_2.rightButton,mouse_2.time,mouse_2.clicked_name,mouse.x,mouse.y,mouse.leftButton,mouse.midButton,mouse.rightButton,mouse.time,mouse.clicked_name,Choice,Trial,TrialDuration,MOUSE_GAZE,ET_GAZE,ET_GAZE_x_T,time,unixTime,ET_GAZE_NF,Loc_Bus_label,Loc_Metro_label,Loc_RH_label,Loc_Cost_label,Loc_Travel_label,Loc_Comfort_label,Loc_Bus_cost,Loc_Metro_cost,Loc_RH_cost,Loc_Bus_travel,Loc_Metro_travel,Loc_RH_travel,Loc_Bus_comfort,Loc_Metro_comfort,Loc_RH_comfort,trials.thisRepN,trials.thisTrialN,trials.thisN,trials.thisIndex,trials.ran,Block,Device,RH_cost,RH_travel_time,RH_Comfort,metro_cost,metro_travel_time,metro_Comfort,Bus_cost,Bus_travel_time,Bus_Comfort
space,2.2788,0.710416667,0.072222222,1,0,0,-0.327083333,0.659259259,1,0,0,0,0,0,8,1,-0.33,0.67,34,001,2024-11-27_12h49.58.680,Attention_exp_legacy,2023.1.0,Win32,59.88023952,,,,,,,,,,,,,,,,,,,,,,,,,,,,,,,,,,,,,,,,,,,,,,,,,,,,,,,,,
,,,,,,,-0.667708333,-0.653703704,1,0,0,0,1,1,0,1,-0.67,-0.67,34,001,2024-11-27_12h49.58.680,Attention_exp_legacy,2023.1.0,Win32,59.88023952,,,,,,,,,,,,,,,,,,,,,,,,,,,,,,,,,,,,,,,,,,,,,,,,,,,,,,,,,
,,,,,,,0.328125,0.324074074,1,0,0,0,2,2,17,1,0.33,0.33,34,001,2024-11-27_12h49.58.680,Attention_exp_legacy,2023.1.0,Win32,59.88023952,calibration_square,,,,,,,,,,,,,,,,,,,,,,,,,,,,,,,,,,,,,,,,,,,,,,,,,,,,,,,,
,,,,,,,-0.678125,-0.32962963,1,0,0,0,3,3,1,1,-0.67,-0.33,34,001,2024-11-27_12h49.58.680,Attention_exp_legacy,2023.1.0,Win32,59.88023952,calibration_square,,,,,,,,,,,,,,,,,,,,,,,,,,,,,,,,,,,,,,,,,,,,,,,,,,,,,,,,
,,,,,,,-0.66875,0.32037037,1,0,0,0,4,4,3,1,-0.67,0.33,34,001,2024-11-27_12h49.58.680,Attention_exp_legacy,2023.1.0,Win32,59.88023952,calibration_square,,,,,,,,,,,,,,,,,,,,,,,,,,,,,,,,,,,,,,,,,,,,,,,,,,,,,,,,
,,,,,,,0.326041667,-0.337037037,1,0,0,0,5,5,15,1,0.33,-0.33,34,001,2024-11-27_12h49.58.680,Attention_exp_legacy,2023.1.0,Win32,59.88023952,calibration_square,,,,,,,,,,,,,,,,,,,,,,,,,,,,,,,,,,,,,,,,,,,,,,,,,,,,,,,,
,,,,,,,-0.336458333,-0.012962963,1,0,0,0,6,6,6,1,-0.33,0,34,001,2024-11-27_12h49.58.680,Attention_exp_legacy,2023.1.0,Win32,59.88023952,,,,,,,,,,,,,,,,,,,,,,,,,,,,,,,,,,,,,,,,,,,,,,,,,,,,,,,,,
,,,,,,,0.661458333,0.674074074,1,0,0,0,7,7,19,1,0.67,0.67,34,001,2024-11-27_12h49.58.680,Attention_exp_legacy,2023.1.0,Win32,59.88023952,calibration_square,,,,,,,,,,,,,,,,,,,,,,,,,,,,,,,,,,,,,,,,,,,,,,,,,,,,,,,,
,,,,,,,0,0.674074074,1,0,0,0,8,8,13,1,0,0.67,34,001,2024-11-27_12h49.58.680,Attention_exp_legacy,2023.1.0,Win32,59.88023952,calibration_square,,,,,,,,,,,,,,,,,,,,,,,,,,,,,,,,,,,,,,,,,,,,,,,,,,,,,,,,
,,,,,,,-0.008333333,-0.32962963,1,0,0,0,9,9,10,1,0,-0.33,34,001,2024-11-27_12h49.58.680,Attention_exp_legacy,2023.1.0,Win32,59.88023952,calibration_square,,,,,,,,,,,,,,,,,,,,,,,,,,,,,,,,,,,,,,,,,,,,,,,,,,,,,,,,
,,,,,,,-0.00625,0.338888889,1,0,0,0,10,10,12,1,0,0.33,34,001,2024-11-27_12h49.58.680,Attention_exp_legacy,2023.1.0,Win32,59.88023952,calibration_square,,,,,,,,,,,,,,,,,,,,,,,,,,,,,,,,,,,,,,,,,,,,,,,,,,,,,,,,
,,,,,,,0.645833333,-0.692592593,1,0,0,0,11,11,20,1,0.67,-0.67,34,001,2024-11-27_12h49.58.680,Attention_exp_legacy,2023.1.0,Win32,59.88023952,,,,,,,,,,,,,,,,,,,,,,,,,,,,,,,,,,,,,,,,,,,,,,,,,,,,,,,,,
,,,,,,,-0.660416667,0.009259259,1,0,0,0,12,12,2,1,-0.67,0,34,001,2024-11-27_12h49.58.680,Attention_exp_legacy,2023.1.0,Win32,59.88023952,calibration_square,,,,,,,,,,,,,,,,,,,,,,,,,,,,,,,,,,,,,,,,,,,,,,,,,,,,,,,,
,,,,,,,0.330208333,0.67037037,1,0,0,0,13,13,18,1,0.33,0.67,34,001,2024-11-27_12h49.58.680,Attention_exp_legacy,2023.1.0,Win32,59.88023952,calibration_square,,,,,,,,,,,,,,,,,,,,,,,,,,,,,,,,,,,,,,,,,,,,,,,,,,,,,,,,
,,,,,,,-0.305208333,-0.657407407,1,0,0,0,14,14,4,1,-0.33,-0.67,34,001,2024-11-27_12h49.58.680,Attention_exp_legacy,2023.1.0,Win32,59.88023952,,,,,,,,,,,,,,,,,,,,,,,,,,,,,,,,,,,,,,,,,,,,,,,,,,,,,,,,,
,,,,,,,0.3125,0.033333333,1,0,0,0,15,15,16,1,0.33,0,34,001,2024-11-27_12h49.58.680,Attention_exp_legacy,2023.1.0,Win32,59.88023952,,,,,,,,,,,,,,,,,,,,,,,,,,,,,,,,,,,,,,,,,,,,,,,,,,,,,,,,,
,,,,,,,0.00625,-0.683333333,1,0,0,0,16,16,9,1,0,-0.67,34,001,2024-11-27_12h49.58.680,Attention_exp_legacy,2023.1.0,Win32,59.88023952,,,,,,,,,,,,,,,,,,,,,,,,,,,,,,,,,,,,,,,,,,,,,,,,,,,,,,,,,
,,,,,,,0.009375,-0.012962963,1,0,0,0,17,17,11,1,0,0,34,001,2024-11-27_12h49.58.680,Attention_exp_legacy,2023.1.0,Win32,59.88023952,,,,,,,,,,,,,,,,,,,,,,,,,,,,,,,,,,,,,,,,,,,,,,,,,,,,,,,,,
,,,,,,,-0.336458333,-0.316666667,1,0,0,0,18,18,5,1,-0.33,-0.33,34,001,2024-11-27_12h49.58.680,Attention_exp_legacy,2023.1.0,Win32,59.88023952,,,,,,,,,,,,,,,,,,,,,,,,,,,,,,,,,,,,,,,,,,,,,,,,,,,,,,,,,
,,,,,,,0.322916667,-0.653703704,1,0,0,0,19,19,14,1,0.33,-0.67,34,001,2024-11-27_12h49.58.680,Attention_exp_legacy,2023.1.0,Win32,59.88023952,,,,,,,,,,,,,,,,,,,,,,,,,,,,,,,,,,,,,,,,,,,,,,,,,,,,,,,,,
,,,,,,,-0.319791667,0.331481481,1,0,0,0,20,20,7,1,-0.33,0.33,34,001,2024-11-27_12h49.58.680,Attention_exp_legacy,2023.1.0,Win32,59.88023952,,,,,,,,,,,,,,,,,,,,,,,,,,,,,,,,,,,,,,,,,,,,,,,,,,,,,,,,,
,,,,,,,,,,,,,,,,,,,34,001,2024-11-27_12h49.58.680,Attention_exp_legacy,2023.1.0,Win32,59.88023952,,"[1920,1080]","[640,480]",[0.05625],[-0.5018518518518519],[1],[0],[0],[9.265299999982119],"[""StartButton""]",[0.06041666666666667],[0.3888888888888889],[1],[0],[0],[6.70229999998211],"[""Metro_label""]",Metro_label,1,7.7282,"[[0.06354166666666666,-0.4722222222222222],[0.06354166666666666,-0.4722222222222222],[0.06354166666666666,-0.4722222222222222],[0.06354166666666666,-0.4722222222222222],[0.06354166666666666,-0.4722222222222222],[0.06354166666666666,-0.4722222222222222],[0.06354166666666666,-0.4722222222222222],[0.06354166666666666,-0.4722222222222222],[0.06354166666666666,-0.4722222222222222],[0.06354166666666666,-0.4722222222222222],[0.06354166666666666,-0.4722222222222222],[0.06354166666666666,-0.4722222222222222],[0.06354166666666666,-0.4722222222222222],[0.06354166666666666,-0.4722222222222222],[0.06354166666666666,-0.4722222222222222],[0.06354166666666666,-0.4722222222222222],[0.06354166666666666,-0.4722222222222222],[0.06354166666666666,-0.4722222222222222],[0.06354166666666666,-0.4722222222222222],[0.06041666666666667,-0.4666666666666667],[0.017708333333333333,-0.3814814814814815],[0.004166666666666667,-0.35],[-0.041666666666666664,-0.22962962962962963],[-0.05625,-0.18888888888888888],[-0.09479166666666666,-0.07962962962962963],[-0.10625,-0.044444444444444446],[-0.14791666666666667,0.09259259259259259],[-0.16666666666666666,0.16666666666666666],[-0.17708333333333334,0.20925925925925926],[-0.18020833333333333,0.22592592592592592],[-0.184375,0.2574074074074074],[-0.18541666666666667,0.27037037037037037],[-0.18541666666666667,0.29444444444444445],[-0.18541666666666667,0.30185185185185187],[-0.18541666666666667,0.3111111111111111],[-0.184375,0.3148148148148148],[-0.17604166666666668,0.32222222222222224],[-0.16979166666666667,0.32407407407407407],[-0.14583333333333334,0.337037037037037],[-0.11770833333333333,0.34444444444444444],[-0.016666666666666666,0.362962962962963],[0.022916666666666665,0.362962962962963],[0.10729166666666666,0.362962962962963],[0.225,0.35],[0.3875,0.3],[0.4322916666666667,0.2814814814814815],[0.5510416666666667,0.22592592592592592],[0.5739583333333333,0.2111111111111111],[0.590625,0.20185185185185187],[0.6333333333333333,0.17222222222222222],[0.6395833333333333,0.1648148148148148],[0.64375,0.1574074074074074],[0.64375,0.15555555555555556],[0.6447916666666667,0.15],[0.6458333333333334,0.14629629629629629],[0.6458333333333334,0.14074074074074075],[0.6458333333333334,0.13703703703703704],[0.6458333333333334,0.13333333333333333],[0.6458333333333334,0.13333333333333333],[0.6458333333333334,0.13333333333333333],[0.6458333333333334,0.13333333333333333],[0.6458333333333334,0.13148148148148148],[0.6458333333333334,0.13148148148148148],[0.6447916666666667,0.13148148148148148],[0.6447916666666667,0.13148148148148148],[0.64375,0.13148148148148148],[0.64375,0.13148148148148148],[0.64375,0.13148148148148148],[0.64375,0.13148148148148148],[0.64375,0.13148148148148148],[0.64375,0.13148148148148148],[0.64375,0.13148148148148148],[0.64375,0.13148148148148148],[0.64375,0.13148148148148148],[0.64375,0.13148148148148148],[0.64375,0.13148148148148148],[0.64375,0.13148148148148148],[0.64375,0.13148148148148148],[0.64375,0.13148148148148148],[0.64375,0.13148148148148148],[0.64375,0.13148148148148148],[0.6385416666666667,0.12962962962962962],[0.6364583333333333,0.12962962962962962],[0.63125,0.12777777777777777],[0.628125,0.12777777777777777],[0.6239583333333333,0.12777777777777777],[0.621875,0.12777777777777777],[0.6208333333333333,0.12777777777777777],[0.6208333333333333,0.1259259259259259],[0.6197916666666666,0.1259259259259259],[0.61875,0.1259259259259259],[0.61875,0.1259259259259259],[0.6177083333333333,0.1259259259259259],[0.6177083333333333,0.1259259259259259],[0.6177083333333333,0.1259259259259259],[0.6177083333333333,0.1259259259259259],[0.6177083333333333,0.1259259259259259],[0.6177083333333333,0.1259259259259259],[0.6177083333333333,0.1259259259259259],[0.6177083333333333,0.1259259259259259],[0.6177083333333333,0.1259259259259259],[0.6177083333333333,0.1259259259259259],[0.6177083333333333,0.1259259259259259],[0.6177083333333333,0.1259259259259259],[0.6177083333333333,0.1259259259259259],[0.6177083333333333,0.1259259259259259],[0.6177083333333333,0.1259259259259259],[0.6177083333333333,0.1259259259259259],[0.6177083333333333,0.1259259259259259],[0.6177083333333333,0.1259259259259259],[0.6177083333333333,0.1259259259259259],[0.6177083333333333,0.1259259259259259],[0.6177083333333333,0.1259259259259259],[0.6177083333333333,0.1259259259259259],[0.6177083333333333,0.1259259259259259],[0.6177083333333333,0.1259259259259259],[0.6177083333333333,0.1259259259259259],[0.6177083333333333,0.1259259259259259],[0.6177083333333333,0.1259259259259259],[0.6177083333333333,0.1259259259259259],[0.6177083333333333,0.1259259259259259],[0.6177083333333333,0.1259259259259259],[0.6177083333333333,0.1259259259259259],[0.6177083333333333,0.1259259259259259],[0.6177083333333333,0.1259259259259259],[0.6177083333333333,0.1259259259259259],[0.6177083333333333,0.1259259259259259],[0.6177083333333333,0.1259259259259259],[0.6177083333333333,0.1259259259259259],[0.6177083333333333,0.1259259259259259],[0.6177083333333333,0.1259259259259259],[0.6177083333333333,0.1259259259259259],[0.6177083333333333,0.1259259259259259],[0.6177083333333333,0.1259259259259259],[0.6177083333333333,0.1259259259259259],[0.6177083333333333,0.1259259259259259],[0.6177083333333333,0.1259259259259259],[0.6177083333333333,0.1259259259259259],[0.6177083333333333,0.1259259259259259],[0.6177083333333333,0.1259259259259259],[0.6177083333333333,0.1259259259259259],[0.6177083333333333,0.1259259259259259],[0.6177083333333333,0.1259259259259259],[0.6177083333333333,0.1259259259259259],[0.609375,0.1259259259259259],[0.59375,0.1259259259259259],[0.5895833333333333,0.1259259259259259],[0.58125,0.1259259259259259],[0.5791666666666667,0.12777777777777777],[0.575,0.12962962962962962],[0.5739583333333333,0.13148148148148148],[0.5729166666666666,0.13148148148148148],[0.571875,0.13148148148148148],[0.571875,0.13148148148148148],[0.571875,0.13148148148148148],[0.571875,0.13148148148148148],[0.571875,0.13148148148148148],[0.571875,0.13148148148148148],[0.571875,0.13148148148148148],[0.5708333333333333,0.13703703703703704],[0.5708333333333333,0.14444444444444443],[0.5677083333333334,0.15925925925925927],[0.5677083333333334,0.1648148148148148],[0.565625,0.17592592592592593],[0.5645833333333333,0.1814814814814815],[0.5625,0.19074074074074074],[0.5625,0.1962962962962963],[0.5604166666666667,0.2037037037037037],[0.5604166666666667,0.20555555555555555],[0.559375,0.2111111111111111],[0.559375,0.21296296296296297],[0.559375,0.21296296296296297],[0.559375,0.21296296296296297],[0.559375,0.21296296296296297],[0.559375,0.21296296296296297],[0.559375,0.21296296296296297],[0.559375,0.21296296296296297],[0.559375,0.21296296296296297],[0.559375,0.21296296296296297],[0.559375,0.21296296296296297],[0.559375,0.21296296296296297],[0.559375,0.21296296296296297],[0.559375,0.21296296296296297],[0.559375,0.21296296296296297],[0.559375,0.21296296296296297],[0.559375,0.21296296296296297],[0.559375,0.21296296296296297],[0.559375,0.21296296296296297],[0.559375,0.21296296296296297],[0.559375,0.21296296296296297],[0.559375,0.21296296296296297],[0.559375,0.21296296296296297],[0.559375,0.21296296296296297],[0.559375,0.21296296296296297],[0.559375,0.21296296296296297],[0.559375,0.21296296296296297],[0.559375,0.21296296296296297],[0.559375,0.21296296296296297],[0.559375,0.21296296296296297],[0.559375,0.21296296296296297],[0.559375,0.21296296296296297],[0.559375,0.21296296296296297],[0.559375,0.21296296296296297],[0.559375,0.21296296296296297],[0.559375,0.21296296296296297],[0.559375,0.21296296296296297],[0.559375,0.21296296296296297],[0.559375,0.21296296296296297],[0.559375,0.21296296296296297],[0.559375,0.21296296296296297],[0.559375,0.21296296296296297],[0.559375,0.21296296296296297],[0.559375,0.21296296296296297],[0.559375,0.21296296296296297],[0.559375,0.21296296296296297],[0.559375,0.21296296296296297],[0.559375,0.21296296296296297],[0.559375,0.21296296296296297],[0.559375,0.21296296296296297],[0.559375,0.21296296296296297],[0.559375,0.21296296296296297],[0.559375,0.21296296296296297],[0.559375,0.21296296296296297],[0.559375,0.21296296296296297],[0.559375,0.21296296296296297],[0.559375,0.21296296296296297],[0.559375,0.21296296296296297],[0.559375,0.21296296296296297],[0.559375,0.21296296296296297],[0.559375,0.21296296296296297],[0.559375,0.21296296296296297],[0.559375,0.21296296296296297],[0.559375,0.21296296296296297],[0.559375,0.21296296296296297],[0.559375,0.21296296296296297],[0.559375,0.21296296296296297],[0.559375,0.21296296296296297],[0.559375,0.21296296296296297],[0.559375,0.21296296296296297],[0.559375,0.21296296296296297],[0.559375,0.21296296296296297],[0.559375,0.21296296296296297],[0.559375,0.21296296296296297],[0.559375,0.21296296296296297],[0.559375,0.21296296296296297],[0.559375,0.21296296296296297],[0.559375,0.21296296296296297],[0.559375,0.21296296296296297],[0.559375,0.21296296296296297],[0.559375,0.21296296296296297],[0.559375,0.21296296296296297],[0.559375,0.21296296296296297],[0.559375,0.21296296296296297],[0.559375,0.21296296296296297],[0.559375,0.21296296296296297],[0.559375,0.21296296296296297],[0.559375,0.21296296296296297],[0.559375,0.21296296296296297],[0.559375,0.21296296296296297],[0.559375,0.21296296296296297],[0.559375,0.21296296296296297],[0.559375,0.21296296296296297],[0.559375,0.21296296296296297],[0.559375,0.21296296296296297],[0.559375,0.21296296296296297],[0.559375,0.21296296296296297],[0.559375,0.21296296296296297],[0.559375,0.21296296296296297],[0.5583333333333333,0.21481481481481482],[0.5447916666666667,0.21481481481481482],[0.540625,0.21481481481481482],[0.5166666666666667,0.21481481481481482],[0.509375,0.21481481481481482],[0.490625,0.21481481481481482],[0.4822916666666667,0.21481481481481482],[0.465625,0.21666666666666667],[0.4625,0.21666666666666667],[0.4552083333333333,0.2222222222222222],[0.45416666666666666,0.2222222222222222],[0.45208333333333334,0.2222222222222222],[0.4510416666666667,0.2222222222222222],[0.446875,0.2222222222222222],[0.446875,0.2222222222222222],[0.4427083333333333,0.22407407407407406],[0.440625,0.22592592592592592],[0.4395833333333333,0.22592592592592592],[0.4395833333333333,0.22592592592592592],[0.4395833333333333,0.22592592592592592],[0.43645833333333334,0.22592592592592592],[0.43020833333333336,0.22777777777777777],[0.4270833333333333,0.22777777777777777],[0.415625,0.23148148148148148],[0.40208333333333335,0.23703703703703705],[0.384375,0.24074074074074073],[0.3729166666666667,0.24444444444444444],[0.3333333333333333,0.2574074074074074],[0.29791666666666666,0.2777777777777778],[0.2375,0.30925925925925923],[0.2375,0.30925925925925923],[0.15833333333333333,0.34629629629629627],[0.13541666666666666,0.3592592592592593],[0.1125,0.37037037037037035],[0.078125,0.3851851851851852],[0.04375,0.3925925925925926],[0.03854166666666667,0.3925925925925926],[0.023958333333333335,0.38333333333333336],[0.01875,0.37962962962962965],[0.005208333333333333,0.37407407407407406],[0.003125,0.37222222222222223],[-0.00625,0.3685185185185185],[-0.009375,0.36666666666666664],[-0.016666666666666666,0.3648148148148148],[-0.01875,0.3648148148148148],[-0.022916666666666665,0.3648148148148148],[-0.023958333333333335,0.3648148148148148],[-0.027083333333333334,0.3648148148148148],[-0.027083333333333334,0.3648148148148148],[-0.028125,0.36666666666666664],[-0.028125,0.36666666666666664],[-0.028125,0.36666666666666664],[-0.028125,0.36666666666666664],[-0.028125,0.36666666666666664],[-0.029166666666666667,0.36666666666666664],[-0.030208333333333334,0.3685185185185185],[-0.03125,0.3685185185185185],[-0.034375,0.37222222222222223],[-0.034375,0.37407407407407406],[-0.040625,0.37962962962962965],[-0.041666666666666664,0.37962962962962965],[-0.04895833333333333,0.3851851851851852],[-0.052083333333333336,0.3888888888888889],[-0.05625,0.3907407407407407],[-0.05625,0.3925925925925926],[-0.05625,0.3925925925925926],[-0.05625,0.3925925925925926],[-0.05416666666666667,0.39444444444444443],[-0.051041666666666666,0.39444444444444443],[-0.046875,0.39814814814814814],[-0.03854166666666667,0.39814814814814814],[-0.007291666666666667,0.39814814814814814],[0.010416666666666666,0.39814814814814814],[0.021875,0.3962962962962963],[0.03854166666666667,0.3907407407407407],[0.040625,0.3907407407407407],[0.04479166666666667,0.3907407407407407],[0.04895833333333333,0.3907407407407407],[0.051041666666666666,0.3888888888888889],[0.052083333333333336,0.3888888888888889],[0.053125,0.3888888888888889],[0.05416666666666667,0.3888888888888889],[0.05520833333333333,0.3888888888888889],[0.05625,0.3888888888888889],[0.058333333333333334,0.3888888888888889],[0.059375,0.3888888888888889],[0.059375,0.3888888888888889],[0.06041666666666667,0.3888888888888889],[0.06041666666666667,0.3888888888888889],[0.06041666666666667,0.3888888888888889],[0.06041666666666667,0.3888888888888889],[0.06041666666666667,0.3888888888888889],[0.06041666666666667,0.3888888888888889],[0.06041666666666667,0.3888888888888889],[0.06041666666666667,0.3888888888888889],[0.06041666666666667,0.3888888888888889],[0.06041666666666667,0.3888888888888889],[0.06041666666666667,0.3888888888888889],[0.06041666666666667,0.3888888888888889],[0.06041666666666667,0.3888888888888889],[0.06041666666666667,0.3888888888888889],[0.06041666666666667,0.3888888888888889],[0.06041666666666667,0.3888888888888889],[0.06041666666666667,0.3888888888888889],[0.06041666666666667,0.3888888888888889],[0.06041666666666667,0.3888888888888889],[0.06041666666666667,0.3888888888888889],[0.06041666666666667,0.3888888888888889],[0.06041666666666667,0.3888888888888889],[0.06041666666666667,0.3888888888888889],[0.06041666666666667,0.3888888888888889],[0.06041666666666667,0.3888888888888889],[0.06041666666666667,0.3888888888888889],[0.06041666666666667,0.3888888888888889],[0.06041666666666667,0.3888888888888889],[0.06041666666666667,0.3888888888888889],[0.06041666666666667,0.3888888888888889],[0.06041666666666667,0.3888888888888889],[0.06041666666666667,0.3888888888888889],[0.06041666666666667,0.3888888888888889],[0.06041666666666667,0.3888888888888889],[0.06041666666666667,0.3888888888888889],[0.06041666666666667,0.3888888888888889],[0.06041666666666667,0.3888888888888889],[0.06041666666666667,0.3888888888888889],[0.06041666666666667,0.3888888888888889],[0.06041666666666667,0.3888888888888889],[0.06041666666666667,0.3888888888888889],[0.06041666666666667,0.3888888888888889],[0.06041666666666667,0.3888888888888889],[0.06041666666666667,0.3888888888888889],[0.06041666666666667,0.3888888888888889],[0.06041666666666667,0.3888888888888889],[0.06041666666666667,0.3888888888888889],[0.06041666666666667,0.3888888888888889],[0.06041666666666667,0.3888888888888889],[0.06041666666666667,0.3888888888888889],[0.06041666666666667,0.3888888888888889],[0.06041666666666667,0.3888888888888889],[0.06041666666666667,0.3888888888888889],[0.06041666666666667,0.3888888888888889],[0.06145833333333333,0.387037037037037],[0.06145833333333333,0.387037037037037],[0.06145833333333333,0.387037037037037],[0.06145833333333333,0.387037037037037],[0.06145833333333333,0.387037037037037],[0.06145833333333333,0.387037037037037],[0.06145833333333333,0.387037037037037],[0.06145833333333333,0.387037037037037],[0.06145833333333333,0.387037037037037],[0.06145833333333333,0.387037037037037],[0.06145833333333333,0.387037037037037],[0.06145833333333333,0.387037037037037],[0.06145833333333333,0.387037037037037],[0.06145833333333333,0.387037037037037],[0.06145833333333333,0.387037037037037],[0.06145833333333333,0.387037037037037],[0.06145833333333333,0.387037037037037],[0.0625,0.387037037037037],[0.06354166666666666,0.387037037037037],[0.075,0.387037037037037],[0.09166666666666666,0.387037037037037],[0.10729166666666666,0.3814814814814815],[0.13020833333333334,0.362962962962963],[0.14375,0.3425925925925926],[0.153125,0.32592592592592595],[0.1625,0.29444444444444445],[0.16979166666666667,0.2574074074074074],[0.175,0.22037037037037038],[0.18125,0.17777777777777778],[0.184375,0.1388888888888889],[0.18541666666666667,0.10740740740740741],[0.18645833333333334,0.08148148148148149],[0.18645833333333334,0.06296296296296296],[0.18645833333333334,0.046296296296296294],[0.18645833333333334,0.037037037037037035],[0.18645833333333334,0.037037037037037035],[0.18645833333333334,0.037037037037037035],[0.18645833333333334,0.037037037037037035],[0.18645833333333334,0.037037037037037035],[0.18645833333333334,0.037037037037037035],[0.18645833333333334,0.037037037037037035],[0.18645833333333334,0.037037037037037035],[0.18645833333333334,0.037037037037037035],[0.18645833333333334,0.040740740740740744],[0.18645833333333334,0.046296296296296294],[0.18645833333333334,0.05185185185185185],[0.18645833333333334,0.06111111111111111],[0.18854166666666666,0.06666666666666667],[0.18854166666666666,0.07407407407407407],[0.18854166666666666,0.07407407407407407],[0.18854166666666666,0.07777777777777778],[0.18958333333333333,0.07962962962962963],[0.18958333333333333,0.08148148148148149]]","[[0.2553124999999999,0.001851851851851852],[0.2553124999999999,0.001851851851851852],[0.2713541666666667,0.0625925925925925],[0.2713541666666667,0.0625925925925925],[0.25770833333333343,0.08796296296296297],[0.25770833333333343,0.08796296296296297],[0.27197916666666655,0.1551851851851851],[0.27197916666666655,0.1551851851851851],[0.22208333333333338,0.18481481481481474],[0.22208333333333338,0.18481481481481474],[0.16062500000000005,0.18351851851851855],[0.16062500000000005,0.18351851851851855],[0.12750000000000009,0.18111111111111103],[0.12750000000000009,0.18111111111111103],[0.11041666666666666,0.16074074074074066],[0.11041666666666666,0.16074074074074066],[0.13177083333333334,0.15907407407407403],[0.13177083333333334,0.15907407407407403],[0.12770833333333323,0.1587037037037038],[0.12770833333333323,0.1587037037037038],[0.09145833333333328,0.19222222222222213],[0.09145833333333328,0.19222222222222213],[0.07020833333333343,0.22407407407407406],[0.07020833333333343,0.22407407407407406],[0.060104166666666715,0.22148148148148153],[0.060104166666666715,0.22148148148148153],[0.025729166666666713,0.22444444444444453],[0.025729166666666713,0.22444444444444453],[0.012083333333333357,0.16592592592592598],[0.012083333333333357,0.16592592592592598],[0.003333333333333381,0.12074074074074083],[0.003333333333333381,0.12074074074074083],[0.016770833333333356,0.06888888888888897],[0.016770833333333356,0.06888888888888897],[0.018124999999999978,0.04666666666666675],[0.018124999999999978,0.04666666666666675],[0.015625,0.025],[0.015625,0.025],[-0.003854166666666714,0.004814814814814857],[-0.003854166666666714,0.004814814814814857],[-0.00302083333333331,-0.03740740740740749],[-0.00302083333333331,-0.03740740740740749],[-0.043229166666666666,-0.1175925925925926],[-0.043229166666666666,-0.1175925925925926],[-0.019166666666666644,-0.13499999999999995],[-0.019166666666666644,-0.13499999999999995],[-0.030624999999999975,-0.15166666666666662],[-0.030624999999999975,-0.15166666666666662],[-0.030624999999999975,-0.15166666666666662],[-0.03322916666666664,-0.1388888888888889],[-0.03322916666666664,-0.1388888888888889],[0.005312500000000024,-0.13351851851851856],[0.005312500000000024,-0.13351851851851856],[-0.005624999999999976,-0.1301851851851852],[-0.005624999999999976,-0.1301851851851852],[0.02385416666666664,-0.13037037037037033],[0.02385416666666664,-0.13037037037037033],[0.03583333333333331,-0.13518518518518519],[0.03583333333333331,-0.13518518518518519],[0.03583333333333331,-0.13518518518518519],[0.03583333333333331,-0.13518518518518519],[0.09020833333333324,-0.1868518518518518],[0.09020833333333324,-0.1868518518518518],[0.17697916666666677,-0.2035185185185185],[0.17697916666666677,-0.2035185185185185],[0.29812500000000003,-0.16944444444444445],[0.29812500000000003,-0.16944444444444445],[0.35739583333333325,-0.18870370370370365],[0.35739583333333325,-0.18870370370370365],[0.4197916666666667,-0.24314814814814817],[0.4197916666666667,-0.24314814814814817],[0.4887500000000001,-0.22999999999999998],[0.4887500000000001,-0.22999999999999998],[0.5143749999999999,-0.22240740740740744],[0.5143749999999999,-0.22240740740740744],[0.5330208333333334,-0.24833333333333338],[0.5330208333333334,-0.24833333333333338],[0.510625,-0.24222222222222226],[0.510625,-0.24222222222222226],[0.5168750000000001,-0.24370370370370376],[0.5168750000000001,-0.24370370370370376],[0.49249999999999994,-0.21592592592592597],[0.49249999999999994,-0.21592592592592597],[0.48854166666666665,-0.2264814814814815],[0.48854166666666665,-0.2264814814814815],[0.5212500000000001,-0.23129629629629625],[0.5212500000000001,-0.23129629629629625],[0.4680208333333333,-0.25277777777777777],[0.4680208333333333,-0.25277777777777777],[0.4423958333333334,-0.25462962962962965],[0.4423958333333334,-0.25462962962962965],[0.4653125000000001,-0.2564814814814815],[0.4653125000000001,-0.2564814814814815],[0.5038541666666667,-0.26481481481481484],[0.5038541666666667,-0.26481481481481484],[0.5038541666666667,-0.26481481481481484],[0.5038541666666667,-0.26481481481481484],[0.5227083333333333,-0.22148148148148153],[0.5227083333333333,-0.22148148148148153],[0.5227083333333333,-0.22148148148148153],[0.5710416666666667,-0.23555555555555555],[0.5710416666666667,-0.23555555555555555],[0.5570833333333333,-0.26740740740740737],[0.5570833333333333,-0.26740740740740737],[0.5914583333333333,-0.25333333333333335],[0.5914583333333333,-0.25333333333333335],[0.6018749999999999,-0.2235185185185185],[0.6018749999999999,-0.2235185185185185],[0.5654166666666666,-0.2309259259259259],[0.5654166666666666,-0.2309259259259259],[0.5654166666666666,-0.2309259259259259],[0.5654166666666666,-0.2309259259259259],[0.5782291666666666,-0.17555555555555558],[0.5782291666666666,-0.17555555555555558],[0.5782291666666666,-0.17555555555555558],[0.5782291666666666,-0.17555555555555558],[0.5563541666666666,-0.15240740740740744],[0.5563541666666666,-0.15240740740740744],[0.5563541666666666,-0.15240740740740744],[0.4627083333333334,-0.127962962962963],[0.4627083333333334,-0.127962962962963],[0.35135416666666663,-0.11351851851851855],[0.35135416666666663,-0.11351851851851855],[0.2103125000000001,-0.12314814814814815],[0.2103125000000001,-0.12314814814814815],[0.11260416666666657,-0.09981481481481477],[0.11260416666666657,-0.09981481481481477],[0.013854166666666619,-0.05555555555555555],[0.013854166666666619,-0.05555555555555555],[-0.0984375,-0.026481481481481398],[-0.0984375,-0.026481481481481398],[-0.19583333333333333,-0.013333333333333417],[-0.19583333333333333,-0.013333333333333417],[-0.19583333333333333,-0.013333333333333417],[-0.2582291666666666,0.055740740740740785],[-0.2582291666666666,0.055740740740740785],[-0.2582291666666666,0.055740740740740785],[-0.3147916666666667,0.09499999999999992],[-0.3147916666666667,0.09499999999999992],[-0.3607291666666666,0.14166666666666666],[-0.3607291666666666,0.14166666666666666],[-0.32843749999999994,0.11648148148148144],[-0.32843749999999994,0.11648148148148144],[-0.32843749999999994,0.11648148148148144],[-0.32843749999999994,0.11648148148148144],[-0.28875000000000006,0.122037037037037],[-0.28875000000000006,0.122037037037037],[-0.15979166666666664,0.12074074074074083],[-0.15979166666666664,0.12074074074074083],[-0.043437500000000046,0.12685185185185185],[-0.043437500000000046,0.12685185185185185],[0.08854166666666667,0.15240740740740732],[0.08854166666666667,0.15240740740740732],[0.1696875000000001,0.10833333333333334],[0.1696875000000001,0.10833333333333334],[0.25,0.06407407407407412],[0.25,0.06407407407407412],[0.25,0.06407407407407412],[0.25,0.06407407407407412],[0.29583333333333334,-0.02629629629629638],[0.29583333333333334,-0.02629629629629638],[0.36781249999999993,-0.10462962962962963],[0.36781249999999993,-0.10462962962962963],[0.46416666666666656,-0.1668518518518519],[0.46416666666666656,-0.1668518518518519],[0.48895833333333344,-0.1853703703703704],[0.48895833333333344,-0.1853703703703704],[0.5279166666666666,-0.21944444444444444],[0.5279166666666666,-0.21944444444444444],[0.5448958333333332,-0.22740740740740742],[0.5448958333333332,-0.22740740740740742],[0.5304166666666668,-0.26129629629629636],[0.5304166666666668,-0.26129629629629636],[0.49979166666666663,-0.3066666666666667],[0.49979166666666663,-0.3066666666666667],[0.5179166666666667,-0.2705555555555556],[0.5179166666666667,-0.2705555555555556],[0.5344791666666666,-0.26129629629629636],[0.5344791666666666,-0.26129629629629636],[0.5645833333333333,-0.2175925925925926],[0.5645833333333333,-0.2175925925925926],[0.5569791666666667,-0.18481481481481485],[0.5569791666666667,-0.18481481481481485],[0.5569791666666667,-0.18481481481481485],[0.5569791666666667,-0.18481481481481485],[0.4527083333333332,-0.14481481481481479],[0.4527083333333332,-0.14481481481481479],[0.4527083333333332,-0.14481481481481479],[0.35427083333333326,-0.11981481481481479],[0.35427083333333326,-0.11981481481481479],[0.35427083333333326,-0.11981481481481479],[0.35427083333333326,-0.11981481481481479],[0.2747916666666666,-0.05648148148148148],[0.2747916666666666,-0.05648148148148148],[0.1538541666666667,-0.014074074074074116],[0.1538541666666667,-0.014074074074074116],[0.051250000000000046,0.04462962962962967],[0.051250000000000046,0.04462962962962967],[-0.07364583333333338,0.08203703703703695],[-0.07364583333333338,0.08203703703703695],[-0.1883333333333333,0.09444444444444444],[-0.1883333333333333,0.09444444444444444],[-0.29750000000000004,0.11055555555555564],[-0.29750000000000004,0.11055555555555564],[-0.4048958333333334,0.13962962962962958],[-0.4048958333333334,0.13962962962962958],[-0.49333333333333335,0.15703703703703695],[-0.49333333333333335,0.15703703703703695],[-0.5125,0.14222222222222214],[-0.5125,0.14222222222222214],[-0.5161458333333333,0.17685185185185184],[-0.5161458333333333,0.17685185185185184],[-0.5161458333333333,0.17685185185185184],[-0.5161458333333333,0.17685185185185184],[-0.5145833333333333,0.14351851851851852],[-0.5145833333333333,0.14351851851851852],[-0.4192708333333333,0.1381481481481482],[-0.4192708333333333,0.1381481481481482],[-0.3940624999999999,0.15759259259259265],[-0.3940624999999999,0.15759259259259265],[-0.303125,0.17018518518518513],[-0.303125,0.17018518518518513],[-0.303125,0.17018518518518513],[-0.2358333333333333,0.18185185185185193],[-0.2358333333333333,0.18185185185185193],[-0.2358333333333333,0.18185185185185193],[-0.2358333333333333,0.18185185185185193],[-0.16031249999999997,0.22240740740740744],[-0.16031249999999997,0.22240740740740744],[-0.06322916666666671,0.22685185185185186],[-0.06322916666666671,0.22685185185185186],[-0.015104166666666667,0.2300000000000001],[-0.015104166666666667,0.2300000000000001],[0.05635416666666669,0.25925925925925924],[0.05635416666666669,0.25925925925925924],[0.1625,0.26592592592592595],[0.1625,0.26592592592592595],[0.1625,0.26592592592592595],[0.1625,0.26592592592592595],[0.20833333333333334,0.2803703703703703],[0.20833333333333334,0.2803703703703703],[0.2171875,0.31925925925925924],[0.2171875,0.31925925925925924],[0.2627083333333334,0.3257407407407407],[0.2627083333333334,0.3257407407407407],[0.27791666666666665,0.3375925925925925],[0.27791666666666665,0.3375925925925925],[0.3145833333333333,0.3477777777777777],[0.3145833333333333,0.3477777777777777],[0.30020833333333335,0.32444444444444454],[0.30020833333333335,0.32444444444444454],[0.29354166666666665,0.3416666666666667],[0.29354166666666665,0.3416666666666667],[0.29354166666666665,0.3416666666666667],[0.29354166666666665,0.3416666666666667],[0.3006249999999999,0.35537037037037034],[0.3006249999999999,0.35537037037037034],[0.3224999999999999,0.38870370370370366],[0.3224999999999999,0.38870370370370366],[0.29031250000000003,0.4053703703703703],[0.29031250000000003,0.4053703703703703],[0.3243750000000001,0.4414814814814814],[0.3243750000000001,0.4414814814814814],[0.3243750000000001,0.4414814814814814],[0.3243750000000001,0.4414814814814814],[0.31010416666666674,0.4668518518518519],[0.31010416666666674,0.4668518518518519],[0.31010416666666674,0.4668518518518519],[0.31010416666666674,0.4668518518518519],[0.2660416666666668,0.3785185185185185],[0.2660416666666668,0.3785185185185185],[0.22218749999999995,0.2996296296296295],[0.22218749999999995,0.2996296296296295],[0.2009375000000001,0.21388888888888888],[0.2009375000000001,0.21388888888888888],[0.2185416666666666,0.15592592592592602],[0.2185416666666666,0.15592592592592602],[0.21354166666666666,0.09611111111111106],[0.21354166666666666,0.09611111111111106],[0.22177083333333342,0.040740740740740744],[0.22177083333333342,0.040740740740740744],[0.2381249999999999,-0.06611111111111109],[0.2381249999999999,-0.06611111111111109],[0.23302083333333337,-0.1307407407407408],[0.23302083333333337,-0.1307407407407408],[0.18875000000000006,-0.2222222222222222],[0.18875000000000006,-0.2222222222222222],[0.18875000000000006,-0.2222222222222222],[0.18875000000000006,-0.2222222222222222],[0.21458333333333332,-0.325],[0.21458333333333332,-0.325],[0.2716666666666666,-0.3022222222222222],[0.2716666666666666,-0.3022222222222222],[0.32041666666666657,-0.25833333333333336],[0.32041666666666657,-0.25833333333333336],[0.33145833333333335,-0.18555555555555553],[0.33145833333333335,-0.18555555555555553],[0.3349999999999999,-0.15703703703703706],[0.3349999999999999,-0.15703703703703706],[0.36041666666666666,-0.1557407407407408],[0.36041666666666666,-0.1557407407407408],[0.36041666666666666,-0.1557407407407408],[0.36041666666666666,-0.1557407407407408],[0.3871875000000001,-0.18222222222222217],[0.3871875000000001,-0.18222222222222217],[0.4053124999999999,-0.16166666666666668],[0.4053124999999999,-0.16166666666666668],[0.4427083333333333,-0.2918518518518519],[0.4427083333333333,-0.2918518518518519],[0.415625,-0.33055555555555555],[0.415625,-0.33055555555555555],[0.34041666666666665,-0.3794444444444444],[0.34041666666666665,-0.3794444444444444],[0.2681250000000001,-0.4007407407407407],[0.2681250000000001,-0.4007407407407407],[0.21822916666666667,-0.4498148148148148],[0.21822916666666667,-0.4498148148148148],[0.21822916666666667,-0.4498148148148148],[0.21822916666666667,-0.4498148148148148],[0.18895833333333342,-0.5498148148148148],[0.18895833333333342,-0.5498148148148148],[0.18895833333333342,-0.5498148148148148],[0.18895833333333342,-0.5498148148148148],[0.17312500000000006,-0.5659259259259259],[0.17312500000000006,-0.5659259259259259],[0.04802083333333336,-0.58],[0.04802083333333336,-0.58],[-0.0171875,-0.5688888888888889],[-0.0171875,-0.5688888888888889],[-0.011354166666666643,-0.5524074074074075],[-0.011354166666666643,-0.5524074074074075],[-0.09510416666666661,-0.4607407407407408],[-0.09510416666666661,-0.4607407407407408],[-0.07562500000000003,-0.43277777777777776],[-0.07562500000000003,-0.43277777777777776],[-0.06697916666666662,-0.4131481481481482],[-0.06697916666666662,-0.4131481481481482],[-0.06697916666666662,-0.4131481481481482],[-0.06697916666666662,-0.4131481481481482],[-0.03229166666666667,-0.415925925925926],[-0.03229166666666667,-0.415925925925926],[-0.036666666666666715,-0.4103703703703704],[-0.036666666666666715,-0.37351851851851847],[-0.036666666666666715,-0.37351851851851847],[-0.04874999999999995,-0.3646296296296296],[0.02666666666666669,-0.384074074074074],[0.04718749999999995,-0.39148148148148143],[0.04718749999999995,-0.39148148148148143],[-0.010104166666666714,-0.43407407407407406],[0.0421875,-0.432962962962963],[0.050833333333333286,-0.4301851851851852],[0.050833333333333286,-0.4301851851851852],[0.03812500000000003,-0.4131481481481482],[0.03812500000000003,-0.4131481481481482],[0.010000000000000024,-0.40314814814814814],[0.003333333333333381,-0.40777777777777774],[-0.02333333333333331,-0.41500000000000004],[-0.00916666666666662,-0.41518518518518516],[0.004270833333333357,-0.39537037037037037],[-0.010625000000000048,-0.40425925925925926],[-0.029270833333333357,-0.39092592592592595],[-0.04635416666666667,-0.3881481481481482],[-0.06416666666666669,-0.38333333333333336],[-0.06416666666666669,-0.38333333333333336],[-0.05635416666666669,-0.38185185185185183],[-0.04656250000000005,-0.4044444444444444],[-0.05333333333333338,-0.4083333333333333],[-0.03885416666666662,-0.42481481481481476],[-0.06104166666666669,-0.4653703703703704],[-0.0515625,-0.47240740740740744],[-0.02010416666666662,-0.4601851851851852],[-0.025937499999999978,-0.4746296296296296],[-0.030729166666666665,-0.4831481481481481],[-0.02635416666666662,-0.4762962962962963],[-0.02635416666666662,-0.4762962962962963],[-0.016354166666666715,-0.47481481481481475],[0.009583333333333381,-0.432962962962963],[0.04708333333333338,-0.36944444444444446],[0.06333333333333328,-0.2933333333333333],[0.06572916666666669,-0.2198148148148148],[0.06906249999999996,-0.1668518518518519],[0.04500000000000005,-0.14981481481481476],[0.05281250000000005,-0.09462962962962967],[0.05552083333333328,-0.09185185185185189],[0.034375,-0.08611111111111111],[0.050312499999999954,-0.0301851851851851],[0.04125000000000002,-0.007592592592592635],[0.010104166666666714,-0.0338888888888888],[0.010104166666666714,-0.0338888888888888],[-0.021041666666666715,-0.06018518518518518],[-0.05333333333333338,-0.07037037037037037],[-0.14812500000000003,-0.1227777777777778],[-0.22312500000000005,-0.1427777777777778],[-0.268125,-0.15685185185185183],[-0.268125,-0.15685185185185183],[-0.3225,-0.125],[-0.37833333333333335,-0.10611111111111113],[-0.46291666666666664,-0.12296296296296293],[-0.5429166666666667,-0.1361111111111111],[-0.6084375000000001,-0.14018518518518516],[-0.6741666666666667,-0.14425925925925923],[-0.6741666666666667,-0.14425925925925923],[-0.6806249999999999,-0.14203703703703702],[-0.69125,-0.12740740740740744],[-0.7026041666666667,-0.10740740740740741],[-0.7380208333333333,-0.11722222222222224],[-0.750625,-0.09018518518518516],[-0.6729166666666667,-0.09370370370370375],[-0.6729166666666667,-0.09370370370370375],[-0.6035416666666666,-0.11166666666666669],[-0.5717708333333333,-0.1361111111111111],[-0.4746875,-0.1331481481481481],[-0.37739583333333326,-0.1301851851851852],[-0.37739583333333326,-0.1301851851851852],[-0.3132291666666667,-0.18351851851851855],[-0.18854166666666666,-0.20851851851851855],[-0.0703125,-0.23629629629629634],[0.057604166666666616,-0.24296296296296294],[0.057604166666666616,-0.24296296296296294],[0.14072916666666657,-0.2868518518518518],[0.16937499999999991,-0.2972222222222222],[0.1931250000000001,-0.3301851851851852],[0.25447916666666665,-0.3566666666666667],[0.25447916666666665,-0.3566666666666667],[0.25770833333333343,-0.4168518518518519],[0.2609375,-0.4770370370370371],[0.2443749999999999,-0.4896296296296296],[0.2443749999999999,-0.4896296296296296],[0.23927083333333338,-0.5001851851851852],[0.23927083333333338,-0.5001851851851852],[0.24177083333333324,-0.51],[0.24177083333333324,-0.51],[0.24552083333333338,-0.534074074074074],[0.23427083333333343,-0.5231481481481481],[0.21875,-0.5309259259259259],[0.21875,-0.5309259259259259],[0.20499999999999996,-0.5368518518518518],[0.1865624999999999,-0.5377777777777777],[0.1865624999999999,-0.5377777777777777],[0.17645833333333344,-0.4837037037037037],[0.1664583333333333,-0.45259259259259255],[0.1664583333333333,-0.45259259259259255],[0.19697916666666657,-0.40703703703703703],[0.1898958333333333,-0.3425925925925926],[0.19000000000000009,-0.277962962962963],[0.16885416666666658,-0.20907407407407402],[0.19916666666666671,-0.16833333333333328],[0.21395833333333342,-0.125],[0.23187499999999991,-0.06092592592592588],[0.25031249999999994,-0.01907407407407399],[0.2665625000000001,-0.01574074074074074],[0.28125,0.03481481481481473],[0.2660416666666668,0.06518518518518526],[0.2660416666666668,0.06518518518518526],[0.2526041666666667,0.044999999999999915],[0.2587500000000001,0.03314814814814811],[0.27468750000000003,0.022592592592592678],[0.2660416666666668,0.006666666666666709],[0.2660416666666668,0.006666666666666709],[0.25750000000000006,-0.0014814814814813973],[0.26062500000000005,-0.034074074074074034],[0.2921875,0.011296296296296339]]","[[0.2553124999999999,0.001851851851851852,0.0002999999821184929],[0.2553124999999999,0.001851851851851852,0.05359999999403442],[0.2713541666666667,0.0625925925925925,0.07500000000000284],[0.2713541666666667,0.0625925925925925,0.08319999998808214],[0.25770833333333343,0.08796296296296297,0.10959999999404602],[0.25770833333333343,0.08796296296296297,0.11759999999404158],[0.27197916666666655,0.1551851851851851,0.14519999998807975],[0.27197916666666655,0.1551851851851851,0.1518999999761519],[0.22208333333333338,0.18481481481481474,0.17719999998807623],[0.22208333333333338,0.18481481481481474,0.18589999997615791],[0.16062500000000005,0.18351851851851855,0.20999999999999375],[0.16062500000000005,0.18351851851851855,0.21889999997615917],[0.12750000000000009,0.18111111111111103,0.24259999999404158],[0.12750000000000009,0.18111111111111103,0.24989999997616508],[0.11041666666666666,0.16074074074074066,0.2747999999821218],[0.11041666666666666,0.16074074074074066,0.2856999999880827],[0.13177083333333334,0.15907407407407403,0.3118999999761627],[0.13177083333333334,0.15907407407407403,0.3192999999821211],[0.12770833333333323,0.1587037037037038,0.3428999999761544],[0.12770833333333323,0.1587037037037038,0.3580000000000041],[0.09145833333333328,0.19222222222222213,0.37629999998212327],[0.09145833333333328,0.19222222222222213,0.3884999999999934],[0.07020833333333343,0.22407407407407406,0.4116999999880733],[0.07020833333333343,0.22407407407407406,0.4195999999940341],[0.060104166666666715,0.22148148148148153,0.44299999999999784],[0.060104166666666715,0.22148148148148153,0.4503999999761561],[0.025729166666666713,0.22444444444444453,0.48079999998212486],[0.025729166666666713,0.22444444444444453,0.4893999999761576],[0.012083333333333357,0.16592592592592598,0.5107999999821118],[0.012083333333333357,0.16592592592592598,0.5185999999940378],[0.003333333333333381,0.12074074074074083,0.5465999999940436],[0.003333333333333381,0.12074074074074083,0.5535999999940344],[0.016770833333333356,0.06888888888888897,0.5761999999880771],[0.016770833333333356,0.06888888888888897,0.5856999999880799],[0.018124999999999978,0.04666666666666675,0.6115999999940414],[0.018124999999999978,0.04666666666666675,0.6219999999999999],[0.015625,0.025,0.6452999999821145],[0.015625,0.025,0.653499999999994],[-0.003854166666666714,0.004814814814814857,0.6803999999761601],[-0.003854166666666714,0.004814814814814857,0.6887999999821233],[-0.00302083333333331,-0.03740740740740749,0.7127999999821242],[-0.00302083333333331,-0.03740740740740749,0.720599999994036],[-0.043229166666666666,-0.1175925925925926,0.745299999982123],[-0.043229166666666666,-0.1175925925925926,0.7533999999761534],[-0.019166666666666644,-0.13499999999999995,0.7767999999821171],[-0.019166666666666644,-0.13499999999999995,0.7901999999880758],[-0.030624999999999975,-0.15166666666666662,0.8144999999999953],[-0.030624999999999975,-0.15166666666666662,0.8228999999761584],[-0.030624999999999975,-0.15166666666666662,0.8255000000000052],[-0.03322916666666664,-0.1388888888888889,0.8593999999761621],[-0.03322916666666664,-0.1388888888888889,0.8760000000000048],[0.005312500000000024,-0.13351851851851856,0.894999999999996],[0.005312500000000024,-0.13351851851851856,0.9023999999761543],[-0.005624999999999976,-0.1301851851851852,0.9280999999940462],[-0.005624999999999976,-0.1301851851851852,0.9348999999761531],[0.02385416666666664,-0.13037037037037033,0.9593999999761564],[0.02385416666666664,-0.13037037037037033,0.9691999999880778],[0.03583333333333331,-0.13518518518518519,0.9946999999880859],[0.03583333333333331,-0.13518518518518519,1.0024999999999977],[0.03583333333333331,-0.13518518518518519,1.0075999999940422],[0.03583333333333331,-0.13518518518518519,1.0250999999940404],[0.09020833333333324,-0.1868518518518518,1.0637999999821233],[0.09020833333333324,-0.1868518518518518,1.0712999999821164],[0.17697916666666677,-0.2035185185185185,1.0937999999821244],[0.17697916666666677,-0.2035185185185185,1.1000999999940433],[0.29812500000000003,-0.16944444444444445,1.1298999999761605],[0.29812500000000003,-0.16944444444444445,1.1370000000000005],[0.35739583333333325,-0.18870370370370365,1.1592999999821245],[0.35739583333333325,-0.18870370370370365,1.1663999999761643],[0.4197916666666667,-0.24314814814814817,1.1931999999880816],[0.4197916666666667,-0.24314814814814817,1.2002999999821213],[0.4887500000000001,-0.22999999999999998,1.2287999999821153],[0.4887500000000001,-0.22999999999999998,1.2361999999880737],[0.5143749999999999,-0.22240740740740744,1.2601999999880746],[0.5143749999999999,-0.22240740740740744,1.267699999988082],[0.5330208333333334,-0.24833333333333338,1.291599999994034],[0.5330208333333334,-0.24833333333333338,1.2991999999880761],[0.510625,-0.24222222222222226,1.3266999999880795],[0.510625,-0.24222222222222226,1.3349999999999937],[0.5168750000000001,-0.24370370370370376,1.3596999999880808],[0.5168750000000001,-0.24370370370370376,1.366500000000002],[0.49249999999999994,-0.21592592592592597,1.3965000000000032],[0.49249999999999994,-0.21592592592592597,1.4046999999880825],[0.48854166666666665,-0.2264814814814815,1.42739999997616],[0.48854166666666665,-0.2264814814814815,1.4341999999880812],[0.5212500000000001,-0.23129629629629625,1.4635999999940452],[0.5212500000000001,-0.23129629629629625,1.4707999999821197],[0.4680208333333333,-0.25277777777777777,1.4933999999761625],[0.4680208333333333,-0.25277777777777777,1.5],[0.4423958333333334,-0.25462962962962965,1.5287999999821125],[0.4423958333333334,-0.25462962962962965,1.538499999999999],[0.4653125000000001,-0.2564814814814815,1.5621999999880813],[0.4653125000000001,-0.2564814814814815,1.570199999988077],[0.5038541666666667,-0.26481481481481484,1.5942999999821126],[0.5038541666666667,-0.26481481481481484,1.6016999999880852],[0.5038541666666667,-0.26481481481481484,1.6075999999940365],[0.5038541666666667,-0.26481481481481484,1.6252999999821185],[0.5227083333333333,-0.22148148148148153,1.6597999999821127],[0.5227083333333333,-0.22148148148148153,1.666599999994034],[0.5227083333333333,-0.22148148148148153,1.674299999982125],[0.5710416666666667,-0.23555555555555555,1.7081999999880821],[0.5710416666666667,-0.23555555555555555,1.7191999999880778],[0.5570833333333333,-0.26740740740740737,1.7432999999821135],[0.5570833333333333,-0.26740740740740737,1.7503999999761533],[0.5914583333333333,-0.25333333333333335,1.7766999999880824],[0.5914583333333333,-0.25333333333333335,1.7902999999821247],[0.6018749999999999,-0.2235185185185185,1.812399999976165],[0.6018749999999999,-0.2235185185185185,1.8200999999940422],[0.5654166666666666,-0.2309259259259259,1.8438999999761592],[0.5654166666666666,-0.2309259259259259,1.8520000000000039],[0.5654166666666666,-0.2309259259259259,1.8576999999880854],[0.5654166666666666,-0.2309259259259259,1.8751999999880837],[0.5782291666666666,-0.17555555555555558,1.9085999999940384],[0.5782291666666666,-0.17555555555555558,1.9171999999880853],[0.5782291666666666,-0.17555555555555558,1.924299999982125],[0.5782291666666666,-0.17555555555555558,1.9417999999821234],[0.5563541666666666,-0.15240740740740744,1.979099999994034],[0.5563541666666666,-0.15240740740740744,1.9893999999761576],[0.5563541666666666,-0.15240740740740744,1.99289999997616],[0.4627083333333334,-0.127962962962963,2.0266999999880824],[0.4627083333333334,-0.127962962962963,2.034000000000006],[0.35135416666666663,-0.11351851851851855,2.0619999999999976],[0.35135416666666663,-0.11351851851851855,2.0696999999880745],[0.2103125000000001,-0.12314814814814815,2.093999999999994],[0.2103125000000001,-0.12314814814814815,2.1015000000000015],[0.11260416666666657,-0.09981481481481477,2.1269999999999953],[0.11260416666666657,-0.09981481481481477,2.136499999999998],[0.013854166666666619,-0.05555555555555555,2.1599999999999966],[0.013854166666666619,-0.05555555555555555,2.1668999999761525],[-0.0984375,-0.026481481481481398,2.193599999994035],[-0.0984375,-0.026481481481481398,2.2006999999880748],[-0.19583333333333333,-0.013333333333333417,2.229099999994034],[-0.19583333333333333,-0.013333333333333417,2.2363999999761575],[-0.19583333333333333,-0.013333333333333417,2.241699999988086],[-0.2582291666666666,0.055740740740740785,2.2765999999940334],[-0.2582291666666666,0.055740740740740785,2.2890000000000015],[-0.2582291666666666,0.055740740740740785,2.291599999994034],[-0.3147916666666667,0.09499999999999992,2.326399999976161],[-0.3147916666666667,0.09499999999999992,2.333299999982117],[-0.3607291666666666,0.14166666666666666,2.3599999999999994],[-0.3607291666666666,0.14166666666666666,2.3668999999761553],[-0.32843749999999994,0.11648148148148144,2.3953999999761635],[-0.32843749999999994,0.11648148148148144,2.4022999999821195],[-0.32843749999999994,0.11648148148148144,2.4075999999940336],[-0.32843749999999994,0.11648148148148144,2.4431999999880816],[-0.28875000000000006,0.122037037037037,2.4599999999999937],[-0.28875000000000006,0.122037037037037,2.469799999982115],[-0.15979166666666664,0.12074074074074083,2.496199999988079],[-0.15979166666666664,0.12074074074074083,2.5033999999761534],[-0.043437500000000046,0.12685185185185185,2.5266999999880824],[-0.043437500000000046,0.12685185185185185,2.534499999999994],[0.08854166666666667,0.15240740740740732,2.5645999999940443],[0.08854166666666667,0.15240740740740732,2.5730999999940423],[0.1696875000000001,0.10833333333333334,2.5937999999821244],[0.1696875000000001,0.10833333333333334,2.6006999999880804],[0.25,0.06407407407407412,2.6267999999821257],[0.25,0.06407407407407412,2.636499999999998],[0.25,0.06407407407407412,2.6407999999821214],[0.25,0.06407407407407412,2.6591999999880755],[0.29583333333333334,-0.02629629629629638,2.6954999999999956],[0.29583333333333334,-0.02629629629629638,2.705099999994033],[0.36781249999999993,-0.10462962962962963,2.729199999988083],[0.36781249999999993,-0.10462962962962963,2.7362999999821227],[0.46416666666666656,-0.1668518518518519,2.7635999999940424],[0.46416666666666656,-0.1668518518518519,2.7717999999821217],[0.48895833333333344,-0.1853703703703704,2.7933999999761596],[0.48895833333333344,-0.1853703703703704,2.8018999999761576],[0.5279166666666666,-0.21944444444444444,2.8296999999880796],[0.5279166666666666,-0.21944444444444444,2.8363999999761518],[0.5448958333333332,-0.22740740740740742,2.8598999999761645],[0.5448958333333332,-0.22740740740740742,2.868099999994044],[0.5304166666666668,-0.26129629629629636,2.895799999982117],[0.5304166666666668,-0.26129629629629636,2.903399999976159],[0.49979166666666663,-0.3066666666666667,2.926699999988074],[0.49979166666666663,-0.3066666666666667,2.93339999997616],[0.5179166666666667,-0.2705555555555556,2.958199999988082],[0.5179166666666667,-0.2705555555555556,2.9683999999761568],[0.5344791666666666,-0.26129629629629636,2.9931999999880787],[0.5344791666666666,-0.26129629629629636,2.999799999982116],[0.5645833333333333,-0.2175925925925926,3.024799999982122],[0.5645833333333333,-0.2175925925925926,3.032299999982115],[0.5569791666666667,-0.18481481481481485,3.0605999999940394],[0.5569791666666667,-0.18481481481481485,3.0681999999880816],[0.5569791666666667,-0.18481481481481485,3.0742999999821166],[0.5569791666666667,-0.18481481481481485,3.091899999976164],[0.4527083333333332,-0.14481481481481479,3.126599999994042],[0.4527083333333332,-0.14481481481481479,3.135000000000005],[0.4527083333333332,-0.14481481481481479,3.1410000000000053],[0.35427083333333326,-0.11981481481481479,3.174999999999997],[0.35427083333333326,-0.11981481481481479,3.1868999999761627],[0.35427083333333326,-0.11981481481481479,3.1910999999940373],[0.35427083333333326,-0.11981481481481479,3.208500000000001],[0.2747916666666666,-0.05648148148148148,3.2432999999821135],[0.2747916666666666,-0.05648148148148148,3.251599999994042],[0.1538541666666667,-0.014074074074074116,3.274799999982122],[0.1538541666666667,-0.014074074074074116,3.285399999976164],[0.051250000000000046,0.04462962962962967,3.3121999999880813],[0.051250000000000046,0.04462962962962967,3.3203999999761606],[-0.07364583333333338,0.08203703703703695,3.3436999999880754],[-0.07364583333333338,0.08203703703703695,3.350999999999999],[-0.1883333333333333,0.09444444444444444,3.3767999999821257],[-0.1883333333333333,0.09444444444444444,3.3884999999999863],[-0.29750000000000004,0.11055555555555564,3.4100999999940385],[-0.29750000000000004,0.11055555555555564,3.417199999988078],[-0.4048958333333334,0.13962962962962958,3.4415999999940325],[-0.4048958333333334,0.13962962962962958,3.4506999999880676],[-0.49333333333333335,0.15703703703703695,3.479999999999997],[-0.49333333333333335,0.15703703703703695,3.4980999999940323],[-0.5125,0.14222222222222214,3.512099999994028],[-0.5125,0.14222222222222214,3.523699999988075],[-0.5161458333333333,0.17685185185185184,3.543199999988069],[-0.5161458333333333,0.17685185185185184,3.5520999999940344],[-0.5161458333333333,0.17685185185185184,3.557599999994032],[-0.5161458333333333,0.17685185185185184,3.5759999999999863],[-0.5145833333333333,0.14351851851851852,3.609599999994039],[-0.5145833333333333,0.14351851851851852,3.6181999999880716],[-0.4192708333333333,0.1381481481481482,3.6451999999880726],[-0.4192708333333333,0.1381481481481482,3.6528999999761496],[-0.3940624999999999,0.15759259259259265,3.677499999999988],[-0.3940624999999999,0.15759259259259265,3.6879999999999953],[-0.303125,0.17018518518518513,3.709699999988068],[-0.303125,0.17018518518518513,3.719699999988073],[-0.303125,0.17018518518518513,3.724299999982115],[-0.2358333333333333,0.18185185185185193,3.76069999998807],[-0.2358333333333333,0.18185185185185193,3.7686999999880655],[-0.2358333333333333,0.18185185185185193,3.7741999999880775],[-0.2358333333333333,0.18185185185185193,3.7917999999821106],[-0.16031249999999997,0.22240740740740744,3.824799999982112],[-0.16031249999999997,0.22240740740740744,3.8327999999821074],[-0.06322916666666671,0.22685185185185186,3.8582999999821155],[-0.06322916666666671,0.22685185185185186,3.8667999999821134],[-0.015104166666666667,0.2300000000000001,3.8952999999821074],[-0.015104166666666667,0.2300000000000001,3.903199999988068],[0.05635416666666669,0.25925925925925924,3.9261999999880786],[0.05635416666666669,0.25925925925925924,3.9339999999999904],[0.1625,0.26592592592592595,3.9595999999940332],[0.1625,0.26592592592592595,3.968499999999999],[0.1625,0.26592592592592595,3.97439999997615],[0.1625,0.26592592592592595,3.991899999976148],[0.20833333333333334,0.2803703703703703,4.024799999982115],[0.20833333333333334,0.2803703703703703,4.033099999994029],[0.2171875,0.31925925925925924,4.061699999988072],[0.2171875,0.31925925925925924,4.06909999999403],[0.2627083333333334,0.3257407407407407,4.093999999999987],[0.2627083333333334,0.3257407407407407,4.100699999988073],[0.27791666666666665,0.3375925925925925,4.124999999999993],[0.27791666666666665,0.3375925925925925,4.132199999988067],[0.3145833333333333,0.3477777777777777,4.158099999994029],[0.3145833333333333,0.3477777777777777,4.165199999988069],[0.30020833333333335,0.32444444444444454,4.1915999999940325],[0.30020833333333335,0.32444444444444454,4.199599999994028],[0.29354166666666665,0.3416666666666667,4.2270999999940315],[0.29354166666666665,0.3416666666666667,4.234599999994039],[0.29354166666666665,0.3416666666666667,4.240899999976158],[0.29354166666666665,0.3416666666666667,4.258499999999991],[0.3006249999999999,0.35537037037037034,4.291599999994027],[0.3006249999999999,0.35537037037037034,4.299399999976153],[0.3224999999999999,0.38870370370370366,4.325899999976151],[0.3224999999999999,0.38870370370370366,4.332599999994038],[0.29031250000000003,0.4053703703703703,4.3581999999880665],[0.29031250000000003,0.4053703703703703,4.365399999976155],[0.3243750000000001,0.4414814814814814,4.393899999976149],[0.3243750000000001,0.4414814814814814,4.400899999976154],[0.3243750000000001,0.4414814814814814,4.4075999999940265],[0.3243750000000001,0.4414814814814814,4.425199999988074],[0.31010416666666674,0.4668518518518519,4.459399999976149],[0.31010416666666674,0.4668518518518519,4.468799999982117],[0.31010416666666674,0.4668518518518519,4.474299999982115],[0.31010416666666674,0.4668518518518519,4.510899999976154],[0.2660416666666668,0.3785185185185185,4.526199999988073],[0.2660416666666668,0.3785185185185185,4.533199999988078],[0.22218749999999995,0.2996296296296295,4.564099999994035],[0.22218749999999995,0.2996296296296295,4.572999999999986],[0.2009375000000001,0.21388888888888888,4.593599999994034],[0.2009375000000001,0.21388888888888888,4.600199999988071],[0.2185416666666666,0.15592592592592602,4.629399999976151],[0.2185416666666666,0.15592592592592602,4.636899999976144],[0.21354166666666666,0.09611111111111106,4.659399999976152],[0.21354166666666666,0.09611111111111106,4.66599999999999],[0.22177083333333342,0.040740740740740744,4.694599999994033],[0.22177083333333342,0.040740740740740744,4.702199999988075],[0.2381249999999999,-0.06611111111111109,4.728699999988073],[0.2381249999999999,-0.06611111111111109,4.735299999982111],[0.23302083333333337,-0.1307407407407408,4.762399999976147],[0.23302083333333337,-0.1307407407407408,4.769899999976154],[0.18875000000000006,-0.2222222222222222,4.792799999982115],[0.18875000000000006,-0.2222222222222222,4.802199999988069],[0.18875000000000006,-0.2222222222222222,4.807599999994032],[0.18875000000000006,-0.2222222222222222,4.844099999994036],[0.21458333333333332,-0.325,4.859599999994039],[0.21458333333333332,-0.325,4.86659999999403],[0.2716666666666666,-0.3022222222222222,4.897199999988068],[0.2716666666666666,-0.3022222222222222,4.904299999982108],[0.32041666666666657,-0.25833333333333336,4.92609999999403],[0.32041666666666657,-0.25833333333333336,4.933299999982118],[0.33145833333333335,-0.18555555555555553,4.964099999994026],[0.33145833333333335,-0.18555555555555553,4.971799999982117],[0.3349999999999999,-0.15703703703703706,4.992899999976153],[0.3349999999999999,-0.15703703703703706,4.999199999988072],[0.36041666666666666,-0.1557407407407408,5.027799999982115],[0.36041666666666666,-0.1557407407407408,5.037599999994036],[0.36041666666666666,-0.1557407407407408,5.04099999999999],[0.36041666666666666,-0.1557407407407408,5.0611999999880695],[0.3871875000000001,-0.18222222222222217,5.0942999999821055],[0.3871875000000001,-0.18222222222222217,5.101599999994029],[0.4053124999999999,-0.16166666666666668,5.126099999994032],[0.4053124999999999,-0.16166666666666668,5.1351999999880675],[0.4427083333333333,-0.2918518518518519,5.161099999994029],[0.4427083333333333,-0.2918518518518519,5.168199999988069],[0.415625,-0.33055555555555555,5.191699999988067],[0.415625,-0.33055555555555555,5.198499999999989],[0.34041666666666665,-0.3794444444444444,5.230699999988069],[0.34041666666666665,-0.3794444444444444,5.237399999976155],[0.2681250000000001,-0.4007407407407407,5.25959999999403],[0.2681250000000001,-0.4007407407407407,5.266199999988068],[0.21822916666666667,-0.4498148148148148,5.29699999999999],[0.21822916666666667,-0.4498148148148148,5.3034999999999926],[0.21822916666666667,-0.4498148148148148,5.307799999982116],[0.21822916666666667,-0.4498148148148148,5.325599999994033],[0.18895833333333342,-0.5498148148148148,5.359799999982108],[0.18895833333333342,-0.5498148148148148,5.366799999982113],[0.18895833333333342,-0.5498148148148148,5.374399999976156],[0.18895833333333342,-0.5498148148148148,5.4100999999940385],[0.17312500000000006,-0.5659259259259259,5.427],[0.17312500000000006,-0.5659259259259259,5.433699999988072],[0.04802083333333336,-0.58,5.463899999976157],[0.04802083333333336,-0.58,5.471099999994031],[-0.0171875,-0.5688888888888889,5.493299999982106],[-0.0171875,-0.5688888888888889,5.500099999994028],[-0.011354166666666643,-0.5524074074074075,5.528199999988068],[-0.011354166666666643,-0.5524074074074075,5.537399999976152],[-0.09510416666666661,-0.4607407407407408,5.562599999994028],[-0.09510416666666661,-0.4607407407407408,5.569599999994033],[-0.07562500000000003,-0.43277777777777776,5.593699999988068],[-0.07562500000000003,-0.43277777777777776,5.600299999982106],[-0.06697916666666662,-0.4131481481481482,5.630499999999991],[-0.06697916666666662,-0.4131481481481482,5.637299999982112],[-0.06697916666666662,-0.4131481481481482,5.641099999994033],[-0.06697916666666662,-0.4131481481481482,5.658599999994031],[-0.03229166666666667,-0.415925925925926,5.699199999988075],[-0.03229166666666667,-0.415925925925926,5.70829999998211],[-0.036666666666666715,-0.4103703703703704,5.724599999994034],[-0.036666666666666715,-0.37351851851851847,5.7495999999940395],[-0.036666666666666715,-0.37351851851851847,5.757599999994035],[-0.04874999999999995,-0.3646296296296296,5.774499999999996],[0.02666666666666669,-0.384074074074074,5.792699999988066],[0.04718749999999995,-0.39148148148148143,5.81419999998807],[0.04718749999999995,-0.39148148148148143,5.8242999999821095],[-0.010104166666666714,-0.43407407407407406,5.841199999988071],[0.0421875,-0.432962962962963,5.859299999982106],[0.050833333333333286,-0.4301851851851852,5.880499999999991],[0.050833333333333286,-0.4301851851851852,5.890999999999998],[0.03812500000000003,-0.4131481481481482,5.90779999998211],[0.03812500000000003,-0.4131481481481482,5.927],[0.010000000000000024,-0.40314814814814814,5.9407999999821115],[0.003333333333333381,-0.40777777777777774,5.957699999988073],[-0.02333333333333331,-0.41500000000000004,5.974099999994031],[-0.00916666666666662,-0.41518518518518516,5.993099999994037],[0.004270833333333357,-0.39537037037037037,6.009499999999996],[-0.010625000000000048,-0.40425925925925926,6.026599999994026],[-0.029270833333333357,-0.39092592592592595,6.043599999994036],[-0.04635416666666667,-0.3881481481481482,6.061599999994037],[-0.06416666666666669,-0.38333333333333336,6.077699999988077],[-0.06416666666666669,-0.38333333333333336,6.090799999982117],[-0.05635416666666669,-0.38185185185185183,6.107599999994029],[-0.04656250000000005,-0.4044444444444444,6.124299999982107],[-0.05333333333333338,-0.4083333333333333,6.140799999982114],[-0.03885416666666662,-0.42481481481481476,6.158699999988066],[-0.06104166666666669,-0.4653703703703704,6.174299999982118],[-0.0515625,-0.47240740740740744,6.192399999976153],[-0.02010416666666662,-0.4601851851851852,6.207799999982107],[-0.025937499999999978,-0.4746296296296296,6.224199999988066],[-0.030729166666666665,-0.4831481481481481,6.242199999988067],[-0.02635416666666662,-0.4762962962962963,6.257499999999986],[-0.02635416666666662,-0.4762962962962963,6.274399999976147],[-0.016354166666666715,-0.47481481481481475,6.29099999999999],[0.009583333333333381,-0.432962962962963,6.307599999994032],[0.04708333333333338,-0.36944444444444446,6.326799999982107],[0.06333333333333328,-0.2933333333333333,6.340899999976152],[0.06572916666666669,-0.2198148148148148,6.357699999988078],[0.06906249999999996,-0.1668518518518519,6.374199999988072],[0.04500000000000005,-0.14981481481481476,6.390799999982114],[0.05281250000000005,-0.09462962962962967,6.408799999982115],[0.05552083333333328,-0.09185185185185189,6.424299999982118],[0.034375,-0.08611111111111111,6.4407999999821115],[0.050312499999999954,-0.0301851851851851,6.457499999999989],[0.04125000000000002,-0.007592592592592635,6.474099999994031],[0.010104166666666714,-0.0338888888888888,6.493699999988074],[0.010104166666666714,-0.0338888888888888,6.507499999999986],[-0.021041666666666715,-0.06018518518518518,6.524299999982112],[-0.05333333333333338,-0.07037037037037037,6.541299999982108],[-0.14812500000000003,-0.1227777777777778,6.557499999999997],[-0.22312500000000005,-0.1427777777777778,6.575399999976149],[-0.268125,-0.15685185185185183,6.592699999988078],[-0.268125,-0.15685185185185183,6.607599999994029],[-0.3225,-0.125,6.624099999994037],[-0.37833333333333335,-0.10611111111111113,6.640899999976149],[-0.46291666666666664,-0.12296296296296293,6.659599999994036],[-0.5429166666666667,-0.1361111111111111,6.674099999994034],[-0.6084375000000001,-0.14018518518518516,6.693299999982109],[-0.6741666666666667,-0.14425925925925923,6.712999999999987],[-0.6741666666666667,-0.14425925925925923,6.724199999988066],[-0.6806249999999999,-0.14203703703703702,6.741099999994027],[-0.69125,-0.12740740740740744,6.757499999999986],[-0.7026041666666667,-0.10740740740740741,6.776399999976157],[-0.7380208333333333,-0.11722222222222224,6.796299999982118],[-0.750625,-0.09018518518518516,6.811699999988072],[-0.6729166666666667,-0.09370370370370375,6.827899999976147],[-0.6729166666666667,-0.09370370370370375,6.840999999999987],[-0.6035416666666666,-0.11166666666666669,6.860299999982111],[-0.5717708333333333,-0.1361111111111111,6.874399999976156],[-0.4746875,-0.1331481481481481,6.894799999982105],[-0.37739583333333326,-0.1301851851851852,6.910399999976157],[-0.37739583333333326,-0.1301851851851852,6.924199999988069],[-0.3132291666666667,-0.18351851851851855,6.940899999976146],[-0.18854166666666666,-0.20851851851851855,6.957499999999989],[-0.0703125,-0.23629629629629634,6.974199999988066],[0.057604166666666616,-0.24296296296296294,6.993799999982109],[0.057604166666666616,-0.24296296296296294,7.007599999994035],[0.14072916666666657,-0.2868518518518518,7.024299999982112],[0.16937499999999991,-0.2972222222222222,7.040799999982106],[0.1931250000000001,-0.3301851851851852,7.057599999994032],[0.25447916666666665,-0.3566666666666667,7.075299999982114],[0.25447916666666665,-0.3566666666666667,7.090899999976152],[0.25770833333333343,-0.4168518518518519,7.107699999988078],[0.2609375,-0.4770370370370371,7.124899999976158],[0.2443749999999999,-0.4896296296296296,7.147799999982105],[0.2443749999999999,-0.4896296296296296,7.1576999999880755],[0.23927083333333338,-0.5001851851851852,7.174399999976153],[0.23927083333333338,-0.5001851851851852,7.19109999999403],[0.24177083333333324,-0.51,7.212599999994033],[0.24177083333333324,-0.51,7.22439999997615],[0.24552083333333338,-0.534074074074074,7.2409999999999926],[0.23427083333333343,-0.5231481481481481,7.263199999988068],[0.21875,-0.5309259259259259,7.277799999982115],[0.21875,-0.5309259259259259,7.291199999988073],[0.20499999999999996,-0.5368518518518518,7.307799999982116],[0.1865624999999999,-0.5377777777777777,7.328799999982117],[0.1865624999999999,-0.5377777777777777,7.341099999994036],[0.17645833333333344,-0.4837037037037037,7.357699999988078],[0.1664583333333333,-0.45259259259259255,7.374399999976156],[0.1664583333333333,-0.45259259259259255,7.3944999999999865],[0.19697916666666657,-0.40703703703703703,7.40779999998211],[0.1898958333333333,-0.3425925925925926,7.424299999982118],[0.19000000000000009,-0.277962962962963,7.440999999999995],[0.16885416666666658,-0.20907407407407402,7.457899999976156],[0.19916666666666671,-0.16833333333333328,7.474199999988066],[0.21395833333333342,-0.125,7.493299999982106],[0.23187499999999991,-0.06092592592592588,7.507599999994035],[0.25031249999999994,-0.01907407407407399,7.526199999988073],[0.2665625000000001,-0.01574074074074074,7.540899999976155],[0.28125,0.03481481481481473,7.561099999994035],[0.2660416666666668,0.06518518518518526,7.58029999998211],[0.2660416666666668,0.06518518518518526,7.590999999999987],[0.2526041666666667,0.044999999999999915,7.607799999982113],[0.2587500000000001,0.03314814814814811,7.624299999982107],[0.27468750000000003,0.022592592592592678,7.644799999982105],[0.2660416666666668,0.006666666666666709,7.660999999999994],[0.2660416666666668,0.006666666666666709,7.674199999988069],[0.25750000000000006,-0.0014814814814813973,7.690999999999995],[0.26062500000000005,-0.034074074074074034,7.7123999999761494],[0.2921875,0.011296296296296339,7.728199999988071]]","[0.0002999999821184929,0.05359999999403442,0.07500000000000284,0.08319999998808214,0.10959999999404602,0.11759999999404158,0.14519999998807975,0.1518999999761519,0.17719999998807623,0.18589999997615791,0.20999999999999375,0.21889999997615917,0.24259999999404158,0.24989999997616508,0.2747999999821218,0.2856999999880827,0.3118999999761627,0.3192999999821211,0.3428999999761544,0.3580000000000041,0.37629999998212327,0.3884999999999934,0.4116999999880733,0.4195999999940341,0.44299999999999784,0.4503999999761561,0.48079999998212486,0.4893999999761576,0.5107999999821118,0.5185999999940378,0.5465999999940436,0.5535999999940344,0.5761999999880771,0.5856999999880799,0.6115999999940414,0.6219999999999999,0.6452999999821145,0.653499999999994,0.6803999999761601,0.6887999999821233,0.7127999999821242,0.720599999994036,0.745299999982123,0.7533999999761534,0.7767999999821171,0.7901999999880758,0.8144999999999953,0.8228999999761584,0.8255000000000052,0.8593999999761621,0.8760000000000048,0.894999999999996,0.9023999999761543,0.9280999999940462,0.9348999999761531,0.9593999999761564,0.9691999999880778,0.9946999999880859,1.0024999999999977,1.0075999999940422,1.0250999999940404,1.0637999999821233,1.0712999999821164,1.0937999999821244,1.1000999999940433,1.1298999999761605,1.1370000000000005,1.1592999999821245,1.1663999999761643,1.1931999999880816,1.2002999999821213,1.2287999999821153,1.2361999999880737,1.2601999999880746,1.267699999988082,1.291599999994034,1.2991999999880761,1.3266999999880795,1.3349999999999937,1.3596999999880808,1.366500000000002,1.3965000000000032,1.4046999999880825,1.42739999997616,1.4341999999880812,1.4635999999940452,1.4707999999821197,1.4933999999761625,1.5,1.5287999999821125,1.538499999999999,1.5621999999880813,1.570199999988077,1.5942999999821126,1.6016999999880852,1.6075999999940365,1.6252999999821185,1.6597999999821127,1.666599999994034,1.674299999982125,1.7081999999880821,1.7191999999880778,1.7432999999821135,1.7503999999761533,1.7766999999880824,1.7902999999821247,1.812399999976165,1.8200999999940422,1.8438999999761592,1.8520000000000039,1.8576999999880854,1.8751999999880837,1.9085999999940384,1.9171999999880853,1.924299999982125,1.9417999999821234,1.979099999994034,1.9893999999761576,1.99289999997616,2.0266999999880824,2.034000000000006,2.0619999999999976,2.0696999999880745,2.093999999999994,2.1015000000000015,2.1269999999999953,2.136499999999998,2.1599999999999966,2.1668999999761525,2.193599999994035,2.2006999999880748,2.229099999994034,2.2363999999761575,2.241699999988086,2.2765999999940334,2.2890000000000015,2.291599999994034,2.326399999976161,2.333299999982117,2.3599999999999994,2.3668999999761553,2.3953999999761635,2.4022999999821195,2.4075999999940336,2.4431999999880816,2.4599999999999937,2.469799999982115,2.496199999988079,2.5033999999761534,2.5266999999880824,2.534499999999994,2.5645999999940443,2.5730999999940423,2.5937999999821244,2.6006999999880804,2.6267999999821257,2.636499999999998,2.6407999999821214,2.6591999999880755,2.6954999999999956,2.705099999994033,2.729199999988083,2.7362999999821227,2.7635999999940424,2.7717999999821217,2.7933999999761596,2.8018999999761576,2.8296999999880796,2.8363999999761518,2.8598999999761645,2.868099999994044,2.895799999982117,2.903399999976159,2.926699999988074,2.93339999997616,2.958199999988082,2.9683999999761568,2.9931999999880787,2.999799999982116,3.024799999982122,3.032299999982115,3.0605999999940394,3.0681999999880816,3.0742999999821166,3.091899999976164,3.126599999994042,3.135000000000005,3.1410000000000053,3.174999999999997,3.1868999999761627,3.1910999999940373,3.208500000000001,3.2432999999821135,3.251599999994042,3.274799999982122,3.285399999976164,3.3121999999880813,3.3203999999761606,3.3436999999880754,3.350999999999999,3.3767999999821257,3.3884999999999863,3.4100999999940385,3.417199999988078,3.4415999999940325,3.4506999999880676,3.479999999999997,3.4980999999940323,3.512099999994028,3.523699999988075,3.543199999988069,3.5520999999940344,3.557599999994032,3.5759999999999863,3.609599999994039,3.6181999999880716,3.6451999999880726,3.6528999999761496,3.677499999999988,3.6879999999999953,3.709699999988068,3.719699999988073,3.724299999982115,3.76069999998807,3.7686999999880655,3.7741999999880775,3.7917999999821106,3.824799999982112,3.8327999999821074,3.8582999999821155,3.8667999999821134,3.8952999999821074,3.903199999988068,3.9261999999880786,3.9339999999999904,3.9595999999940332,3.968499999999999,3.97439999997615,3.991899999976148,4.024799999982115,4.033099999994029,4.061699999988072,4.06909999999403,4.093999999999987,4.100699999988073,4.124999999999993,4.132199999988067,4.158099999994029,4.165199999988069,4.1915999999940325,4.199599999994028,4.2270999999940315,4.234599999994039,4.240899999976158,4.258499999999991,4.291599999994027,4.299399999976153,4.325899999976151,4.332599999994038,4.3581999999880665,4.365399999976155,4.393899999976149,4.400899999976154,4.4075999999940265,4.425199999988074,4.459399999976149,4.468799999982117,4.474299999982115,4.510899999976154,4.526199999988073,4.533199999988078,4.564099999994035,4.572999999999986,4.593599999994034,4.600199999988071,4.629399999976151,4.636899999976144,4.659399999976152,4.66599999999999,4.694599999994033,4.702199999988075,4.728699999988073,4.735299999982111,4.762399999976147,4.769899999976154,4.792799999982115,4.802199999988069,4.807599999994032,4.844099999994036,4.859599999994039,4.86659999999403,4.897199999988068,4.904299999982108,4.92609999999403,4.933299999982118,4.964099999994026,4.971799999982117,4.992899999976153,4.999199999988072,5.027799999982115,5.037599999994036,5.04099999999999,5.0611999999880695,5.0942999999821055,5.101599999994029,5.126099999994032,5.1351999999880675,5.161099999994029,5.168199999988069,5.191699999988067,5.198499999999989,5.230699999988069,5.237399999976155,5.25959999999403,5.266199999988068,5.29699999999999,5.3034999999999926,5.307799999982116,5.325599999994033,5.359799999982108,5.366799999982113,5.374399999976156,5.4100999999940385,5.427,5.433699999988072,5.463899999976157,5.471099999994031,5.493299999982106,5.500099999994028,5.528199999988068,5.537399999976152,5.562599999994028,5.569599999994033,5.593699999988068,5.600299999982106,5.630499999999991,5.637299999982112,5.641099999994033,5.658599999994031,5.699199999988075,5.70829999998211,5.724599999994034,5.7495999999940395,5.757599999994035,5.774499999999996,5.792699999988066,5.81419999998807,5.8242999999821095,5.841199999988071,5.859299999982106,5.880499999999991,5.890999999999998,5.90779999998211,5.927,5.9407999999821115,5.957699999988073,5.974099999994031,5.993099999994037,6.009499999999996,6.026599999994026,6.043599999994036,6.061599999994037,6.077699999988077,6.090799999982117,6.107599999994029,6.124299999982107,6.140799999982114,6.158699999988066,6.174299999982118,6.192399999976153,6.207799999982107,6.224199999988066,6.242199999988067,6.257499999999986,6.274399999976147,6.29099999999999,6.307599999994032,6.326799999982107,6.340899999976152,6.357699999988078,6.374199999988072,6.390799999982114,6.408799999982115,6.424299999982118,6.4407999999821115,6.457499999999989,6.474099999994031,6.493699999988074,6.507499999999986,6.524299999982112,6.541299999982108,6.557499999999997,6.575399999976149,6.592699999988078,6.607599999994029,6.624099999994037,6.640899999976149,6.659599999994036,6.674099999994034,6.693299999982109,6.712999999999987,6.724199999988066,6.741099999994027,6.757499999999986,6.776399999976157,6.796299999982118,6.811699999988072,6.827899999976147,6.840999999999987,6.860299999982111,6.874399999976156,6.894799999982105,6.910399999976157,6.924199999988069,6.940899999976146,6.957499999999989,6.974199999988066,6.993799999982109,7.007599999994035,7.024299999982112,7.040799999982106,7.057599999994032,7.075299999982114,7.090899999976152,7.107699999988078,7.124899999976158,7.147799999982105,7.1576999999880755,7.174399999976153,7.19109999999403,7.212599999994033,7.22439999997615,7.2409999999999926,7.263199999988068,7.277799999982115,7.291199999988073,7.307799999982116,7.328799999982117,7.341099999994036,7.357699999988078,7.374399999976156,7.3944999999999865,7.40779999998211,7.424299999982118,7.440999999999995,7.457899999976156,7.474199999988066,7.493299999982106,7.507599999994035,7.526199999988073,7.540899999976155,7.561099999994035,7.58029999998211,7.590999999999987,7.607799999982113,7.624299999982107,7.644799999982105,7.660999999999994,7.674199999988069,7.690999999999995,7.7123999999761494,7.728199999988071]","[1732683053100,1732683053143,1732683053164,1732683053172,1732683053199,1732683053207,1732683053234,1732683053241,1732683053266,1732683053275,1732683053299,1732683053308,1732683053332,1732683053339,1732683053364,1732683053375,1732683053401,1732683053409,1732683053432,1732683053447,1732683053466,1732683053478,1732683053501,1732683053509,1732683053532,1732683053540,1732683053570,1732683053579,1732683053600,1732683053608,1732683053636,1732683053643,1732683053665,1732683053675,1732683053701,1732683053711,1732683053735,1732683053743,1732683053770,1732683053778,1732683053802,1732683053810,1732683053835,1732683053843,1732683053866,1732683053879,1732683053904,1732683053912,1732683053915,1732683053949,1732683053965,1732683053984,1732683053992,1732683054017,1732683054024,1732683054049,1732683054059,1732683054084,1732683054092,1732683054097,1732683054114,1732683054153,1732683054161,1732683054183,1732683054189,1732683054219,1732683054226,1732683054249,1732683054256,1732683054283,1732683054290,1732683054318,1732683054325,1732683054350,1732683054357,1732683054381,1732683054388,1732683054416,1732683054424,1732683054449,1732683054456,1732683054486,1732683054494,1732683054517,1732683054523,1732683054553,1732683054560,1732683054583,1732683054589,1732683054618,1732683054628,1732683054651,1732683054659,1732683054683,1732683054691,1732683054697,1732683054715,1732683054749,1732683054756,1732683054764,1732683054798,1732683054808,1732683054832,1732683054840,1732683054866,1732683054879,1732683054902,1732683054909,1732683054933,1732683054941,1732683054947,1732683054964,1732683054998,1732683055006,1732683055014,1732683055031,1732683055068,1732683055079,1732683055082,1732683055116,1732683055123,1732683055151,1732683055159,1732683055183,1732683055191,1732683055216,1732683055226,1732683055249,1732683055256,1732683055283,1732683055290,1732683055318,1732683055326,1732683055331,1732683055366,1732683055378,1732683055381,1732683055416,1732683055423,1732683055449,1732683055456,1732683055485,1732683055492,1732683055497,1732683055532,1732683055549,1732683055559,1732683055585,1732683055593,1732683055616,1732683055624,1732683055654,1732683055662,1732683055683,1732683055690,1732683055716,1732683055726,1732683055730,1732683055748,1732683055785,1732683055794,1732683055818,1732683055826,1732683055853,1732683055861,1732683055883,1732683055891,1732683055919,1732683055926,1732683055949,1732683055957,1732683055985,1732683055993,1732683056016,1732683056023,1732683056047,1732683056058,1732683056082,1732683056089,1732683056114,1732683056122,1732683056150,1732683056157,1732683056164,1732683056181,1732683056216,1732683056224,1732683056230,1732683056264,1732683056276,1732683056280,1732683056298,1732683056333,1732683056341,1732683056364,1732683056375,1732683056401,1732683056410,1732683056433,1732683056440,1732683056466,1732683056478,1732683056499,1732683056506,1732683056531,1732683056540,1732683056569,1732683056587,1732683056601,1732683056613,1732683056632,1732683056641,1732683056647,1732683056665,1732683056699,1732683056707,1732683056734,1732683056742,1732683056767,1732683056777,1732683056799,1732683056809,1732683056814,1732683056850,1732683056858,1732683056864,1732683056881,1732683056914,1732683056922,1732683056948,1732683056956,1732683056985,1732683056992,1732683057015,1732683057023,1732683057049,1732683057058,1732683057064,1732683057081,1732683057114,1732683057122,1732683057151,1732683057158,1732683057183,1732683057190,1732683057214,1732683057221,1732683057247,1732683057254,1732683057281,1732683057289,1732683057316,1732683057324,1732683057330,1732683057348,1732683057381,1732683057389,1732683057415,1732683057422,1732683057447,1732683057455,1732683057483,1732683057490,1732683057497,1732683057515,1732683057549,1732683057558,1732683057564,1732683057600,1732683057615,1732683057623,1732683057653,1732683057662,1732683057683,1732683057689,1732683057719,1732683057726,1732683057749,1732683057755,1732683057784,1732683057791,1732683057818,1732683057825,1732683057852,1732683057859,1732683057882,1732683057891,1732683057897,1732683057933,1732683057949,1732683057956,1732683057986,1732683057994,1732683058015,1732683058023,1732683058053,1732683058061,1732683058082,1732683058088,1732683058117,1732683058127,1732683058130,1732683058150,1732683058184,1732683058191,1732683058215,1732683058225,1732683058250,1732683058257,1732683058281,1732683058288,1732683058320,1732683058327,1732683058349,1732683058355,1732683058386,1732683058393,1732683058397,1732683058415,1732683058449,1732683058456,1732683058464,1732683058499,1732683058516,1732683058523,1732683058553,1732683058560,1732683058583,1732683058589,1732683058617,1732683058627,1732683058652,1732683058659,1732683058683,1732683058690,1732683058720,1732683058727,1732683058730,1732683058748,1732683058788,1732683058798,1732683058814,1732683058839,1732683058847,1732683058864,1732683058882,1732683058903,1732683058914,1732683058930,1732683058949,1732683058970,1732683058980,1732683058997,1732683059016,1732683059030,1732683059047,1732683059063,1732683059082,1732683059099,1732683059116,1732683059133,1732683059151,1732683059167,1732683059180,1732683059197,1732683059213,1732683059230,1732683059248,1732683059264,1732683059282,1732683059297,1732683059313,1732683059331,1732683059347,1732683059364,1732683059380,1732683059397,1732683059416,1732683059430,1732683059447,1732683059463,1732683059480,1732683059498,1732683059514,1732683059530,1732683059547,1732683059563,1732683059583,1732683059597,1732683059614,1732683059631,1732683059647,1732683059665,1732683059682,1732683059697,1732683059713,1732683059730,1732683059749,1732683059763,1732683059783,1732683059803,1732683059814,1732683059830,1732683059847,1732683059866,1732683059886,1732683059901,1732683059917,1732683059930,1732683059950,1732683059964,1732683059984,1732683060000,1732683060014,1732683060030,1732683060047,1732683060063,1732683060083,1732683060097,1732683060113,1732683060130,1732683060147,1732683060165,1732683060180,1732683060197,1732683060214,1732683060237,1732683060247,1732683060264,1732683060280,1732683060302,1732683060314,1732683060330,1732683060352,1732683060367,1732683060380,1732683060397,1732683060418,1732683060430,1732683060447,1732683060464,1732683060484,1732683060497,1732683060514,1732683060530,1732683060547,1732683060563,1732683060583,1732683060597,1732683060615,1732683060630,1732683060650,1732683060670,1732683060680,1732683060697,1732683060714,1732683060734,1732683060750,1732683060763,1732683060780,1732683060802,1732683060818]","[[1205.1,541],[1205.1,541],[1220.5,573.8],[1220.5,573.8],[1207.4,587.5],[1207.4,587.5],[1221.1,623.8],[1221.1,623.8],[1173.2,639.8],[1173.2,639.8],[1114.2,639.1],[1114.2,639.1],[1082.4,637.8],[1082.4,637.8],[1066,626.8],[1066,626.8],[1086.5,625.9],[1086.5,625.9],[1082.6,625.7],[1082.6,625.7],[1047.8,643.8],[1047.8,643.8],[1027.4,661],[1027.4,661],[1017.7,659.6],[1017.7,659.6],[984.7,661.2],[984.7,661.2],[971.6,629.6],[971.6,629.6],[963.2,605.2],[963.2,605.2],[976.1,577.2],[976.1,577.2],[977.4,565.2],[977.4,565.2],[975,553.5],[975,553.5],[956.3,542.6],[956.3,542.6],[957.1,519.8],[957.1,519.8],[918.5,476.5],[918.5,476.5],[941.6,467.1],[941.6,467.1],[930.6,458.1],[930.6,458.1],[930.6,458.1],[928.1,465],[928.1,465],[965.1,467.9],[965.1,467.9],[954.6,469.7],[954.6,469.7],[982.9,469.6],[982.9,469.6],[994.4,467],[994.4,467],[994.4,467],[994.4,467],[1046.6,439.1],[1046.6,439.1],[1129.9,430.1],[1129.9,430.1],[1246.2,448.5],[1246.2,448.5],[1303.1,438.1],[1303.1,438.1],[1363,408.7],[1363,408.7],[1429.2,415.8],[1429.2,415.8],[1453.8,419.9],[1453.8,419.9],[1471.7,405.9],[1471.7,405.9],[1450.2,409.2],[1450.2,409.2],[1456.2,408.4],[1456.2,408.4],[1432.8,423.4],[1432.8,423.4],[1429,417.7],[1429,417.7],[1460.4,415.1],[1460.4,415.1],[1409.3,403.5],[1409.3,403.5],[1384.7,402.5],[1384.7,402.5],[1406.7,401.5],[1406.7,401.5],[1443.7,397],[1443.7,397],[1443.7,397],[1443.7,397],[1461.8,420.4],[1461.8,420.4],[1461.8,420.4],[1508.2,412.8],[1508.2,412.8],[1494.8,395.6],[1494.8,395.6],[1527.8,403.2],[1527.8,403.2],[1537.8,419.3],[1537.8,419.3],[1502.8,415.3],[1502.8,415.3],[1502.8,415.3],[1502.8,415.3],[1515.1,445.2],[1515.1,445.2],[1515.1,445.2],[1515.1,445.2],[1494.1,457.7],[1494.1,457.7],[1494.1,457.7],[1404.2,470.9],[1404.2,470.9],[1297.3,478.7],[1297.3,478.7],[1161.9,473.5],[1161.9,473.5],[1068.1,486.1],[1068.1,486.1],[973.3,510],[973.3,510],[865.5,525.7],[865.5,525.7],[772,532.8],[772,532.8],[772,532.8],[712.1,570.1],[712.1,570.1],[712.1,570.1],[657.8,591.3],[657.8,591.3],[613.7,616.5],[613.7,616.5],[644.7,602.9],[644.7,602.9],[644.7,602.9],[644.7,602.9],[682.8,605.9],[682.8,605.9],[806.6,605.2],[806.6,605.2],[918.3,608.5],[918.3,608.5],[1045,622.3],[1045,622.3],[1122.9,598.5],[1122.9,598.5],[1200,574.6],[1200,574.6],[1200,574.6],[1200,574.6],[1244,525.8],[1244,525.8],[1313.1,483.5],[1313.1,483.5],[1405.6,449.9],[1405.6,449.9],[1429.4,439.9],[1429.4,439.9],[1466.8,421.5],[1466.8,421.5],[1483.1,417.2],[1483.1,417.2],[1469.2,398.9],[1469.2,398.9],[1439.8,374.4],[1439.8,374.4],[1457.2,393.9],[1457.2,393.9],[1473.1,398.9],[1473.1,398.9],[1502,422.5],[1502,422.5],[1494.7,440.2],[1494.7,440.2],[1494.7,440.2],[1494.7,440.2],[1394.6,461.8],[1394.6,461.8],[1394.6,461.8],[1300.1,475.3],[1300.1,475.3],[1300.1,475.3],[1300.1,475.3],[1223.8,509.5],[1223.8,509.5],[1107.7,532.4],[1107.7,532.4],[1009.2,564.1],[1009.2,564.1],[889.3,584.3],[889.3,584.3],[779.2,591],[779.2,591],[674.4,599.7],[674.4,599.7],[571.3,615.4],[571.3,615.4],[486.4,624.8],[486.4,624.8],[468,616.8],[468,616.8],[464.5,635.5],[464.5,635.5],[464.5,635.5],[464.5,635.5],[466,617.5],[466,617.5],[557.5,614.6],[557.5,614.6],[581.7,625.1],[581.7,625.1],[669,631.9],[669,631.9],[669,631.9],[733.6,638.2],[733.6,638.2],[733.6,638.2],[733.6,638.2],[806.1,660.1],[806.1,660.1],[899.3,662.5],[899.3,662.5],[945.5,664.2],[945.5,664.2],[1014.1,680],[1014.1,680],[1116,683.6],[1116,683.6],[1116,683.6],[1116,683.6],[1160,691.4],[1160,691.4],[1168.5,712.4],[1168.5,712.4],[1212.2,715.9],[1212.2,715.9],[1226.8,722.3],[1226.8,722.3],[1262,727.8],[1262,727.8],[1248.2,715.2],[1248.2,715.2],[1241.8,724.5],[1241.8,724.5],[1241.8,724.5],[1241.8,724.5],[1248.6,731.9],[1248.6,731.9],[1269.6,749.9],[1269.6,749.9],[1238.7,758.9],[1238.7,758.9],[1271.4,778.4],[1271.4,778.4],[1271.4,778.4],[1271.4,778.4],[1257.7,792.1],[1257.7,792.1],[1257.7,792.1],[1257.7,792.1],[1215.4,744.4],[1215.4,744.4],[1173.3,701.8],[1173.3,701.8],[1152.9,655.5],[1152.9,655.5],[1169.8,624.2],[1169.8,624.2],[1165,591.9],[1165,591.9],[1172.9,562],[1172.9,562],[1188.6,504.3],[1188.6,504.3],[1183.7,469.4],[1183.7,469.4],[1141.2,420],[1141.2,420],[1141.2,420],[1141.2,420],[1166,364.5],[1166,364.5],[1220.8,376.8],[1220.8,376.8],[1267.6,400.5],[1267.6,400.5],[1278.2,439.8],[1278.2,439.8],[1281.6,455.2],[1281.6,455.2],[1306,455.9],[1306,455.9],[1306,455.9],[1306,455.9],[1331.7,441.6],[1331.7,441.6],[1349.1,452.7],[1349.1,452.7],[1385,382.4],[1385,382.4],[1359,361.5],[1359,361.5],[1286.8,335.1],[1286.8,335.1],[1217.4,323.6],[1217.4,323.6],[1169.5,297.1],[1169.5,297.1],[1169.5,297.1],[1169.5,297.1],[1141.4,243.1],[1141.4,243.1],[1141.4,243.1],[1141.4,243.1],[1126.2,234.4],[1126.2,234.4],[1006.1,226.8],[1006.1,226.8],[943.5,232.8],[943.5,232.8],[949.1,241.7],[949.1,241.7],[868.7,291.2],[868.7,291.2],[887.4,306.3],[887.4,306.3],[895.7,316.9],[895.7,316.9],[895.7,316.9],[895.7,316.9],[929,315.4],[929,315.4],[924.8,318.4],[924.8,338.3],[924.8,338.3],[913.2,343.1],[985.6,332.6],[1005.3,328.6],[1005.3,328.6],[950.3,305.6],[1000.5,306.2],[1008.8,307.7],[1008.8,307.7],[996.6,316.9],[996.6,316.9],[969.6,322.3],[963.2,319.8],[937.6,315.9],[951.2,315.8],[964.1,326.5],[949.8,321.7],[931.9,328.9],[915.5,330.4],[898.4,333],[898.4,333],[905.9,333.8],[915.3,321.6],[908.8,319.5],[922.7,310.6],[901.4,288.7],[910.5,284.9],[940.7,291.5],[935.1,283.7],[930.5,279.1],[934.7,282.8],[934.7,282.8],[944.3,283.6],[969.2,306.2],[1005.2,340.5],[1020.8,381.6],[1023.1,421.3],[1026.3,449.9],[1003.2,459.1],[1010.7,488.9],[1013.3,490.4],[993,493.5],[1008.3,523.7],[999.6,535.9],[969.7,521.7],[969.7,521.7],[939.8,507.5],[908.8,502],[817.8,473.7],[745.8,462.9],[702.6,455.3],[702.6,455.3],[650.4,472.5],[596.8,482.7],[515.6,473.6],[438.8,466.5],[375.9,464.3],[312.8,462.1],[312.8,462.1],[306.6,463.3],[296.4,471.2],[285.5,482],[251.5,476.7],[239.4,491.3],[314,489.4],[314,489.4],[380.6,479.7],[411.1,466.5],[504.3,468.1],[597.7,469.7],[597.7,469.7],[659.3,440.9],[779,427.4],[892.5,412.4],[1015.3,408.8],[1015.3,408.8],[1095.1,385.1],[1122.6,379.5],[1145.4,361.7],[1204.3,347.4],[1204.3,347.4],[1207.4,314.9],[1210.5,282.4],[1194.6,275.6],[1194.6,275.6],[1189.7,269.9],[1189.7,269.9],[1192.1,264.6],[1192.1,264.6],[1195.7,251.6],[1184.9,257.5],[1170,253.3],[1170,253.3],[1156.8,250.1],[1139.1,249.6],[1139.1,249.6],[1129.4,278.8],[1119.8,295.6],[1119.8,295.6],[1149.1,320.2],[1142.3,355],[1142.4,389.9],[1122.1,427.1],[1151.2,449.1],[1165.4,472.5],[1182.6,507.1],[1200.3,529.7],[1215.9,531.5],[1230,558.8],[1215.4,575.2],[1215.4,575.2],[1202.5,564.3],[1208.4,557.9],[1223.7,552.2],[1215.4,543.6],[1215.4,543.6],[1207.2,539.2],[1210.2,521.6],[1240.5,546.1]]","[-0.132282,0.39684600000000003]","[0.132282,0.39684600000000003]","[0.39684600000000003,0.39684600000000003]","[-0.39684600000000003,0.132282]","[-0.39684600000000003,-0.39684600000000003]","[-0.39684600000000003,-0.132282]","[-0.132282,0.132282]","[0.132282,0.132282]","[0.39684600000000003,0.132282]","[-0.132282,-0.39684600000000003]","[0.132282,-0.39684600000000003]","[0.39684600000000003,-0.39684600000000003]","[-0.132282,-0.132282]","[0.132282,-0.132282]","[0.39684600000000003,-0.132282]",0,0,0,0,1,1,Tablet,20,20,7,2,70,4,2,70,4
