inst1_resp.keys,inst1_resp.rt,calibrationMouse.x,calibrationMouse.y,calibrationMouse.leftButton,calibrationMouse.midButton,calibrationMouse.rightButton,calibrationClick.x,calibrationClick.y,calibrationClick.leftButton,calibrationClick.midButton,calibrationClick.rightButton,trialsc.thisRepN,trialsc.thisTrialN,trialsc.thisN,trialsc.thisIndex,trialsc.ran,calibration_x,calibration_y,participant,session,date,expName,psychopyVersion,OS,frameRate,calibrationClick.clicked_name,ScreenRes_pixels,Camera_pixels,mouse_2.x,mouse_2.y,mouse_2.leftButton,mouse_2.midButton,mouse_2.rightButton,mouse_2.time,mouse_2.clicked_name,mouse.x,mouse.y,mouse.leftButton,mouse.midButton,mouse.rightButton,mouse.time,mouse.clicked_name,Choice,Trial,TrialDuration,MOUSE_GAZE,ET_GAZE,ET_GAZE_x_T,time,unixTime,ET_GAZE_NF,Loc_Bus_label,Loc_Metro_label,Loc_RH_label,Loc_Cost_label,Loc_Travel_label,Loc_Comfort_label,Loc_Bus_cost,Loc_Metro_cost,Loc_RH_cost,Loc_Bus_travel,Loc_Metro_travel,Loc_RH_travel,Loc_Bus_comfort,Loc_Metro_comfort,Loc_RH_comfort,trials.thisRepN,trials.thisTrialN,trials.thisN,trials.thisIndex,trials.ran,Block,Device,RH_cost,RH_travel_time,RH_Comfort,metro_cost,metro_travel_time,metro_Comfort,Bus_cost,Bus_travel_time,Bus_Comfort
space,1.8319,-0.051041667,0.051851852,1,0,0,0.326041667,-0.314814815,1,0,0,0,0,0,15,1,0.33,-0.33,42,001,2024-11-27_13h03.02.916,Attention_exp_legacy,2023.1.0,Win32,59.88023952,,,,,,,,,,,,,,,,,,,,,,,,,,,,,,,,,,,,,,,,,,,,,,,,,,,,,,,,,
,,,,,,,-0.6625,0.324074074,1,0,0,0,1,1,3,1,-0.67,0.33,42,001,2024-11-27_13h03.02.916,Attention_exp_legacy,2023.1.0,Win32,59.88023952,calibration_square,,,,,,,,,,,,,,,,,,,,,,,,,,,,,,,,,,,,,,,,,,,,,,,,,,,,,,,,
,,,,,,,-0.6625,-0.674074074,1,0,0,0,2,2,0,1,-0.67,-0.67,42,001,2024-11-27_13h03.02.916,Attention_exp_legacy,2023.1.0,Win32,59.88023952,calibration_square,,,,,,,,,,,,,,,,,,,,,,,,,,,,,,,,,,,,,,,,,,,,,,,,,,,,,,,,
,,,,,,,0.659375,-0.655555556,1,0,0,0,3,3,20,1,0.67,-0.67,42,001,2024-11-27_13h03.02.916,Attention_exp_legacy,2023.1.0,Win32,59.88023952,,,,,,,,,,,,,,,,,,,,,,,,,,,,,,,,,,,,,,,,,,,,,,,,,,,,,,,,,
,,,,,,,-0.33125,-0.666666667,1,0,0,0,4,4,4,1,-0.33,-0.67,42,001,2024-11-27_13h03.02.916,Attention_exp_legacy,2023.1.0,Win32,59.88023952,calibration_square,,,,,,,,,,,,,,,,,,,,,,,,,,,,,,,,,,,,,,,,,,,,,,,,,,,,,,,,
,,,,,,,0.319791667,0.012962963,1,0,0,0,5,5,16,1,0.33,0,42,001,2024-11-27_13h03.02.916,Attention_exp_legacy,2023.1.0,Win32,59.88023952,,,,,,,,,,,,,,,,,,,,,,,,,,,,,,,,,,,,,,,,,,,,,,,,,,,,,,,,,
,,,,,,,-0.320833333,0.009259259,1,0,0,0,6,6,6,1,-0.33,0,42,001,2024-11-27_13h03.02.916,Attention_exp_legacy,2023.1.0,Win32,59.88023952,calibration_square,,,,,,,,,,,,,,,,,,,,,,,,,,,,,,,,,,,,,,,,,,,,,,,,,,,,,,,,
,,,,,,,0.685416667,0.692592593,1,0,0,0,7,7,19,1,0.67,0.67,42,001,2024-11-27_13h03.02.916,Attention_exp_legacy,2023.1.0,Win32,59.88023952,,,,,,,,,,,,,,,,,,,,,,,,,,,,,,,,,,,,,,,,,,,,,,,,,,,,,,,,,
,,,,,,,0.00625,0.32037037,1,0,0,0,8,8,12,1,0,0.33,42,001,2024-11-27_13h03.02.916,Attention_exp_legacy,2023.1.0,Win32,59.88023952,calibration_square,,,,,,,,,,,,,,,,,,,,,,,,,,,,,,,,,,,,,,,,,,,,,,,,,,,,,,,,
,,,,,,,-0.677083333,-0.009259259,1,0,0,0,9,9,2,1,-0.67,0,42,001,2024-11-27_13h03.02.916,Attention_exp_legacy,2023.1.0,Win32,59.88023952,calibration_square,,,,,,,,,,,,,,,,,,,,,,,,,,,,,,,,,,,,,,,,,,,,,,,,,,,,,,,,
,,,,,,,-0.6625,-0.353703704,1,0,0,0,10,10,1,1,-0.67,-0.33,42,001,2024-11-27_13h03.02.916,Attention_exp_legacy,2023.1.0,Win32,59.88023952,,,,,,,,,,,,,,,,,,,,,,,,,,,,,,,,,,,,,,,,,,,,,,,,,,,,,,,,,
,,,,,,,0.326041667,0.703703704,1,0,0,0,11,11,18,1,0.33,0.67,42,001,2024-11-27_13h03.02.916,Attention_exp_legacy,2023.1.0,Win32,59.88023952,,,,,,,,,,,,,,,,,,,,,,,,,,,,,,,,,,,,,,,,,,,,,,,,,,,,,,,,,
,,,,,,,-0.001041667,-0.661111111,1,0,0,0,12,12,9,1,0,-0.67,42,001,2024-11-27_13h03.02.916,Attention_exp_legacy,2023.1.0,Win32,59.88023952,calibration_square,,,,,,,,,,,,,,,,,,,,,,,,,,,,,,,,,,,,,,,,,,,,,,,,,,,,,,,,
,,,,,,,0.332291667,-0.690740741,1,0,0,0,13,13,14,1,0.33,-0.67,42,001,2024-11-27_13h03.02.916,Attention_exp_legacy,2023.1.0,Win32,59.88023952,,,,,,,,,,,,,,,,,,,,,,,,,,,,,,,,,,,,,,,,,,,,,,,,,,,,,,,,,
,,,,,,,-0.321875,-0.307407407,1,0,0,0,14,14,5,1,-0.33,-0.33,42,001,2024-11-27_13h03.02.916,Attention_exp_legacy,2023.1.0,Win32,59.88023952,,,,,,,,,,,,,,,,,,,,,,,,,,,,,,,,,,,,,,,,,,,,,,,,,,,,,,,,,
,,,,,,,-0.021875,-0.337037037,1,0,0,0,15,15,10,1,0,-0.33,42,001,2024-11-27_13h03.02.916,Attention_exp_legacy,2023.1.0,Win32,59.88023952,,,,,,,,,,,,,,,,,,,,,,,,,,,,,,,,,,,,,,,,,,,,,,,,,,,,,,,,,
,,,,,,,-0.010416667,0.664814815,1,0,0,0,16,16,13,1,0,0.67,42,001,2024-11-27_13h03.02.916,Attention_exp_legacy,2023.1.0,Win32,59.88023952,,,,,,,,,,,,,,,,,,,,,,,,,,,,,,,,,,,,,,,,,,,,,,,,,,,,,,,,,
,,,,,,,0.010416667,0,1,0,0,0,17,17,11,1,0,0,42,001,2024-11-27_13h03.02.916,Attention_exp_legacy,2023.1.0,Win32,59.88023952,,,,,,,,,,,,,,,,,,,,,,,,,,,,,,,,,,,,,,,,,,,,,,,,,,,,,,,,,
,,,,,,,-0.321875,0.324074074,1,0,0,0,18,18,7,1,-0.33,0.33,42,001,2024-11-27_13h03.02.916,Attention_exp_legacy,2023.1.0,Win32,59.88023952,calibration_square,,,,,,,,,,,,,,,,,,,,,,,,,,,,,,,,,,,,,,,,,,,,,,,,,,,,,,,,
,,,,,,,-0.341666667,0.67962963,1,0,0,0,19,19,8,1,-0.33,0.67,42,001,2024-11-27_13h03.02.916,Attention_exp_legacy,2023.1.0,Win32,59.88023952,,,,,,,,,,,,,,,,,,,,,,,,,,,,,,,,,,,,,,,,,,,,,,,,,,,,,,,,,
,,,,,,,0.3125,0.331481481,1,0,0,0,20,20,17,1,0.33,0.33,42,001,2024-11-27_13h03.02.916,Attention_exp_legacy,2023.1.0,Win32,59.88023952,,,,,,,,,,,,,,,,,,,,,,,,,,,,,,,,,,,,,,,,,,,,,,,,,,,,,,,,,
,,,,,,,,,,,,,,,,,,,42,001,2024-11-27_13h03.02.916,Attention_exp_legacy,2023.1.0,Win32,59.88023952,,"[1920,1080]","[640,480]",[0.04583333333333333],[-0.47962962962962963],[1],[0],[0],[1.0471000000238462],"[""StartButton""]",[0.18229166666666666],[0.5944444444444444],[1],[0],[0],[4.878899999976156],"[""Metro_label""]",Metro_label,1,5.8961,"[[0.12291666666666666,-0.044444444444444446],[0.12604166666666666,-0.03518518518518519],[0.12708333333333333,-0.03148148148148148],[0.12708333333333333,-0.027777777777777776],[0.128125,-0.027777777777777776],[0.128125,-0.027777777777777776],[0.128125,-0.027777777777777776],[0.128125,-0.027777777777777776],[0.128125,-0.027777777777777776],[0.128125,-0.027777777777777776],[0.128125,-0.027777777777777776],[0.128125,-0.027777777777777776],[0.128125,-0.027777777777777776],[0.128125,-0.027777777777777776],[0.128125,-0.027777777777777776],[0.128125,-0.027777777777777776],[0.128125,-0.027777777777777776],[0.128125,-0.027777777777777776],[0.128125,-0.027777777777777776],[0.128125,-0.027777777777777776],[0.128125,-0.027777777777777776],[0.128125,-0.027777777777777776],[0.13333333333333333,-0.020370370370370372],[0.13854166666666667,-0.005555555555555556],[0.146875,0.022222222222222223],[0.153125,0.05740740740740741],[0.15520833333333334,0.10185185185185185],[0.15625,0.16666666666666666],[0.15625,0.19444444444444445],[0.15625,0.2111111111111111],[0.15104166666666666,0.24074074074074073],[0.14583333333333334,0.26666666666666666],[0.14166666666666666,0.2814814814814815],[0.1375,0.2962962962962963],[0.134375,0.3055555555555556],[0.13333333333333333,0.30925925925925923],[0.13229166666666667,0.31296296296296294],[0.13125,0.31666666666666665],[0.13125,0.31666666666666665],[0.13125,0.31666666666666665],[0.13125,0.31666666666666665],[0.13125,0.31666666666666665],[0.13125,0.31666666666666665],[0.13125,0.31666666666666665],[0.13125,0.31666666666666665],[0.13125,0.31666666666666665],[0.13125,0.31666666666666665],[0.13125,0.31666666666666665],[0.13125,0.31666666666666665],[0.13125,0.31666666666666665],[0.13020833333333334,0.31851851851851853],[0.13020833333333334,0.31851851851851853],[0.13020833333333334,0.31851851851851853],[0.13333333333333333,0.31851851851851853],[0.13333333333333333,0.31851851851851853],[0.13333333333333333,0.31851851851851853],[0.13333333333333333,0.31851851851851853],[0.13333333333333333,0.31851851851851853],[0.13333333333333333,0.31851851851851853],[0.13333333333333333,0.31851851851851853],[0.13333333333333333,0.31851851851851853],[0.13333333333333333,0.31851851851851853],[0.13333333333333333,0.31851851851851853],[0.13333333333333333,0.31851851851851853],[0.13333333333333333,0.31851851851851853],[0.13333333333333333,0.31851851851851853],[0.13333333333333333,0.31851851851851853],[0.13333333333333333,0.31851851851851853],[0.13333333333333333,0.31851851851851853],[0.13333333333333333,0.31851851851851853],[0.13333333333333333,0.31851851851851853],[0.13333333333333333,0.31851851851851853],[0.134375,0.31851851851851853],[0.14375,0.31851851851851853],[0.21666666666666667,0.37222222222222223],[0.26979166666666665,0.42592592592592593],[0.29375,0.4537037037037037],[0.30104166666666665,0.46296296296296297],[0.30833333333333335,0.4666666666666667],[0.31354166666666666,0.4759259259259259],[0.32083333333333336,0.48703703703703705],[0.328125,0.4962962962962963],[0.3416666666666667,0.512962962962963],[0.3625,0.5333333333333333],[0.4010416666666667,0.562962962962963],[0.43333333333333335,0.5888888888888889],[0.4479166666666667,0.5962962962962963],[0.4552083333333333,0.6],[0.45625,0.6],[0.45625,0.6],[0.45729166666666665,0.6],[0.45729166666666665,0.6],[0.45729166666666665,0.6],[0.45729166666666665,0.6],[0.45729166666666665,0.6],[0.45729166666666665,0.6],[0.45729166666666665,0.6],[0.45729166666666665,0.6],[0.45729166666666665,0.6],[0.45729166666666665,0.6],[0.45729166666666665,0.6],[0.45729166666666665,0.6],[0.45729166666666665,0.6],[0.45729166666666665,0.6],[0.45729166666666665,0.6],[0.45729166666666665,0.6],[0.45729166666666665,0.6],[0.45729166666666665,0.6],[0.45729166666666665,0.6],[0.45729166666666665,0.6],[0.45729166666666665,0.6],[0.45729166666666665,0.6],[0.45729166666666665,0.6],[0.45729166666666665,0.6],[0.45729166666666665,0.6],[0.45729166666666665,0.6],[0.45729166666666665,0.6],[0.45729166666666665,0.6],[0.45729166666666665,0.6],[0.45729166666666665,0.6],[0.45729166666666665,0.6],[0.45729166666666665,0.6],[0.45729166666666665,0.6],[0.45729166666666665,0.6],[0.45729166666666665,0.6],[0.45729166666666665,0.6],[0.45729166666666665,0.6],[0.45729166666666665,0.6],[0.45729166666666665,0.6],[0.45729166666666665,0.6],[0.45729166666666665,0.6],[0.45729166666666665,0.6],[0.45729166666666665,0.6],[0.45729166666666665,0.6],[0.45729166666666665,0.6],[0.45729166666666665,0.6],[0.45729166666666665,0.6],[0.45729166666666665,0.6],[0.45729166666666665,0.6],[0.45729166666666665,0.6],[0.45729166666666665,0.6],[0.45729166666666665,0.6],[0.45729166666666665,0.6],[0.45729166666666665,0.6],[0.45729166666666665,0.6],[0.45729166666666665,0.6],[0.45729166666666665,0.6],[0.45729166666666665,0.6],[0.45729166666666665,0.6],[0.45729166666666665,0.6],[0.45729166666666665,0.6],[0.45729166666666665,0.6],[0.45729166666666665,0.6],[0.45729166666666665,0.6],[0.45729166666666665,0.6],[0.45729166666666665,0.6],[0.45729166666666665,0.6],[0.45729166666666665,0.6],[0.45729166666666665,0.6],[0.45729166666666665,0.6],[0.45729166666666665,0.6],[0.45729166666666665,0.6],[0.45729166666666665,0.6],[0.45729166666666665,0.6],[0.45729166666666665,0.6],[0.45729166666666665,0.6],[0.45729166666666665,0.6],[0.45729166666666665,0.6],[0.45729166666666665,0.6],[0.45729166666666665,0.6],[0.45729166666666665,0.6],[0.45729166666666665,0.6],[0.45729166666666665,0.6],[0.45729166666666665,0.6],[0.45729166666666665,0.6],[0.45729166666666665,0.6],[0.45416666666666666,0.6],[0.44375,0.6],[0.434375,0.6],[0.425,0.6],[0.41875,0.6018518518518519],[0.41458333333333336,0.6037037037037037],[0.409375,0.6037037037037037],[0.40625,0.6037037037037037],[0.4,0.6037037037037037],[0.38958333333333334,0.6092592592592593],[0.37916666666666665,0.6148148148148148],[0.375,0.6148148148148148],[0.3697916666666667,0.6166666666666667],[0.36354166666666665,0.6185185185185185],[0.3572916666666667,0.6203703703703703],[0.35,0.6222222222222222],[0.3416666666666667,0.6240740740740741],[0.33541666666666664,0.6259259259259259],[0.328125,0.6259259259259259],[0.3229166666666667,0.6259259259259259],[0.31666666666666665,0.6259259259259259],[0.3104166666666667,0.6259259259259259],[0.30625,0.6259259259259259],[0.3020833333333333,0.6259259259259259],[0.2989583333333333,0.6259259259259259],[0.2947916666666667,0.6259259259259259],[0.28854166666666664,0.6222222222222222],[0.28541666666666665,0.6222222222222222],[0.284375,0.6222222222222222],[0.28229166666666666,0.6203703703703703],[0.28020833333333334,0.6185185185185185],[0.278125,0.6166666666666667],[0.27708333333333335,0.6148148148148148],[0.2760416666666667,0.6148148148148148],[0.27291666666666664,0.6111111111111112],[0.27291666666666664,0.6111111111111112],[0.2708333333333333,0.6092592592592593],[0.26875,0.6055555555555555],[0.26666666666666666,0.6037037037037037],[0.265625,0.6],[0.26458333333333334,0.5981481481481481],[0.2625,0.5925925925925926],[0.259375,0.5851851851851851],[0.25833333333333336,0.5796296296296296],[0.25625,0.5740740740740741],[0.253125,0.562962962962963],[0.2520833333333333,0.5592592592592592],[0.25104166666666666,0.5537037037037037],[0.25,0.5481481481481482],[0.24895833333333334,0.5425925925925926],[0.24895833333333334,0.5407407407407407],[0.246875,0.5351851851851852],[0.24583333333333332,0.5314814814814814],[0.24479166666666666,0.5277777777777778],[0.24270833333333333,0.5222222222222223],[0.24270833333333333,0.5185185185185185],[0.24166666666666667,0.5185185185185185],[0.24166666666666667,0.5185185185185185],[0.24166666666666667,0.5185185185185185],[0.24166666666666667,0.5185185185185185],[0.24166666666666667,0.5185185185185185],[0.24166666666666667,0.5185185185185185],[0.24166666666666667,0.5185185185185185],[0.24166666666666667,0.5185185185185185],[0.24166666666666667,0.5185185185185185],[0.24166666666666667,0.5185185185185185],[0.24166666666666667,0.5185185185185185],[0.240625,0.5166666666666667],[0.2375,0.5166666666666667],[0.234375,0.5166666666666667],[0.228125,0.5203703703703704],[0.21979166666666666,0.5296296296296297],[0.209375,0.5425925925925926],[0.20416666666666666,0.5481481481481482],[0.19895833333333332,0.5555555555555556],[0.19479166666666667,0.562962962962963],[0.18958333333333333,0.5722222222222222],[0.18645833333333334,0.5796296296296296],[0.184375,0.587037037037037],[0.18333333333333332,0.5907407407407408],[0.18229166666666666,0.5944444444444444],[0.18229166666666666,0.5944444444444444],[0.18229166666666666,0.5944444444444444],[0.18229166666666666,0.5944444444444444],[0.18229166666666666,0.5944444444444444],[0.18229166666666666,0.5944444444444444],[0.18229166666666666,0.5944444444444444],[0.18229166666666666,0.5944444444444444],[0.18229166666666666,0.5944444444444444],[0.18229166666666666,0.5944444444444444],[0.18229166666666666,0.5944444444444444],[0.18229166666666666,0.5944444444444444],[0.18229166666666666,0.5944444444444444],[0.18229166666666666,0.5944444444444444],[0.18229166666666666,0.5944444444444444],[0.18229166666666666,0.5944444444444444],[0.18229166666666666,0.5944444444444444],[0.18229166666666666,0.5944444444444444],[0.18229166666666666,0.5944444444444444],[0.18229166666666666,0.5944444444444444],[0.18229166666666666,0.5944444444444444],[0.18229166666666666,0.5944444444444444],[0.18229166666666666,0.5944444444444444],[0.18229166666666666,0.5944444444444444],[0.18229166666666666,0.5944444444444444],[0.18229166666666666,0.5944444444444444],[0.18229166666666666,0.5944444444444444],[0.18229166666666666,0.5944444444444444],[0.18229166666666666,0.5944444444444444],[0.18229166666666666,0.5944444444444444],[0.18229166666666666,0.5944444444444444],[0.18229166666666666,0.5944444444444444],[0.18229166666666666,0.5944444444444444],[0.18229166666666666,0.5944444444444444],[0.18229166666666666,0.5944444444444444],[0.18229166666666666,0.5944444444444444],[0.18229166666666666,0.5944444444444444],[0.18229166666666666,0.5944444444444444],[0.18229166666666666,0.5944444444444444],[0.18229166666666666,0.5944444444444444],[0.18229166666666666,0.5944444444444444],[0.18229166666666666,0.5944444444444444],[0.18229166666666666,0.5944444444444444],[0.18229166666666666,0.5944444444444444],[0.18229166666666666,0.5944444444444444],[0.18229166666666666,0.5944444444444444],[0.18229166666666666,0.5944444444444444],[0.18229166666666666,0.5944444444444444],[0.18229166666666666,0.5944444444444444],[0.18229166666666666,0.5944444444444444],[0.18229166666666666,0.5944444444444444],[0.18229166666666666,0.5944444444444444],[0.18229166666666666,0.5944444444444444],[0.18229166666666666,0.5944444444444444],[0.18229166666666666,0.5944444444444444],[0.18229166666666666,0.5944444444444444],[0.18229166666666666,0.5944444444444444],[0.18229166666666666,0.5944444444444444],[0.18229166666666666,0.5944444444444444],[0.18229166666666666,0.5944444444444444],[0.18229166666666666,0.5944444444444444],[0.18229166666666666,0.5944444444444444],[0.18229166666666666,0.5944444444444444],[0.18229166666666666,0.5944444444444444],[0.18229166666666666,0.5944444444444444],[0.18229166666666666,0.5944444444444444],[0.18229166666666666,0.5944444444444444],[0.18229166666666666,0.5944444444444444],[0.18229166666666666,0.5944444444444444],[0.18229166666666666,0.5944444444444444],[0.18229166666666666,0.5944444444444444],[0.18229166666666666,0.5944444444444444],[0.18229166666666666,0.5944444444444444],[0.18229166666666666,0.5944444444444444],[0.18229166666666666,0.5944444444444444],[0.18229166666666666,0.5944444444444444],[0.18229166666666666,0.5944444444444444],[0.18229166666666666,0.5944444444444444],[0.18229166666666666,0.5944444444444444],[0.18229166666666666,0.5944444444444444],[0.18229166666666666,0.5944444444444444],[0.18229166666666666,0.5944444444444444],[0.18229166666666666,0.5944444444444444],[0.18229166666666666,0.5944444444444444],[0.18229166666666666,0.5944444444444444],[0.18229166666666666,0.5944444444444444],[0.18229166666666666,0.5944444444444444],[0.18229166666666666,0.5944444444444444],[0.18229166666666666,0.5944444444444444],[0.18229166666666666,0.5944444444444444],[0.18229166666666666,0.5944444444444444],[0.18229166666666666,0.5944444444444444],[0.18229166666666666,0.5944444444444444],[0.18229166666666666,0.5944444444444444],[0.18229166666666666,0.5944444444444444],[0.18229166666666666,0.5944444444444444]]","[[0.10916666666666662,0.006666666666666709],[0.10916666666666662,0.006666666666666709],[0.14729166666666677,0.0242592592592593],[0.17927083333333324,0.06703703703703712],[0.17927083333333324,0.06703703703703712],[0.19718749999999996,0.07574074074074069],[0.19718749999999996,0.07574074074074069],[0.21218750000000006,0.07925925925925917],[0.2068749999999999,0.07111111111111107],[0.2165625000000001,0.0787037037037037],[0.19375,0.03555555555555564],[0.1476041666666667,-0.013333333333333417],[0.13718750000000005,-0.12111111111111107],[0.18760416666666657,-0.1190740740740741],[0.18760416666666657,-0.1190740740740741],[0.19697916666666657,-0.17314814814814813],[0.21375000000000005,-0.19888888888888884],[0.21979166666666666,-0.22370370370370374],[0.2029166666666666,-0.2735185185185185],[0.2022916666666667,-0.32944444444444443],[0.20958333333333337,-0.3905555555555555],[0.19874999999999995,-0.4112962962962963],[0.23572916666666663,-0.42851851851851847],[0.23572916666666663,-0.42851851851851847],[0.19416666666666677,-0.3705555555555556],[0.134375,-0.36925925925925923],[0.07458333333333324,-0.36796296296296294],[0.06770833333333333,-0.3942592592592592],[0.08562500000000005,-0.38740740740740737],[0.096875,-0.3568518518518518],[0.10052083333333334,-0.31722222222222224],[0.12291666666666666,-0.247037037037037],[0.1478125000000001,-0.19666666666666666],[0.12802083333333342,-0.1814814814814815],[0.12802083333333342,-0.1814814814814815],[0.11510416666666666,-0.19648148148148153],[0.09052083333333343,-0.1992592592592593],[0.10770833333333343,-0.20481481481481487],[0.06906249999999996,-0.20055555555555557],[0.030416666666666713,-0.1962962962962963],[-0.02822916666666669,-0.21074074074074076],[-0.07677083333333339,-0.19888888888888884],[-0.14406249999999995,-0.2175925925925926],[-0.1889583333333333,-0.2155555555555555],[-0.1889583333333333,-0.2155555555555555],[-0.21041666666666667,-0.19092592592592597],[-0.25677083333333334,-0.21092592592592588],[-0.23604166666666668,-0.19685185185185186],[-0.23604166666666668,-0.19685185185185186],[-0.2570833333333333,-0.17999999999999997],[-0.29229166666666667,-0.15833333333333333],[-0.275,-0.1653703703703704],[-0.23104166666666662,-0.17740740740740743],[-0.1920833333333333,-0.20907407407407402],[-0.1920833333333333,-0.20907407407407402],[-0.1352083333333333,-0.22296296296296292],[-0.15437500000000004,-0.25870370370370366],[-0.18187500000000004,-0.2753703703703704],[-0.11458333333333333,-0.2614814814814815],[-0.10364583333333334,-0.25092592592592594],[-0.05510416666666664,-0.22555555555555556],[-0.0012500000000000473,-0.2044444444444444],[-0.01604166666666664,-0.21500000000000005],[0.003854166666666714,-0.17814814814814814],[0.003854166666666714,-0.17814814814814814],[0.029999999999999954,-0.14203703703703702],[0.03781249999999995,-0.12259259259259257],[0.11031250000000009,-0.10537037037037032],[0.18791666666666676,-0.09240740740740737],[0.18791666666666676,-0.09240740740740737],[0.22322916666666662,-0.07796296296296301],[0.2864583333333333,-0.04333333333333329],[0.3120833333333332,-0.0235185185185186],[0.3120833333333332,-0.0235185185185186],[0.3471874999999999,0.0003703703703704546],[0.3471874999999999,0.0003703703703704546],[0.41135416666666674,0.03629629629629634],[0.41135416666666674,0.03629629629629634],[0.3950000000000001,0.0801851851851851],[0.3336458333333333,0.23166666666666672],[0.3415625000000001,0.20555555555555555],[0.33395833333333325,0.1618518518518518],[0.3480208333333332,0.18074074074074079],[0.3480208333333332,0.18074074074074079],[0.3853125000000001,0.19203703703703712],[0.4044791666666666,0.1725925925925927],[0.41520833333333323,0.17444444444444454],[0.41520833333333323,0.17444444444444454],[0.39604166666666674,0.11518518518518527],[0.4087500000000001,0.08222222222222218],[0.4670833333333334,-0.005000000000000084],[0.49854166666666655,-0.2627777777777777],[0.5025000000000001,-0.3103703703703704],[0.5188541666666666,-0.31444444444444447],[0.5188541666666666,-0.31444444444444447],[0.49895833333333334,-0.415925925925926],[0.434375,-0.522037037037037],[0.42177083333333343,-0.562962962962963],[0.4021874999999999,-0.6774074074074075],[0.4021874999999999,-0.6774074074074075],[0.4179166666666667,-0.6974074074074075],[0.41593749999999996,-0.6814814814814815],[0.41416666666666657,-0.6666666666666666],[0.4547916666666666,-0.5650000000000001],[0.4547916666666666,-0.5650000000000001],[0.4791666666666667,-0.4522222222222222],[0.45427083333333323,-0.43148148148148147],[0.4359375,-0.3574074074074074],[0.4359375,-0.3574074074074074],[0.4872916666666666,-0.3005555555555556],[0.5114583333333333,-0.3101851851851852],[0.5438541666666665,-0.26722222222222225],[0.5702083333333334,-0.26222222222222225],[0.46552083333333344,-0.2887037037037037],[0.36302083333333335,-0.32518518518518524],[0.27666666666666656,-0.37518518518518523],[0.15895833333333323,-0.45444444444444443],[0.05593750000000005,-0.5042592592592593],[-0.027604166666666666,-0.5424074074074073],[-0.15812499999999996,-0.5814814814814815],[-0.31052083333333336,-0.620925925925926],[-0.44593750000000004,-0.6344444444444445],[-0.6016666666666667,-0.6724074074074075],[-0.6763541666666666,-0.7044444444444444],[-0.7532291666666667,-0.7264814814814815],[-0.7988541666666666,-0.7494444444444445],[-0.7988541666666666,-0.7494444444444445],[-0.8382291666666667,-0.787962962962963],[-0.8538541666666667,-0.8055555555555556],[-0.8809375,-0.8533333333333334],[-0.8886458333333334,-0.8522222222222222],[-0.9083333333333333,-0.8866666666666667],[-0.9084375,-0.902962962962963],[-0.8771875,-0.9074074074074074],[-0.8460416666666667,-0.9388888888888889],[-0.8489583333333334,-0.9537037037037037],[-0.8677083333333333,-0.9820370370370369],[-0.8547916666666667,-1.0131481481481481],[-0.8547916666666667,-1.0131481481481481],[-0.8364583333333333,-1.0153703703703703],[-0.8364583333333333,-1.0153703703703703],[-0.7668750000000001,-0.9977777777777777],[-0.7043750000000001,-0.9912962962962962],[-0.6219791666666666,-0.9827777777777779],[-0.6219791666666666,-0.9827777777777779],[-0.5689583333333333,-1.0187037037037037],[-0.5348958333333333,-0.9998148148148148],[-0.4583333333333333,-0.9146296296296296],[-0.3477083333333333,-0.846111111111111],[-0.22885416666666672,-0.7612962962962964],[-0.14166666666666666,-0.6737037037037037],[-0.041666666666666664,-0.5700000000000001],[0.007083333333333286,-0.4861111111111111],[0.05385416666666672,-0.4116666666666667],[0.05385416666666672,-0.4116666666666667],[0.10927083333333343,-0.2959259259259259],[0.14947916666666666,-0.16444444444444448],[0.18125,-0.0883333333333333],[0.20354166666666676,-0.07611111111111116],[0.20354166666666676,-0.07611111111111116],[0.2548958333333334,-0.015370370370370286],[0.2604166666666667,0.0025925925925925505],[0.2681250000000001,0.011666666666666582],[0.2678124999999999,0.010740740740740657],[0.28125,0.0257407407407407],[0.26677083333333323,0.030555555555555555],[0.23572916666666663,0.02759259259259255],[0.23687500000000009,0.022777777777777692],[0.23687500000000009,0.022777777777777692],[0.2543750000000001,0.031111111111111027],[0.25010416666666657,0.0418518518518519],[0.22770833333333323,0.0418518518518519],[0.23916666666666658,0.07240740740740745],[0.2504166666666668,0.10999999999999996],[0.2543750000000001,0.1316666666666667],[0.2490624999999999,0.14592592592592585],[0.2716666666666666,0.17037037037037037],[0.3051041666666668,0.10574074074074079],[0.27395833333333336,0.036481481481481566],[0.27395833333333336,0.036481481481481566],[0.2875,-0.04203703703703712],[0.23624999999999996,-0.0764814814814815],[0.1443749999999999,-0.14314814814814816],[0.1443749999999999,-0.14314814814814816],[0.1326041666666666,-0.18481481481481485],[0.10677083333333333,-0.23870370370370367],[0.09395833333333338,-0.2844444444444445],[0.07145833333333323,-0.35185185185185186],[0.058229166666666644,-0.43],[0.03083333333333336,-0.4118518518518518],[0.051041666666666666,-0.402962962962963],[0.04718749999999995,-0.37296296296296294],[0.109375,-0.3483333333333334],[0.22072916666666675,-0.2992592592592593],[0.22072916666666675,-0.2992592592592593],[0.22364583333333338,-0.32407407407407407],[0.2639583333333334,-0.3405555555555555],[0.27614583333333326,-0.34018518518518515],[0.29874999999999996,-0.36018518518518516],[0.3194791666666667,-0.3507407407407407],[0.3429166666666667,-0.34629629629629627],[0.36697916666666663,-0.3440740740740741],[0.36697916666666663,-0.3440740740740741],[0.3991666666666667,-0.35240740740740745],[0.44343750000000004,-0.3774074074074074],[0.47604166666666664,-0.4207407407407407],[0.5127083333333334,-0.40240740740740744],[0.5351041666666667,-0.387037037037037],[0.5726041666666667,-0.39666666666666667],[0.5870833333333333,-0.38740740740740737],[0.6087500000000001,-0.3537037037037037],[0.6077083333333334,-0.37222222222222223],[0.6384375000000001,-0.31592592592592594],[0.6384375000000001,-0.31592592592592594],[0.6015625,-0.3237037037037037],[0.5645833333333333,-0.3277777777777778],[0.5197916666666667,-0.3435185185185185],[0.5095833333333334,-0.41222222222222227],[0.5034375,-0.46296296296296297],[0.5034375,-0.46296296296296297],[0.4544791666666666,-0.5233333333333334],[0.4345833333333334,-0.5925925925925926],[0.4001041666666666,-0.705],[0.39781250000000007,-0.7087037037037037],[0.3858333333333334,-0.7857407407407407],[0.39000000000000007,-0.7992592592592593],[0.39000000000000007,-0.7992592592592593],[0.3914583333333333,-0.803888888888889],[0.39645833333333325,-0.8522222222222222],[0.36843750000000003,-0.8457407407407407],[0.3400000000000001,-0.8585185185185186],[0.3658333333333334,-0.8679629629629629],[0.38041666666666674,-0.8538888888888889],[0.38041666666666674,-0.8538888888888889],[0.3966666666666666,-0.7988888888888889],[0.3892708333333334,-0.7898148148148149],[0.34708333333333335,-0.8012962962962963],[0.34708333333333335,-0.8012962962962963],[0.33229166666666665,-0.7855555555555556],[0.31833333333333325,-0.7846296296296296],[0.28708333333333325,-0.741111111111111],[0.28447916666666656,-0.7111111111111111],[0.2671875,-0.6711111111111111],[0.2516666666666666,-0.6781481481481482],[0.2275000000000001,-0.6157407407407407],[0.19645833333333323,-0.6425925925925926],[0.19645833333333323,-0.6425925925925926],[0.19031250000000005,-0.6581481481481481],[0.17895833333333327,-0.6698148148148148],[0.17895833333333327,-0.6698148148148148],[0.16708333333333342,-0.6596296296296296],[0.1603125000000001,-0.6520370370370371],[0.1603125000000001,-0.6520370370370371],[0.1696875000000001,-0.6175925925925926],[0.18604166666666658,-0.625],[0.21604166666666677,-0.6251851851851852],[0.21604166666666677,-0.6251851851851852],[0.21489583333333329,-0.5707407407407408],[0.19968750000000005,-0.5837037037037037],[0.2048958333333334,-0.5737037037037037],[0.2,-0.5877777777777777],[0.20281250000000003,-0.5740740740740741],[0.20281250000000003,-0.5740740740740741],[0.20145833333333343,-0.6101851851851852],[0.20145833333333343,-0.6101851851851852],[0.19489583333333324,-0.6229629629629629],[0.18385416666666668,-0.6588888888888889],[0.17760416666666667,-0.655],[0.15770833333333342,-0.6583333333333333],[0.15770833333333342,-0.6583333333333333],[0.15145833333333342,-0.6674074074074073],[0.17572916666666671,-0.6557407407407407],[0.17572916666666671,-0.6557407407407407],[0.18479166666666677,-0.6187037037037038],[0.18250000000000005,-0.6109259259259259],[0.18979166666666672,-0.6135185185185186],[0.21822916666666667,-0.6105555555555555],[0.24697916666666658,-0.6129629629629629],[0.26572916666666657,-0.6053703703703703],[0.27333333333333343,-0.6298148148148148],[0.2700000000000001,-0.6525925925925925],[0.27281250000000007,-0.6922222222222223],[0.27281250000000007,-0.6922222222222223],[0.2671875,-0.7542592592592593],[0.25510416666666674,-0.7637037037037037],[0.2696875000000001,-0.7542592592592593],[0.28708333333333325,-0.7424074074074074],[0.2582291666666668,-0.6898148148148148],[0.2582291666666668,-0.6898148148148148],[0.22958333333333342,-0.6385185185185185],[0.2337500000000001,-0.6224074074074074],[0.2185416666666666,-0.5292592592592593],[0.2178124999999999,-0.4601851851851852],[0.2205208333333334,-0.3896296296296296],[0.2205208333333334,-0.3896296296296296],[0.21708333333333343,-0.3022222222222222],[0.22156250000000005,-0.2851851851851852],[0.2127083333333334,-0.24537037037037038],[0.19760416666666672,-0.22037037037037038],[0.20760416666666662,-0.24166666666666667],[0.21458333333333332,-0.2564814814814815],[0.1935416666666666,-0.26129629629629636],[0.19302083333333328,-0.2898148148148148],[0.19000000000000009,-0.30703703703703705],[0.18041666666666673,-0.30277777777777776],[0.1696875000000001,-0.3148148148148148],[0.15750000000000006,-0.30907407407407406],[0.15208333333333332,-0.31370370370370365],[0.15770833333333342,-0.29685185185185187],[0.15770833333333342,-0.29685185185185187],[0.15197916666666675,-0.2890740740740741],[0.1171875,-0.29962962962962963],[0.08677083333333328,-0.29314814814814816],[0.046875,-0.33111111111111113],[0.046875,-0.33111111111111113],[-0.0014583333333333095,-0.3477777777777778],[-0.033749999999999974,-0.34944444444444445],[-0.04510416666666662,-0.3146296296296296],[-0.04510416666666662,-0.3146296296296296],[-0.05697916666666671,-0.2862962962962963],[-0.07083333333333333,-0.29129629629629633],[-0.09031250000000005,-0.3224074074074075],[-0.07364583333333338,-0.35555555555555557],[-0.024895833333333308,-0.3768518518518518],[0.03166666666666664,-0.4368518518518518],[0.0900000000000001,-0.4727777777777778],[0.1560416666666666,-0.5101851851851852],[0.18197916666666672,-0.5672222222222223],[0.19489583333333324,-0.6616666666666667],[0.19489583333333324,-0.6616666666666667],[0.21135416666666676,-0.7479629629629629],[0.24416666666666675,-0.7724074074074074],[0.275,-0.7798148148148148],[0.24708333333333338,-0.8407407407407408],[0.24708333333333338,-0.8407407407407408],[0.22864583333333333,-0.8848148148148148],[0.21770833333333334,-0.8722222222222222],[0.20104166666666667,-0.8959259259259259],[0.1787499999999999,-0.9022222222222221],[0.1787499999999999,-0.9022222222222221],[0.1837500000000001,-0.9057407407407407],[0.1866666666666667,-0.9437037037037037],[0.1865624999999999,-0.9833333333333333],[0.15770833333333342,-1.047037037037037],[0.15770833333333342,-1.047037037037037],[0.12885416666666671,-1.1107407407407406],[0.1421875,-1.1222222222222222],[0.1421875,-1.1222222222222222],[0.15010416666666657,-1.1601851851851852],[0.15895833333333323,-1.1925925925925926],[0.16552083333333342,-1.1764814814814815],[0.1727083333333333,-1.220185185185185]]","[[0.10916666666666662,0.006666666666666709,0.00019999998807662678],[0.10916666666666662,0.006666666666666709,0.061800000011920986],[0.14729166666666677,0.0242592592592593,0.07359999999403755],[0.17927083333333324,0.06703703703703712,0.09030000001192207],[0.17927083333333324,0.06703703703703712,0.11009999999403419],[0.19718749999999996,0.07574074074074069,0.12349999999999994],[0.19718749999999996,0.07574074074074069,0.1401999999880772],[0.21218750000000006,0.07925925925925917,0.15690000000596172],[0.2068749999999999,0.07111111111111107,0.1746999999880785],[0.2165625000000001,0.0787037037037037,0.19019999998807435],[0.19375,0.03555555555555564,0.20780000001192178],[0.1476041666666667,-0.013333333333333417,0.2259999999999991],[0.13718750000000005,-0.12111111111111107,0.24319999998807873],[0.18760416666666657,-0.1190740740740741,0.259300000011919],[0.18760416666666657,-0.1190740740740741,0.27340000000595666],[0.19697916666666657,-0.17314814814814813,0.2901999999880758],[0.21375000000000005,-0.19888888888888884,0.30680000001191843],[0.21979166666666666,-0.22370370370370374,0.32759999999403533],[0.2029166666666666,-0.2735185185185185,0.34149999999999636],[0.2022916666666667,-0.32944444444444443,0.3568000000119156],[0.20958333333333337,-0.3905555555555555,0.3734000000059581],[0.19874999999999995,-0.4112962962962963,0.3901999999880772],[0.23572916666666663,-0.42851851851851847,0.41149999999999665],[0.23572916666666663,-0.42851851851851847,0.42369999998807373],[0.19416666666666677,-0.3705555555555556,0.44040000000595825],[0.134375,-0.36925925925925923,0.45700000000000074],[0.07458333333333324,-0.36796296296296294,0.4753000000119201],[0.06770833333333333,-0.3942592592592592,0.49330000001192076],[0.08562500000000005,-0.38740740740740737,0.5085999999940398],[0.096875,-0.3568518518518518,0.52769999998808],[0.10052083333333334,-0.31722222222222224,0.5429999999999993],[0.12291666666666666,-0.247037037037037,0.558599999994037],[0.1478125000000001,-0.19666666666666666,0.5775000000000006],[0.12802083333333342,-0.1814814814814815,0.5929999999999964],[0.12802083333333342,-0.1814814814814815,0.6069999999999993],[0.11510416666666666,-0.19648148148148153,0.6238000000119186],[0.09052083333333343,-0.1992592592592593,0.6419999999999959],[0.10770833333333343,-0.20481481481481487,0.6599000000059618],[0.06906249999999996,-0.20055555555555557,0.6738000000119158],[0.030416666666666713,-0.1962962962962963,0.6901999999880744],[-0.02822916666666669,-0.21074074074074076,0.7070000000000007],[-0.07677083333333339,-0.19888888888888884,0.7235999999940361],[-0.14406249999999995,-0.2175925925925926,0.7434999999999974],[-0.1889583333333333,-0.2155555555555555,0.7594999999999956],[-0.1889583333333333,-0.2155555555555555,0.7734000000059567],[-0.21041666666666667,-0.19092592592592597,0.7903000000119178],[-0.25677083333333334,-0.21092592592592588,0.8079999999999998],[-0.23604166666666668,-0.19685185185185186,0.8279000000059611],[-0.23604166666666668,-0.19685185185185186,0.84019999998808],[-0.2570833333333333,-0.17999999999999997,0.8569000000059575],[-0.29229166666666667,-0.15833333333333333,0.8754999999999953],[-0.275,-0.1653703703703704,0.8901999999880772],[-0.23104166666666662,-0.17740740740740743,0.9099999999999966],[-0.1920833333333333,-0.20907407407407402,0.929699999988074],[-0.1920833333333333,-0.20907407407407402,0.9400999999940396],[-0.1352083333333333,-0.22296296296296292,0.9569000000059589],[-0.15437500000000004,-0.25870370370370366,0.9735000000000014],[-0.18187500000000004,-0.2753703703703704,0.9934999999999974],[-0.11458333333333333,-0.2614814814814815,1.0081999999880793],[-0.10364583333333334,-0.25092592592592594,1.0234999999999985],[-0.05510416666666664,-0.22555555555555556,1.0406999999880782],[-0.0012500000000000473,-0.2044444444444444,1.0568000000119184],[-0.01604166666666664,-0.21500000000000005,1.0766999999880795],[0.003854166666666714,-0.17814814814814814,1.0919999999999987],[0.003854166666666714,-0.17814814814814814,1.1068000000119156],[0.029999999999999954,-0.14203703703703702,1.1235999999940347],[0.03781249999999995,-0.12259259259259257,1.1404999999999959],[0.11031250000000009,-0.10537037037037032,1.1600999999940385],[0.18791666666666676,-0.09240740740740737,1.1748000000119205],[0.18791666666666676,-0.09240740740740737,1.1900999999940396],[0.22322916666666662,-0.07796296296296301,1.2069000000059589],[0.2864583333333333,-0.04333333333333329,1.2235000000000014],[0.3120833333333332,-0.0235185185185186,1.2454999999999998],[0.3120833333333332,-0.0235185185185186,1.2570999999940398],[0.3471874999999999,0.0003703703703704546,1.2736999999880751],[0.3471874999999999,0.0003703703703704546,1.2905999999940363],[0.41135416666666674,0.03629629629629634,1.3125],[0.41135416666666674,0.03629629629629634,1.3238000000119214],[0.3950000000000001,0.0801851851851851,1.3404000000059568],[0.3336458333333333,0.23166666666666672,1.3599000000059576],[0.3415625000000001,0.20555555555555555,1.375699999988079],[0.33395833333333325,0.1618518518518518,1.3919000000059611],[0.3480208333333332,0.18074074074074079,1.413599999994041],[0.3480208333333332,0.18074074074074079,1.423599999994039],[0.3853125000000001,0.19203703703703712,1.4405999999940349],[0.4044791666666666,0.1725925925925927,1.458199999988075],[0.41520833333333323,0.17444444444444454,1.4783000000119202],[0.41520833333333323,0.17444444444444454,1.4903000000119206],[0.39604166666666674,0.11518518518518527,1.5070999999940398],[0.4087500000000001,0.08222222222222218,1.5244999999999962],[0.4670833333333334,-0.005000000000000084,1.5429999999999993],[0.49854166666666655,-0.2627777777777777,1.5580999999940346],[0.5025000000000001,-0.3103703703703704,1.5764999999999958],[0.5188541666666666,-0.31444444444444447,1.592599999994036],[0.5188541666666666,-0.31444444444444447,1.6068000000119156],[0.49895833333333334,-0.415925925925926,1.6235],[0.434375,-0.522037037037037,1.6400999999940353],[0.42177083333333343,-0.562962962962963,1.6600999999940385],[0.4021874999999999,-0.6774074074074075,1.6754999999999995],[0.4021874999999999,-0.6774074074074075,1.6900999999940396],[0.4179166666666667,-0.6974074074074075,1.706800000011917],[0.41593749999999996,-0.6814814814814815,1.7255999999940386],[0.41416666666666657,-0.6666666666666666,1.7431999999880787],[0.4547916666666666,-0.5650000000000001,1.759099999994035],[0.4547916666666666,-0.5650000000000001,1.7734000000059567],[0.4791666666666667,-0.4522222222222222,1.7903000000119178],[0.45427083333333323,-0.43148148148148147,1.8066999999880764],[0.4359375,-0.3574074074074074,1.8279999999999959],[0.4359375,-0.3574074074074074,1.8400999999940382],[0.4872916666666666,-0.3005555555555556,1.8568000000119156],[0.5114583333333333,-0.3101851851851852,1.8735],[0.5438541666666665,-0.26722222222222225,1.8918000000119193],[0.5702083333333334,-0.26222222222222225,1.910499999999999],[0.46552083333333344,-0.2887037037037037,1.9268000000119159],[0.36302083333333335,-0.32518518518518524,1.9438000000119189],[0.27666666666666656,-0.37518518518518523,1.959699999988075],[0.15895833333333323,-0.45444444444444443,1.9750999999940362],[0.05593750000000005,-0.5042592592592593,1.9933000000119208],[-0.027604166666666666,-0.5424074074074073,2.007900000005961],[-0.15812499999999996,-0.5814814814814815,2.0235999999940404],[-0.31052083333333336,-0.620925925925926,2.041699999988076],[-0.44593750000000004,-0.6344444444444445,2.0568000000119184],[-0.6016666666666667,-0.6724074074074075,2.0765999999940377],[-0.6763541666666666,-0.7044444444444444,2.0926999999880778],[-0.7532291666666667,-0.7264814814814815,2.1104999999999947],[-0.7988541666666666,-0.7494444444444445,2.127300000011921],[-0.7988541666666666,-0.7494444444444445,2.140199999988077],[-0.8382291666666667,-0.787962962962963,2.1569999999999965],[-0.8538541666666667,-0.8055555555555556,2.1745999999940366],[-0.8809375,-0.8533333333333334,2.192999999999998],[-0.8886458333333334,-0.8522222222222222,2.2094000000059566],[-0.9083333333333333,-0.8866666666666667,2.2258000000119225],[-0.9084375,-0.902962962962963,2.2439999999999998],[-0.8771875,-0.9074074074074074,2.2605000000000004],[-0.8460416666666667,-0.9388888888888889,2.277900000005957],[-0.8489583333333334,-0.9537037037037037,2.2938000000119203],[-0.8677083333333333,-0.9820370370370369,2.311599999994037],[-0.8547916666666667,-1.0131481481481481,2.3281999999880796],[-0.8547916666666667,-1.0131481481481481,2.34019999998808],[-0.8364583333333333,-1.0153703703703703,2.364300000011916],[-0.8364583333333333,-1.0153703703703703,2.3735],[-0.7668750000000001,-0.9977777777777777,2.390400000005961],[-0.7043750000000001,-0.9912962962962962,2.409599999994036],[-0.6219791666666666,-0.9827777777777779,2.4246999999880785],[-0.6219791666666666,-0.9827777777777779,2.4400999999940396],[-0.5689583333333333,-1.0187037037037037,2.4570000000000007],[-0.5348958333333333,-0.9998148148148148,2.4734000000059595],[-0.4583333333333333,-0.9146296296296296,2.4931999999880787],[-0.3477083333333333,-0.846111111111111,2.5068000000119213],[-0.22885416666666672,-0.7612962962962964,2.5234999999999985],[-0.14166666666666666,-0.6737037037037037,2.5401999999880758],[-0.041666666666666664,-0.5700000000000001,2.5574000000059556],[0.007083333333333286,-0.4861111111111111,2.576300000011919],[0.05385416666666672,-0.4116666666666667,2.5905999999940406],[0.05385416666666672,-0.4116666666666667,2.6068000000119156],[0.10927083333333343,-0.2959259259259259,2.6235],[0.14947916666666666,-0.16444444444444448,2.6400999999940353],[0.18125,-0.0883333333333333,2.6585999999940384],[0.20354166666666676,-0.07611111111111116,2.6746999999880785],[0.20354166666666676,-0.07611111111111116,2.6900999999940396],[0.2548958333333334,-0.015370370370370286,2.7070000000000007],[0.2604166666666667,0.0025925925925925505,2.7235000000000014],[0.2681250000000001,0.011666666666666582,2.7400999999940368],[0.2678124999999999,0.010740740740740657,2.756999999999998],[0.28125,0.0257407407407407,2.7734999999999985],[0.26677083333333323,0.030555555555555555,2.7901999999880758],[0.23572916666666663,0.02759259259259255,2.8068000000119184],[0.23687500000000009,0.022777777777777692,2.8274000000059587],[0.23687500000000009,0.022777777777777692,2.840099999994038],[0.2543750000000001,0.031111111111111027,2.8568000000119156],[0.25010416666666657,0.0418518518518519,2.8735],[0.22770833333333323,0.0418518518518519,2.890199999988077],[0.23916666666666658,0.07240740740740745,2.909599999994036],[0.2504166666666668,0.10999999999999996,2.9249000000059553],[0.2543750000000001,0.1316666666666667,2.941300000011921],[0.2490624999999999,0.14592592592592585,2.956800000011917],[0.2716666666666666,0.17037037037037037,2.977800000011918],[0.3051041666666668,0.10574074074074079,2.9933000000119208],[0.27395833333333336,0.036481481481481566,3.0079999999999956],[0.27395833333333336,0.036481481481481566,3.0271999999880776],[0.2875,-0.04203703703703712,3.040300000011918],[0.23624999999999996,-0.0764814814814815,3.056999999999995],[0.1443749999999999,-0.14314814814814816,3.077900000005961],[0.1443749999999999,-0.14314814814814816,3.090300000011922],[0.1326041666666666,-0.18481481481481485,3.107099999994034],[0.10677083333333333,-0.23870370370370367,3.1239999999999952],[0.09395833333333338,-0.2844444444444445,3.141999999999996],[0.07145833333333323,-0.35185185185185186,3.1599999999999966],[0.058229166666666644,-0.43,3.1739999999999995],[0.03083333333333336,-0.4118518518518518,3.1903000000119164],[0.051041666666666666,-0.402962962962963,3.2088000000119195],[0.04718749999999995,-0.37296296296296294,3.224499999999999],[0.109375,-0.3483333333333334,3.2426999999880763],[0.22072916666666675,-0.2992592592592593,3.259199999988077],[0.22072916666666675,-0.2992592592592593,3.2734999999999985],[0.22364583333333338,-0.32407407407407407,3.290300000011918],[0.2639583333333334,-0.3405555555555555,3.3069000000059603],[0.27614583333333326,-0.34018518518518515,3.3275999999940353],[0.29874999999999996,-0.36018518518518516,3.3424000000059593],[0.3194791666666667,-0.3507407407407407,3.35740000000596],[0.3429166666666667,-0.34629629629629627,3.3735999999940347],[0.36697916666666663,-0.3440740740740741,3.396599999994038],[0.36697916666666663,-0.3440740740740741,3.40680000001192],[0.3991666666666667,-0.35240740740740745,3.4239000000059576],[0.44343750000000004,-0.3774074074074074,3.4403000000119164],[0.47604166666666664,-0.4207407407407407,3.459300000011922],[0.5127083333333334,-0.40240740740740744,3.4756999999880804],[0.5351041666666667,-0.387037037037037,3.4931999999880787],[0.5726041666666667,-0.39666666666666667,3.5101999999880746],[0.5870833333333333,-0.38740740740740737,3.527000000000001],[0.6087500000000001,-0.3537037037037037,3.542199999988078],[0.6077083333333334,-0.37222222222222223,3.5584000000059604],[0.6384375000000001,-0.31592592592592594,3.5784000000059564],[0.6384375000000001,-0.31592592592592594,3.590400000005957],[0.6015625,-0.3237037037037037,3.6069000000059575],[0.5645833333333333,-0.3277777777777778,3.6236999999880766],[0.5197916666666667,-0.3435185185185185,3.644400000005959],[0.5095833333333334,-0.41222222222222227,3.6608000000119176],[0.5034375,-0.46296296296296297,3.675800000011918],[0.5034375,-0.46296296296296297,3.6939999999999955],[0.4544791666666666,-0.5233333333333334,3.7070000000000007],[0.4345833333333334,-0.5925925925925926,3.72380000001192],[0.4001041666666666,-0.705,3.743900000005958],[0.39781250000000007,-0.7087037037037037,3.760800000011919],[0.3858333333333334,-0.7857407407407407,3.7759999999999962],[0.39000000000000007,-0.7992592592592593,3.79490000000596],[0.39000000000000007,-0.7992592592592593,3.8069000000059603],[0.3914583333333333,-0.803888888888889,3.8235999999940375],[0.39645833333333325,-0.8522222222222222,3.841800000011922],[0.36843750000000003,-0.8457407407407407,3.86040000000596],[0.3400000000000001,-0.8585185185185186,3.8768000000119187],[0.3658333333333334,-0.8679629629629629,3.895800000011917],[0.38041666666666674,-0.8538888888888889,3.91280000001192],[0.38041666666666674,-0.8538888888888889,3.923599999994039],[0.3966666666666666,-0.7988888888888889,3.9400999999940396],[0.3892708333333334,-0.7898148148148149,3.959300000011922],[0.34708333333333335,-0.8012962962962963,3.978400000005962],[0.34708333333333335,-0.8012962962962963,3.9900999999940368],[0.33229166666666665,-0.7855555555555556,4.006800000011921],[0.31833333333333325,-0.7846296296296296,4.024099999994036],[0.28708333333333325,-0.741111111111111,4.0405000000000015],[0.28447916666666656,-0.7111111111111111,4.056800000011918],[0.2671875,-0.6711111111111111,4.073400000005961],[0.2516666666666666,-0.6781481481481482,4.0938000000119175],[0.2275000000000001,-0.6157407407407407,4.109599999994039],[0.19645833333333323,-0.6425925925925926,4.127099999994037],[0.19645833333333323,-0.6425925925925926,4.140300000011919],[0.19031250000000005,-0.6581481481481481,4.159999999999997],[0.17895833333333327,-0.6698148148148148,4.176199999988079],[0.17895833333333327,-0.6698148148148148,4.190300000011916],[0.16708333333333342,-0.6596296296296296,4.206900000005959],[0.1603125000000001,-0.6520370370370371,4.22940000000596],[0.1603125000000001,-0.6520370370370371,4.240199999988079],[0.1696875000000001,-0.6175925925925926,4.2571999999880745],[0.18604166666666658,-0.625,4.27359999999404],[0.21604166666666677,-0.6251851851851852,4.293599999994036],[0.21604166666666677,-0.6251851851851852,4.306999999999995],[0.21489583333333329,-0.5707407407407408,4.323499999999996],[0.19968750000000005,-0.5837037037037037,4.342599999994036],[0.2048958333333334,-0.5737037037037037,4.359499999999997],[0.2,-0.5877777777777777,4.373800000011919],[0.20281250000000003,-0.5740740740740741,4.396099999994036],[0.20281250000000003,-0.5740740740740741,4.406699999988078],[0.20145833333333343,-0.6101851851851852,4.423499999999997],[0.20145833333333343,-0.6101851851851852,4.44009999999404],[0.19489583333333324,-0.6229629629629629,4.456800000011917],[0.18385416666666668,-0.6588888888888889,4.473699999988078],[0.17760416666666667,-0.655,4.493300000011921],[0.15770833333333342,-0.6583333333333333,4.509099999994035],[0.15770833333333342,-0.6583333333333333,4.52359999999404],[0.15145833333333342,-0.6674074074074073,4.540199999988076],[0.17572916666666671,-0.6557407407407407,4.55690000000596],[0.17572916666666671,-0.6557407407407407,4.573400000005961],[0.18479166666666677,-0.6187037037037038,4.590099999994038],[0.18250000000000005,-0.6109259259259259,4.607999999999997],[0.18979166666666672,-0.6135185185185186,4.625999999999998],[0.21822916666666667,-0.6105555555555555,4.644800000011919],[0.24697916666666658,-0.6129629629629629,4.660599999994041],[0.26572916666666657,-0.6053703703703703,4.677199999988076],[0.27333333333333343,-0.6298148148148148,4.693800000011919],[0.2700000000000001,-0.6525925925925925,4.709400000005957],[0.27281250000000007,-0.6922222222222223,4.72980000001192],[0.27281250000000007,-0.6922222222222223,4.740099999994037],[0.2671875,-0.7542592592592593,4.756800000011921],[0.25510416666666674,-0.7637037037037037,4.7734999999999985],[0.2696875000000001,-0.7542592592592593,4.790300000011918],[0.28708333333333325,-0.7424074074074074,4.806699999988076],[0.2582291666666668,-0.6898148148148148,4.82819999998808],[0.2582291666666668,-0.6898148148148148,4.84019999998808],[0.22958333333333342,-0.6385185185185185,4.856800000011916],[0.2337500000000001,-0.6224074074074074,4.873599999994035],[0.2185416666666666,-0.5292592592592593,4.890099999994035],[0.2178124999999999,-0.4601851851851852,4.909999999999997],[0.2205208333333334,-0.3896296296296296,4.928300000011916],[0.2205208333333334,-0.3896296296296296,4.939999999999998],[0.21708333333333343,-0.3022222222222222,4.957000000000001],[0.22156250000000005,-0.2851851851851852,4.9734000000059595],[0.2127083333333334,-0.24537037037037038,4.993499999999997],[0.19760416666666672,-0.22037037037037038,5.009300000011919],[0.20760416666666662,-0.24166666666666667,5.026300000011922],[0.21458333333333332,-0.2564814814814815,5.04230000001192],[0.1935416666666666,-0.26129629629629636,5.061599999994037],[0.19302083333333328,-0.2898148148148148,5.076999999999998],[0.19000000000000009,-0.30703703703703705,5.092999999999996],[0.18041666666666673,-0.30277777777777776,5.110499999999995],[0.1696875000000001,-0.3148148148148148,5.126199999988074],[0.15750000000000006,-0.30907407407407406,5.142400000005956],[0.15208333333333332,-0.31370370370370365,5.160699999988076],[0.15770833333333342,-0.29685185185185187,5.17590000000596],[0.15770833333333342,-0.29685185185185187,5.19009999999404],[0.15197916666666675,-0.2890740740740741,5.206699999988075],[0.1171875,-0.29962962962962963,5.225099999994036],[0.08677083333333328,-0.29314814814814816,5.2434000000059555],[0.046875,-0.33111111111111113,5.2595999999940375],[0.046875,-0.33111111111111113,5.273400000005957],[-0.0014583333333333095,-0.3477777777777778,5.290099999994041],[-0.033749999999999974,-0.34944444444444445,5.306800000011918],[-0.04510416666666662,-0.3146296296296296,5.328300000011922],[-0.04510416666666662,-0.3146296296296296,5.340099999994038],[-0.05697916666666671,-0.2862962962962963,5.356800000011916],[-0.07083333333333333,-0.29129629629629633,5.374699999988074],[-0.09031250000000005,-0.3224074074074075,5.390400000005961],[-0.07364583333333338,-0.35555555555555557,5.4100999999940385],[-0.024895833333333308,-0.3768518518518518,5.426400000005955],[0.03166666666666664,-0.4368518518518518,5.441300000011921],[0.0900000000000001,-0.4727777777777778,5.4570999999940355],[0.1560416666666666,-0.5101851851851852,5.473500000000001],[0.18197916666666672,-0.5672222222222223,5.4940999999940345],[0.19489583333333324,-0.6616666666666667,5.5104000000059585],[0.19489583333333324,-0.6616666666666667,5.5234999999999985],[0.21135416666666676,-0.7479629629629629,5.540099999994041],[0.24416666666666675,-0.7724074074074074,5.557300000011921],[0.275,-0.7798148148148148,5.576599999994038],[0.24708333333333338,-0.8407407407407408,5.591800000011922],[0.24708333333333338,-0.8407407407407408,5.606699999988081],[0.22864583333333333,-0.8848148148148148,5.623599999994035],[0.21770833333333334,-0.8722222222222222,5.640099999994035],[0.20104166666666667,-0.8959259259259259,5.6600999999940385],[0.1787499999999999,-0.9022222222222221,5.675199999988074],[0.1787499999999999,-0.9022222222222221,5.69009999999404],[0.1837500000000001,-0.9057407407407407,5.706699999988075],[0.1866666666666667,-0.9437037037037037,5.725199999988078],[0.1865624999999999,-0.9833333333333333,5.743099999994037],[0.15770833333333342,-1.047037037037037,5.759499999999996],[0.15770833333333342,-1.047037037037037,5.773400000005957],[0.12885416666666671,-1.1107407407407406,5.790099999994041],[0.1421875,-1.1222222222222222,5.806699999988076],[0.1421875,-1.1222222222222222,5.8235999999940375],[0.15010416666666657,-1.1601851851851852,5.840099999994038],[0.15895833333333323,-1.1925925925925926,5.856699999988081],[0.16552083333333342,-1.1764814814814815,5.873599999994035],[0.1727083333333333,-1.220185185185185,5.896099999994036]]","[0.00019999998807662678,0.061800000011920986,0.07359999999403755,0.09030000001192207,0.11009999999403419,0.12349999999999994,0.1401999999880772,0.15690000000596172,0.1746999999880785,0.19019999998807435,0.20780000001192178,0.2259999999999991,0.24319999998807873,0.259300000011919,0.27340000000595666,0.2901999999880758,0.30680000001191843,0.32759999999403533,0.34149999999999636,0.3568000000119156,0.3734000000059581,0.3901999999880772,0.41149999999999665,0.42369999998807373,0.44040000000595825,0.45700000000000074,0.4753000000119201,0.49330000001192076,0.5085999999940398,0.52769999998808,0.5429999999999993,0.558599999994037,0.5775000000000006,0.5929999999999964,0.6069999999999993,0.6238000000119186,0.6419999999999959,0.6599000000059618,0.6738000000119158,0.6901999999880744,0.7070000000000007,0.7235999999940361,0.7434999999999974,0.7594999999999956,0.7734000000059567,0.7903000000119178,0.8079999999999998,0.8279000000059611,0.84019999998808,0.8569000000059575,0.8754999999999953,0.8901999999880772,0.9099999999999966,0.929699999988074,0.9400999999940396,0.9569000000059589,0.9735000000000014,0.9934999999999974,1.0081999999880793,1.0234999999999985,1.0406999999880782,1.0568000000119184,1.0766999999880795,1.0919999999999987,1.1068000000119156,1.1235999999940347,1.1404999999999959,1.1600999999940385,1.1748000000119205,1.1900999999940396,1.2069000000059589,1.2235000000000014,1.2454999999999998,1.2570999999940398,1.2736999999880751,1.2905999999940363,1.3125,1.3238000000119214,1.3404000000059568,1.3599000000059576,1.375699999988079,1.3919000000059611,1.413599999994041,1.423599999994039,1.4405999999940349,1.458199999988075,1.4783000000119202,1.4903000000119206,1.5070999999940398,1.5244999999999962,1.5429999999999993,1.5580999999940346,1.5764999999999958,1.592599999994036,1.6068000000119156,1.6235,1.6400999999940353,1.6600999999940385,1.6754999999999995,1.6900999999940396,1.706800000011917,1.7255999999940386,1.7431999999880787,1.759099999994035,1.7734000000059567,1.7903000000119178,1.8066999999880764,1.8279999999999959,1.8400999999940382,1.8568000000119156,1.8735,1.8918000000119193,1.910499999999999,1.9268000000119159,1.9438000000119189,1.959699999988075,1.9750999999940362,1.9933000000119208,2.007900000005961,2.0235999999940404,2.041699999988076,2.0568000000119184,2.0765999999940377,2.0926999999880778,2.1104999999999947,2.127300000011921,2.140199999988077,2.1569999999999965,2.1745999999940366,2.192999999999998,2.2094000000059566,2.2258000000119225,2.2439999999999998,2.2605000000000004,2.277900000005957,2.2938000000119203,2.311599999994037,2.3281999999880796,2.34019999998808,2.364300000011916,2.3735,2.390400000005961,2.409599999994036,2.4246999999880785,2.4400999999940396,2.4570000000000007,2.4734000000059595,2.4931999999880787,2.5068000000119213,2.5234999999999985,2.5401999999880758,2.5574000000059556,2.576300000011919,2.5905999999940406,2.6068000000119156,2.6235,2.6400999999940353,2.6585999999940384,2.6746999999880785,2.6900999999940396,2.7070000000000007,2.7235000000000014,2.7400999999940368,2.756999999999998,2.7734999999999985,2.7901999999880758,2.8068000000119184,2.8274000000059587,2.840099999994038,2.8568000000119156,2.8735,2.890199999988077,2.909599999994036,2.9249000000059553,2.941300000011921,2.956800000011917,2.977800000011918,2.9933000000119208,3.0079999999999956,3.0271999999880776,3.040300000011918,3.056999999999995,3.077900000005961,3.090300000011922,3.107099999994034,3.1239999999999952,3.141999999999996,3.1599999999999966,3.1739999999999995,3.1903000000119164,3.2088000000119195,3.224499999999999,3.2426999999880763,3.259199999988077,3.2734999999999985,3.290300000011918,3.3069000000059603,3.3275999999940353,3.3424000000059593,3.35740000000596,3.3735999999940347,3.396599999994038,3.40680000001192,3.4239000000059576,3.4403000000119164,3.459300000011922,3.4756999999880804,3.4931999999880787,3.5101999999880746,3.527000000000001,3.542199999988078,3.5584000000059604,3.5784000000059564,3.590400000005957,3.6069000000059575,3.6236999999880766,3.644400000005959,3.6608000000119176,3.675800000011918,3.6939999999999955,3.7070000000000007,3.72380000001192,3.743900000005958,3.760800000011919,3.7759999999999962,3.79490000000596,3.8069000000059603,3.8235999999940375,3.841800000011922,3.86040000000596,3.8768000000119187,3.895800000011917,3.91280000001192,3.923599999994039,3.9400999999940396,3.959300000011922,3.978400000005962,3.9900999999940368,4.006800000011921,4.024099999994036,4.0405000000000015,4.056800000011918,4.073400000005961,4.0938000000119175,4.109599999994039,4.127099999994037,4.140300000011919,4.159999999999997,4.176199999988079,4.190300000011916,4.206900000005959,4.22940000000596,4.240199999988079,4.2571999999880745,4.27359999999404,4.293599999994036,4.306999999999995,4.323499999999996,4.342599999994036,4.359499999999997,4.373800000011919,4.396099999994036,4.406699999988078,4.423499999999997,4.44009999999404,4.456800000011917,4.473699999988078,4.493300000011921,4.509099999994035,4.52359999999404,4.540199999988076,4.55690000000596,4.573400000005961,4.590099999994038,4.607999999999997,4.625999999999998,4.644800000011919,4.660599999994041,4.677199999988076,4.693800000011919,4.709400000005957,4.72980000001192,4.740099999994037,4.756800000011921,4.7734999999999985,4.790300000011918,4.806699999988076,4.82819999998808,4.84019999998808,4.856800000011916,4.873599999994035,4.890099999994035,4.909999999999997,4.928300000011916,4.939999999999998,4.957000000000001,4.9734000000059595,4.993499999999997,5.009300000011919,5.026300000011922,5.04230000001192,5.061599999994037,5.076999999999998,5.092999999999996,5.110499999999995,5.126199999988074,5.142400000005956,5.160699999988076,5.17590000000596,5.19009999999404,5.206699999988075,5.225099999994036,5.2434000000059555,5.2595999999940375,5.273400000005957,5.290099999994041,5.306800000011918,5.328300000011922,5.340099999994038,5.356800000011916,5.374699999988074,5.390400000005961,5.4100999999940385,5.426400000005955,5.441300000011921,5.4570999999940355,5.473500000000001,5.4940999999940345,5.5104000000059585,5.5234999999999985,5.540099999994041,5.557300000011921,5.576599999994038,5.591800000011922,5.606699999988081,5.623599999994035,5.640099999994035,5.6600999999940385,5.675199999988074,5.69009999999404,5.706699999988075,5.725199999988078,5.743099999994037,5.759499999999996,5.773400000005957,5.790099999994041,5.806699999988076,5.8235999999940375,5.840099999994038,5.856699999988081,5.873599999994035,5.896099999994036]","[1732683819883,1732683819933,1732683819945,1732683819962,1732683819982,1732683819995,1732683820012,1732683820029,1732683820046,1732683820062,1732683820080,1732683820098,1732683820115,1732683820131,1732683820145,1732683820162,1732683820178,1732683820199,1732683820213,1732683820228,1732683820245,1732683820262,1732683820283,1732683820295,1732683820312,1732683820329,1732683820347,1732683820365,1732683820380,1732683820399,1732683820415,1732683820430,1732683820449,1732683820465,1732683820479,1732683820496,1732683820514,1732683820532,1732683820545,1732683820562,1732683820579,1732683820595,1732683820615,1732683820631,1732683820645,1732683820662,1732683820680,1732683820700,1732683820712,1732683820729,1732683820747,1732683820762,1732683820782,1732683820801,1732683820812,1732683820829,1732683820845,1732683820865,1732683820880,1732683820895,1732683820912,1732683820929,1732683820948,1732683820964,1732683820979,1732683820995,1732683821012,1732683821032,1732683821046,1732683821062,1732683821079,1732683821095,1732683821117,1732683821129,1732683821145,1732683821162,1732683821184,1732683821196,1732683821212,1732683821232,1732683821247,1732683821264,1732683821285,1732683821295,1732683821312,1732683821330,1732683821350,1732683821362,1732683821379,1732683821396,1732683821415,1732683821430,1732683821448,1732683821464,1732683821478,1732683821495,1732683821512,1732683821532,1732683821547,1732683821562,1732683821578,1732683821597,1732683821615,1732683821631,1732683821645,1732683821662,1732683821678,1732683821700,1732683821712,1732683821729,1732683821745,1732683821763,1732683821782,1732683821799,1732683821815,1732683821831,1732683821847,1732683821865,1732683821880,1732683821895,1732683821913,1732683821928,1732683821948,1732683821964,1732683821982,1732683821999,1732683822012,1732683822029,1732683822046,1732683822065,1732683822081,1732683822097,1732683822116,1732683822132,1732683822150,1732683822165,1732683822183,1732683822200,1732683822212,1732683822236,1732683822245,1732683822262,1732683822281,1732683822296,1732683822312,1732683822329,1732683822345,1732683822365,1732683822378,1732683822395,1732683822412,1732683822429,1732683822448,1732683822462,1732683822478,1732683822495,1732683822512,1732683822530,1732683822546,1732683822562,1732683822579,1732683822595,1732683822612,1732683822629,1732683822645,1732683822662,1732683822678,1732683822699,1732683822712,1732683822729,1732683822745,1732683822762,1732683822781,1732683822797,1732683822813,1732683822828,1732683822849,1732683822865,1732683822880,1732683822899,1732683822912,1732683822929,1732683822950,1732683822962,1732683822979,1732683822996,1732683823014,1732683823032,1732683823046,1732683823062,1732683823080,1732683823096,1732683823114,1732683823131,1732683823145,1732683823162,1732683823179,1732683823199,1732683823214,1732683823229,1732683823245,1732683823268,1732683823279,1732683823296,1732683823312,1732683823331,1732683823347,1732683823365,1732683823382,1732683823399,1732683823414,1732683823430,1732683823450,1732683823462,1732683823479,1732683823495,1732683823516,1732683823532,1732683823547,1732683823566,1732683823579,1732683823596,1732683823616,1732683823632,1732683823648,1732683823667,1732683823679,1732683823695,1732683823713,1732683823732,1732683823748,1732683823768,1732683823784,1732683823795,1732683823812,1732683823831,1732683823850,1732683823862,1732683823878,1732683823896,1732683823912,1732683823928,1732683823945,1732683823966,1732683823981,1732683823999,1732683824012,1732683824032,1732683824048,1732683824062,1732683824079,1732683824101,1732683824112,1732683824129,1732683824145,1732683824165,1732683824179,1732683824195,1732683824214,1732683824231,1732683824246,1732683824268,1732683824278,1732683824295,1732683824312,1732683824329,1732683824345,1732683824365,1732683824381,1732683824397,1732683824414,1732683824431,1732683824447,1732683824464,1732683824482,1732683824500,1732683824518,1732683824534,1732683824551,1732683824567,1732683824583,1732683824603,1732683824614,1732683824630,1732683824647,1732683824664,1732683824680,1732683824702,1732683824714,1732683824731,1732683824747,1732683824764,1732683824784,1732683824802,1732683824814,1732683824831,1732683824847,1732683824867,1732683824883,1732683824900,1732683824916,1732683824935,1732683824951,1732683824967,1732683824984,1732683825000,1732683825016,1732683825034,1732683825050,1732683825064,1732683825080,1732683825099,1732683825117,1732683825133,1732683825147,1732683825164,1732683825180,1732683825202,1732683825214,1732683825230,1732683825248,1732683825264,1732683825284,1732683825300,1732683825315,1732683825331,1732683825347,1732683825368,1732683825384,1732683825397,1732683825414,1732683825431,1732683825450,1732683825465,1732683825480,1732683825497,1732683825514,1732683825534,1732683825549,1732683825564,1732683825580,1732683825599,1732683825617,1732683825633,1732683825647,1732683825664,1732683825680,1732683825697,1732683825714,1732683825730,1732683825747,1732683825770]","[[1064.8,543.6],[1064.8,543.6],[1101.4,553.1],[1132.1,576.2],[1132.1,576.2],[1149.3,580.9],[1149.3,580.9],[1163.7,582.8],[1158.6,578.4],[1167.9,582.5],[1146,559.2],[1101.7,532.8],[1091.7,474.6],[1140.1,475.7],[1140.1,475.7],[1149.1,446.5],[1165.2,432.6],[1171,419.2],[1154.8,392.3],[1154.2,362.1],[1161.2,329.1],[1150.8,317.9],[1186.3,308.6],[1186.3,308.6],[1146.4,339.9],[1089,340.6],[1031.6,341.3],[1025,327.1],[1042.2,330.8],[1053,347.3],[1056.5,368.7],[1078,406.6],[1101.9,433.8],[1082.9,442],[1082.9,442],[1070.5,433.9],[1046.9,432.4],[1063.4,429.4],[1026.3,431.7],[989.2,434],[932.9,426.2],[886.3,432.6],[821.7,422.5],[778.6,423.6],[778.6,423.6],[758,436.9],[713.5,426.1],[733.4,433.7],[733.4,433.7],[713.2,442.8],[679.4,454.5],[696,450.7],[738.2,444.2],[775.6,427.1],[775.6,427.1],[830.2,419.6],[811.8,400.3],[785.4,391.3],[850,398.8],[860.5,404.5],[907.1,418.2],[958.8,429.6],[944.6,423.9],[963.7,443.8],[963.7,443.8],[988.8,463.3],[996.3,473.8],[1065.9,483.1],[1140.4,490.1],[1140.4,490.1],[1174.3,497.9],[1235,516.6],[1259.6,527.3],[1259.6,527.3],[1293.3,540.2],[1293.3,540.2],[1354.9,559.6],[1354.9,559.6],[1339.2,583.3],[1280.3,665.1],[1287.9,651],[1280.6,627.4],[1294.1,637.6],[1294.1,637.6],[1329.9,643.7],[1348.3,633.2],[1358.6,634.2],[1358.6,634.2],[1340.2,602.2],[1352.4,584.4],[1408.4,537.3],[1438.6,398.1],[1442.4,372.4],[1458.1,370.2],[1458.1,370.2],[1439,315.4],[1377,258.1],[1364.9,236],[1346.1,174.2],[1346.1,174.2],[1361.2,163.4],[1359.3,172],[1357.6,180],[1396.6,234.9],[1396.6,234.9],[1420,295.8],[1396.1,307],[1378.5,347],[1378.5,347],[1427.8,377.7],[1451,372.5],[1482.1,395.7],[1507.4,398.4],[1406.9,384.1],[1308.5,364.4],[1225.6,337.4],[1112.6,294.6],[1013.7,267.7],[933.5,247.1],[808.2,226],[661.9,204.7],[531.9,197.4],[382.4,176.9],[310.7,159.6],[236.9,147.7],[193.1,135.3],[193.1,135.3],[155.3,114.5],[140.3,105],[114.3,79.2],[106.9,79.8],[88,61.2],[87.9,52.4],[117.9,50],[147.8,33],[145,25],[127,9.7],[139.4,-7.1],[139.4,-7.1],[157,-8.3],[157,-8.3],[223.8,1.2],[283.8,4.7],[362.9,9.3],[362.9,9.3],[413.8,-10.1],[446.5,0.1],[520,46.1],[626.2,83.1],[740.3,128.9],[824,176.2],[920,232.2],[966.8,277.5],[1011.7,317.7],[1011.7,317.7],[1064.9,380.2],[1103.5,451.2],[1134,492.3],[1155.4,498.9],[1155.4,498.9],[1204.7,531.7],[1210,541.4],[1217.4,546.3],[1217.1,545.8],[1230,553.9],[1216.1,556.5],[1186.3,554.9],[1187.4,552.3],[1187.4,552.3],[1204.2,556.8],[1200.1,562.6],[1178.6,562.6],[1189.6,579.1],[1200.4,599.4],[1204.2,611.1],[1199.1,618.8],[1220.8,632],[1252.9,597.1],[1223,559.7],[1223,559.7],[1236,517.3],[1186.8,498.7],[1098.6,462.7],[1098.6,462.7],[1087.3,440.2],[1062.5,411.1],[1050.2,386.4],[1028.6,350],[1015.9,307.8],[989.6,317.6],[1009,322.4],[1005.3,338.6],[1065,351.9],[1171.9,378.4],[1171.9,378.4],[1174.7,365],[1213.4,356.1],[1225.1,356.3],[1246.8,345.5],[1266.7,350.6],[1289.2,353],[1312.3,354.2],[1312.3,354.2],[1343.2,349.7],[1385.7,336.2],[1417,312.8],[1452.2,322.7],[1473.7,331],[1509.7,325.8],[1523.6,330.8],[1544.4,349],[1543.4,339],[1572.9,369.4],[1572.9,369.4],[1537.5,365.2],[1502,363],[1459,354.5],[1449.2,317.4],[1443.3,290],[1443.3,290],[1396.3,257.4],[1377.2,220],[1344.1,159.3],[1341.9,157.3],[1330.4,115.7],[1334.4,108.4],[1334.4,108.4],[1335.8,105.9],[1340.6,79.8],[1313.7,83.3],[1286.4,76.4],[1311.2,71.3],[1325.2,78.9],[1325.2,78.9],[1340.8,108.6],[1333.7,113.5],[1293.2,107.3],[1293.2,107.3],[1279,115.8],[1265.6,116.3],[1235.6,139.8],[1233.1,156],[1216.5,177.6],[1201.6,173.8],[1178.4,207.5],[1148.6,193],[1148.6,193],[1142.7,184.6],[1131.8,178.3],[1131.8,178.3],[1120.4,183.8],[1113.9,187.9],[1113.9,187.9],[1122.9,206.5],[1138.6,202.5],[1167.4,202.4],[1167.4,202.4],[1166.3,231.8],[1151.7,224.8],[1156.7,230.2],[1152,222.6],[1154.7,230],[1154.7,230],[1153.4,210.5],[1153.4,210.5],[1147.1,203.6],[1136.5,184.2],[1130.5,186.3],[1111.4,184.5],[1111.4,184.5],[1105.4,179.6],[1128.7,185.9],[1128.7,185.9],[1137.4,205.9],[1135.2,210.1],[1142.2,208.7],[1169.5,210.3],[1197.1,209],[1215.1,213.1],[1222.4,199.9],[1219.2,187.6],[1221.9,166.2],[1221.9,166.2],[1216.5,132.7],[1204.9,127.6],[1218.9,132.7],[1235.6,139.1],[1207.9,167.5],[1207.9,167.5],[1180.4,195.2],[1184.4,203.9],[1169.8,254.2],[1169.1,291.5],[1171.7,329.6],[1171.7,329.6],[1168.4,376.8],[1172.7,386],[1164.2,407.5],[1149.7,421],[1159.3,409.5],[1166,401.5],[1145.8,398.9],[1145.3,383.5],[1142.4,374.2],[1133.2,376.5],[1122.9,370],[1111.2,373.1],[1106,370.6],[1111.4,379.7],[1111.4,379.7],[1105.9,383.9],[1072.5,378.2],[1043.3,381.7],[1005,361.2],[1005,361.2],[958.6,352.2],[927.6,351.3],[916.7,370.1],[916.7,370.1],[905.3,385.4],[892,382.7],[873.3,365.9],[889.3,348],[936.1,336.5],[990.4,304.1],[1046.4,284.7],[1109.8,264.5],[1134.7,233.7],[1147.1,182.7],[1147.1,182.7],[1162.9,136.1],[1194.4,122.9],[1224,118.9],[1197.2,86],[1197.2,86],[1179.5,62.2],[1169,69],[1153,56.2],[1131.6,52.8],[1131.6,52.8],[1136.4,50.9],[1139.2,30.4],[1139.1,9],[1111.4,-25.4],[1111.4,-25.4],[1083.7,-59.8],[1096.5,-66],[1096.5,-66],[1104.1,-86.5],[1112.6,-104],[1118.9,-95.3],[1125.8,-118.9]]","[-0.2,0.6000000000000001]","[0.2,0.6000000000000001]","[0.6000000000000001,0.6000000000000001]","[-0.6000000000000001,-0.2]","[-0.6000000000000001,-0.6000000000000001]","[-0.6000000000000001,0.2]","[-0.2,-0.2]","[0.2,-0.2]","[0.6000000000000001,-0.2]","[-0.2,-0.6000000000000001]","[0.2,-0.6000000000000001]","[0.6000000000000001,-0.6000000000000001]","[-0.2,0.2]","[0.2,0.2]","[0.6000000000000001,0.2]",0,0,0,0,1,3,Monitor,25,40,9,1,50,4,1,60,5
