inst1_resp.keys,inst1_resp.rt,calibrationMouse.x,calibrationMouse.y,calibrationMouse.leftButton,calibrationMouse.midButton,calibrationMouse.rightButton,calibrationClick.x,calibrationClick.y,calibrationClick.leftButton,calibrationClick.midButton,calibrationClick.rightButton,calibrationClick.clicked_name,trialsc.thisRepN,trialsc.thisTrialN,trialsc.thisN,trialsc.thisIndex,trialsc.ran,calibration_x,calibration_y,participant,session,date,expName,psychopyVersion,OS,frameRate,ScreenRes_pixels,Camera_pixels,mouse_2.x,mouse_2.y,mouse_2.leftButton,mouse_2.midButton,mouse_2.rightButton,mouse_2.time,mouse_2.clicked_name,mouse.x,mouse.y,mouse.leftButton,mouse.midButton,mouse.rightButton,mouse.time,mouse.clicked_name,Choice,Trial,TrialDuration,MOUSE_GAZE,ET_GAZE,ET_GAZE_x_T,time,unixTime,ET_GAZE_NF,Loc_Bus_label,Loc_Metro_label,Loc_RH_label,Loc_Cost_label,Loc_Travel_label,Loc_Comfort_label,Loc_Bus_cost,Loc_Metro_cost,Loc_RH_cost,Loc_Bus_travel,Loc_Metro_travel,Loc_RH_travel,Loc_Bus_comfort,Loc_Metro_comfort,Loc_RH_comfort,trials.thisRepN,trials.thisTrialN,trials.thisN,trials.thisIndex,trials.ran,Block,Device,RH_cost,RH_travel_time,RH_Comfort,metro_cost,metro_travel_time,metro_Comfort,Bus_cost,Bus_travel_time,Bus_Comfort
space,3.787,-0.051041667,0.272222222,1,0,0,-0.320833333,0.67962963,1,0,0,calibration_square,0,0,0,8,1,-0.33,0.67,46,001,2024-11-26_15h05.07.487,Attention_exp_legacy,2023.1.0,Win32,59.88023952,,,,,,,,,,,,,,,,,,,,,,,,,,,,,,,,,,,,,,,,,,,,,,,,,,,,,,,,
,,,,,,,0.002083333,-0.024074074,1,0,0,,0,1,1,11,1,0,0,46,001,2024-11-26_15h05.07.487,Attention_exp_legacy,2023.1.0,Win32,59.88023952,,,,,,,,,,,,,,,,,,,,,,,,,,,,,,,,,,,,,,,,,,,,,,,,,,,,,,,,
,,,,,,,-0.333333333,0.005555556,1,0,0,calibration_square,0,2,2,6,1,-0.33,0,46,001,2024-11-26_15h05.07.487,Attention_exp_legacy,2023.1.0,Win32,59.88023952,,,,,,,,,,,,,,,,,,,,,,,,,,,,,,,,,,,,,,,,,,,,,,,,,,,,,,,,
,,,,,,,-0.670833333,-0.67037037,1,0,0,calibration_square,0,3,3,0,1,-0.67,-0.67,46,001,2024-11-26_15h05.07.487,Attention_exp_legacy,2023.1.0,Win32,59.88023952,,,,,,,,,,,,,,,,,,,,,,,,,,,,,,,,,,,,,,,,,,,,,,,,,,,,,,,,
,,,,,,,0.325,-0.677777778,1,0,0,calibration_square,0,4,4,14,1,0.33,-0.67,46,001,2024-11-26_15h05.07.487,Attention_exp_legacy,2023.1.0,Win32,59.88023952,,,,,,,,,,,,,,,,,,,,,,,,,,,,,,,,,,,,,,,,,,,,,,,,,,,,,,,,
,,,,,,,0.667708333,-0.672222222,1,0,0,calibration_square,0,5,5,20,1,0.67,-0.67,46,001,2024-11-26_15h05.07.487,Attention_exp_legacy,2023.1.0,Win32,59.88023952,,,,,,,,,,,,,,,,,,,,,,,,,,,,,,,,,,,,,,,,,,,,,,,,,,,,,,,,
,,,,,,,-0.330208333,-0.338888889,1,0,0,calibration_square,0,6,6,5,1,-0.33,-0.33,46,001,2024-11-26_15h05.07.487,Attention_exp_legacy,2023.1.0,Win32,59.88023952,,,,,,,,,,,,,,,,,,,,,,,,,,,,,,,,,,,,,,,,,,,,,,,,,,,,,,,,
,,,,,,,-0.00625,-0.662962963,1,0,0,calibration_square,0,7,7,9,1,0,-0.67,46,001,2024-11-26_15h05.07.487,Attention_exp_legacy,2023.1.0,Win32,59.88023952,,,,,,,,,,,,,,,,,,,,,,,,,,,,,,,,,,,,,,,,,,,,,,,,,,,,,,,,
,,,,,,,0.001041667,0.340740741,1,0,0,,0,8,8,12,1,0,0.33,46,001,2024-11-26_15h05.07.487,Attention_exp_legacy,2023.1.0,Win32,59.88023952,,,,,,,,,,,,,,,,,,,,,,,,,,,,,,,,,,,,,,,,,,,,,,,,,,,,,,,,
,,,,,,,-0.666666667,0.342592593,1,0,0,,0,9,9,3,1,-0.67,0.33,46,001,2024-11-26_15h05.07.487,Attention_exp_legacy,2023.1.0,Win32,59.88023952,,,,,,,,,,,,,,,,,,,,,,,,,,,,,,,,,,,,,,,,,,,,,,,,,,,,,,,,
,,,,,,,-0.675,-0.003703704,1,0,0,calibration_square,0,10,10,2,1,-0.67,0,46,001,2024-11-26_15h05.07.487,Attention_exp_legacy,2023.1.0,Win32,59.88023952,,,,,,,,,,,,,,,,,,,,,,,,,,,,,,,,,,,,,,,,,,,,,,,,,,,,,,,,
,,,,,,,-0.320833333,0.344444444,1,0,0,,0,11,11,7,1,-0.33,0.33,46,001,2024-11-26_15h05.07.487,Attention_exp_legacy,2023.1.0,Win32,59.88023952,,,,,,,,,,,,,,,,,,,,,,,,,,,,,,,,,,,,,,,,,,,,,,,,,,,,,,,,
,,,,,,,-0.011458333,0.681481481,1,0,0,,0,12,12,13,1,0,0.67,46,001,2024-11-26_15h05.07.487,Attention_exp_legacy,2023.1.0,Win32,59.88023952,,,,,,,,,,,,,,,,,,,,,,,,,,,,,,,,,,,,,,,,,,,,,,,,,,,,,,,,
,,,,,,,0.672916667,0.674074074,1,0,0,calibration_square,0,13,13,19,1,0.67,0.67,46,001,2024-11-26_15h05.07.487,Attention_exp_legacy,2023.1.0,Win32,59.88023952,,,,,,,,,,,,,,,,,,,,,,,,,,,,,,,,,,,,,,,,,,,,,,,,,,,,,,,,
,,,,,,,0.346875,0.322222222,1,0,0,,0,14,14,17,1,0.33,0.33,46,001,2024-11-26_15h05.07.487,Attention_exp_legacy,2023.1.0,Win32,59.88023952,,,,,,,,,,,,,,,,,,,,,,,,,,,,,,,,,,,,,,,,,,,,,,,,,,,,,,,,
,,,,,,,0.333333333,0.688888889,1,0,0,,0,15,15,18,1,0.33,0.67,46,001,2024-11-26_15h05.07.487,Attention_exp_legacy,2023.1.0,Win32,59.88023952,,,,,,,,,,,,,,,,,,,,,,,,,,,,,,,,,,,,,,,,,,,,,,,,,,,,,,,,
,,,,,,,-0.678125,-0.327777778,1,0,0,calibration_square,0,16,16,1,1,-0.67,-0.33,46,001,2024-11-26_15h05.07.487,Attention_exp_legacy,2023.1.0,Win32,59.88023952,,,,,,,,,,,,,,,,,,,,,,,,,,,,,,,,,,,,,,,,,,,,,,,,,,,,,,,,
,,,,,,,-0.344791667,-0.661111111,1,0,0,,0,17,17,4,1,-0.33,-0.67,46,001,2024-11-26_15h05.07.487,Attention_exp_legacy,2023.1.0,Win32,59.88023952,,,,,,,,,,,,,,,,,,,,,,,,,,,,,,,,,,,,,,,,,,,,,,,,,,,,,,,,
,,,,,,,0.313541667,-0.338888889,1,0,0,,0,18,18,15,1,0.33,-0.33,46,001,2024-11-26_15h05.07.487,Attention_exp_legacy,2023.1.0,Win32,59.88023952,,,,,,,,,,,,,,,,,,,,,,,,,,,,,,,,,,,,,,,,,,,,,,,,,,,,,,,,
,,,,,,,0.323958333,0.005555556,1,0,0,calibration_square,0,19,19,16,1,0.33,0,46,001,2024-11-26_15h05.07.487,Attention_exp_legacy,2023.1.0,Win32,59.88023952,,,,,,,,,,,,,,,,,,,,,,,,,,,,,,,,,,,,,,,,,,,,,,,,,,,,,,,,
,,,,,,,0.00625,-0.307407407,1,0,0,,0,20,20,10,1,0,-0.33,46,001,2024-11-26_15h05.07.487,Attention_exp_legacy,2023.1.0,Win32,59.88023952,,,,,,,,,,,,,,,,,,,,,,,,,,,,,,,,,,,,,,,,,,,,,,,,,,,,,,,,
,,,,,,,,,,,,,,,,,,,,46,001,2024-11-26_15h05.07.487,Attention_exp_legacy,2023.1.0,Win32,59.88023952,"[1920,1080]","[640,480]",[-0.0010416666666666667],[-0.4925925925925926],[1],[0],[0],[16.2025],"[""StartButton""]","[0.196875,0.19583333333333333]","[0.5222222222222223,0.5666666666666667]","[1,1]","[0,0]","[0,0]","[4.946299999997024,5.5127000000029796]","[""Metro_label"",""Metro_label""]",Metro_label,1,5.9734,"[[0.008333333333333333,-0.19814814814814816],[0.008333333333333333,-0.19814814814814816],[0.008333333333333333,-0.19814814814814816],[0.008333333333333333,-0.19814814814814816],[0.008333333333333333,-0.19814814814814816],[0.008333333333333333,-0.19814814814814816],[0.008333333333333333,-0.19814814814814816],[0.008333333333333333,-0.19814814814814816],[0.008333333333333333,-0.19814814814814816],[0.008333333333333333,-0.19814814814814816],[0.008333333333333333,-0.19814814814814816],[0.008333333333333333,-0.19814814814814816],[0.008333333333333333,-0.19814814814814816],[0.008333333333333333,-0.19814814814814816],[0.008333333333333333,-0.19814814814814816],[0.008333333333333333,-0.19814814814814816],[0.008333333333333333,-0.19814814814814816],[0.008333333333333333,-0.19814814814814816],[0.008333333333333333,-0.19814814814814816],[0.008333333333333333,-0.1925925925925926],[0.008333333333333333,-0.1925925925925926],[0.008333333333333333,-0.19074074074074074],[0.008333333333333333,-0.18703703703703703],[0.008333333333333333,-0.18518518518518517],[0.008333333333333333,-0.1814814814814815],[0.008333333333333333,-0.17962962962962964],[0.007291666666666667,-0.17407407407407408],[0.007291666666666667,-0.17222222222222222],[0.007291666666666667,-0.1685185185185185],[0.00625,-0.16296296296296298],[0.00625,-0.15555555555555556],[0.004166666666666667,-0.14444444444444443],[0.0010416666666666667,-0.12777777777777777],[-0.005208333333333333,-0.08518518518518518],[-0.011458333333333333,-0.04814814814814815],[-0.016666666666666666,-0.009259259259259259],[-0.023958333333333335,0.037037037037037035],[-0.034375,0.10555555555555556],[-0.04895833333333333,0.17962962962962964],[-0.0625,0.2388888888888889],[-0.07083333333333333,0.2759259259259259],[-0.07708333333333334,0.30925925925925923],[-0.08020833333333334,0.34629629629629627],[-0.08020833333333334,0.37037037037037035],[-0.08020833333333334,0.3814814814814815],[-0.08020833333333334,0.40370370370370373],[-0.075,0.4148148148148148],[-0.06458333333333334,0.42592592592592593],[-0.04895833333333333,0.43333333333333335],[-0.03333333333333333,0.44074074074074077],[-0.009375,0.45555555555555555],[0.034375,0.48518518518518516],[0.096875,0.5259259259259259],[0.10833333333333334,0.5314814814814814],[0.12395833333333334,0.5407407407407407],[0.13333333333333333,0.5444444444444444],[0.13645833333333332,0.5462962962962963],[0.13958333333333334,0.5481481481481482],[0.13958333333333334,0.5481481481481482],[0.14166666666666666,0.5481481481481482],[0.14270833333333333,0.5518518518518518],[0.14479166666666668,0.5518518518518518],[0.146875,0.5537037037037037],[0.15,0.5555555555555556],[0.153125,0.5574074074074075],[0.15416666666666667,0.5592592592592592],[0.15833333333333333,0.5592592592592592],[0.165625,0.5648148148148148],[0.17916666666666667,0.5685185185185185],[0.18229166666666666,0.5722222222222222],[0.18541666666666667,0.5740740740740741],[0.18645833333333334,0.5740740740740741],[0.18854166666666666,0.5740740740740741],[0.18854166666666666,0.5740740740740741],[0.18958333333333333,0.5740740740740741],[0.19166666666666668,0.5740740740740741],[0.19270833333333334,0.5740740740740741],[0.19583333333333333,0.5740740740740741],[0.19583333333333333,0.5740740740740741],[0.19791666666666666,0.5740740740740741],[0.19895833333333332,0.5740740740740741],[0.20208333333333334,0.5722222222222222],[0.20625,0.5722222222222222],[0.21041666666666667,0.5722222222222222],[0.215625,0.5722222222222222],[0.221875,0.5722222222222222],[0.228125,0.5722222222222222],[0.23854166666666668,0.575925925925926],[0.246875,0.5777777777777777],[0.26666666666666666,0.587037037037037],[0.27395833333333336,0.5907407407407408],[0.2864583333333333,0.5962962962962963],[0.3125,0.6055555555555555],[0.3333333333333333,0.6111111111111112],[0.36041666666666666,0.6185185185185185],[0.38645833333333335,0.6240740740740741],[0.4114583333333333,0.6296296296296297],[0.43333333333333335,0.6314814814814815],[0.4510416666666667,0.6333333333333333],[0.471875,0.6351851851851852],[0.490625,0.6407407407407407],[0.5072916666666667,0.6444444444444445],[0.5229166666666667,0.6481481481481481],[0.5510416666666667,0.6481481481481481],[0.5604166666666667,0.6481481481481481],[0.5875,0.6481481481481481],[0.5979166666666667,0.6481481481481481],[0.6052083333333333,0.6481481481481481],[0.60625,0.6481481481481481],[0.6083333333333333,0.6481481481481481],[0.6083333333333333,0.6481481481481481],[0.6083333333333333,0.6481481481481481],[0.6083333333333333,0.6481481481481481],[0.6083333333333333,0.6481481481481481],[0.6083333333333333,0.6481481481481481],[0.6083333333333333,0.6481481481481481],[0.6083333333333333,0.6481481481481481],[0.6083333333333333,0.6481481481481481],[0.6083333333333333,0.6481481481481481],[0.6083333333333333,0.6481481481481481],[0.6083333333333333,0.6481481481481481],[0.6083333333333333,0.6481481481481481],[0.6083333333333333,0.6481481481481481],[0.6083333333333333,0.6481481481481481],[0.6083333333333333,0.6481481481481481],[0.6083333333333333,0.6481481481481481],[0.6083333333333333,0.6481481481481481],[0.609375,0.6481481481481481],[0.609375,0.6444444444444445],[0.609375,0.6388888888888888],[0.609375,0.6351851851851852],[0.609375,0.6314814814814815],[0.609375,0.6277777777777778],[0.609375,0.6259259259259259],[0.609375,0.6203703703703703],[0.6083333333333333,0.6185185185185185],[0.6083333333333333,0.6166666666666667],[0.6072916666666667,0.6148148148148148],[0.6072916666666667,0.6111111111111112],[0.6072916666666667,0.6111111111111112],[0.60625,0.6092592592592593],[0.60625,0.6092592592592593],[0.60625,0.6092592592592593],[0.60625,0.6074074074074074],[0.6052083333333333,0.6055555555555555],[0.6052083333333333,0.6055555555555555],[0.6052083333333333,0.6037037037037037],[0.6052083333333333,0.6037037037037037],[0.6041666666666666,0.6037037037037037],[0.603125,0.6],[0.603125,0.5981481481481481],[0.603125,0.5981481481481481],[0.6020833333333333,0.5944444444444444],[0.6,0.5907407407407408],[0.5979166666666667,0.5851851851851851],[0.5947916666666667,0.575925925925926],[0.5875,0.562962962962963],[0.5791666666666667,0.5555555555555556],[0.56875,0.5462962962962963],[0.559375,0.5388888888888889],[0.5541666666666667,0.5314814814814814],[0.54375,0.524074074074074],[0.540625,0.524074074074074],[0.5395833333333333,0.524074074074074],[0.5385416666666667,0.524074074074074],[0.5354166666666667,0.5222222222222223],[0.5322916666666667,0.5222222222222223],[0.5260416666666666,0.5222222222222223],[0.5197916666666667,0.5222222222222223],[0.5125,0.5222222222222223],[0.5041666666666667,0.5222222222222223],[0.490625,0.5222222222222223],[0.475,0.5222222222222223],[0.46041666666666664,0.5222222222222223],[0.44375,0.5222222222222223],[0.4270833333333333,0.5222222222222223],[0.40208333333333335,0.5222222222222223],[0.384375,0.5222222222222223],[0.36354166666666665,0.5222222222222223],[0.346875,0.5222222222222223],[0.33229166666666665,0.5222222222222223],[0.3177083333333333,0.5222222222222223],[0.303125,0.5222222222222223],[0.2916666666666667,0.5222222222222223],[0.278125,0.5222222222222223],[0.2677083333333333,0.5222222222222223],[0.2552083333333333,0.5222222222222223],[0.24479166666666666,0.5222222222222223],[0.23958333333333334,0.5185185185185185],[0.23020833333333332,0.5185185185185185],[0.22395833333333334,0.5185185185185185],[0.21666666666666667,0.5185185185185185],[0.21145833333333333,0.5166666666666667],[0.20520833333333333,0.5166666666666667],[0.20208333333333334,0.5166666666666667],[0.19895833333333332,0.5166666666666667],[0.196875,0.5166666666666667],[0.196875,0.5166666666666667],[0.196875,0.5166666666666667],[0.196875,0.5166666666666667],[0.196875,0.5166666666666667],[0.196875,0.5166666666666667],[0.196875,0.5166666666666667],[0.196875,0.5166666666666667],[0.196875,0.5166666666666667],[0.196875,0.5166666666666667],[0.196875,0.5166666666666667],[0.196875,0.5166666666666667],[0.196875,0.5166666666666667],[0.196875,0.5166666666666667],[0.196875,0.5166666666666667],[0.196875,0.5166666666666667],[0.196875,0.5166666666666667],[0.196875,0.5166666666666667],[0.196875,0.5166666666666667],[0.196875,0.5166666666666667],[0.196875,0.5166666666666667],[0.196875,0.5166666666666667],[0.196875,0.5166666666666667],[0.196875,0.5166666666666667],[0.196875,0.5166666666666667],[0.196875,0.5166666666666667],[0.196875,0.5166666666666667],[0.196875,0.5166666666666667],[0.196875,0.5166666666666667],[0.196875,0.5166666666666667],[0.196875,0.5166666666666667],[0.196875,0.5166666666666667],[0.196875,0.5166666666666667],[0.196875,0.5166666666666667],[0.196875,0.5166666666666667],[0.196875,0.5166666666666667],[0.196875,0.5166666666666667],[0.196875,0.5166666666666667],[0.196875,0.5166666666666667],[0.196875,0.5166666666666667],[0.196875,0.5166666666666667],[0.196875,0.5166666666666667],[0.196875,0.5166666666666667],[0.196875,0.5166666666666667],[0.196875,0.5166666666666667],[0.196875,0.5166666666666667],[0.196875,0.5166666666666667],[0.196875,0.5166666666666667],[0.196875,0.5166666666666667],[0.196875,0.5166666666666667],[0.196875,0.5166666666666667],[0.196875,0.5166666666666667],[0.196875,0.5166666666666667],[0.196875,0.5166666666666667],[0.196875,0.5166666666666667],[0.196875,0.5166666666666667],[0.196875,0.5166666666666667],[0.196875,0.5166666666666667],[0.196875,0.5166666666666667],[0.196875,0.5166666666666667],[0.196875,0.5166666666666667],[0.196875,0.5166666666666667],[0.196875,0.5166666666666667],[0.196875,0.5166666666666667],[0.196875,0.5166666666666667],[0.196875,0.5166666666666667],[0.196875,0.5166666666666667],[0.196875,0.5166666666666667],[0.196875,0.5166666666666667],[0.196875,0.5166666666666667],[0.196875,0.5166666666666667],[0.196875,0.5166666666666667],[0.196875,0.5166666666666667],[0.196875,0.5166666666666667],[0.196875,0.5166666666666667],[0.196875,0.5166666666666667],[0.196875,0.5166666666666667],[0.196875,0.5166666666666667],[0.196875,0.5185185185185185],[0.196875,0.5222222222222223],[0.196875,0.5222222222222223],[0.196875,0.5222222222222223],[0.196875,0.5222222222222223],[0.196875,0.5222222222222223],[0.196875,0.5222222222222223],[0.196875,0.5222222222222223],[0.196875,0.5222222222222223],[0.196875,0.5222222222222223],[0.196875,0.5222222222222223],[0.196875,0.5222222222222223],[0.196875,0.5222222222222223],[0.196875,0.5222222222222223],[0.196875,0.5222222222222223],[0.196875,0.5222222222222223],[0.196875,0.5222222222222223],[0.196875,0.5222222222222223],[0.196875,0.5222222222222223],[0.196875,0.5222222222222223],[0.196875,0.5222222222222223],[0.196875,0.5222222222222223],[0.196875,0.5222222222222223],[0.196875,0.5222222222222223],[0.196875,0.5222222222222223],[0.196875,0.5222222222222223],[0.196875,0.5222222222222223],[0.196875,0.5222222222222223],[0.196875,0.5222222222222223],[0.196875,0.5222222222222223],[0.196875,0.5222222222222223],[0.196875,0.5222222222222223],[0.196875,0.5222222222222223],[0.196875,0.5222222222222223],[0.196875,0.5222222222222223],[0.196875,0.5222222222222223],[0.196875,0.5222222222222223],[0.196875,0.5222222222222223],[0.196875,0.5222222222222223],[0.196875,0.5222222222222223],[0.196875,0.5222222222222223],[0.196875,0.5222222222222223],[0.196875,0.5222222222222223],[0.196875,0.5222222222222223],[0.196875,0.5259259259259259],[0.196875,0.5314814814814814],[0.196875,0.5370370370370371],[0.196875,0.5481481481481482],[0.19583333333333333,0.5555555555555556],[0.19583333333333333,0.5611111111111111],[0.19583333333333333,0.5648148148148148],[0.19583333333333333,0.5648148148148148],[0.19583333333333333,0.5666666666666667],[0.19583333333333333,0.5666666666666667],[0.19583333333333333,0.5666666666666667],[0.19583333333333333,0.5666666666666667],[0.19583333333333333,0.5666666666666667],[0.19583333333333333,0.5666666666666667],[0.19583333333333333,0.5666666666666667],[0.19583333333333333,0.5666666666666667],[0.19583333333333333,0.5666666666666667],[0.19583333333333333,0.5666666666666667],[0.19583333333333333,0.5666666666666667],[0.19583333333333333,0.5666666666666667],[0.19583333333333333,0.5666666666666667],[0.19583333333333333,0.5666666666666667],[0.19583333333333333,0.5666666666666667],[0.19583333333333333,0.5666666666666667],[0.19583333333333333,0.5666666666666667],[0.19583333333333333,0.5666666666666667],[0.19583333333333333,0.5666666666666667],[0.19583333333333333,0.5666666666666667],[0.19583333333333333,0.5666666666666667],[0.19583333333333333,0.5666666666666667],[0.19583333333333333,0.5666666666666667],[0.19583333333333333,0.5666666666666667],[0.19583333333333333,0.5666666666666667],[0.19583333333333333,0.5666666666666667],[0.19583333333333333,0.5666666666666667],[0.19583333333333333,0.5666666666666667],[0.19583333333333333,0.5666666666666667],[0.19583333333333333,0.5666666666666667],[0.19583333333333333,0.5666666666666667],[0.19583333333333333,0.5666666666666667]]","[[0.07312500000000005,0.26481481481481484],[0.07312500000000005,0.26481481481481484],[0.07906250000000009,0.2640740740740741],[0.09708333333333338,0.27833333333333327],[0.10916666666666662,0.2588888888888888],[0.10708333333333328,0.24666666666666676],[0.10645833333333338,0.26518518518518525],[0.09854166666666657,0.2687037037037037],[0.11666666666666667,0.25259259259259254],[0.11666666666666667,0.25259259259259254],[0.1256249999999999,0.23425925925925925],[0.1368750000000001,0.2014814814814814],[0.16020833333333329,0.1905555555555555],[0.17291666666666666,0.17296296296296293],[0.17291666666666666,0.17296296296296293],[0.1662499999999999,0.1175925925925926],[0.140625,0.14314814814814805],[0.1321875000000001,0.1301851851851851],[0.11208333333333324,0.09796296296296292],[0.09343750000000005,0.07240740740740745],[0.09343750000000005,0.07240740740740745],[0.05479166666666669,0.07925925925925917],[0.03718750000000005,0.029814814814814856],[0.016770833333333356,-0.005370370370370328],[-0.021979166666666692,-0.03092592592592601],[-0.021979166666666692,-0.03092592592592601],[-0.04916666666666671,-0.005185185185185101],[-0.07291666666666667,0.028518518518518478],[-0.07291666666666667,0.028518518518518478],[-0.05270833333333336,0.01962962962962967],[-0.05270833333333336,0.01962962962962967],[-0.06802083333333328,-0.0012962962962963806],[-0.06802083333333328,-0.0012962962962963806],[-0.06124999999999995,0.017407407407407365],[-0.06041666666666667,-0.01962962962962967],[-0.05395833333333329,-0.01518518518518527],[-0.04375,0.07555555555555547],[-0.02354166666666669,0.18981481481481483],[-0.02354166666666669,0.18981481481481483],[-0.011874999999999976,0.20314814814814824],[-0.011874999999999976,0.20314814814814824],[0.014374999999999952,0.18037037037037032],[0.029270833333333357,0.15203703703703708],[0.029166666666666667,0.10111111111111115],[0.029166666666666667,0.10111111111111115],[0.06208333333333336,0.04462962962962967],[0.06447916666666664,0.011296296296296339],[0.08583333333333343,0.008703703703703788],[0.07916666666666666,-0.024814814814814772],[0.07916666666666666,-0.024814814814814772],[0.05249999999999998,-0.16111111111111112],[0.03427083333333331,-0.22814814814814813],[0.03218749999999997,-0.21962962962962967],[0.00927083333333331,-0.22833333333333336],[0.033854166666666664,-0.2168518518518519],[0.033854166666666664,-0.2168518518518519],[0.03177083333333333,-0.25148148148148153],[0.016875000000000046,-0.19814814814814816],[0.01864583333333331,-0.21370370370370367],[0.005937500000000048,-0.21092592592592588],[0.027708333333333356,-0.21629629629629632],[0.06468750000000002,-0.15981481481481483],[0.08375000000000009,-0.19592592592592595],[0.0821875000000001,-0.2581481481481481],[0.09260416666666677,-0.29388888888888887],[0.09260416666666677,-0.29388888888888887],[0.09083333333333338,-0.3307407407407408],[0.10187499999999995,-0.2975925925925926],[0.11322916666666671,-0.30888888888888894],[0.11322916666666671,-0.30888888888888894],[0.12979166666666658,-0.3405555555555555],[0.13531250000000009,-0.3646296296296296],[0.1256249999999999,-0.40481481481481485],[0.13270833333333343,-0.43444444444444447],[0.15093750000000009,-0.44351851851851853],[0.17822916666666658,-0.4322222222222222],[0.1898958333333333,-0.45851851851851855],[0.1935416666666666,-0.4685185185185185],[0.17447916666666666,-0.47444444444444445],[0.15322916666666658,-0.4677777777777778],[0.16552083333333342,-0.477962962962963],[0.1974999999999999,-0.4948148148148148],[0.23052083333333329,-0.5031481481481481],[0.24468750000000009,-0.5103703703703704],[0.24468750000000009,-0.5103703703703704],[0.24385416666666657,-0.5172222222222222],[0.2430208333333333,-0.524074074074074],[0.24739583333333334,-0.5111111111111111],[0.28624999999999995,-0.5522222222222222],[0.33624999999999994,-0.6424074074074073],[0.39166666666666666,-0.7003703703703703],[0.3888541666666666,-0.6925925925925925],[0.3766666666666666,-0.6940740740740741],[0.36833333333333323,-0.6851851851851852],[0.36833333333333323,-0.6851851851851852],[0.37687499999999996,-0.6698148148148148],[0.3963541666666667,-0.6746296296296297],[0.4154166666666666,-0.7131481481481482],[0.4318749999999999,-0.7222222222222222],[0.41385416666666663,-0.6772222222222222],[0.4119791666666667,-0.6183333333333333],[0.4119791666666667,-0.6183333333333333],[0.4078125,-0.5918518518518519],[0.4181250000000001,-0.5703703703703704],[0.4181250000000001,-0.5703703703703704],[0.4487499999999999,-0.6038888888888889],[0.4625,-0.6024074074074074],[0.46145833333333336,-0.6190740740740741],[0.44333333333333325,-0.6211111111111111],[0.4256249999999999,-0.5918518518518519],[0.4448958333333332,-0.5901851851851851],[0.46416666666666656,-0.5885185185185186],[0.46031250000000007,-0.5964814814814815],[0.43770833333333337,-0.6135185185185186],[0.45208333333333334,-0.6064814814814815],[0.446875,-0.5361111111111111],[0.4599999999999999,-0.5568518518518518],[0.4731250000000001,-0.5775925925925925],[0.5001041666666666,-0.5877777777777777],[0.5235416666666666,-0.602037037037037],[0.4669791666666666,-0.6183333333333333],[0.4036458333333333,-0.6559259259259259],[0.29187500000000005,-0.5546296296296296],[0.20010416666666658,-0.49722222222222223],[0.08114583333333343,-0.492037037037037],[-0.0453125,-0.49240740740740735],[-0.17635416666666662,-0.4331481481481481],[-0.30739583333333337,-0.3738888888888888],[-0.3267708333333334,-0.3672222222222222],[-0.34260416666666665,-0.35407407407407404],[-0.34260416666666665,-0.35407407407407404],[-0.3154166666666666,-0.33777777777777773],[-0.31062500000000004,-0.3122222222222223],[-0.31062500000000004,-0.3122222222222223],[-0.18875000000000006,-0.4192592592592592],[-0.18875000000000006,-0.4192592592592592],[-0.0702083333333333,-0.46703703703703703],[0.03093750000000005,-0.522037037037037],[0.09333333333333324,-0.5225925925925926],[0.09333333333333324,-0.5225925925925926],[0.15885416666666666,-0.5266666666666666],[0.2275000000000001,-0.5309259259259259],[0.184375,-0.5296296296296297],[0.1412499999999999,-0.5283333333333333],[0.16375000000000003,-0.5148148148148148],[0.21541666666666662,-0.4892592592592592],[0.2534374999999999,-0.45685185185185184],[0.2904166666666666,-0.4305555555555556],[0.3150000000000001,-0.3931481481481482],[0.38729166666666665,-0.42185185185185187],[0.4270833333333333,-0.42370370370370375],[0.46375000000000005,-0.42537037037037034],[0.5306250000000001,-0.42462962962962963],[0.5306250000000001,-0.42462962962962963],[0.5820833333333333,-0.45611111111111113],[0.5689583333333333,-0.5114814814814814],[0.5451041666666666,-0.5481481481481482],[0.5136458333333332,-0.5592592592592592],[0.4814583333333334,-0.5679629629629629],[0.4805208333333333,-0.5788888888888889],[0.44552083333333337,-0.5368518518518518],[0.4430208333333333,-0.5216666666666666],[0.4203125,-0.4844444444444445],[0.3992708333333333,-0.4674074074074074],[0.3992708333333333,-0.4674074074074074],[0.39968750000000003,-0.39814814814814814],[0.4150000000000001,-0.3359259259259259],[0.39333333333333326,-0.30333333333333334],[0.34520833333333345,-0.28407407407407403],[0.2911458333333333,-0.2338888888888889],[0.3011458333333332,-0.207962962962963],[0.3264583333333334,-0.1977777777777778],[0.32958333333333345,-0.20407407407407405],[0.37385416666666677,-0.2722222222222222],[0.37385416666666677,-0.2722222222222222],[0.3881249999999999,-0.2959259259259259],[0.3954166666666666,-0.3538888888888889],[0.3954166666666666,-0.3538888888888889],[0.3867708333333333,-0.39944444444444444],[0.4136458333333332,-0.4192592592592592],[0.4557291666666667,-0.4516666666666666],[0.4851041666666667,-0.5001851851851852],[0.4851041666666667,-0.5001851851851852],[0.4414583333333333,-0.5224074074074074],[0.4397916666666667,-0.5625925925925926],[0.4391666666666666,-0.5901851851851851],[0.42645833333333344,-0.6318518518518518],[0.40614583333333343,-0.6731481481481482],[0.40614583333333343,-0.6731481481481482],[0.38260416666666663,-0.65],[0.38260416666666663,-0.65],[0.35989583333333336,-0.6355555555555555],[0.33614583333333337,-0.6220370370370369],[0.33614583333333337,-0.6220370370370369],[0.3006249999999999,-0.5918518518518519],[0.3006249999999999,-0.5918518518518519],[0.29239583333333335,-0.615925925925926],[0.3069791666666667,-0.6475925925925926],[0.296875,-0.665],[0.30791666666666656,-0.6785185185185185],[0.30791666666666656,-0.6785185185185185],[0.32135416666666666,-0.6492592592592593],[0.32447916666666665,-0.6368518518518518],[0.3529166666666666,-0.6762962962962963],[0.3823958333333332,-0.6935185185185185],[0.42427083333333326,-0.7435185185185185],[0.4669791666666666,-0.7746296296296297],[0.48156249999999995,-0.7655555555555555],[0.49812500000000004,-0.7085185185185185],[0.49989583333333343,-0.6618518518518518],[0.49989583333333343,-0.6618518518518518],[0.5148958333333333,-0.6457407407407407],[0.5026041666666666,-0.5996296296296296],[0.496875,-0.5237037037037037],[0.4900000000000001,-0.47370370370370374],[0.4822916666666667,-0.4425925925925926],[0.4653125000000001,-0.37962962962962965],[0.44656250000000003,-0.32592592592592595],[0.45322916666666657,-0.28111111111111114],[0.4331249999999999,-0.259074074074074],[0.4331249999999999,-0.259074074074074],[0.4479166666666667,-0.2646296296296296],[0.4069791666666667,-0.21796296296296294],[0.4040625000000001,-0.2088888888888889],[0.36531250000000004,-0.16222222222222227],[0.33614583333333337,-0.13388888888888892],[0.30364583333333334,-0.1235185185185185],[0.2820833333333333,-0.12925925925925927],[0.2709374999999999,-0.1427777777777778],[0.20833333333333334,-0.11148148148148146],[0.15916666666666662,-0.10388888888888893],[0.0859375,-0.09055555555555551],[0.06854166666666663,-0.04814814814814815],[0.029166666666666667,0.012962962962962963],[0.01395833333333331,-0.02629629629629638],[-0.0390625,-0.023333333333333376],[-0.08135416666666669,-0.00722222222222218],[-0.1297916666666667,0.012777777777777735],[-0.20822916666666663,0.04592592592592584],[-0.2404166666666666,0.04000000000000004],[-0.26979166666666665,0.02907407407407416],[-0.30343749999999997,0.040740740740740744],[-0.33229166666666665,-0.003333333333333249],[-0.3611458333333334,-0.04740740740740745],[-0.385,-0.04314814814814806],[-0.42562500000000003,0],[-0.45822916666666663,0.058333333333333334],[-0.49333333333333335,0.12222222222222222],[-0.49333333333333335,0.12222222222222222],[-0.4995833333333334,0.15555555555555556],[-0.51875,0.21277777777777773],[-0.5422916666666667,0.2699999999999999],[-0.5555208333333332,0.3085185185185186],[-0.6005208333333333,0.3611111111111111],[-0.6005208333333333,0.3611111111111111],[-0.6388541666666666,0.41944444444444445],[-0.6647916666666667,0.4607407407407407],[-0.6657291666666667,0.4668518518518519],[-0.6755208333333333,0.4572222222222222],[-0.6884374999999999,0.5022222222222223],[-0.6884374999999999,0.5022222222222223],[-0.7102083333333333,0.5062962962962962],[-0.708125,0.5338888888888889],[-0.7043750000000001,0.5394444444444444],[-0.7111458333333334,0.5511111111111111],[-0.7111458333333334,0.5511111111111111],[-0.7042708333333334,0.5537037037037037],[-0.7190624999999999,0.5585185185185185],[-0.7286458333333333,0.5898148148148148],[-0.7382291666666667,0.6211111111111111],[-0.734375,0.6225925925925927],[-0.7336458333333333,0.581111111111111],[-0.7336458333333333,0.581111111111111],[-0.7245833333333334,0.590925925925926],[-0.7236458333333334,0.5564814814814815],[-0.7236458333333334,0.5564814814814815],[-0.653125,0.49722222222222223],[-0.5795833333333333,0.4427777777777778],[-0.5795833333333333,0.4427777777777778],[-0.5191666666666667,0.37111111111111106],[-0.5191666666666667,0.37111111111111106],[-0.47302083333333333,0.36500000000000005],[-0.4222916666666666,0.3103703703703704],[-0.3585416666666667,0.21722222222222215],[-0.2954166666666667,0.21296296296296297],[-0.2015625,0.17685185185185184],[-0.084375,0.09166666666666666],[0.01739583333333338,0.047037037037036995],[0.040625,0.05907407407407403],[0.040625,0.05907407407407403],[0.06927083333333334,0.07222222222222222],[0.12770833333333323,0.07240740740740745],[0.22541666666666677,0.002962962962963005],[0.3133333333333333,-0.03185185185185194],[0.37770833333333326,-0.03351851851851856],[0.37770833333333326,-0.03351851851851856],[0.4227083333333333,-0.08888888888888889],[0.4405208333333334,-0.12018518518518514],[0.4147916666666667,-0.13481481481481483],[0.4147916666666667,-0.13481481481481483],[0.40166666666666656,-0.19314814814814818],[0.41166666666666674,-0.2698148148148148],[0.41166666666666674,-0.2698148148148148],[0.3936458333333334,-0.30462962962962964],[0.34791666666666665,-0.29500000000000004],[0.34791666666666665,-0.29500000000000004],[0.2921875,-0.2892592592592592],[0.24468750000000009,-0.2918518518518519],[0.19958333333333325,-0.2712962962962963],[0.15833333333333333,-0.27740740740740744],[0.15833333333333333,-0.27740740740740744],[0.14114583333333333,-0.28166666666666673],[0.11302083333333333,-0.24388888888888888],[0.08489583333333334,-0.20611111111111113],[0.05135416666666662,-0.1824074074074074],[0.04583333333333333,-0.20055555555555557],[0.051041666666666666,-0.2192592592592592],[0.05020833333333338,-0.23203703703703707],[0.03916666666666669,-0.23351851851851857],[0.03916666666666669,-0.23351851851851857],[0.05697916666666671,-0.28425925925925927],[0.03604166666666669,-0.27462962962962967],[0.050625000000000024,-0.32],[0.050625000000000024,-0.32],[0.07125000000000009,-0.40499999999999997],[0.08177083333333333,-0.4818518518518518],[0.08718750000000004,-0.5137037037037037],[0.09947916666666666,-0.5268518518518519],[0.10927083333333343,-0.5535185185185185],[0.10927083333333343,-0.5535185185185185],[0.12510416666666657,-0.5861111111111111],[0.13541666666666666,-0.6262962962962962],[0.13416666666666663,-0.6248148148148148],[0.13416666666666663,-0.6248148148148148],[0.1678124999999999,-0.6570370370370371],[0.1678124999999999,-0.6570370370370371],[0.14968750000000006,-0.6448148148148148],[0.15395833333333328,-0.6240740740740741],[0.17354166666666657,-0.6035185185185185],[0.1868750000000001,-0.5962962962962963],[0.1728125000000001,-0.5874074074074074],[0.17062499999999994,-0.5807407407407408],[0.18072916666666666,-0.5946296296296296],[0.19833333333333342,-0.6038888888888889],[0.19833333333333342,-0.6038888888888889],[0.2053124999999999,-0.6174074074074074],[0.18895833333333342,-0.662962962962963],[0.19333333333333325,-0.6950000000000001],[0.20499999999999996,-0.6751851851851852],[0.20499999999999996,-0.6751851851851852],[0.1931250000000001,-0.6466666666666666],[0.17999999999999997,-0.5983333333333334],[0.20020833333333338,-0.5644444444444444],[0.21135416666666676,-0.5285185185185185],[0.19229166666666658,-0.4905555555555555],[0.1756249999999999,-0.45111111111111113],[0.16458333333333333,-0.3894444444444445],[0.18166666666666675,-0.30833333333333335]]","[[0.07312500000000005,0.26481481481481484,0.0002999999970256795],[0.07312500000000005,0.26481481481481484,0.05069999998808328],[0.07906250000000009,0.2640740740740741,0.05700000000000216],[0.09708333333333338,0.27833333333333327,0.07669999998807953],[0.10916666666666662,0.2588888888888888,0.0925999999940359],[0.10708333333333328,0.24666666666666676,0.1093999999910551],[0.10645833333333338,0.26518518518518525,0.1240999999940442],[0.09854166666666657,0.2687037037037037,0.14029999999702625],[0.11666666666666667,0.25259259259259254,0.16029999999702227],[0.11666666666666667,0.25259259259259254,0.1735000000000042],[0.1256249999999999,0.23425925925925925,0.19039999999105817],[0.1368750000000001,0.2014814814814814,0.2068999999910659],[0.16020833333333329,0.1905555555555555,0.22350000000000136],[0.17291666666666666,0.17296296296296293,0.24319999998807873],[0.17291666666666666,0.17296296296296293,0.25689999999106305],[0.1662499999999999,0.1175925925925926,0.2735999999940333],[0.140625,0.14314814814814805,0.2903999999910525],[0.1321875000000001,0.1301851851851851,0.3068999999910602],[0.11208333333333324,0.09796296296296292,0.3259999999999934],[0.09343750000000005,0.07240740740740745,0.34439999999105453],[0.09343750000000005,0.07240740740740745,0.35689999999105737],[0.05479166666666669,0.07925925925925917,0.37369999998807657],[0.03718750000000005,0.029814814814814856,0.39029999999702625],[0.016770833333333356,-0.005370370370370328,0.4108999999910594],[-0.021979166666666692,-0.03092592592592601,0.4257999999970252],[-0.021979166666666692,-0.03092592592592601,0.44039999999105817],[-0.04916666666666671,-0.005185185185185101,0.4570999999940426],[-0.07291666666666667,0.028518518518518478,0.48079999999701784],[-0.07291666666666667,0.028518518518518478,0.4967999999970232],[-0.05270833333333336,0.01962962962962967,0.5076999999880769],[-0.05270833333333336,0.01962962962962967,0.5237999999970242],[-0.06802083333333328,-0.0012962962962963806,0.5428999999910644],[-0.06802083333333328,-0.0012962962962963806,0.5570999999940369],[-0.06124999999999995,0.017407407407407365,0.5737999999970214],[-0.06041666666666667,-0.01962962962962967,0.5903999999910639],[-0.05395833333333329,-0.01518518518518527,0.6089999999999947],[-0.04375,0.07555555555555547,0.6236999999880766],[-0.02354166666666669,0.18981481481481483,0.6402999999970262],[-0.02354166666666669,0.18981481481481483,0.6592999999970175],[-0.011874999999999976,0.20314814814814824,0.6738999999910646],[-0.011874999999999976,0.20314814814814824,0.6905000000000001],[0.014374999999999952,0.18037037037037032,0.7095000000000056],[0.029270833333333357,0.15203703703703708,0.727599999994041],[0.029166666666666667,0.10111111111111115,0.7432999999970207],[0.029166666666666667,0.10111111111111115,0.759299999997026],[0.06208333333333336,0.04462962962962967,0.7737999999970242],[0.06447916666666664,0.011296296296296339,0.7903999999910525],[0.08583333333333343,0.008703703703703788,0.8110999999940418],[0.07916666666666666,-0.024814814814814772,0.8256999999880748],[0.07916666666666666,-0.024814814814814772,0.8403999999910639],[0.05249999999999998,-0.16111111111111112,0.8570999999940341],[0.03427083333333331,-0.22814814814814813,0.8761999999880743],[0.03218749999999997,-0.21962962962962967,0.8937999999970145],[0.00927083333333331,-0.22833333333333336,0.9090999999940408],[0.033854166666666664,-0.2168518518518519,0.9236999999880737],[0.033854166666666664,-0.2168518518518519,0.9427999999970211],[0.03177083333333333,-0.25148148148148153,0.9572999999970193],[0.016875000000000046,-0.19814814814814816,0.9736999999880851],[0.01864583333333331,-0.21370370370370367,0.9922999999970159],[0.005937500000000048,-0.21092592592592588,1.0087999999970236],[0.027708333333333356,-0.21629629629629632,1.0236999999880823],[0.06468750000000002,-0.15981481481481483,1.0403999999910525],[0.08375000000000009,-0.19592592592592595,1.0611999999880766],[0.0821875000000001,-0.2581481481481481,1.0760999999940424],[0.09260416666666677,-0.29388888888888887,1.0905000000000058],[0.09260416666666677,-0.29388888888888887,1.108699999988076],[0.09083333333333338,-0.3307407407407408,1.1236999999880766],[0.10187499999999995,-0.2975925925925926,1.1407999999970144],[0.11322916666666671,-0.30888888888888894,1.161199999988085],[0.11322916666666671,-0.30888888888888894,1.1736999999880737],[0.12979166666666658,-0.3405555555555555,1.1905000000000001],[0.13531250000000009,-0.3646296296296296,1.2069999999999936],[0.1256249999999999,-0.40481481481481485,1.2279999999999944],[0.13270833333333343,-0.43444444444444447,1.243099999994044],[0.15093750000000009,-0.44351851851851853,1.2574999999999932],[0.17822916666666658,-0.4322222222222222,1.2780000000000058],[0.1898958333333333,-0.45851851851851855,1.292299999997013],[0.1935416666666666,-0.4685185185185185,1.310899999991065],[0.17447916666666666,-0.47444444444444445,1.3250999999940376],[0.15322916666666658,-0.4677777777777778,1.3425000000000011],[0.16552083333333342,-0.477962962962963,1.3585000000000065],[0.1974999999999999,-0.4948148148148148,1.3735999999940418],[0.23052083333333329,-0.5031481481481481,1.3902999999970262],[0.24468750000000009,-0.5103703703703704,1.4113999999910618],[0.24468750000000009,-0.5103703703703704,1.4236999999880737],[0.24385416666666657,-0.5172222222222222,1.4405000000000001],[0.2430208333333333,-0.524074074074074,1.4579999999999984],[0.24739583333333334,-0.5111111111111111,1.4785999999940458],[0.28624999999999995,-0.5522222222222222,1.4926999999880763],[0.33624999999999994,-0.6424074074074073,1.5095000000000027],[0.39166666666666666,-0.7003703703703703,1.5259999999999962],[0.3888541666666666,-0.6925925925925925,1.5413999999910573],[0.3766666666666666,-0.6940740740740741,1.557699999988074],[0.36833333333333323,-0.6851851851851852,1.5780999999940377],[0.36833333333333323,-0.6851851851851852,1.5902999999970149],[0.37687499999999996,-0.6698148148148148,1.607099999994034],[0.3963541666666667,-0.6746296296296297,1.6237999999970185],[0.4154166666666666,-0.7131481481481482,1.6445999999940426],[0.4318749999999999,-0.7222222222222222,1.6595999999940432],[0.41385416666666663,-0.6772222222222222,1.6738999999910646],[0.4119791666666667,-0.6183333333333333,1.6927999999970211],[0.4119791666666667,-0.6183333333333333,1.7069999999999936],[0.4078125,-0.5918518518518519,1.723699999988085],[0.4181250000000001,-0.5703703703703704,1.7441999999880835],[0.4181250000000001,-0.5703703703703704,1.757000000000005],[0.4487499999999999,-0.6038888888888889,1.7736999999880823],[0.4625,-0.6024074074074074,1.7903999999910525],[0.46145833333333336,-0.6190740740740741,1.8113999999910533],[0.44333333333333325,-0.6211111111111111,1.8261999999880771],[0.4256249999999999,-0.5918518518518519,1.8436999999880754],[0.4448958333333332,-0.5901851851851851,1.859399999991055],[0.46416666666666656,-0.5885185185185186,1.8745999999940324],[0.46031250000000007,-0.5964814814814815,1.8901999999880843],[0.43770833333333337,-0.6135185185185186,1.9085999999940384],[0.45208333333333334,-0.6064814814814815,1.9235000000000042],[0.446875,-0.5361111111111111,1.9401999999880815],[0.4599999999999999,-0.5568518518518518,1.956899999991066],[0.4731250000000001,-0.5775925925925925,1.9735000000000014],[0.5001041666666666,-0.5877777777777777,1.992199999988074],[0.5235416666666666,-0.602037037037037,2.007000000000005],[0.4669791666666666,-0.6183333333333333,2.0236999999880823],[0.4036458333333333,-0.6559259259259259,2.040099999994041],[0.29187500000000005,-0.5546296296296296,2.057000000000002],[0.20010416666666658,-0.49722222222222223,2.0757999999970167],[0.08114583333333343,-0.492037037037037,2.090199999988073],[-0.0453125,-0.49240740740740735,2.1098999999910575],[-0.17635416666666662,-0.4331481481481481,2.1238999999910533],[-0.30739583333333337,-0.3738888888888888,2.1446999999880774],[-0.3267708333333334,-0.3672222222222222,2.1600999999940456],[-0.34260416666666665,-0.35407407407407404,2.174899999991055],[-0.34260416666666665,-0.35407407407407404,2.190399999991058],[-0.3154166666666666,-0.33777777777777773,2.2093999999910636],[-0.31062500000000004,-0.3122222222222223,2.228399999991055],[-0.31062500000000004,-0.3122222222222223,2.241500000000002],[-0.18875000000000006,-0.4192592592592592,2.2642999999970215],[-0.18875000000000006,-0.4192592592592592,2.275299999997017],[-0.0702083333333333,-0.46703703703703703,2.2903999999910525],[0.03093750000000005,-0.522037037037037,2.3118999999910557],[0.09333333333333324,-0.5225925925925926,2.326299999997019],[0.09333333333333324,-0.5225925925925926,2.340199999988073],[0.15885416666666666,-0.5266666666666666,2.357199999988083],[0.2275000000000001,-0.5309259259259259,2.373499999999993],[0.184375,-0.5296296296296297,2.3901999999880843],[0.1412499999999999,-0.5283333333333333,2.4100999999940456],[0.16375000000000003,-0.5148148148148148,2.4236999999880737],[0.21541666666666662,-0.4892592592592592,2.4401999999880815],[0.2534374999999999,-0.45685185185185184,2.457399999991054],[0.2904166666666666,-0.4305555555555556,2.4735000000000014],[0.3150000000000001,-0.3931481481481482,2.4934999999999974],[0.38729166666666665,-0.42185185185185187,2.5103999999910656],[0.4270833333333333,-0.42370370370370375,2.525599999994043],[0.46375000000000005,-0.42537037037037034,2.540699999988078],[0.5306250000000001,-0.42462962962962963,2.560899999991065],[0.5306250000000001,-0.42462962962962963,2.5736999999880794],[0.5820833333333333,-0.45611111111111113,2.590399999991064],[0.5689583333333333,-0.5114814814814814,2.6069999999999993],[0.5451041666666666,-0.5481481481481482,2.6252999999970257],[0.5136458333333332,-0.5592592592592592,2.640399999991061],[0.4814583333333334,-0.5679629629629629,2.658699999988073],[0.4805208333333333,-0.5788888888888889,2.6771999999880762],[0.44552083333333337,-0.5368518518518518,2.691399999991063],[0.4430208333333333,-0.5216666666666666,2.7095000000000056],[0.4203125,-0.4844444444444445,2.729299999997025],[0.3992708333333333,-0.4674074074074074,2.7432999999970207],[0.3992708333333333,-0.4674074074074074,2.757000000000005],[0.39968750000000003,-0.39814814814814814,2.773799999997024],[0.4150000000000001,-0.3359259259259259,2.7921999999880853],[0.39333333333333326,-0.30333333333333334,2.807000000000002],[0.34520833333333345,-0.28407407407407403,2.8250999999940376],[0.2911458333333333,-0.2338888888888889,2.8427999999970126],[0.3011458333333332,-0.207962962962963,2.8585999999940412],[0.3264583333333334,-0.1977777777777778,2.873599999994042],[0.32958333333333345,-0.20407407407407405,2.8902999999970262],[0.37385416666666677,-0.2722222222222222,2.9100999999940456],[0.37385416666666677,-0.2722222222222222,2.923599999994039],[0.3881249999999999,-0.2959259259259259,2.940399999991058],[0.3954166666666666,-0.3538888888888889,2.9625000000000057],[0.3954166666666666,-0.3538888888888889,2.973799999997013],[0.3867708333333333,-0.39944444444444444,2.9903999999910553],[0.4136458333333332,-0.4192592592592592,3.007000000000005],[0.4557291666666667,-0.4516666666666666,3.027799999997015],[0.4851041666666667,-0.5001851851851852,3.0428999999910644],[0.4851041666666667,-0.5001851851851852,3.057000000000002],[0.4414583333333333,-0.5224074074074074,3.0737999999970214],[0.4397916666666667,-0.5625925925925926,3.0920999999940335],[0.4391666666666666,-0.5901851851851851,3.108099999994039],[0.42645833333333344,-0.6318518518518518,3.126599999994042],[0.40614583333333343,-0.6731481481481482,3.1476999999880775],[0.40614583333333343,-0.6731481481481482,3.1569999999999965],[0.38260416666666663,-0.65,3.1736999999880737],[0.38260416666666663,-0.65,3.190399999991058],[0.35989583333333336,-0.6355555555555555,3.2099999999999937],[0.33614583333333337,-0.6220370370370369,3.2279999999999944],[0.33614583333333337,-0.6220370370370369,3.2403999999910553],[0.3006249999999999,-0.5918518518518519,3.2602999999970166],[0.3006249999999999,-0.5918518518518519,3.2736999999880823],[0.29239583333333335,-0.615925925925926,3.2903999999910525],[0.3069791666666667,-0.6475925925925926,3.3118999999910557],[0.296875,-0.665,3.3267999999970215],[0.30791666666666656,-0.6785185185185185,3.341899999991057],[0.30791666666666656,-0.6785185185185185,3.3567999999970226],[0.32135416666666666,-0.6492592592592593,3.373499999999993],[0.32447916666666665,-0.6368518518518518,3.3901999999880843],[0.3529166666666666,-0.6762962962962963,3.409099999994041],[0.3823958333333332,-0.6935185185185185,3.423500000000004],[0.42427083333333326,-0.7435185185185185,3.4400999999940325],[0.4669791666666666,-0.7746296296296297,3.4577999999970217],[0.48156249999999995,-0.7655555555555555,3.4735000000000014],[0.49812500000000004,-0.7085185185185185,3.492299999997016],[0.49989583333333343,-0.6618518518518518,3.5070999999940398],[0.49989583333333343,-0.6618518518518518,3.5234999999999985],[0.5148958333333333,-0.6457407407407407,3.5401999999880758],[0.5026041666666666,-0.5996296296296296,3.5567999999970255],[0.496875,-0.5237037037037037,3.5765999999940448],[0.4900000000000001,-0.47370370370370374,3.5912999999970197],[0.4822916666666667,-0.4425925925925926,3.610199999988083],[0.4653125000000001,-0.37962962962962965,3.625699999988072],[0.44656250000000003,-0.32592592592592595,3.6436999999880726],[0.45322916666666657,-0.28111111111111114,3.659599999994043],[0.4331249999999999,-0.259074074074074,3.67589999999106],[0.4331249999999999,-0.259074074074074,3.6901999999880815],[0.4479166666666667,-0.2646296296296296,3.706799999997017],[0.4069791666666667,-0.21796296296296294,3.7233999999910594],[0.4040625000000001,-0.2088888888888889,3.742999999999995],[0.36531250000000004,-0.16222222222222227,3.7601999999880746],[0.33614583333333337,-0.13388888888888892,3.7756999999880776],[0.30364583333333334,-0.1235185185185185,3.7903999999910525],[0.2820833333333333,-0.12925925925925927,3.80689999999106],[0.2709374999999999,-0.1427777777777778,3.82559999999404],[0.20833333333333334,-0.11148148148148146,3.840099999994038],[0.15916666666666662,-0.10388888888888893,3.860299999997025],[0.0859375,-0.09055555555555551,3.876599999994042],[0.06854166666666663,-0.04814814814814815,3.8946999999880774],[0.029166666666666667,0.012962962962962963,3.909699999988078],[0.01395833333333331,-0.02629629629629638,3.923500000000004],[-0.0390625,-0.023333333333333376,3.9402999999970234],[-0.08135416666666669,-0.00722222222222218,3.9569999999999936],[-0.1297916666666667,0.012777777777777735,3.9733999999910594],[-0.20822916666666663,0.04592592592592584,3.9925999999940416],[-0.2404166666666666,0.04000000000000004,4.007000000000005],[-0.26979166666666665,0.02907407407407416,4.026599999994033],[-0.30343749999999997,0.040740740740740744,4.041799999997025],[-0.33229166666666665,-0.003333333333333249,4.0567999999970255],[-0.3611458333333334,-0.04740740740740745,4.075999999999993],[-0.385,-0.04314814814814806,4.090199999988073],[-0.42562500000000003,0,4.110299999997025],[-0.45822916666666663,0.058333333333333334,4.125799999997014],[-0.49333333333333335,0.12222222222222222,4.14409999999404],[-0.49333333333333335,0.12222222222222222,4.157899999991059],[-0.4995833333333334,0.15555555555555556,4.173699999988074],[-0.51875,0.21277777777777773,4.190799999997026],[-0.5422916666666667,0.2699999999999999,4.206799999997017],[-0.5555208333333332,0.3085185185185186,4.223500000000001],[-0.6005208333333333,0.3611111111111111,4.242899999991053],[-0.6005208333333333,0.3611111111111111,4.256799999997014],[-0.6388541666666666,0.41944444444444445,4.2734999999999985],[-0.6647916666666667,0.4607407407407407,4.290199999988076],[-0.6657291666666667,0.4668518518518519,4.30689999999106],[-0.6755208333333333,0.4572222222222222,4.324699999988084],[-0.6884374999999999,0.5022222222222223,4.340199999988073],[-0.6884374999999999,0.5022222222222223,4.356799999997023],[-0.7102083333333333,0.5062962962962962,4.373499999999993],[-0.708125,0.5338888888888889,4.390099999994035],[-0.7043750000000001,0.5394444444444444,4.408199999988085],[-0.7111458333333334,0.5511111111111111,4.423500000000004],[-0.7111458333333334,0.5511111111111111,4.4400999999940325],[-0.7042708333333334,0.5537037037037037,4.456899999991066],[-0.7190624999999999,0.5585185185185185,4.473500000000001],[-0.7286458333333333,0.5898148148148148,4.492000000000004],[-0.7382291666666667,0.6211111111111111,4.506799999997014],[-0.734375,0.6225925925925927,4.526099999994045],[-0.7336458333333333,0.581111111111111,4.542299999997013],[-0.7336458333333333,0.581111111111111,4.557099999994037],[-0.7245833333333334,0.590925925925926,4.573599999994045],[-0.7236458333333334,0.5564814814814815,4.59169999998808],[-0.7236458333333334,0.5564814814814815,4.606999999999999],[-0.653125,0.49722222222222223,4.623499999999993],[-0.5795833333333333,0.4427777777777778,4.640099999994035],[-0.5795833333333333,0.4427777777777778,4.65679999999702],[-0.5191666666666667,0.37111111111111106,4.673599999994039],[-0.5191666666666667,0.37111111111111106,4.6901999999880815],[-0.47302083333333333,0.36500000000000005,4.706899999991066],[-0.4222916666666666,0.3103703703703704,4.723500000000001],[-0.3585416666666667,0.21722222222222215,4.742299999997016],[-0.2954166666666667,0.21296296296296297,4.760199999988075],[-0.2015625,0.17685185185185184,4.7757999999970195],[-0.084375,0.09166666666666666,4.792099999994036],[0.01739583333333338,0.047037037037036995,4.8067999999970255],[0.040625,0.05907407407407403,4.825500000000005],[0.040625,0.05907407407407403,4.840199999988073],[0.06927083333333334,0.07222222222222222,4.856899999991057],[0.12770833333333323,0.07240740740740745,4.873499999999993],[0.22541666666666677,0.002962962962963005,4.890099999994035],[0.3133333333333333,-0.03185185185185194,4.908899999991064],[0.37770833333333326,-0.03351851851851856,4.923599999994039],[0.37770833333333326,-0.03351851851851856,4.9400999999940325],[0.4227083333333333,-0.08888888888888889,4.956799999997017],[0.4405208333333334,-0.12018518518518514,4.973399999991059],[0.4147916666666667,-0.13481481481481483,4.992399999991065],[0.4147916666666667,-0.13481481481481483,5.006899999991063],[0.40166666666666656,-0.19314814814814818,5.0234999999999985],[0.41166666666666674,-0.2698148148148148,5.049000000000007],[0.41166666666666674,-0.2698148148148148,5.057599999994039],[0.3936458333333334,-0.30462962962962964,5.073499999999996],[0.34791666666666665,-0.29500000000000004,5.090099999994038],[0.34791666666666665,-0.29500000000000004,5.106799999997023],[0.2921875,-0.2892592592592592,5.123399999991065],[0.24468750000000009,-0.2918518518518519,5.140199999988084],[0.19958333333333325,-0.2712962962962963,5.159099999994041],[0.15833333333333333,-0.27740740740740744,5.174899999991055],[0.15833333333333333,-0.27740740740740744,5.190299999997023],[0.14114583333333333,-0.28166666666666673,5.206899999991066],[0.11302083333333333,-0.24388888888888888,5.223500000000001],[0.08489583333333334,-0.20611111111111113,5.242199999988074],[0.05135416666666662,-0.1824074074074074,5.258799999997024],[0.04583333333333333,-0.20055555555555557,5.275599999994043],[0.051041666666666666,-0.2192592592592592,5.292299999997013],[0.05020833333333338,-0.23203703703703707,5.307099999994037],[0.03916666666666669,-0.23351851851851857,5.327699999988084],[0.03916666666666669,-0.23351851851851857,5.340299999997015],[0.05697916666666671,-0.28425925925925927,5.357099999994034],[0.03604166666666669,-0.27462962962962967,5.374799999997023],[0.050625000000000024,-0.32,5.394899999991054],[0.050625000000000024,-0.32,5.40719999998808],[0.07125000000000009,-0.40499999999999997,5.423699999988074],[0.08177083333333333,-0.4818518518518518,5.443699999988084],[0.08718750000000004,-0.5137037037037037,5.4625999999940404],[0.09947916666666666,-0.5268518518518519,5.4786999999880805],[0.10927083333333343,-0.5535185185185185,5.493099999994044],[0.10927083333333343,-0.5535185185185185,5.506799999997014],[0.12510416666666657,-0.5861111111111111,5.5234999999999985],[0.13541666666666666,-0.6262962962962962,5.540099999994041],[0.13416666666666663,-0.6248148148148148,5.560699999988074],[0.13416666666666663,-0.6248148148148148,5.573599999994045],[0.1678124999999999,-0.6570370370370371,5.590199999988073],[0.1678124999999999,-0.6570370370370371,5.60929999999702],[0.14968750000000006,-0.6448148148148148,5.623499999999993],[0.15395833333333328,-0.6240740740740741,5.640299999997026],[0.17354166666666657,-0.6035185185185185,5.659599999994043],[0.1868750000000001,-0.5962962962962963,5.674499999999995],[0.1728125000000001,-0.5874074074074074,5.693099999994033],[0.17062499999999994,-0.5807407407407408,5.708599999994036],[0.18072916666666666,-0.5946296296296296,5.723399999991059],[0.19833333333333342,-0.6038888888888889,5.743199999988079],[0.19833333333333342,-0.6038888888888889,5.756899999991063],[0.2053124999999999,-0.6174074074074074,5.7734999999999985],[0.18895833333333342,-0.662962962962963,5.790099999994041],[0.19333333333333325,-0.6950000000000001,5.8067999999970255],[0.20499999999999996,-0.6751851851851852,5.826199999988077],[0.20499999999999996,-0.6751851851851852,5.840199999988073],[0.1931250000000001,-0.6466666666666666,5.856899999991057],[0.17999999999999997,-0.5983333333333334,5.873499999999993],[0.20020833333333338,-0.5644444444444444,5.894899999991054],[0.21135416666666676,-0.5285185185185185,5.91019999998808],[0.19229166666666658,-0.4905555555555555,5.924599999994044],[0.1756249999999999,-0.45111111111111113,5.940799999997026],[0.16458333333333333,-0.3894444444444445,5.956799999997017],[0.18166666666666675,-0.30833333333333335,5.973399999991059]]","[0.0002999999970256795,0.05069999998808328,0.05700000000000216,0.07669999998807953,0.0925999999940359,0.1093999999910551,0.1240999999940442,0.14029999999702625,0.16029999999702227,0.1735000000000042,0.19039999999105817,0.2068999999910659,0.22350000000000136,0.24319999998807873,0.25689999999106305,0.2735999999940333,0.2903999999910525,0.3068999999910602,0.3259999999999934,0.34439999999105453,0.35689999999105737,0.37369999998807657,0.39029999999702625,0.4108999999910594,0.4257999999970252,0.44039999999105817,0.4570999999940426,0.48079999999701784,0.4967999999970232,0.5076999999880769,0.5237999999970242,0.5428999999910644,0.5570999999940369,0.5737999999970214,0.5903999999910639,0.6089999999999947,0.6236999999880766,0.6402999999970262,0.6592999999970175,0.6738999999910646,0.6905000000000001,0.7095000000000056,0.727599999994041,0.7432999999970207,0.759299999997026,0.7737999999970242,0.7903999999910525,0.8110999999940418,0.8256999999880748,0.8403999999910639,0.8570999999940341,0.8761999999880743,0.8937999999970145,0.9090999999940408,0.9236999999880737,0.9427999999970211,0.9572999999970193,0.9736999999880851,0.9922999999970159,1.0087999999970236,1.0236999999880823,1.0403999999910525,1.0611999999880766,1.0760999999940424,1.0905000000000058,1.108699999988076,1.1236999999880766,1.1407999999970144,1.161199999988085,1.1736999999880737,1.1905000000000001,1.2069999999999936,1.2279999999999944,1.243099999994044,1.2574999999999932,1.2780000000000058,1.292299999997013,1.310899999991065,1.3250999999940376,1.3425000000000011,1.3585000000000065,1.3735999999940418,1.3902999999970262,1.4113999999910618,1.4236999999880737,1.4405000000000001,1.4579999999999984,1.4785999999940458,1.4926999999880763,1.5095000000000027,1.5259999999999962,1.5413999999910573,1.557699999988074,1.5780999999940377,1.5902999999970149,1.607099999994034,1.6237999999970185,1.6445999999940426,1.6595999999940432,1.6738999999910646,1.6927999999970211,1.7069999999999936,1.723699999988085,1.7441999999880835,1.757000000000005,1.7736999999880823,1.7903999999910525,1.8113999999910533,1.8261999999880771,1.8436999999880754,1.859399999991055,1.8745999999940324,1.8901999999880843,1.9085999999940384,1.9235000000000042,1.9401999999880815,1.956899999991066,1.9735000000000014,1.992199999988074,2.007000000000005,2.0236999999880823,2.040099999994041,2.057000000000002,2.0757999999970167,2.090199999988073,2.1098999999910575,2.1238999999910533,2.1446999999880774,2.1600999999940456,2.174899999991055,2.190399999991058,2.2093999999910636,2.228399999991055,2.241500000000002,2.2642999999970215,2.275299999997017,2.2903999999910525,2.3118999999910557,2.326299999997019,2.340199999988073,2.357199999988083,2.373499999999993,2.3901999999880843,2.4100999999940456,2.4236999999880737,2.4401999999880815,2.457399999991054,2.4735000000000014,2.4934999999999974,2.5103999999910656,2.525599999994043,2.540699999988078,2.560899999991065,2.5736999999880794,2.590399999991064,2.6069999999999993,2.6252999999970257,2.640399999991061,2.658699999988073,2.6771999999880762,2.691399999991063,2.7095000000000056,2.729299999997025,2.7432999999970207,2.757000000000005,2.773799999997024,2.7921999999880853,2.807000000000002,2.8250999999940376,2.8427999999970126,2.8585999999940412,2.873599999994042,2.8902999999970262,2.9100999999940456,2.923599999994039,2.940399999991058,2.9625000000000057,2.973799999997013,2.9903999999910553,3.007000000000005,3.027799999997015,3.0428999999910644,3.057000000000002,3.0737999999970214,3.0920999999940335,3.108099999994039,3.126599999994042,3.1476999999880775,3.1569999999999965,3.1736999999880737,3.190399999991058,3.2099999999999937,3.2279999999999944,3.2403999999910553,3.2602999999970166,3.2736999999880823,3.2903999999910525,3.3118999999910557,3.3267999999970215,3.341899999991057,3.3567999999970226,3.373499999999993,3.3901999999880843,3.409099999994041,3.423500000000004,3.4400999999940325,3.4577999999970217,3.4735000000000014,3.492299999997016,3.5070999999940398,3.5234999999999985,3.5401999999880758,3.5567999999970255,3.5765999999940448,3.5912999999970197,3.610199999988083,3.625699999988072,3.6436999999880726,3.659599999994043,3.67589999999106,3.6901999999880815,3.706799999997017,3.7233999999910594,3.742999999999995,3.7601999999880746,3.7756999999880776,3.7903999999910525,3.80689999999106,3.82559999999404,3.840099999994038,3.860299999997025,3.876599999994042,3.8946999999880774,3.909699999988078,3.923500000000004,3.9402999999970234,3.9569999999999936,3.9733999999910594,3.9925999999940416,4.007000000000005,4.026599999994033,4.041799999997025,4.0567999999970255,4.075999999999993,4.090199999988073,4.110299999997025,4.125799999997014,4.14409999999404,4.157899999991059,4.173699999988074,4.190799999997026,4.206799999997017,4.223500000000001,4.242899999991053,4.256799999997014,4.2734999999999985,4.290199999988076,4.30689999999106,4.324699999988084,4.340199999988073,4.356799999997023,4.373499999999993,4.390099999994035,4.408199999988085,4.423500000000004,4.4400999999940325,4.456899999991066,4.473500000000001,4.492000000000004,4.506799999997014,4.526099999994045,4.542299999997013,4.557099999994037,4.573599999994045,4.59169999998808,4.606999999999999,4.623499999999993,4.640099999994035,4.65679999999702,4.673599999994039,4.6901999999880815,4.706899999991066,4.723500000000001,4.742299999997016,4.760199999988075,4.7757999999970195,4.792099999994036,4.8067999999970255,4.825500000000005,4.840199999988073,4.856899999991057,4.873499999999993,4.890099999994035,4.908899999991064,4.923599999994039,4.9400999999940325,4.956799999997017,4.973399999991059,4.992399999991065,5.006899999991063,5.0234999999999985,5.049000000000007,5.057599999994039,5.073499999999996,5.090099999994038,5.106799999997023,5.123399999991065,5.140199999988084,5.159099999994041,5.174899999991055,5.190299999997023,5.206899999991066,5.223500000000001,5.242199999988074,5.258799999997024,5.275599999994043,5.292299999997013,5.307099999994037,5.327699999988084,5.340299999997015,5.357099999994034,5.374799999997023,5.394899999991054,5.40719999998808,5.423699999988074,5.443699999988084,5.4625999999940404,5.4786999999880805,5.493099999994044,5.506799999997014,5.5234999999999985,5.540099999994041,5.560699999988074,5.573599999994045,5.590199999988073,5.60929999999702,5.623499999999993,5.640299999997026,5.659599999994043,5.674499999999995,5.693099999994033,5.708599999994036,5.723399999991059,5.743199999988079,5.756899999991063,5.7734999999999985,5.790099999994041,5.8067999999970255,5.826199999988077,5.840199999988073,5.856899999991057,5.873499999999993,5.894899999991054,5.91019999998808,5.924599999994044,5.940799999997026,5.956799999997017,5.973399999991059]","[1732604774403,1732604774443,1732604774449,1732604774469,1732604774485,1732604774501,1732604774516,1732604774532,1732604774552,1732604774565,1732604774582,1732604774599,1732604774615,1732604774635,1732604774649,1732604774666,1732604774682,1732604774699,1732604774718,1732604774736,1732604774749,1732604774766,1732604774782,1732604774803,1732604774818,1732604774832,1732604774849,1732604774873,1732604774889,1732604774900,1732604774916,1732604774935,1732604774949,1732604774966,1732604774982,1732604775001,1732604775016,1732604775032,1732604775051,1732604775066,1732604775082,1732604775101,1732604775119,1732604775135,1732604775151,1732604775166,1732604775182,1732604775203,1732604775218,1732604775232,1732604775249,1732604775268,1732604775286,1732604775301,1732604775316,1732604775335,1732604775349,1732604775366,1732604775384,1732604775401,1732604775415,1732604775432,1732604775453,1732604775468,1732604775482,1732604775501,1732604775516,1732604775533,1732604775553,1732604775566,1732604775582,1732604775599,1732604775620,1732604775635,1732604775649,1732604775670,1732604775684,1732604775703,1732604775717,1732604775734,1732604775750,1732604775766,1732604775782,1732604775803,1732604775816,1732604775832,1732604775850,1732604775870,1732604775885,1732604775901,1732604775918,1732604775933,1732604775950,1732604775970,1732604775982,1732604775999,1732604776016,1732604776036,1732604776051,1732604776066,1732604776085,1732604776099,1732604776116,1732604776136,1732604776149,1732604776166,1732604776182,1732604776203,1732604776218,1732604776236,1732604776251,1732604776266,1732604776282,1732604776300,1732604776315,1732604776332,1732604776349,1732604776365,1732604776384,1732604776399,1732604776416,1732604776432,1732604776449,1732604776468,1732604776482,1732604776502,1732604776516,1732604776537,1732604776552,1732604776567,1732604776582,1732604776601,1732604776620,1732604776633,1732604776656,1732604776667,1732604776682,1732604776704,1732604776718,1732604776732,1732604776749,1732604776765,1732604776782,1732604776802,1732604776816,1732604776832,1732604776849,1732604776865,1732604776885,1732604776902,1732604776917,1732604776933,1732604776953,1732604776966,1732604776982,1732604776999,1732604777017,1732604777032,1732604777051,1732604777069,1732604777083,1732604777101,1732604777121,1732604777135,1732604777149,1732604777166,1732604777184,1732604777199,1732604777217,1732604777235,1732604777250,1732604777266,1732604777282,1732604777302,1732604777315,1732604777332,1732604777354,1732604777366,1732604777382,1732604777399,1732604777420,1732604777435,1732604777449,1732604777466,1732604777484,1732604777500,1732604777518,1732604777539,1732604777549,1732604777566,1732604777582,1732604777602,1732604777620,1732604777632,1732604777652,1732604777666,1732604777682,1732604777704,1732604777719,1732604777734,1732604777749,1732604777765,1732604777782,1732604777801,1732604777815,1732604777832,1732604777850,1732604777865,1732604777884,1732604777899,1732604777915,1732604777932,1732604777949,1732604777968,1732604777983,1732604778002,1732604778018,1732604778036,1732604778052,1732604778068,1732604778082,1732604778099,1732604778115,1732604778135,1732604778152,1732604778168,1732604778182,1732604778199,1732604778217,1732604778232,1732604778252,1732604778268,1732604778287,1732604778302,1732604778315,1732604778332,1732604778349,1732604778365,1732604778384,1732604778399,1732604778418,1732604778434,1732604778449,1732604778468,1732604778482,1732604778502,1732604778518,1732604778536,1732604778550,1732604778566,1732604778583,1732604778599,1732604778615,1732604778635,1732604778649,1732604778665,1732604778682,1732604778699,1732604778717,1732604778732,1732604778749,1732604778765,1732604778782,1732604778800,1732604778815,1732604778832,1732604778849,1732604778865,1732604778884,1732604778899,1732604778918,1732604778934,1732604778949,1732604778965,1732604778984,1732604778999,1732604779015,1732604779032,1732604779049,1732604779065,1732604779082,1732604779099,1732604779115,1732604779134,1732604779152,1732604779168,1732604779184,1732604779199,1732604779217,1732604779232,1732604779249,1732604779265,1732604779282,1732604779301,1732604779315,1732604779332,1732604779349,1732604779365,1732604779384,1732604779399,1732604779415,1732604779441,1732604779449,1732604779465,1732604779482,1732604779499,1732604779515,1732604779532,1732604779551,1732604779567,1732604779582,1732604779599,1732604779615,1732604779634,1732604779651,1732604779667,1732604779684,1732604779699,1732604779720,1732604779732,1732604779749,1732604779767,1732604779787,1732604779799,1732604779815,1732604779836,1732604779854,1732604779871,1732604779885,1732604779899,1732604779915,1732604779932,1732604779953,1732604779965,1732604779982,1732604780001,1732604780015,1732604780032,1732604780051,1732604780066,1732604780085,1732604780100,1732604780115,1732604780135,1732604780149,1732604780165,1732604780182,1732604780199,1732604780218,1732604780232,1732604780249,1732604780265,1732604780287,1732604780302,1732604780316,1732604780333,1732604780349,1732604780365]","[[1030.2,683],[1030.2,683],[1035.9,682.6],[1053.2,690.3],[1064.8,679.8],[1062.8,673.2],[1062.2,683.2],[1054.6,685.1],[1072,676.4],[1072,676.4],[1080.6,666.5],[1091.4,648.8],[1113.8,642.9],[1126,633.4],[1126,633.4],[1119.6,603.5],[1095,617.3],[1086.9,610.3],[1067.6,592.9],[1049.7,579.1],[1049.7,579.1],[1012.6,582.8],[995.7,556.1],[976.1,537.1],[938.9,523.3],[938.9,523.3],[912.8,537.2],[890,555.4],[890,555.4],[909.4,550.6],[909.4,550.6],[894.7,539.3],[894.7,539.3],[901.2,549.4],[902,529.4],[908.2,531.8],[918,580.8],[937.4,642.5],[937.4,642.5],[948.6,649.7],[948.6,649.7],[973.8,637.4],[988.1,622.1],[988,594.6],[988,594.6],[1019.6,564.1],[1021.9,546.1],[1042.4,544.7],[1036,526.6],[1036,526.6],[1010.4,453],[992.9,416.8],[990.9,421.4],[968.9,416.7],[992.5,422.9],[992.5,422.9],[990.5,404.2],[976.2,433],[977.9,424.6],[965.7,426.1],[986.6,423.2],[1022.1,453.7],[1040.4,434.2],[1038.9,400.6],[1048.9,381.3],[1048.9,381.3],[1047.2,361.4],[1057.8,379.3],[1068.7,373.2],[1068.7,373.2],[1084.6,356.1],[1089.9,343.1],[1080.6,321.4],[1087.4,305.4],[1104.9,300.5],[1131.1,306.6],[1142.3,292.4],[1145.8,287],[1127.5,283.8],[1107.1,287.4],[1118.9,281.9],[1149.6,272.8],[1181.3,268.3],[1194.9,264.4],[1194.9,264.4],[1194.1,260.7],[1193.3,257],[1197.5,264],[1234.8,241.8],[1282.8,193.1],[1336,161.8],[1333.3,166],[1321.6,165.2],[1313.6,170],[1313.6,170],[1321.8,178.3],[1340.5,175.7],[1358.8,154.9],[1374.6,150],[1357.3,174.3],[1355.5,206.1],[1355.5,206.1],[1351.5,220.4],[1361.4,232],[1361.4,232],[1390.8,213.9],[1404,214.7],[1403,205.7],[1385.6,204.6],[1368.6,220.4],[1387.1,221.3],[1405.6,222.2],[1401.9,217.9],[1380.2,208.7],[1394,212.5],[1389,250.5],[1401.6,239.3],[1414.2,228.1],[1440.1,222.6],[1462.6,214.9],[1408.3,206.1],[1347.5,185.8],[1240.2,240.5],[1152.1,271.5],[1037.9,274.3],[916.5,274.1],[790.7,306.1],[664.9,338.1],[646.3,341.7],[631.1,348.8],[631.1,348.8],[657.2,357.6],[661.8,371.4],[661.8,371.4],[778.8,313.6],[778.8,313.6],[892.6,287.8],[989.7,258.1],[1049.6,257.8],[1049.6,257.8],[1112.5,255.6],[1178.4,253.3],[1137,254],[1095.6,254.7],[1117.2,262],[1166.8,275.8],[1203.3,293.3],[1238.8,307.5],[1262.4,327.7],[1331.8,312.2],[1370,311.2],[1405.2,310.3],[1469.4,310.7],[1469.4,310.7],[1518.8,293.7],[1506.2,263.8],[1483.3,244],[1453.1,238],[1422.2,233.3],[1421.3,227.4],[1387.7,250.1],[1385.3,258.3],[1363.5,278.4],[1343.3,287.6],[1343.3,287.6],[1343.7,325],[1358.4,358.6],[1337.6,376.2],[1291.4,386.6],[1239.5,413.7],[1249.1,427.7],[1273.4,433.2],[1276.4,429.8],[1318.9,393],[1318.9,393],[1332.6,380.2],[1339.6,348.9],[1339.6,348.9],[1331.3,324.3],[1357.1,313.6],[1397.5,296.1],[1425.7,269.9],[1425.7,269.9],[1383.8,257.9],[1382.2,236.2],[1381.6,221.3],[1369.4,198.8],[1349.9,176.5],[1349.9,176.5],[1327.3,189],[1327.3,189],[1305.5,196.8],[1282.7,204.1],[1282.7,204.1],[1248.6,220.4],[1248.6,220.4],[1240.7,207.4],[1254.7,190.3],[1245,180.9],[1255.6,173.6],[1255.6,173.6],[1268.5,189.4],[1271.5,196.1],[1298.8,174.8],[1327.1,165.5],[1367.3,138.5],[1408.3,121.7],[1422.3,126.6],[1438.2,157.4],[1439.9,182.6],[1439.9,182.6],[1454.3,191.3],[1442.5,216.2],[1437,257.2],[1430.4,284.2],[1423,301],[1406.7,335],[1388.7,364],[1395.1,388.2],[1375.8,400.1],[1375.8,400.1],[1390,397.1],[1350.7,422.3],[1347.9,427.2],[1310.7,452.4],[1282.7,467.7],[1251.5,473.3],[1230.8,470.2],[1220.1,462.9],[1160,479.8],[1112.8,483.9],[1042.5,491.1],[1025.8,514],[988,547],[973.4,525.8],[922.5,527.4],[881.9,536.1],[835.4,546.9],[760.1,564.8],[729.2,561.6],[701,555.7],[668.7,562],[641,538.2],[613.3,514.4],[590.4,516.7],[551.4,540],[520.1,571.5],[486.4,606],[486.4,606],[480.4,624],[462,654.9],[439.4,685.8],[426.7,706.6],[383.5,735],[383.5,735],[346.7,766.5],[321.8,788.8],[320.9,792.1],[311.5,786.9],[299.1,811.2],[299.1,811.2],[278.2,813.4],[280.2,828.3],[283.8,831.3],[277.3,837.6],[277.3,837.6],[283.9,839],[269.7,841.6],[260.5,858.5],[251.3,875.4],[255,876.2],[255.7,853.8],[255.7,853.8],[264.4,859.1],[265.3,840.5],[265.3,840.5],[333,808.5],[403.6,779.1],[403.6,779.1],[461.6,740.4],[461.6,740.4],[505.9,737.1],[554.6,707.6],[615.8,657.3],[676.4,655],[766.5,635.5],[879,589.5],[976.7,565.4],[999,571.9],[999,571.9],[1026.5,579],[1082.6,579.1],[1176.4,541.6],[1260.8,522.8],[1322.6,521.9],[1322.6,521.9],[1365.8,492],[1382.9,475.1],[1358.2,467.2],[1358.2,467.2],[1345.6,435.7],[1355.2,394.3],[1355.2,394.3],[1337.9,375.5],[1294,380.7],[1294,380.7],[1240.5,383.8],[1194.9,382.4],[1151.6,393.5],[1112,390.2],[1112,390.2],[1095.5,387.9],[1068.5,408.3],[1041.5,428.7],[1009.3,441.5],[1004,431.7],[1009,421.6],[1008.2,414.7],[997.6,413.9],[997.6,413.9],[1014.7,386.5],[994.6,391.7],[1008.6,367.2],[1008.6,367.2],[1028.4,321.3],[1038.5,279.8],[1043.7,262.6],[1055.5,255.5],[1064.9,241.1],[1064.9,241.1],[1080.1,223.5],[1090,201.8],[1088.8,202.6],[1088.8,202.6],[1121.1,185.2],[1121.1,185.2],[1103.7,191.8],[1107.8,203],[1126.6,214.1],[1139.4,218],[1125.9,222.8],[1123.8,226.4],[1133.5,218.9],[1150.4,213.9],[1150.4,213.9],[1157.1,206.6],[1141.4,182],[1145.6,164.7],[1156.8,175.4],[1156.8,175.4],[1145.4,190.8],[1132.8,216.9],[1152.2,235.2],[1162.9,254.6],[1144.6,275.1],[1128.6,296.4],[1118,329.7],[1134.4,373.5]]","[-0.2,0.6000000000000001]","[0.2,0.6000000000000001]","[0.6000000000000001,0.6000000000000001]","[-0.6000000000000001,0.2]","[-0.6000000000000001,-0.2]","[-0.6000000000000001,-0.6000000000000001]","[-0.2,0.2]","[0.2,0.2]","[0.6000000000000001,0.2]","[-0.2,-0.2]","[0.2,-0.2]","[0.6000000000000001,-0.2]","[-0.2,-0.6000000000000001]","[0.2,-0.6000000000000001]","[0.6000000000000001,-0.6000000000000001]",0,0,0,0,1,3,Monitor,25,40,9,1,50,4,1,60,5
