inst1_resp.keys,inst1_resp.rt,calibrationMouse.x,calibrationMouse.y,calibrationMouse.leftButton,calibrationMouse.midButton,calibrationMouse.rightButton,calibrationClick.x,calibrationClick.y,calibrationClick.leftButton,calibrationClick.midButton,calibrationClick.rightButton,calibrationClick.clicked_name,trialsc.thisRepN,trialsc.thisTrialN,trialsc.thisN,trialsc.thisIndex,trialsc.ran,calibration_x,calibration_y,participant,session,date,expName,psychopyVersion,OS,frameRate,ScreenRes_pixels,Camera_pixels,mouse_2.x,mouse_2.y,mouse_2.leftButton,mouse_2.midButton,mouse_2.rightButton,mouse_2.time,mouse_2.clicked_name,mouse.x,mouse.y,mouse.leftButton,mouse.midButton,mouse.rightButton,mouse.time,mouse.clicked_name,Choice,Trial,TrialDuration,MOUSE_GAZE,ET_GAZE,ET_GAZE_x_T,time,unixTime,ET_GAZE_NF,Loc_Bus_label,Loc_Metro_label,Loc_RH_label,Loc_Cost_label,Loc_Travel_label,Loc_Comfort_label,Loc_Bus_cost,Loc_Metro_cost,Loc_RH_cost,Loc_Bus_travel,Loc_Metro_travel,Loc_RH_travel,Loc_Bus_comfort,Loc_Metro_comfort,Loc_RH_comfort,trials.thisRepN,trials.thisTrialN,trials.thisN,trials.thisIndex,trials.ran,Block,Device,RH_cost,RH_travel_time,RH_Comfort,metro_cost,metro_travel_time,metro_Comfort,Bus_cost,Bus_travel_time,Bus_Comfort
space,2.1943,0.007291667,0.396296296,1,0,0,-0.672916667,-0.333333333,1,0,0,calibration_square,0,0,0,1,1,-0.67,-0.33,07,001,2024-11-18_12h52.09.452,Attention_exp_legacy,2023.1.0,Win32,59.88023952,,,,,,,,,,,,,,,,,,,,,,,,,,,,,,,,,,,,,,,,,,,,,,,,,,,,,,,,
,,,,,,,-0.330208333,0.67037037,1,0,0,calibration_square,0,1,1,8,1,-0.33,0.67,07,001,2024-11-18_12h52.09.452,Attention_exp_legacy,2023.1.0,Win32,59.88023952,,,,,,,,,,,,,,,,,,,,,,,,,,,,,,,,,,,,,,,,,,,,,,,,,,,,,,,,
,,,,,,,0.333333333,0.32962963,1,0,0,calibration_square,0,2,2,17,1,0.33,0.33,07,001,2024-11-18_12h52.09.452,Attention_exp_legacy,2023.1.0,Win32,59.88023952,,,,,,,,,,,,,,,,,,,,,,,,,,,,,,,,,,,,,,,,,,,,,,,,,,,,,,,,
,,,,,,,-0.336458333,0.001851852,1,0,0,calibration_square,0,3,3,6,1,-0.33,0,07,001,2024-11-18_12h52.09.452,Attention_exp_legacy,2023.1.0,Win32,59.88023952,,,,,,,,,,,,,,,,,,,,,,,,,,,,,,,,,,,,,,,,,,,,,,,,,,,,,,,,
,,,,,,,0.328125,0.662962963,1,0,0,calibration_square,0,4,4,18,1,0.33,0.67,07,001,2024-11-18_12h52.09.452,Attention_exp_legacy,2023.1.0,Win32,59.88023952,,,,,,,,,,,,,,,,,,,,,,,,,,,,,,,,,,,,,,,,,,,,,,,,,,,,,,,,
,,,,,,,-0.3375,0.337037037,1,0,0,calibration_square,0,5,5,7,1,-0.33,0.33,07,001,2024-11-18_12h52.09.452,Attention_exp_legacy,2023.1.0,Win32,59.88023952,,,,,,,,,,,,,,,,,,,,,,,,,,,,,,,,,,,,,,,,,,,,,,,,,,,,,,,,
,,,,,,,-0.002083333,-0.007407407,1,0,0,calibration_square,0,6,6,11,1,0,0,07,001,2024-11-18_12h52.09.452,Attention_exp_legacy,2023.1.0,Win32,59.88023952,,,,,,,,,,,,,,,,,,,,,,,,,,,,,,,,,,,,,,,,,,,,,,,,,,,,,,,,
,,,,,,,-0.676041667,0.003703704,1,0,0,calibration_square,0,7,7,2,1,-0.67,0,07,001,2024-11-18_12h52.09.452,Attention_exp_legacy,2023.1.0,Win32,59.88023952,,,,,,,,,,,,,,,,,,,,,,,,,,,,,,,,,,,,,,,,,,,,,,,,,,,,,,,,
,,,,,,,-0.327083333,-0.335185185,1,0,0,calibration_square,0,8,8,5,1,-0.33,-0.33,07,001,2024-11-18_12h52.09.452,Attention_exp_legacy,2023.1.0,Win32,59.88023952,,,,,,,,,,,,,,,,,,,,,,,,,,,,,,,,,,,,,,,,,,,,,,,,,,,,,,,,
,,,,,,,0.332291667,-0.325925926,1,0,0,calibration_square,0,9,9,15,1,0.33,-0.33,07,001,2024-11-18_12h52.09.452,Attention_exp_legacy,2023.1.0,Win32,59.88023952,,,,,,,,,,,,,,,,,,,,,,,,,,,,,,,,,,,,,,,,,,,,,,,,,,,,,,,,
,,,,,,,-0.665625,-0.685185185,1,0,0,,0,10,10,0,1,-0.67,-0.67,07,001,2024-11-18_12h52.09.452,Attention_exp_legacy,2023.1.0,Win32,59.88023952,,,,,,,,,,,,,,,,,,,,,,,,,,,,,,,,,,,,,,,,,,,,,,,,,,,,,,,,
,,,,,,,0.3375,-0.672222222,1,0,0,calibration_square,0,11,11,14,1,0.33,-0.67,07,001,2024-11-18_12h52.09.452,Attention_exp_legacy,2023.1.0,Win32,59.88023952,,,,,,,,,,,,,,,,,,,,,,,,,,,,,,,,,,,,,,,,,,,,,,,,,,,,,,,,
,,,,,,,0.333333333,0.005555556,1,0,0,calibration_square,0,12,12,16,1,0.33,0,07,001,2024-11-18_12h52.09.452,Attention_exp_legacy,2023.1.0,Win32,59.88023952,,,,,,,,,,,,,,,,,,,,,,,,,,,,,,,,,,,,,,,,,,,,,,,,,,,,,,,,
,,,,,,,0.008333333,-0.661111111,1,0,0,calibration_square,0,13,13,9,1,0,-0.67,07,001,2024-11-18_12h52.09.452,Attention_exp_legacy,2023.1.0,Win32,59.88023952,,,,,,,,,,,,,,,,,,,,,,,,,,,,,,,,,,,,,,,,,,,,,,,,,,,,,,,,
,,,,,,,0,-0.32962963,1,0,0,calibration_square,0,14,14,10,1,0,-0.33,07,001,2024-11-18_12h52.09.452,Attention_exp_legacy,2023.1.0,Win32,59.88023952,,,,,,,,,,,,,,,,,,,,,,,,,,,,,,,,,,,,,,,,,,,,,,,,,,,,,,,,
,,,,,,,-0.33125,-0.675925926,1,0,0,calibration_square,0,15,15,4,1,-0.33,-0.67,07,001,2024-11-18_12h52.09.452,Attention_exp_legacy,2023.1.0,Win32,59.88023952,,,,,,,,,,,,,,,,,,,,,,,,,,,,,,,,,,,,,,,,,,,,,,,,,,,,,,,,
,,,,,,,0,0.322222222,1,0,0,calibration_square,0,16,16,12,1,0,0.33,07,001,2024-11-18_12h52.09.452,Attention_exp_legacy,2023.1.0,Win32,59.88023952,,,,,,,,,,,,,,,,,,,,,,,,,,,,,,,,,,,,,,,,,,,,,,,,,,,,,,,,
,,,,,,,0.665625,0.677777778,1,0,0,calibration_square,0,17,17,19,1,0.67,0.67,07,001,2024-11-18_12h52.09.452,Attention_exp_legacy,2023.1.0,Win32,59.88023952,,,,,,,,,,,,,,,,,,,,,,,,,,,,,,,,,,,,,,,,,,,,,,,,,,,,,,,,
,,,,,,,0.671875,-0.661111111,1,0,0,calibration_square,0,18,18,20,1,0.67,-0.67,07,001,2024-11-18_12h52.09.452,Attention_exp_legacy,2023.1.0,Win32,59.88023952,,,,,,,,,,,,,,,,,,,,,,,,,,,,,,,,,,,,,,,,,,,,,,,,,,,,,,,,
,,,,,,,0.002083333,0.672222222,1,0,0,calibration_square,0,19,19,13,1,0,0.67,07,001,2024-11-18_12h52.09.452,Attention_exp_legacy,2023.1.0,Win32,59.88023952,,,,,,,,,,,,,,,,,,,,,,,,,,,,,,,,,,,,,,,,,,,,,,,,,,,,,,,,
,,,,,,,-0.669791667,0.331481481,1,0,0,calibration_square,0,20,20,3,1,-0.67,0.33,07,001,2024-11-18_12h52.09.452,Attention_exp_legacy,2023.1.0,Win32,59.88023952,,,,,,,,,,,,,,,,,,,,,,,,,,,,,,,,,,,,,,,,,,,,,,,,,,,,,,,,
,,,,,,,,,,,,,,,,,,,,07,001,2024-11-18_12h52.09.452,Attention_exp_legacy,2023.1.0,Win32,59.88023952,"[1920,1080]","[640,480]",[-0.027083333333333334],[-0.48333333333333334],[1],[0],[0],[1.3344000000953713],"[""StartButton""]",[-0.23229166666666667],[0.5537037037037037],[1],[0],[0],[2.284099999904633],"[""Bus_label""]",Bus_label,1,3.2986,"[[0.10520833333333333,0.16296296296296298],[0.1,0.1648148148148148],[0.09895833333333333,0.1648148148148148],[0.09791666666666667,0.1648148148148148],[0.096875,0.1648148148148148],[0.09479166666666666,0.16296296296296298],[0.09375,0.16296296296296298],[0.09375,0.16296296296296298],[0.09375,0.16296296296296298],[0.09375,0.16296296296296298],[0.09375,0.16296296296296298],[0.09375,0.16296296296296298],[0.09375,0.16296296296296298],[0.09375,0.16296296296296298],[0.09375,0.16296296296296298],[0.09375,0.16296296296296298],[0.09479166666666666,0.16296296296296298],[0.1,0.1648148148148148],[0.10625,0.17037037037037037],[0.115625,0.17777777777777778],[0.12708333333333333,0.19074074074074074],[0.13958333333333334,0.20185185185185187],[0.15104166666666666,0.21481481481481482],[0.17604166666666668,0.2388888888888889],[0.19479166666666667,0.2611111111111111],[0.21145833333333333,0.2796296296296296],[0.22291666666666668,0.29259259259259257],[0.234375,0.3074074074074074],[0.23958333333333334,0.31296296296296294],[0.240625,0.3148148148148148],[0.24270833333333333,0.31666666666666665],[0.24270833333333333,0.31851851851851853],[0.24375,0.32037037037037036],[0.24583333333333332,0.32407407407407407],[0.24791666666666667,0.3333333333333333],[0.25104166666666666,0.337037037037037],[0.2520833333333333,0.34444444444444444],[0.2552083333333333,0.3648148148148148],[0.25729166666666664,0.37222222222222223],[0.25729166666666664,0.37962962962962965],[0.25729166666666664,0.39444444444444443],[0.25729166666666664,0.4111111111111111],[0.25729166666666664,0.42592592592592593],[0.25729166666666664,0.4388888888888889],[0.2552083333333333,0.44814814814814813],[0.2520833333333333,0.45740740740740743],[0.246875,0.4685185185185185],[0.24270833333333333,0.4759259259259259],[0.24166666666666667,0.47962962962962963],[0.23958333333333334,0.48148148148148145],[0.2375,0.48333333333333334],[0.23541666666666666,0.48333333333333334],[0.23333333333333334,0.48333333333333334],[0.22916666666666666,0.48518518518518516],[0.22916666666666666,0.48518518518518516],[0.22604166666666667,0.48703703703703705],[0.22395833333333334,0.4888888888888889],[0.22291666666666668,0.4888888888888889],[0.22291666666666668,0.4888888888888889],[0.22083333333333333,0.4888888888888889],[0.21979166666666666,0.4888888888888889],[0.21979166666666666,0.4888888888888889],[0.21875,0.4888888888888889],[0.21875,0.4888888888888889],[0.21875,0.49074074074074076],[0.21875,0.49074074074074076],[0.21875,0.49074074074074076],[0.21875,0.49074074074074076],[0.21875,0.49074074074074076],[0.21875,0.49074074074074076],[0.21875,0.49074074074074076],[0.21875,0.4925925925925926],[0.21666666666666667,0.4962962962962963],[0.215625,0.4981481481481482],[0.215625,0.4981481481481482],[0.21354166666666666,0.5],[0.20104166666666667,0.5018518518518519],[0.19479166666666667,0.5037037037037037],[0.17604166666666668,0.5092592592592593],[0.15208333333333332,0.5092592592592593],[0.12083333333333333,0.5092592592592593],[0.04375,0.5222222222222223],[0.014583333333333334,0.5259259259259259],[-0.04791666666666667,0.5370370370370371],[-0.07708333333333334,0.5370370370370371],[-0.1,0.5425925925925926],[-0.11666666666666667,0.5425925925925926],[-0.128125,0.5462962962962963],[-0.134375,0.5462962962962963],[-0.14270833333333333,0.5481481481481482],[-0.15520833333333334,0.55],[-0.16354166666666667,0.55],[-0.171875,0.55],[-0.175,0.55],[-0.18541666666666667,0.55],[-0.19375,0.55],[-0.20416666666666666,0.55],[-0.21041666666666667,0.55],[-0.21354166666666666,0.55],[-0.21770833333333334,0.55],[-0.21979166666666666,0.55],[-0.22083333333333333,0.55],[-0.22291666666666668,0.55],[-0.225,0.55],[-0.22708333333333333,0.55],[-0.228125,0.5518518518518518],[-0.22916666666666666,0.5518518518518518],[-0.23020833333333332,0.5518518518518518],[-0.23125,0.5537037037037037],[-0.23229166666666667,0.5537037037037037],[-0.23229166666666667,0.5537037037037037],[-0.23229166666666667,0.5537037037037037],[-0.23229166666666667,0.5537037037037037],[-0.23229166666666667,0.5537037037037037],[-0.23229166666666667,0.5537037037037037],[-0.23229166666666667,0.5537037037037037],[-0.23229166666666667,0.5537037037037037],[-0.23229166666666667,0.5537037037037037],[-0.23229166666666667,0.5537037037037037],[-0.23229166666666667,0.5537037037037037],[-0.23229166666666667,0.5537037037037037],[-0.23229166666666667,0.5537037037037037],[-0.23229166666666667,0.5537037037037037],[-0.23229166666666667,0.5537037037037037],[-0.23229166666666667,0.5537037037037037],[-0.23229166666666667,0.5537037037037037],[-0.23229166666666667,0.5537037037037037],[-0.23229166666666667,0.5537037037037037],[-0.23229166666666667,0.5537037037037037],[-0.23229166666666667,0.5537037037037037],[-0.23229166666666667,0.5537037037037037],[-0.23229166666666667,0.5537037037037037],[-0.23229166666666667,0.5537037037037037],[-0.23229166666666667,0.5537037037037037],[-0.23229166666666667,0.5537037037037037],[-0.23229166666666667,0.5537037037037037],[-0.23229166666666667,0.5537037037037037],[-0.23229166666666667,0.5537037037037037],[-0.23229166666666667,0.5537037037037037],[-0.23229166666666667,0.5537037037037037],[-0.23229166666666667,0.5537037037037037],[-0.23229166666666667,0.5537037037037037],[-0.23229166666666667,0.5537037037037037],[-0.23229166666666667,0.5537037037037037],[-0.23229166666666667,0.5537037037037037],[-0.23229166666666667,0.5537037037037037],[-0.23229166666666667,0.5537037037037037],[-0.23229166666666667,0.5537037037037037],[-0.23229166666666667,0.5537037037037037],[-0.23229166666666667,0.5537037037037037],[-0.23229166666666667,0.5537037037037037],[-0.23229166666666667,0.5537037037037037],[-0.23229166666666667,0.5537037037037037],[-0.23229166666666667,0.5537037037037037],[-0.23229166666666667,0.5537037037037037],[-0.23229166666666667,0.5537037037037037],[-0.23229166666666667,0.5537037037037037],[-0.23229166666666667,0.5537037037037037],[-0.23229166666666667,0.5537037037037037],[-0.23229166666666667,0.5537037037037037],[-0.23229166666666667,0.5537037037037037],[-0.23229166666666667,0.5537037037037037],[-0.23229166666666667,0.5537037037037037],[-0.23229166666666667,0.5537037037037037],[-0.23229166666666667,0.5537037037037037],[-0.23229166666666667,0.5537037037037037],[-0.23229166666666667,0.5537037037037037],[-0.23229166666666667,0.5537037037037037],[-0.23229166666666667,0.5537037037037037],[-0.23229166666666667,0.5537037037037037],[-0.23229166666666667,0.5537037037037037],[-0.23229166666666667,0.5537037037037037],[-0.23229166666666667,0.5537037037037037],[-0.23229166666666667,0.5537037037037037],[-0.23229166666666667,0.5537037037037037],[-0.23229166666666667,0.5537037037037037],[-0.23229166666666667,0.5537037037037037],[-0.23229166666666667,0.5537037037037037],[-0.23229166666666667,0.5537037037037037],[-0.23229166666666667,0.5537037037037037],[-0.23229166666666667,0.5537037037037037],[-0.23229166666666667,0.5537037037037037],[-0.23229166666666667,0.5537037037037037],[-0.23229166666666667,0.5537037037037037],[-0.23229166666666667,0.5537037037037037],[-0.23229166666666667,0.5537037037037037],[-0.23229166666666667,0.5537037037037037],[-0.23229166666666667,0.5537037037037037],[-0.23229166666666667,0.5537037037037037],[-0.23229166666666667,0.5537037037037037],[-0.23229166666666667,0.5537037037037037],[-0.23229166666666667,0.5537037037037037],[-0.23229166666666667,0.5537037037037037],[-0.23229166666666667,0.5537037037037037],[-0.23229166666666667,0.5537037037037037],[-0.23229166666666667,0.5537037037037037],[-0.23229166666666667,0.5537037037037037]]","[[0.21802083333333327,-0.20833333333333334],[0.21802083333333327,-0.20833333333333334],[0.1955208333333334,-0.23777777777777773],[0.18302083333333338,-0.2770370370370371],[0.18302083333333338,-0.2770370370370371],[0.1586458333333333,-0.33370370370370367],[0.1586458333333333,-0.33370370370370367],[0.15187499999999995,-0.34740740740740744],[0.14333333333333323,-0.3514814814814815],[0.13989583333333327,-0.3616666666666667],[0.13541666666666666,-0.37333333333333335],[0.12760416666666666,-0.39759259259259255],[0.10833333333333334,-0.43037037037037035],[0.10614583333333343,-0.41500000000000004],[0.10614583333333343,-0.41500000000000004],[0.13354166666666673,-0.4166666666666667],[0.13354166666666673,-0.4166666666666667],[0.15354166666666677,-0.34333333333333327],[0.17833333333333337,-0.30092592592592593],[0.16802083333333329,-0.2814814814814815],[0.15822916666666675,-0.26962962962962966],[0.15822916666666675,-0.26962962962962966],[0.14718749999999994,-0.26796296296296296],[0.15885416666666666,-0.27],[0.16260416666666658,-0.26537037037037037],[0.17781250000000004,-0.2522222222222222],[0.1865624999999999,-0.22111111111111106],[0.19093749999999995,-0.19537037037037036],[0.1851041666666667,-0.2227777777777778],[0.18020833333333333,-0.20055555555555557],[0.18520833333333328,-0.1935185185185185],[0.19645833333333323,-0.20666666666666672],[0.20895833333333325,-0.2096296296296296],[0.18895833333333342,-0.21629629629629632],[0.19489583333333324,-0.15407407407407406],[0.19489583333333324,-0.15407407407407406],[0.20083333333333328,-0.09185185185185189],[0.2009375000000001,-0.1037037037037037],[0.2009375000000001,-0.1037037037037037],[0.21197916666666666,-0.10611111111111113],[0.21197916666666666,-0.10611111111111113],[0.20593750000000005,-0.07092592592592595],[0.20593750000000005,-0.07092592592592595],[0.21104166666666657,-0.1257407407407407],[0.21104166666666657,-0.1257407407407407],[0.2185416666666666,-0.1294444444444444],[0.22145833333333323,-0.11481481481481481],[0.22145833333333323,-0.11481481481481481],[0.22791666666666663,-0.11240740740740739],[0.22791666666666663,-0.11240740740740739],[0.19989583333333344,-0.0735185185185185],[0.19989583333333344,-0.0735185185185185],[0.18395833333333325,-0.13722222222222227],[0.15614583333333343,-0.17037037037037037],[0.15614583333333343,-0.17037037037037037],[0.14697916666666658,-0.192037037037037],[0.14697916666666658,-0.192037037037037],[0.13802083333333334,-0.2081481481481481],[0.13802083333333334,-0.2081481481481481],[0.14270833333333333,-0.24000000000000005],[0.14552083333333338,-0.20703703703703705],[0.12781250000000005,-0.21574074074074073],[0.10104166666666667,-0.22685185185185186],[0.07072916666666676,-0.2257407407407407],[0.09468750000000009,-0.27037037037037037],[0.10416666666666667,-0.26370370370370366],[0.11416666666666657,-0.27259259259259255],[0.11989583333333324,-0.24648148148148152],[0.10916666666666662,-0.23870370370370367],[0.10187499999999995,-0.25277777777777777],[0.10187499999999995,-0.25277777777777777],[0.10031249999999996,-0.29388888888888887],[0.09822916666666662,-0.2607407407407408],[0.10479166666666657,-0.22537037037037036],[0.12531249999999997,-0.2051851851851852],[0.1368750000000001,-0.1668518518518519],[0.13947916666666677,-0.18277777777777776],[0.13947916666666677,-0.18277777777777776],[0.16937499999999991,-0.20481481481481487],[0.17385416666666675,-0.23166666666666672],[0.18895833333333342,-0.2190740740740741],[0.2040625000000001,-0.2064814814814815],[0.20479166666666657,-0.19388888888888886],[0.19833333333333342,-0.2633333333333333],[0.19833333333333342,-0.2633333333333333],[0.23322916666666677,-0.317037037037037],[0.25906250000000003,-0.425],[0.22552083333333334,-0.48111111111111116],[0.22822916666666657,-0.462037037037037],[0.2150000000000001,-0.45185185185185184],[0.1921875,-0.4868518518518518],[0.15260416666666668,-0.5403703703703704],[0.109375,-0.5881481481481482],[0.109375,-0.5881481481481482],[0.07479166666666662,-0.6042592592592593],[0.05499999999999995,-0.600925925925926],[0.007083333333333286,-0.637962962962963],[0.007083333333333286,-0.637962962962963],[-0.06104166666666669,-0.5868518518518518],[-0.06666666666666667,-0.5822222222222222],[-0.10802083333333339,-0.6011111111111112],[-0.10802083333333339,-0.6011111111111112],[-0.17062499999999994,-0.6666666666666666],[-0.17708333333333334,-0.6216666666666667],[-0.1889583333333333,-0.6048148148148148],[-0.19718749999999996,-0.5937037037037037],[-0.1984375,-0.6190740740740741],[-0.1985416666666667,-0.6503703703703704],[-0.20416666666666666,-0.6383333333333333],[-0.1944791666666667,-0.645],[-0.1944791666666667,-0.6201851851851852],[-0.18947916666666664,-0.6018518518518519],[-0.15656249999999997,-0.49740740740740746],[-0.14479166666666668,-0.4535185185185185],[-0.1373958333333333,-0.44166666666666665],[-0.12999999999999995,-0.42981481481481487],[-0.11614583333333334,-0.37666666666666665],[-0.10229166666666671,-0.3235185185185185],[-0.10437500000000005,-0.2785185185185185],[-0.10645833333333338,-0.23351851851851857],[-0.10229166666666671,-0.2338888888888889],[-0.10187499999999995,-0.22481481481481477],[-0.12083333333333333,-0.19592592592592595],[-0.1397916666666667,-0.167037037037037],[-0.14895833333333333,-0.07796296296296301],[-0.1658333333333334,0.022037037037036994],[-0.1935416666666666,0.09722222222222222],[-0.22083333333333333,0.1455555555555556],[-0.23989583333333328,0.18333333333333332],[-0.2534374999999999,0.202962962962963],[-0.32000000000000006,0.255925925925926],[-0.32000000000000006,0.255925925925926],[-0.38781249999999995,0.305925925925926],[-0.4310416666666666,0.2740740740740741],[-0.4675,0.22018518518518515],[-0.5039583333333334,0.16629629629629622],[-0.534375,0.10944444444444448],[-0.5647916666666667,0.05259259259259255],[-0.5886458333333333,0.05],[-0.61375,0.005000000000000084],[-0.6029166666666667,-0.04592592592592584],[-0.5387500000000001,-0.12166666666666665],[-0.4683333333333334,-0.24407407407407408],[-0.4683333333333334,-0.24407407407407408],[-0.42374999999999996,-0.30462962962962964],[-0.38250000000000006,-0.3574074074074074],[-0.33708333333333335,-0.4414814814814814],[-0.296875,-0.4842592592592593],[-0.2508333333333333,-0.5761111111111111],[-0.22322916666666662,-0.6801851851851852],[-0.22322916666666662,-0.6801851851851852],[-0.18843749999999998,-0.7207407407407407],[-0.18843749999999998,-0.7207407407407407],[-0.18552083333333336,-0.7037037037037037],[-0.1796875,-0.7105555555555555],[-0.18010416666666665,-0.6707407407407407],[-0.18520833333333328,-0.6772222222222222],[-0.19281250000000003,-0.6711111111111111],[-0.20979166666666665,-0.607962962962963],[-0.21989583333333335,-0.5940740740740741],[-0.24562499999999995,-0.5714814814814815],[-0.24375,-0.547037037037037],[-0.24375,-0.547037037037037],[-0.23937499999999995,-0.5798148148148149],[-0.23656250000000004,-0.6016666666666666],[-0.23666666666666672,-0.5996296296296296],[-0.2404166666666666,-0.5851851851851851],[-0.2404166666666666,-0.5851851851851851],[-0.22822916666666668,-0.5796296296296296],[-0.19947916666666668,-0.5544444444444444],[-0.18802083333333333,-0.5138888888888888],[-0.1765625,-0.4733333333333334],[-0.1765625,-0.4733333333333334],[-0.15614583333333332,-0.40981481481481485],[-0.15614583333333332,-0.40981481481481485],[-0.16052083333333336,-0.37648148148148153],[-0.16052083333333336,-0.37648148148148153],[-0.1883333333333333,-0.2942592592592592],[-0.1883333333333333,-0.2942592592592592],[-0.21052083333333335,-0.2644444444444445],[-0.21052083333333335,-0.2644444444444445],[-0.22239583333333332,-0.2324074074074074],[-0.21916666666666665,-0.21574074074074073],[-0.21322916666666672,-0.18314814814814812],[-0.2419791666666666,-0.16425925925925924],[-0.2482291666666666,-0.18648148148148147],[-0.24385416666666668,-0.18462962962962962],[-0.23427083333333332,-0.18333333333333332],[-0.23833333333333329,-0.1403703703703704],[-0.2273958333333333,-0.11018518518518519],[-0.23406250000000003,-0.09722222222222222],[-0.25104166666666666,-0.08648148148148146],[-0.26875,-0.04000000000000004],[-0.26875,-0.04000000000000004],[-0.30114583333333333,-0.02555555555555547],[-0.29635416666666664,0.003888888888888931],[-0.27937500000000004,-0.024074074074074074]]","[[0.21802083333333327,-0.20833333333333334,0.0003000001907409455],[0.21802083333333327,-0.20833333333333334,0.05580000019073594],[0.1955208333333334,-0.23777777777777773,0.0608000001907385],[0.18302083333333338,-0.2770370370370371,0.07770000028610724],[0.18302083333333338,-0.2770370370370371,0.09460000038147598],[0.1586458333333333,-0.33370370370370367,0.11730000019073827],[0.1586458333333333,-0.33370370370370367,0.12750000000000483],[0.15187499999999995,-0.34740740740740744,0.14410000038147075],[0.14333333333333323,-0.3514814814814815,0.16080000019073992],[0.13989583333333327,-0.3616666666666667,0.177500000000002],[0.13541666666666666,-0.37333333333333335,0.19560000038147507],[0.12760416666666666,-0.39759259259259255,0.21080000019073708],[0.10833333333333334,-0.43037037037037035,0.23020000028610355],[0.10614583333333343,-0.41500000000000004,0.24870000028610662],[0.10614583333333343,-0.41500000000000004,0.2614000000953709],[0.13354166666666673,-0.4166666666666667,0.27740000009536914],[0.13354166666666673,-0.4166666666666667,0.2982000002861085],[0.15354166666666677,-0.34333333333333327,0.31099999999999994],[0.17833333333333337,-0.30092592592592593,0.32930000019074157],[0.16802083333333329,-0.2814814814814815,0.34420000028610787],[0.15822916666666675,-0.26962962962962966,0.36300000000000665],[0.15822916666666675,-0.26962962962962966,0.3776000003814701],[0.14718749999999994,-0.26796296296296296,0.3943000001907393],[0.15885416666666666,-0.27,0.4158000001907354],[0.16260416666666658,-0.26537037037037037,0.4298000001907383],[0.17781250000000004,-0.2522222222222222,0.44430000019073645],[0.1865624999999999,-0.22111111111111106,0.4628000001907395],[0.19093749999999995,-0.19537037037037036,0.4777000002861058],[0.1851041666666667,-0.2227777777777778,0.49420000028610644],[0.18020833333333333,-0.20055555555555557,0.5159000000953711],[0.18520833333333328,-0.1935185185185185,0.5298000001907397],[0.19645833333333323,-0.20666666666666672,0.5443000001907379],[0.20895833333333325,-0.2096296296296296,0.564300000190741],[0.18895833333333342,-0.21629629629629632,0.5808000001907416],[0.19489583333333324,-0.15407407407407406,0.5970000000000013],[0.19489583333333324,-0.15407407407407406,0.6109000000953699],[0.20083333333333328,-0.09185185185185189,0.6312000002861069],[0.2009375000000001,-0.1037037037037037,0.6598000001907351],[0.2009375000000001,-0.1037037037037037,0.669700000286106],[0.21197916666666666,-0.10611111111111113,0.6833000001907408],[0.21197916666666666,-0.10611111111111113,0.6942000002861022],[0.20593750000000005,-0.07092592592592595,0.7110000000000056],[0.20593750000000005,-0.07092592592592595,0.7276000003814715],[0.21104166666666657,-0.1257407407407407,0.7493000001907362],[0.21104166666666657,-0.1257407407407407,0.7609000000953685],[0.2185416666666666,-0.1294444444444444,0.7776000003814758],[0.22145833333333323,-0.11481481481481481,0.7997000002861085],[0.22145833333333323,-0.11481481481481481,0.8109999999999999],[0.22791666666666663,-0.11240740740740739,0.8277000002861072],[0.22791666666666663,-0.11240740740740739,0.8442000002861079],[0.19989583333333344,-0.0735185185185185,0.8645000000000067],[0.19989583333333344,-0.0735185185185185,0.8777000002861044],[0.18395833333333325,-0.13722222222222227,0.894200000286105],[0.15614583333333343,-0.17037037037037037,0.9206000003814765],[0.15614583333333343,-0.17037037037037037,0.9283000001907382],[0.14697916666666658,-0.192037037037037,0.9443000001907365],[0.14697916666666658,-0.192037037037037,0.9608000001907371],[0.13802083333333334,-0.2081481481481481,0.9840000000000018],[0.13802083333333334,-0.2081481481481481,0.9940000000000069],[0.14270833333333333,-0.24000000000000005,1.0110000000000028],[0.14552083333333338,-0.20703703703703705,1.0311000003814712],[0.12781250000000005,-0.21574074074074073,1.0466000003814742],[0.10104166666666667,-0.22685185185185186,1.0613000001907409],[0.07072916666666676,-0.2257407407407407,1.0774000000953734],[0.09468750000000009,-0.27037037037037037,1.0966000003814713],[0.10416666666666667,-0.26370370370370366,1.1107000002861085],[0.11416666666666657,-0.27259259259259255,1.1290000000000049],[0.11989583333333324,-0.24648148148148152,1.1445000000000007],[0.10916666666666662,-0.23870370370370367,1.1607000002861056],[0.10187499999999995,-0.25277777777777777,1.1869000000953704],[0.10187499999999995,-0.25277777777777777,1.1942000002861022],[0.10031249999999996,-0.29388888888888887,1.2150000000000034],[0.09822916666666662,-0.2607407407407408,1.2306000003814717],[0.10479166666666657,-0.22537037037037036,1.2480000000000047],[0.12531249999999997,-0.2051851851851852,1.2642000002861025],[0.1368750000000001,-0.1668518518518519,1.2815000000000012],[0.13947916666666677,-0.18277777777777776,1.2992000002861062],[0.13947916666666677,-0.18277777777777776,1.311],[0.16937499999999991,-0.20481481481481487,1.327600000381473],[0.17385416666666675,-0.23166666666666672,1.347200000286108],[0.18895833333333342,-0.2190740740740741,1.3611000003814766],[0.2040625000000001,-0.2064814814814815,1.3800000000000026],[0.20479166666666657,-0.19388888888888886,1.3974000000953737],[0.19833333333333342,-0.2633333333333333,1.4159000000953696],[0.19833333333333342,-0.2633333333333333,1.4276000003814744],[0.23322916666666677,-0.317037037037037,1.4444000000953707],[0.25906250000000003,-0.425,1.4636000003814758],[0.22552083333333334,-0.48111111111111116,1.4782000002861082],[0.22822916666666657,-0.462037037037037,1.4942000002861064],[0.2150000000000001,-0.45185185185185184,1.5161000003814706],[0.1921875,-0.4868518518518518,1.5316000003814736],[0.15260416666666668,-0.5403703703703704,1.5474000000953723],[0.109375,-0.5881481481481482,1.5660000000000025],[0.109375,-0.5881481481481482,1.577600000381473],[0.07479166666666662,-0.6042592592592593,1.5942000002861079],[0.05499999999999995,-0.600925925925926,1.6137000002861086],[0.007083333333333286,-0.637962962962963,1.632700000286107],[0.007083333333333286,-0.637962962962963,1.6441000003814707],[-0.06104166666666669,-0.5868518518518518,1.66080000019074],[-0.06666666666666667,-0.5822222222222222,1.6794000000953702],[-0.10802083333333339,-0.6011111111111112,1.6969000000953685],[-0.10802083333333339,-0.6011111111111112,1.711100000381471],[-0.17062499999999994,-0.6666666666666666,1.7276000003814715],[-0.17708333333333334,-0.6216666666666667,1.747400000095368],[-0.1889583333333333,-0.6048148148148148,1.7637000002861072],[-0.19718749999999996,-0.5937037037037037,1.7782000002861054],[-0.1984375,-0.6190740740740741,1.7941000003814764],[-0.1985416666666667,-0.6503703703703704,1.815400000095373],[-0.20416666666666666,-0.6383333333333333,1.8305000000000007],[-0.1944791666666667,-0.645,1.846100000381476],[-0.1944791666666667,-0.6201851851851852,1.8619000000953676],[-0.18947916666666664,-0.6018518518518519,1.8774000000953706],[-0.15656249999999997,-0.49740740740740746,1.8946000003814731],[-0.14479166666666668,-0.4535185185185185,1.9107000002861056],[-0.1373958333333333,-0.44166666666666665,1.9287000002861063],[-0.12999999999999995,-0.42981481481481487,1.9444000000953707],[-0.11614583333333334,-0.37666666666666665,1.9607000002861028],[-0.10229166666666671,-0.3235185185185185,1.9776000003814715],[-0.10437500000000005,-0.2785185185185185,1.9940000000000069],[-0.10645833333333338,-0.23351851851851857,2.015900000095371],[-0.10229166666666671,-0.2338888888888889,2.0308000001907374],[-0.10187499999999995,-0.22481481481481477,2.04690000009537],[-0.12083333333333333,-0.19592592592592595,2.0607000002861042],[-0.1397916666666667,-0.167037037037037,2.0774000000953734],[-0.14895833333333333,-0.07796296296296301,2.0941000003814736],[-0.1658333333333334,0.022037037037036994,2.1107000002861085],[-0.1935416666666666,0.09722222222222222,2.1296000003814726],[-0.22083333333333333,0.1455555555555556,2.1440000000000055],[-0.23989583333333328,0.18333333333333332,2.1606000003814714],[-0.2534374999999999,0.202962962962963,2.1774000000953677],[-0.32000000000000006,0.255925925925926,2.2001000003814752],[-0.32000000000000006,0.255925925925926,2.210700000286103],[-0.38781249999999995,0.305925925925926,2.227400000095372],[-0.4310416666666666,0.2740740740740741,2.2457000002861065],[-0.4675,0.22018518518518515,2.2623000001907414],[-0.5039583333333334,0.16629629629629622,2.2790000000000035],[-0.534375,0.10944444444444448,2.2952000002861084],[-0.5647916666666667,0.05259259259259255,2.31210000038147],[-0.5886458333333333,0.05,2.3279000000953687],[-0.61375,0.005000000000000084,2.3441000003814736],[-0.6029166666666667,-0.04592592592592584,2.360600000381474],[-0.5387500000000001,-0.12166666666666665,2.3806000003814702],[-0.4683333333333334,-0.24407407407407408,2.3996000003814757],[-0.4683333333333334,-0.24407407407407408,2.4107000002861056],[-0.42374999999999996,-0.30462962962962964,2.4274000000953677],[-0.38250000000000006,-0.3574074074074074,2.444200000286102],[-0.33708333333333335,-0.4414814814814814,2.4606000003814756],[-0.296875,-0.4842592592592593,2.477700000286106],[-0.2508333333333333,-0.5761111111111111,2.494000000000007],[-0.22322916666666662,-0.6801851851851852,2.5141000003814753],[-0.22322916666666662,-0.6801851851851852,2.5275000000000034],[-0.18843749999999998,-0.7207407407407407,2.5442000002861036],[-0.18843749999999998,-0.7207407407407407,2.5608000001907385],[-0.18552083333333336,-0.7037037037037037,2.5774000000953734],[-0.1796875,-0.7105555555555555,2.5941000003814736],[-0.18010416666666665,-0.6707407407407407,2.6111000003814766],[-0.18520833333333328,-0.6772222222222222,2.6274000000953706],[-0.19281250000000003,-0.6711111111111111,2.6444000000953736],[-0.20979166666666665,-0.607962962962963,2.6615000000000038],[-0.21989583333333335,-0.5940740740740741,2.6774000000953677],[-0.24562499999999995,-0.5714814814814815,2.694100000381475],[-0.24375,-0.547037037037037,2.714800000190735],[-0.24375,-0.547037037037037,2.727400000095372],[-0.23937499999999995,-0.5798148148148149,2.7442000002861064],[-0.23656250000000004,-0.6016666666666666,2.760700000286107],[-0.23666666666666672,-0.5996296296296296,2.777400000095369],[-0.2404166666666666,-0.5851851851851851,2.7941000003814764],[-0.2404166666666666,-0.5851851851851851,2.8107000002861042],[-0.22822916666666668,-0.5796296296296296,2.8274000000953734],[-0.19947916666666668,-0.5544444444444444,2.8481000003814714],[-0.18802083333333333,-0.5138888888888888,2.865800000190738],[-0.1765625,-0.4733333333333334,2.882000000000005],[-0.1765625,-0.4733333333333334,2.8940000000000055],[-0.15614583333333332,-0.40981481481481485,2.91080000019074],[-0.15614583333333332,-0.40981481481481485,2.9274000000953677],[-0.16052083333333336,-0.37648148148148153,2.944100000381475],[-0.16052083333333336,-0.37648148148148153,2.960700000286103],[-0.1883333333333333,-0.2942592592592592,2.977400000095372],[-0.1883333333333333,-0.2942592592592592,2.994000000000007],[-0.21052083333333335,-0.2644444444444445,3.010700000286107],[-0.21052083333333335,-0.2644444444444445,3.027400000095369],[-0.22239583333333332,-0.2324074074074074,3.0441000003814764],[-0.21916666666666665,-0.21574074074074073,3.0607000002861042],[-0.21322916666666672,-0.18314814814814812,3.079900000095371],[-0.2419791666666666,-0.16425925925925924,3.094200000286108],[-0.2482291666666666,-0.18648148148148147,3.1112000002861038],[-0.24385416666666668,-0.18462962962962962,3.1299000000953683],[-0.23427083333333332,-0.18333333333333332,3.1440000000000055],[-0.23833333333333329,-0.1403703703703704,3.1607000002861056],[-0.2273958333333333,-0.11018518518518519,3.17790000009537],[-0.23406250000000003,-0.09722222222222222,3.1940000000000026],[-0.25104166666666666,-0.08648148148148146,3.210800000190737],[-0.26875,-0.04000000000000004,3.2290000000000063],[-0.26875,-0.04000000000000004,3.244000000000007],[-0.30114583333333333,-0.02555555555555547,3.261000000000003],[-0.29635416666666664,0.003888888888888931,3.281000000000006],[-0.27937500000000004,-0.024074074074074074,3.2986000003814766]]","[0.0003000001907409455,0.05580000019073594,0.0608000001907385,0.07770000028610724,0.09460000038147598,0.11730000019073827,0.12750000000000483,0.14410000038147075,0.16080000019073992,0.177500000000002,0.19560000038147507,0.21080000019073708,0.23020000028610355,0.24870000028610662,0.2614000000953709,0.27740000009536914,0.2982000002861085,0.31099999999999994,0.32930000019074157,0.34420000028610787,0.36300000000000665,0.3776000003814701,0.3943000001907393,0.4158000001907354,0.4298000001907383,0.44430000019073645,0.4628000001907395,0.4777000002861058,0.49420000028610644,0.5159000000953711,0.5298000001907397,0.5443000001907379,0.564300000190741,0.5808000001907416,0.5970000000000013,0.6109000000953699,0.6312000002861069,0.6598000001907351,0.669700000286106,0.6833000001907408,0.6942000002861022,0.7110000000000056,0.7276000003814715,0.7493000001907362,0.7609000000953685,0.7776000003814758,0.7997000002861085,0.8109999999999999,0.8277000002861072,0.8442000002861079,0.8645000000000067,0.8777000002861044,0.894200000286105,0.9206000003814765,0.9283000001907382,0.9443000001907365,0.9608000001907371,0.9840000000000018,0.9940000000000069,1.0110000000000028,1.0311000003814712,1.0466000003814742,1.0613000001907409,1.0774000000953734,1.0966000003814713,1.1107000002861085,1.1290000000000049,1.1445000000000007,1.1607000002861056,1.1869000000953704,1.1942000002861022,1.2150000000000034,1.2306000003814717,1.2480000000000047,1.2642000002861025,1.2815000000000012,1.2992000002861062,1.311,1.327600000381473,1.347200000286108,1.3611000003814766,1.3800000000000026,1.3974000000953737,1.4159000000953696,1.4276000003814744,1.4444000000953707,1.4636000003814758,1.4782000002861082,1.4942000002861064,1.5161000003814706,1.5316000003814736,1.5474000000953723,1.5660000000000025,1.577600000381473,1.5942000002861079,1.6137000002861086,1.632700000286107,1.6441000003814707,1.66080000019074,1.6794000000953702,1.6969000000953685,1.711100000381471,1.7276000003814715,1.747400000095368,1.7637000002861072,1.7782000002861054,1.7941000003814764,1.815400000095373,1.8305000000000007,1.846100000381476,1.8619000000953676,1.8774000000953706,1.8946000003814731,1.9107000002861056,1.9287000002861063,1.9444000000953707,1.9607000002861028,1.9776000003814715,1.9940000000000069,2.015900000095371,2.0308000001907374,2.04690000009537,2.0607000002861042,2.0774000000953734,2.0941000003814736,2.1107000002861085,2.1296000003814726,2.1440000000000055,2.1606000003814714,2.1774000000953677,2.2001000003814752,2.210700000286103,2.227400000095372,2.2457000002861065,2.2623000001907414,2.2790000000000035,2.2952000002861084,2.31210000038147,2.3279000000953687,2.3441000003814736,2.360600000381474,2.3806000003814702,2.3996000003814757,2.4107000002861056,2.4274000000953677,2.444200000286102,2.4606000003814756,2.477700000286106,2.494000000000007,2.5141000003814753,2.5275000000000034,2.5442000002861036,2.5608000001907385,2.5774000000953734,2.5941000003814736,2.6111000003814766,2.6274000000953706,2.6444000000953736,2.6615000000000038,2.6774000000953677,2.694100000381475,2.714800000190735,2.727400000095372,2.7442000002861064,2.760700000286107,2.777400000095369,2.7941000003814764,2.8107000002861042,2.8274000000953734,2.8481000003814714,2.865800000190738,2.882000000000005,2.8940000000000055,2.91080000019074,2.9274000000953677,2.944100000381475,2.960700000286103,2.977400000095372,2.994000000000007,3.010700000286107,3.027400000095369,3.0441000003814764,3.0607000002861042,3.079900000095371,3.094200000286108,3.1112000002861038,3.1299000000953683,3.1440000000000055,3.1607000002861056,3.17790000009537,3.1940000000000026,3.210800000190737,3.2290000000000063,3.244000000000007,3.261000000000003,3.281000000000006,3.2986000003814766]","[1731905576952,1731905576997,1731905577001,1731905577018,1731905577035,1731905577058,1731905577068,1731905577085,1731905577101,1731905577118,1731905577136,1731905577152,1731905577171,1731905577189,1731905577202,1731905577218,1731905577239,1731905577252,1731905577270,1731905577285,1731905577304,1731905577318,1731905577335,1731905577356,1731905577371,1731905577385,1731905577404,1731905577418,1731905577435,1731905577457,1731905577470,1731905577485,1731905577505,1731905577521,1731905577538,1731905577552,1731905577572,1731905577601,1731905577610,1731905577624,1731905577635,1731905577652,1731905577669,1731905577690,1731905577702,1731905577718,1731905577740,1731905577752,1731905577768,1731905577785,1731905577805,1731905577818,1731905577835,1731905577861,1731905577869,1731905577885,1731905577902,1731905577925,1731905577935,1731905577952,1731905577972,1731905577987,1731905578002,1731905578018,1731905578037,1731905578051,1731905578070,1731905578085,1731905578101,1731905578128,1731905578135,1731905578156,1731905578171,1731905578189,1731905578205,1731905578222,1731905578240,1731905578252,1731905578268,1731905578288,1731905578302,1731905578321,1731905578338,1731905578357,1731905578368,1731905578385,1731905578404,1731905578419,1731905578435,1731905578457,1731905578472,1731905578488,1731905578507,1731905578518,1731905578535,1731905578554,1731905578573,1731905578585,1731905578602,1731905578620,1731905578638,1731905578652,1731905578668,1731905578688,1731905578704,1731905578719,1731905578735,1731905578756,1731905578771,1731905578787,1731905578803,1731905578818,1731905578835,1731905578851,1731905578869,1731905578885,1731905578901,1731905578918,1731905578935,1731905578957,1731905578972,1731905578988,1731905579001,1731905579018,1731905579035,1731905579051,1731905579070,1731905579085,1731905579101,1731905579118,1731905579141,1731905579151,1731905579168,1731905579186,1731905579203,1731905579220,1731905579236,1731905579253,1731905579269,1731905579285,1731905579301,1731905579321,1731905579340,1731905579352,1731905579368,1731905579385,1731905579401,1731905579418,1731905579435,1731905579455,1731905579468,1731905579485,1731905579501,1731905579518,1731905579535,1731905579552,1731905579568,1731905579585,1731905579602,1731905579618,1731905579635,1731905579655,1731905579668,1731905579685,1731905579701,1731905579718,1731905579735,1731905579751,1731905579768,1731905579789,1731905579806,1731905579823,1731905579835,1731905579851,1731905579868,1731905579885,1731905579901,1731905579918,1731905579935,1731905579951,1731905579968,1731905579985,1731905580001,1731905580021,1731905580035,1731905580052,1731905580071,1731905580085,1731905580101,1731905580119,1731905580135,1731905580152,1731905580170,1731905580185,1731905580202,1731905580222,1731905580239]","[[1169.3,427.5],[1169.3,427.5],[1147.7,411.6],[1135.7,390.4],[1135.7,390.4],[1112.3,359.8],[1112.3,359.8],[1105.8,352.4],[1097.6,350.2],[1094.3,344.7],[1090,338.4],[1082.5,325.3],[1064,307.6],[1061.9,315.9],[1061.9,315.9],[1088.2,315],[1088.2,315],[1107.4,354.6],[1131.2,377.5],[1121.3,388],[1111.9,394.4],[1111.9,394.4],[1101.3,395.3],[1112.5,394.2],[1116.1,396.7],[1130.7,403.8],[1139.1,420.6],[1143.3,434.5],[1137.7,419.7],[1133,431.7],[1137.8,435.5],[1148.6,428.4],[1160.6,426.8],[1141.4,423.2],[1147.1,456.8],[1147.1,456.8],[1152.8,490.4],[1152.9,484],[1152.9,484],[1163.5,482.7],[1163.5,482.7],[1157.7,501.7],[1157.7,501.7],[1162.6,472.1],[1162.6,472.1],[1169.8,470.1],[1172.6,478],[1172.6,478],[1178.8,479.3],[1178.8,479.3],[1151.9,500.3],[1151.9,500.3],[1136.6,465.9],[1109.9,448],[1109.9,448],[1101.1,436.3],[1101.1,436.3],[1092.5,427.6],[1092.5,427.6],[1097,410.4],[1099.7,428.2],[1082.7,423.5],[1057,417.5],[1027.9,418.1],[1050.9,394],[1060,397.6],[1069.6,392.8],[1075.1,406.9],[1064.8,411.1],[1057.8,403.5],[1057.8,403.5],[1056.3,381.3],[1054.3,399.2],[1060.6,418.3],[1080.3,429.2],[1091.4,449.9],[1093.9,441.3],[1093.9,441.3],[1122.6,429.4],[1126.9,414.9],[1141.4,421.7],[1155.9,428.5],[1156.6,435.3],[1150.4,397.8],[1150.4,397.8],[1183.9,368.8],[1208.7,310.5],[1176.5,280.2],[1179.1,290.5],[1166.4,296],[1144.5,277.1],[1106.5,248.2],[1065,222.4],[1065,222.4],[1031.8,213.7],[1012.8,215.5],[966.8,195.5],[966.8,195.5],[901.4,223.1],[896,225.6],[856.3,215.4],[856.3,215.4],[796.2,180],[790,204.3],[778.6,213.4],[770.7,219.4],[769.5,205.7],[769.4,188.8],[764,195.3],[773.3,191.7],[773.3,205.1],[778.1,215],[809.7,271.4],[821,295.1],[828.1,301.5],[835.2,307.9],[848.5,336.6],[861.8,365.3],[859.8,389.6],[857.8,413.9],[861.8,413.7],[862.2,418.6],[844,434.2],[825.8,449.8],[817,497.9],[800.8,551.9],[774.2,592.5],[748,618.6],[729.7,639],[716.7,649.6],[652.8,678.2],[652.8,678.2],[587.7,705.2],[546.2,688],[511.2,658.9],[476.2,629.8],[447,599.1],[417.8,568.4],[394.9,567],[370.8,542.7],[381.2,515.2],[442.8,474.3],[510.4,408.2],[510.4,408.2],[553.2,375.5],[592.8,347],[636.4,301.6],[675,278.5],[719.2,228.9],[745.7,172.7],[745.7,172.7],[779.1,150.8],[779.1,150.8],[781.9,160],[787.5,156.3],[787.1,177.8],[782.2,174.3],[774.9,177.6],[758.6,211.7],[748.9,219.2],[724.2,231.4],[726,244.6],[726,244.6],[730.2,226.9],[732.9,215.1],[732.8,216.2],[729.2,224],[729.2,224],[740.9,227],[768.5,240.6],[779.5,262.5],[790.5,284.4],[790.5,284.4],[810.1,318.7],[810.1,318.7],[805.9,336.7],[805.9,336.7],[779.2,381.1],[779.2,381.1],[757.9,397.2],[757.9,397.2],[746.5,414.5],[749.6,423.5],[755.3,441.1],[727.7,451.3],[721.7,439.3],[725.9,440.3],[735.1,441],[731.2,464.2],[741.7,480.5],[735.3,487.5],[719,493.3],[702,518.4],[702,518.4],[670.9,526.2],[675.5,542.1],[691.8,527]]","[-0.2,0.6000000000000001]","[0.2,0.6000000000000001]","[0.6000000000000001,0.6000000000000001]","[-0.6000000000000001,0.2]","[-0.6000000000000001,-0.2]","[-0.6000000000000001,-0.6000000000000001]","[-0.2,0.2]","[0.2,0.2]","[0.6000000000000001,0.2]","[-0.2,-0.2]","[0.2,-0.2]","[0.6000000000000001,-0.2]","[-0.2,-0.6000000000000001]","[0.2,-0.6000000000000001]","[0.6000000000000001,-0.6000000000000001]",0,0,0,0,1,2,Monitor,15,20,8,3,70,4,3,60,4
,,,,,,,,,,,,,,,,,,,,07,001,2024-11-18_12h52.09.452,Attention_exp_legacy,2023.1.0,Win32,59.88023952,,,,,,,,,,[-0.12395833333333334],[0.6259259259259259],[1],[0],[0],[2.9180999999046264],"[""Bus_label""]",Bus_label,2,3.9349,"[[-0.23229166666666667,0.5537037037037037],[-0.23229166666666667,0.5537037037037037],[-0.23229166666666667,0.5537037037037037],[-0.23229166666666667,0.5537037037037037],[-0.23229166666666667,0.5537037037037037],[-0.23229166666666667,0.5537037037037037],[-0.23229166666666667,0.5537037037037037],[-0.23229166666666667,0.5537037037037037],[-0.23229166666666667,0.5537037037037037],[-0.23229166666666667,0.5537037037037037],[-0.23229166666666667,0.5537037037037037],[-0.23229166666666667,0.5537037037037037],[-0.23229166666666667,0.5537037037037037],[-0.23229166666666667,0.5537037037037037],[-0.23229166666666667,0.5537037037037037],[-0.23229166666666667,0.5537037037037037],[-0.23229166666666667,0.5537037037037037],[-0.23229166666666667,0.5537037037037037],[-0.23229166666666667,0.5537037037037037],[-0.23229166666666667,0.5537037037037037],[-0.23229166666666667,0.5537037037037037],[-0.23229166666666667,0.5537037037037037],[-0.23229166666666667,0.5537037037037037],[-0.23229166666666667,0.5537037037037037],[-0.23229166666666667,0.5537037037037037],[-0.23229166666666667,0.5537037037037037],[-0.23229166666666667,0.5537037037037037],[-0.23229166666666667,0.5537037037037037],[-0.23229166666666667,0.5537037037037037],[-0.23229166666666667,0.5537037037037037],[-0.23229166666666667,0.5537037037037037],[-0.23229166666666667,0.5537037037037037],[-0.23229166666666667,0.5537037037037037],[-0.23229166666666667,0.5537037037037037],[-0.23229166666666667,0.5537037037037037],[-0.23229166666666667,0.5537037037037037],[-0.23229166666666667,0.5537037037037037],[-0.23229166666666667,0.5537037037037037],[-0.23229166666666667,0.5537037037037037],[-0.23229166666666667,0.5537037037037037],[-0.23229166666666667,0.5537037037037037],[-0.23229166666666667,0.5537037037037037],[-0.23229166666666667,0.5537037037037037],[-0.23229166666666667,0.5537037037037037],[-0.23020833333333332,0.5537037037037037],[-0.22291666666666668,0.5611111111111111],[-0.20833333333333334,0.5685185185185185],[-0.19583333333333333,0.5740740740740741],[-0.178125,0.5833333333333334],[-0.14270833333333333,0.6],[-0.13125,0.6074074074074074],[-0.10833333333333334,0.6166666666666667],[-0.08854166666666667,0.6277777777777778],[-0.07291666666666667,0.6351851851851852],[-0.05625,0.6444444444444445],[-0.04791666666666667,0.6481481481481481],[-0.03958333333333333,0.6537037037037037],[-0.03229166666666667,0.6555555555555556],[-0.025,0.6592592592592592],[-0.016666666666666666,0.6648148148148149],[-0.008333333333333333,0.6685185185185185],[0.0010416666666666667,0.6722222222222223],[0.004166666666666667,0.6722222222222223],[0.007291666666666667,0.6722222222222223],[0.010416666666666666,0.6777777777777778],[0.014583333333333334,0.6777777777777778],[0.020833333333333332,0.6814814814814815],[0.025,0.6833333333333333],[0.027083333333333334,0.6833333333333333],[0.029166666666666667,0.6851851851851852],[0.03125,0.6851851851851852],[0.03333333333333333,0.6851851851851852],[0.035416666666666666,0.6851851851851852],[0.035416666666666666,0.6851851851851852],[0.035416666666666666,0.6851851851851852],[0.035416666666666666,0.6851851851851852],[0.036458333333333336,0.6851851851851852],[0.0375,0.6851851851851852],[0.03958333333333333,0.6851851851851852],[0.040625,0.6851851851851852],[0.042708333333333334,0.6851851851851852],[0.046875,0.6851851851851852],[0.04791666666666667,0.6851851851851852],[0.053125,0.6851851851851852],[0.058333333333333334,0.6851851851851852],[0.06458333333333334,0.6814814814814815],[0.06979166666666667,0.6814814814814815],[0.07291666666666667,0.6814814814814815],[0.078125,0.6796296296296296],[0.084375,0.6759259259259259],[0.08854166666666667,0.6759259259259259],[0.09270833333333334,0.6759259259259259],[0.09791666666666667,0.6759259259259259],[0.1,0.6759259259259259],[0.10416666666666667,0.6759259259259259],[0.10416666666666667,0.6759259259259259],[0.10520833333333333,0.6759259259259259],[0.10520833333333333,0.6759259259259259],[0.10520833333333333,0.6759259259259259],[0.10520833333333333,0.6759259259259259],[0.10520833333333333,0.6759259259259259],[0.10520833333333333,0.6759259259259259],[0.10625,0.674074074074074],[0.10625,0.674074074074074],[0.09895833333333333,0.6703703703703704],[0.08854166666666667,0.6685185185185185],[0.06770833333333333,0.6648148148148149],[0.04479166666666667,0.6574074074074074],[0.010416666666666666,0.65],[-0.009375,0.65],[-0.015625,0.65],[-0.029166666666666667,0.65],[-0.03958333333333333,0.65],[-0.05625,0.65],[-0.0625,0.65],[-0.06979166666666667,0.65],[-0.07708333333333334,0.65],[-0.08229166666666667,0.6481481481481481],[-0.08958333333333333,0.6462962962962963],[-0.09375,0.6462962962962963],[-0.09791666666666667,0.6462962962962963],[-0.10104166666666667,0.6462962962962963],[-0.10416666666666667,0.6425925925925926],[-0.10625,0.6425925925925926],[-0.10729166666666666,0.6425925925925926],[-0.109375,0.6407407407407407],[-0.11041666666666666,0.6388888888888888],[-0.1125,0.6388888888888888],[-0.11354166666666667,0.6370370370370371],[-0.11458333333333333,0.6370370370370371],[-0.11666666666666667,0.6351851851851852],[-0.11875,0.6314814814814815],[-0.11875,0.6314814814814815],[-0.12083333333333333,0.6296296296296297],[-0.12083333333333333,0.6296296296296297],[-0.121875,0.6277777777777778],[-0.121875,0.6277777777777778],[-0.12395833333333334,0.6259259259259259],[-0.12395833333333334,0.6259259259259259],[-0.12395833333333334,0.6259259259259259],[-0.12395833333333334,0.6259259259259259],[-0.12395833333333334,0.6259259259259259],[-0.12395833333333334,0.6259259259259259],[-0.12395833333333334,0.6259259259259259],[-0.12395833333333334,0.6259259259259259],[-0.12395833333333334,0.6259259259259259],[-0.12395833333333334,0.6259259259259259],[-0.12395833333333334,0.6259259259259259],[-0.12395833333333334,0.6259259259259259],[-0.12395833333333334,0.6259259259259259],[-0.12395833333333334,0.6259259259259259],[-0.12395833333333334,0.6259259259259259],[-0.12395833333333334,0.6259259259259259],[-0.12395833333333334,0.6259259259259259],[-0.12395833333333334,0.6259259259259259],[-0.12395833333333334,0.6259259259259259],[-0.12395833333333334,0.6259259259259259],[-0.12395833333333334,0.6259259259259259],[-0.12395833333333334,0.6259259259259259],[-0.12395833333333334,0.6259259259259259],[-0.12395833333333334,0.6259259259259259],[-0.12395833333333334,0.6259259259259259],[-0.12395833333333334,0.6259259259259259],[-0.12395833333333334,0.6259259259259259],[-0.12395833333333334,0.6259259259259259],[-0.12395833333333334,0.6259259259259259],[-0.12395833333333334,0.6259259259259259],[-0.12395833333333334,0.6259259259259259],[-0.12395833333333334,0.6259259259259259],[-0.12395833333333334,0.6259259259259259],[-0.12395833333333334,0.6259259259259259],[-0.12395833333333334,0.6259259259259259],[-0.12395833333333334,0.6259259259259259],[-0.12395833333333334,0.6259259259259259],[-0.12395833333333334,0.6259259259259259],[-0.12395833333333334,0.6259259259259259],[-0.12395833333333334,0.6259259259259259],[-0.12395833333333334,0.6259259259259259],[-0.12395833333333334,0.6259259259259259],[-0.12395833333333334,0.6259259259259259],[-0.12395833333333334,0.6259259259259259],[-0.12395833333333334,0.6259259259259259],[-0.12395833333333334,0.6259259259259259],[-0.12395833333333334,0.6259259259259259],[-0.12395833333333334,0.6259259259259259],[-0.12395833333333334,0.6259259259259259],[-0.12395833333333334,0.6259259259259259],[-0.12395833333333334,0.6259259259259259],[-0.12395833333333334,0.6259259259259259],[-0.12395833333333334,0.6259259259259259],[-0.12395833333333334,0.6259259259259259],[-0.12395833333333334,0.6259259259259259],[-0.12395833333333334,0.6259259259259259],[-0.12395833333333334,0.6259259259259259],[-0.12395833333333334,0.6259259259259259],[-0.12395833333333334,0.6259259259259259],[-0.12395833333333334,0.6259259259259259],[-0.12395833333333334,0.6259259259259259],[-0.12395833333333334,0.6259259259259259],[-0.12395833333333334,0.6259259259259259],[-0.12395833333333334,0.6259259259259259],[-0.12395833333333334,0.6259259259259259],[-0.12395833333333334,0.6259259259259259],[-0.12395833333333334,0.6259259259259259],[-0.12395833333333334,0.6259259259259259],[-0.12395833333333334,0.6259259259259259],[-0.12395833333333334,0.6259259259259259],[-0.12395833333333334,0.6259259259259259],[-0.12395833333333334,0.6259259259259259],[-0.12395833333333334,0.6259259259259259],[-0.12395833333333334,0.6259259259259259],[-0.12395833333333334,0.6259259259259259],[-0.12395833333333334,0.6259259259259259],[-0.12395833333333334,0.6259259259259259],[-0.12395833333333334,0.6259259259259259],[-0.12395833333333334,0.6259259259259259],[-0.12395833333333334,0.6259259259259259],[-0.12395833333333334,0.6259259259259259],[-0.12395833333333334,0.6259259259259259],[-0.12395833333333334,0.6259259259259259],[-0.12395833333333334,0.6259259259259259],[-0.12395833333333334,0.6259259259259259],[-0.12395833333333334,0.6259259259259259],[-0.12395833333333334,0.6259259259259259],[-0.12395833333333334,0.6259259259259259],[-0.12395833333333334,0.6259259259259259],[-0.12395833333333334,0.6259259259259259],[-0.12395833333333334,0.6259259259259259],[-0.12395833333333334,0.6240740740740741],[-0.128125,0.6185185185185185],[-0.134375,0.6092592592592593],[-0.13645833333333332,0.6074074074074074],[-0.140625,0.6018518518518519],[-0.14583333333333334,0.5962962962962963],[-0.14895833333333333,0.5907407407407408],[-0.15104166666666666,0.5888888888888889],[-0.15416666666666667,0.5851851851851851]]","[[0.21947916666666673,-0.08777777777777773],[0.20968749999999994,-0.04518518518518514],[0.19968750000000005,-0.04796296296296292],[0.19760416666666672,-0.04222222222222214],[0.19760416666666672,-0.04222222222222214],[0.18020833333333333,-0.057777777777777754],[0.1502083333333334,-0.06074074074074076],[0.1336458333333333,-0.07629629629629628],[0.12895833333333329,-0.08111111111111113],[0.13697916666666668,-0.06888888888888887],[0.14958333333333323,-0.06666666666666667],[0.15374999999999991,-0.07777777777777778],[0.1603125000000001,-0.08518518518518518],[0.1671875,-0.05944444444444449],[0.1631249999999999,-0.036481481481481566],[0.1650000000000001,-0.03370370370370379],[0.1794791666666666,-0.04351851851851852],[0.146875,-0.02759259259259255],[0.11427083333333338,-0.011666666666666582],[0.06531250000000005,0.009629629629629714],[0.00791666666666669,0.017592592592592594],[-0.0390625,0.0544444444444444],[-0.09135416666666671,0.0794444444444444],[-0.15677083333333333,0.07259259259259268],[-0.22250000000000003,0.05259259259259255],[-0.2592708333333333,0.06592592592592597],[-0.29927083333333326,0.06092592592592588],[-0.32093750000000004,0.0338888888888888],[-0.3363541666666666,0.019444444444444445],[-0.3438541666666667,-0.011666666666666582],[-0.35135416666666663,-0.04277777777777782],[-0.35135416666666663,-0.04277777777777782],[-0.3572916666666667,-0.08518518518518518],[-0.3572916666666667,-0.08518518518518518],[-0.3532291666666667,-0.12611111111111115],[-0.3532291666666667,-0.12611111111111115],[-0.33614583333333337,-0.12296296296296293],[-0.33614583333333337,-0.12296296296296293],[-0.3164583333333333,-0.10666666666666672],[-0.3164583333333333,-0.10666666666666672],[-0.3295833333333333,-0.08425925925925926],[-0.34572916666666664,-0.05537037037037033],[-0.34656250000000005,-0.017592592592592594],[-0.30833333333333335,-0.0031481481481482323],[-0.26156250000000003,0.01055555555555564],[-0.22260416666666671,-0.019999999999999917],[-0.18718750000000003,-0.05481481481481486],[-0.16156250000000003,-0.03759259259259251],[-0.1359375,-0.020370370370370372],[-0.13093750000000004,-0.09388888888888887],[-0.11749999999999995,-0.17518518518518522],[-0.07999999999999995,-0.2462962962962963],[-0.07999999999999995,-0.2462962962962963],[-0.06041666666666667,-0.3194444444444444],[-0.08156249999999995,-0.39166666666666666],[-0.09885416666666665,-0.43703703703703706],[-0.09885416666666665,-0.43703703703703706],[-0.1014583333333333,-0.4566666666666667],[-0.09958333333333336,-0.4987037037037037],[-0.09958333333333336,-0.4987037037037037],[-0.09145833333333328,-0.5783333333333334],[-0.08624999999999995,-0.6662962962962963],[-0.08624999999999995,-0.6662962962962963],[-0.05916666666666662,-0.6612962962962964],[-0.05791666666666669,-0.647962962962963],[-0.06052083333333336,-0.6148148148148148],[-0.03895833333333331,-0.6192592592592592],[-0.025416666666666643,-0.6146296296296296],[-0.01572916666666669,-0.6368518518518518],[-0.024583333333333356,-0.6435185185185185],[-0.03791666666666664,-0.6277777777777778],[-0.06854166666666663,-0.6118518518518518],[-0.10218750000000003,-0.6262962962962962],[-0.12010416666666662,-0.6061111111111112],[-0.11218750000000005,-0.5942592592592593],[-0.11531250000000005,-0.5953703703703703],[-0.12468750000000005,-0.5568518518518518],[-0.12468750000000005,-0.5568518518518518],[-0.11520833333333336,-0.5442592592592592],[-0.11593749999999996,-0.5057407407407408],[-0.1014583333333333,-0.4668518518518519],[-0.1014583333333333,-0.4668518518518519],[-0.08968750000000002,-0.43629629629629635],[-0.08968750000000002,-0.43629629629629635],[-0.06447916666666664,-0.43870370370370365],[-0.06812499999999998,-0.33555555555555555],[-0.09135416666666671,-0.29203703703703704],[-0.1125,-0.26351851851851854],[-0.09729166666666664,-0.3024074074074074],[-0.06937500000000002,-0.31203703703703706],[-0.05687500000000002,-0.29500000000000004],[-0.05687500000000002,-0.29500000000000004],[-0.07645833333333331,-0.3098148148148148],[-0.10260416666666666,-0.30703703703703705],[-0.12604166666666666,-0.2959259259259259],[-0.17781250000000004,-0.2625925925925926],[-0.19479166666666667,-0.29611111111111105],[-0.215625,-0.32537037037037037],[-0.23854166666666668,-0.3396296296296296],[-0.30062500000000003,-0.3074074074074074],[-0.3754166666666666,-0.3044444444444444],[-0.45635416666666667,-0.2651851851851852],[-0.45635416666666667,-0.2651851851851852],[-0.4234375,-0.28777777777777774],[-0.42593749999999997,-0.2957407407407407],[-0.4389583333333333,-0.2383333333333333],[-0.37906249999999997,-0.2807407407407408],[-0.31916666666666665,-0.32314814814814813],[-0.2413541666666667,-0.3688888888888889],[-0.2413541666666667,-0.3688888888888889],[-0.22770833333333335,-0.3942592592592592],[-0.2141666666666667,-0.4038888888888889],[-0.19812500000000005,-0.4301851851851852],[-0.15416666666666667,-0.5101851851851852],[-0.18177083333333333,-0.5224074074074074],[-0.17572916666666671,-0.5427777777777778],[-0.14437500000000003,-0.6353703703703704],[-0.16270833333333337,-0.7037037037037037],[-0.18104166666666663,-0.772037037037037],[-0.18104166666666663,-0.772037037037037],[-0.2205208333333334,-0.725925925925926],[-0.20062500000000003,-0.6844444444444445],[-0.18072916666666666,-0.642962962962963],[-0.14270833333333333,-0.6327777777777778],[-0.14270833333333333,-0.6327777777777778],[-0.0907291666666667,-0.6077777777777778],[-0.04635416666666667,-0.5894444444444444],[-0.04635416666666667,-0.5894444444444444],[-0.008645833333333287,-0.5662962962962963],[-0.008854166666666666,-0.5196296296296297],[0.016250000000000025,-0.4975925925925926],[0.01416666666666669,-0.42611111111111116],[0.01854166666666662,-0.4522222222222222],[0.01854166666666662,-0.4522222222222222],[0.02791666666666662,-0.5111111111111111],[0.02020833333333331,-0.5566666666666668],[-0.008124999999999953,-0.5542592592592592],[-0.008124999999999953,-0.5542592592592592],[-0.058333333333333334,-0.5501851851851852],[-0.1,-0.5461111111111111],[-0.13020833333333334,-0.5683333333333332],[-0.14614583333333328,-0.6440740740740741],[-0.18489583333333334,-0.625],[-0.18489583333333334,-0.625],[-0.19468749999999999,-0.6303703703703704],[-0.2265625,-0.632962962962963],[-0.2586458333333333,-0.6185185185185185],[-0.2553125,-0.6355555555555555],[-0.25406249999999997,-0.6459259259259259],[-0.2665625,-0.6342592592592593],[-0.2665625,-0.6342592592592593],[-0.2786458333333333,-0.6318518518518518],[-0.2786458333333333,-0.6318518518518518],[-0.2952083333333333,-0.6331481481481481],[-0.2952083333333333,-0.6331481481481481],[-0.32010416666666663,-0.5637037037037037],[-0.32010416666666663,-0.5637037037037037],[-0.32052083333333337,-0.5214814814814815],[-0.32052083333333337,-0.5214814814814815],[-0.32010416666666663,-0.4838888888888889],[-0.32010416666666663,-0.4838888888888889],[-0.284375,-0.4685185185185185],[-0.284375,-0.4685185185185185],[-0.26364583333333336,-0.4294444444444444],[-0.25375000000000003,-0.3690740740740741],[-0.25375000000000003,-0.3690740740740741],[-0.25760416666666663,-0.2977777777777778],[-0.25760416666666663,-0.2977777777777778],[-0.21291666666666664,-0.21944444444444444],[-0.21291666666666664,-0.21944444444444444],[-0.1586458333333333,-0.1383333333333333],[-0.1586458333333333,-0.1383333333333333],[-0.11593749999999996,-0.08037037037037033],[-0.11593749999999996,-0.08037037037037033],[-0.05666666666666664,-0.07259259259259257],[-0.03135416666666669,-0.01777777777777782],[-0.008854166666666666,0.04222222222222214],[-0.003854166666666714,0.127962962962963],[-0.003854166666666714,0.127962962962963],[0.016145833333333335,0.19000000000000003],[0.016145833333333335,0.19000000000000003],[0.022395833333333334,0.13925925925925933],[0.051145833333333356,0.07407407407407407],[0.035000000000000024,-0.02555555555555547],[0.01114583333333338,-0.09944444444444442],[0.004479166666666619,-0.14648148148148152],[-0.0015625,-0.1772222222222222],[0.017083333333333308,-0.2168518518518519],[0.019583333333333286,-0.2922222222222222],[0.024583333333333356,-0.40370370370370373],[0.02958333333333331,-0.5151851851851852],[0.051041666666666666,-0.48037037037037034],[0.06583333333333338,-0.4487037037037037],[0.10593750000000005,-0.4179629629629629],[0.14187500000000006,-0.3968518518518519],[0.1892708333333334,-0.43129629629629623],[0.23666666666666672,-0.46574074074074073],[0.27156250000000004,-0.5192592592592592],[0.32479166666666665,-0.5622222222222223],[0.38260416666666663,-0.5824074074074074],[0.4404166666666666,-0.6025925925925926],[0.47895833333333326,-0.6768518518518518],[0.5175,-0.7511111111111112],[0.5269791666666668,-0.8181481481481482],[0.5285416666666668,-0.904074074074074],[0.5175,-0.9344444444444445],[0.4602083333333333,-0.8824074074074074],[0.3883333333333333,-0.8087037037037037],[0.31447916666666675,-0.7353703703703705],[0.24541666666666656,-0.672037037037037],[0.18916666666666657,-0.607037037037037],[0.13239583333333324,-0.5520370370370371],[0.0756249999999999,-0.497037037037037],[0.013437499999999976,-0.4581481481481481],[-0.03989583333333328,-0.4033333333333334],[-0.10499999999999995,-0.3588888888888889],[-0.12385416666666664,-0.3968518518518519],[-0.13270833333333332,-0.4559259259259259],[-0.14156249999999998,-0.515],[-0.12947916666666662,-0.5309259259259259],[-0.13020833333333334,-0.5485185185185185],[-0.14031250000000003,-0.6044444444444445],[-0.15041666666666664,-0.6603703703703704],[-0.14635416666666667,-0.659074074074074],[-0.14229166666666668,-0.6577777777777778],[-0.13031250000000003,-0.6666666666666666],[-0.11833333333333336,-0.6755555555555556],[-0.11833333333333336,-0.6755555555555556],[-0.10447916666666662,-0.6768518518518518],[-0.08010416666666664,-0.6487037037037037],[-0.08364583333333328,-0.6644444444444445],[-0.08364583333333328,-0.6644444444444445],[-0.08083333333333335,-0.6892592592592592],[-0.04656250000000005,-0.6348148148148148],[-0.01229166666666662,-0.5803703703703703],[-0.006979166666666714,-0.5657407407407408],[-0.0016666666666666904,-0.5511111111111111]]","[[0.21947916666666673,-0.08777777777777773,0.00019999980926854732],[0.20968749999999994,-0.04518518518518514,0.016399999618528227],[0.19968750000000005,-0.04796296296296292,0.03289999961852885],[0.19760416666666672,-0.04222222222222214,0.05000000000000426],[0.19760416666666672,-0.04222222222222214,0.06649999999999778],[0.18020833333333333,-0.057777777777777754,0.08459999990463274],[0.1502083333333334,-0.06074074074074076,0.09959999990463331],[0.1336458333333333,-0.07629629629629628,0.11650000000000205],[0.12895833333333329,-0.08111111111111113,0.13289999961853027],[0.13697916666666668,-0.06888888888888887,0.14959999990463047],[0.14958333333333323,-0.06666666666666667,0.16619999980926536],[0.15374999999999991,-0.07777777777777778,0.18299999999999983],[0.1603125000000001,-0.08518518518518518,0.19959999990463473],[0.1671875,-0.05944444444444449,0.21619999980926252],[0.1631249999999999,-0.036481481481481566,0.23459999990463132],[0.1650000000000001,-0.03370370370370379,0.2498999996185276],[0.1794791666666666,-0.04351851851851852,0.2661999998092668],[0.146875,-0.02759259259259255,0.28289999961852885],[0.11427083333333338,-0.011666666666666582,0.30039999961853425],[0.06531250000000005,0.009629629629629714,0.3190000000000026],[0.00791666666666669,0.017592592592592594,0.33449999999999847],[-0.0390625,0.0544444444444444,0.3495999999046333],[-0.09135416666666671,0.0794444444444444,0.3662999997138954],[-0.15677083333333333,0.07259259259259268,0.3828999996185303],[-0.22250000000000003,0.05259259259259255,0.4025000000000034],[-0.2592708333333333,0.06592592592592597,0.4191999998092655],[-0.29927083333333326,0.06092592592592588,0.43289999961853454],[-0.32093750000000004,0.0338888888888888,0.44950000000000045],[-0.3363541666666666,0.019444444444444445,0.4661999998092625],[-0.3438541666666667,-0.011666666666666582,0.4828999996185317],[-0.35135416666666663,-0.04277777777777782,0.5065000000000026],[-0.35135416666666663,-0.04277777777777782,0.5162999997139011],[-0.3572916666666667,-0.08518518518518518,0.5330000000000013],[-0.3572916666666667,-0.08518518518518518,0.5495999999046361],[-0.3532291666666667,-0.12611111111111115,0.5661999998092639],[-0.3532291666666667,-0.12611111111111115,0.5828999996185331],[-0.33614583333333337,-0.12296296296296293,0.5996999998092676],[-0.33614583333333337,-0.12296296296296293,0.6165999999046363],[-0.3164583333333333,-0.10666666666666672,0.6330000000000027],[-0.3164583333333333,-0.10666666666666672,0.6495999999046305],[-0.3295833333333333,-0.08425925925925926,0.6662999997138996],[-0.34572916666666664,-0.05537037037037033,0.6860999999046342],[-0.34656250000000005,-0.017592592592592594,0.7005999999046324],[-0.30833333333333335,-0.0031481481481482323,0.7188999996185288],[-0.26156250000000003,0.01055555555555564,0.735199999809268],[-0.22260416666666671,-0.019999999999999917,0.7495999999046319],[-0.18718750000000003,-0.05481481481481486,0.7665000000000006],[-0.16156250000000003,-0.03759259259259251,0.7830000000000013],[-0.1359375,-0.020370370370370372,0.8040999999046363],[-0.13093750000000004,-0.09388888888888887,0.8196999998092664],[-0.11749999999999995,-0.17518518518518522,0.8345999999046327],[-0.07999999999999995,-0.2462962962962963,0.8497999997139019],[-0.07999999999999995,-0.2462962962962963,0.8692999997138955],[-0.06041666666666667,-0.3194444444444444,0.8830999999046298],[-0.08156249999999995,-0.39166666666666666,0.9032999997139015],[-0.09885416666666665,-0.43703703703703706,0.9222999997138999],[-0.09885416666666665,-0.43703703703703706,0.9330999999046341],[-0.1014583333333333,-0.4566666666666667,0.9498999996185304],[-0.09958333333333336,-0.4987037037037037,0.9743999996185337],[-0.09958333333333336,-0.4987037037037037,0.9872999997138976],[-0.09145833333333328,-0.5783333333333334,1],[-0.08624999999999995,-0.6662962962962963,1.024000000000001],[-0.08624999999999995,-0.6662962962962963,1.0330999999046355],[-0.05916666666666662,-0.6612962962962964,1.0497999997138976],[-0.05791666666666669,-0.647962962962963,1.0670000000000002],[-0.06052083333333336,-0.6148148148148148,1.0859999999999985],[-0.03895833333333331,-0.6192592592592592,1.103500000000004],[-0.025416666666666643,-0.6146296296296296,1.1207999997138955],[-0.01572916666666669,-0.6368518518518518,1.1381999998092667],[-0.024583333333333356,-0.6435185185185185,1.1525999999046306],[-0.03791666666666664,-0.6277777777777778,1.168299999713895],[-0.06854166666666663,-0.6118518518518518,1.1840999999046318],[-0.10218750000000003,-0.6262962962962962,1.2042999997138963],[-0.12010416666666662,-0.6061111111111112,1.2201999998092674],[-0.11218750000000005,-0.5942592592592593,1.2371999998092633],[-0.11531250000000005,-0.5953703703703703,1.2520999999046367],[-0.12468750000000005,-0.5568518518518518,1.2715999999046304],[-0.12468750000000005,-0.5568518518518518,1.2830999999046355],[-0.11520833333333336,-0.5442592592592592,1.2998999996185319],[-0.11593749999999996,-0.5057407407407408,1.3167999997139006],[-0.1014583333333333,-0.4668518518518519,1.3386999998092648],[-0.1014583333333333,-0.4668518518518519,1.3496999998092676],[-0.08968750000000002,-0.43629629629629635,1.3663999996185296],[-0.08968750000000002,-0.43629629629629635,1.3831999998092641],[-0.06447916666666664,-0.43870370370370365,1.404599999904633],[-0.06812499999999998,-0.33555555555555555,1.4202999997138974],[-0.09135416666666671,-0.29203703703703704,1.43639999961853],[-0.1125,-0.26351851851851854,1.4550999999046326],[-0.09729166666666664,-0.3024074074074074,1.4700999999046331],[-0.06937500000000002,-0.31203703703703706,1.4858999996185318],[-0.05687500000000002,-0.29500000000000004,1.5071999998092664],[-0.05687500000000002,-0.29500000000000004,1.5163999996185282],[-0.07645833333333331,-0.3098148148148148,1.5330999999046355],[-0.10260416666666666,-0.30703703703703705,1.5497999997138976],[-0.12604166666666666,-0.2959259259259259,1.5686999998092688],[-0.17781250000000004,-0.2625925925925926,1.5828999996185331],[-0.19479166666666667,-0.29611111111111105,1.5997999997139019],[-0.215625,-0.32537037037037037,1.6161999998092682],[-0.23854166666666668,-0.3396296296296296,1.6330000000000027],[-0.30062500000000003,-0.3074074074074074,1.6495999999046305],[-0.3754166666666666,-0.3044444444444444,1.6665999999046335],[-0.45635416666666667,-0.2651851851851852,1.683099999904634],[-0.45635416666666667,-0.2651851851851852,1.7040000000000006],[-0.4234375,-0.28777777777777774,1.7162999997138968],[-0.42593749999999997,-0.2957407407407407,1.733000000000004],[-0.4389583333333333,-0.2383333333333333,1.752599999904632],[-0.37906249999999997,-0.2807407407407408,1.7668999996185306],[-0.31916666666666665,-0.32314814814814813,1.7830999999046355],[-0.2413541666666667,-0.3688888888888889,1.8085000000000022],[-0.2413541666666667,-0.3688888888888889,1.822499999999998],[-0.22770833333333335,-0.3942592592592592,1.8330999999046327],[-0.2141666666666667,-0.4038888888888889,1.8496999998092676],[-0.19812500000000005,-0.4301851851851852,1.8689999999999998],[-0.15416666666666667,-0.5101851851851852,1.8846999998092642],[-0.18177083333333333,-0.5224074074074074,1.903500000000001],[-0.17572916666666671,-0.5427777777777778,1.919399999618534],[-0.14437500000000003,-0.6353703703703704,1.9336999998092637],[-0.16270833333333337,-0.7037037037037037,1.9497999997138962],[-0.18104166666666663,-0.772037037037037,1.9701999998092674],[-0.18104166666666663,-0.772037037037037,1.9831999998092655],[-0.2205208333333334,-0.725925925925926,1.9998999996185276],[-0.20062500000000003,-0.6844444444444445,2.016299999713901],[-0.18072916666666666,-0.642962962962963,2.0352999997138994],[-0.14270833333333333,-0.6327777777777778,2.0497999997138976],[-0.14270833333333333,-0.6327777777777778,2.066499999999998],[-0.0907291666666667,-0.6077777777777778,2.0829999999999984],[-0.04635416666666667,-0.5894444444444444,2.1037999997138996],[-0.04635416666666667,-0.5894444444444444,2.116500000000002],[-0.008645833333333287,-0.5662962962962963,2.133199999809264],[-0.008854166666666666,-0.5196296296296297,2.1496999998092647],[0.016250000000000025,-0.4975925925925926,2.1688999996185316],[0.01416666666666669,-0.42611111111111116,2.183],[0.01854166666666662,-0.4522222222222222,2.1995999999046347],[0.01854166666666662,-0.4522222222222222,2.2187999997139016],[0.02791666666666662,-0.5111111111111111,2.233000000000004],[0.02020833333333331,-0.5566666666666668,2.249599999904632],[-0.008124999999999953,-0.5542592592592592,2.266199999809267],[-0.008124999999999953,-0.5542592592592592,2.285199999809265],[-0.058333333333333334,-0.5501851851851852,2.2996999998092633],[-0.1,-0.5461111111111111,2.3193999996185326],[-0.13020833333333334,-0.5683333333333332,2.333599999904635],[-0.14614583333333328,-0.6440740740740741,2.349499999999999],[-0.18489583333333334,-0.625,2.3670999999046316],[-0.18489583333333334,-0.625,2.3828999996185303],[-0.19468749999999999,-0.6303703703703704,2.3995999999046305],[-0.2265625,-0.632962962962963,2.417599999904631],[-0.2586458333333333,-0.6185185185185185,2.4365999999046366],[-0.2553125,-0.6355555555555555,2.4498999996185304],[-0.25406249999999997,-0.6459259259259259,2.466399999618531],[-0.2665625,-0.6342592592592593,2.487000000000002],[-0.2665625,-0.6342592592592593,2.4997999997139004],[-0.2786458333333333,-0.6318518518518518,2.516299999713901],[-0.2786458333333333,-0.6318518518518518,2.532899999618529],[-0.2952083333333333,-0.6331481481481481,2.549599999904636],[-0.2952083333333333,-0.6331481481481481,2.566299999713898],[-0.32010416666666663,-0.5637037037037037,2.5829999999999984],[-0.32010416666666663,-0.5637037037037037,2.5996999998092676],[-0.32052083333333337,-0.5214814814814815,2.6162999997138954],[-0.32052083333333337,-0.5214814814814815,2.6328999996185303],[-0.32010416666666663,-0.4838888888888889,2.6495000000000033],[-0.32010416666666663,-0.4838888888888889,2.6662999997138996],[-0.284375,-0.4685185185185185,2.6828999996185345],[-0.284375,-0.4685185185185185,2.6995999999046347],[-0.26364583333333336,-0.4294444444444444,2.7161999998092625],[-0.25375000000000003,-0.3690740740740741,2.7372999997138976],[-0.25375000000000003,-0.3690740740740741,2.749599999904632],[-0.25760416666666663,-0.2977777777777778,2.766299999713901],[-0.25760416666666663,-0.2977777777777778,2.782899999618529],[-0.21291666666666664,-0.21944444444444444,2.799899999618532],[-0.21291666666666664,-0.21944444444444444,2.816199999809264],[-0.1586458333333333,-0.1383333333333333,2.832899999618533],[-0.1586458333333333,-0.1383333333333333,2.849499999999999],[-0.11593749999999996,-0.08037037037037033,2.866199999809268],[-0.11593749999999996,-0.08037037037037033,2.882799999713896],[-0.05666666666666664,-0.07259259259259257,2.8996999998092647],[-0.03135416666666669,-0.01777777777777782,2.920099999904636],[-0.008854166666666666,0.04222222222222214,2.9361999998092685],[-0.003854166666666714,0.127962962962963,2.952599999904635],[-0.003854166666666714,0.127962962962963,2.966399999618531],[0.016145833333333335,0.19000000000000003,2.983000000000004],[0.016145833333333335,0.19000000000000003,2.999599999904632],[0.022395833333333334,0.13925925925925933,3.016199999809267],[0.051145833333333356,0.07407407407407407,3.0330000000000013],[0.035000000000000024,-0.02555555555555547,3.049500000000002],[0.01114583333333338,-0.09944444444444442,3.0677999997138983],[0.004479166666666619,-0.14648148148148152,3.0836999998092693],[-0.0015625,-0.1772222222222222,3.0995999999046333],[0.017083333333333308,-0.2168518518518519,3.119799999713898],[0.019583333333333286,-0.2922222222222222,3.1355000000000004],[0.024583333333333356,-0.40370370370370373,3.1500000000000057],[0.02958333333333331,-0.5151851851851852,3.1662999997138996],[0.051041666666666666,-0.48037037037037034,3.1828999996185274],[0.06583333333333338,-0.4487037037037037,3.1995999999046347],[0.10593750000000005,-0.4179629629629629,3.219699999809265],[0.14187500000000006,-0.3968518518518519,3.234099999904629],[0.1892708333333334,-0.43129629629629623,3.2494999999999976],[0.23666666666666672,-0.46574074074074073,3.266599999904628],[0.27156250000000004,-0.5192592592592592,3.282899999618536],[0.32479166666666665,-0.5622222222222223,3.2996999998092633],[0.38260416666666663,-0.5824074074074074,3.318399999618535],[0.4404166666666666,-0.6025925925925926,3.332899999618533],[0.47895833333333326,-0.6768518518518518,3.3495999999046404],[0.5175,-0.7511111111111112,3.366199999809268],[0.5269791666666668,-0.8181481481481482,3.3828999996185303],[0.5285416666666668,-0.904074074074074,3.40009999990464],[0.5175,-0.9344444444444445,3.4195999999046336],[0.4602083333333333,-0.8824074074074074,3.434199999809266],[0.3883333333333333,-0.8087037037037037,3.4495000000000005],[0.31447916666666675,-0.7353703703703705,3.47069999980927],[0.24541666666666656,-0.672037037037037,3.4865000000000066],[0.18916666666666657,-0.607037037037037,3.500299999713903],[0.13239583333333324,-0.5520370370370371,3.519699999809262],[0.0756249999999999,-0.497037037037037,3.5341999998092604],[0.013437499999999976,-0.4581481481481481,3.5494999999999948],[-0.03989583333333328,-0.4033333333333334,3.566199999809271],[-0.10499999999999995,-0.3588888888888889,3.582799999713899],[-0.12385416666666664,-0.3968518518518519,3.5995999999046404],[-0.13270833333333332,-0.4559259259259259,3.6187999997139],[-0.14156249999999998,-0.515,3.6346999998092713],[-0.12947916666666662,-0.5309259259259259,3.649899999618526],[-0.13020833333333334,-0.5485185185185185,3.6665999999046335],[-0.14031250000000003,-0.6044444444444445,3.682799999713893],[-0.15041666666666664,-0.6603703703703704,3.6998999996185375],[-0.14635416666666667,-0.659074074074074,3.7191999998092626],[-0.14229166666666668,-0.6577777777777778,3.736000000000004],[-0.13031250000000003,-0.6666666666666666,3.7517999997138958],[-0.11833333333333336,-0.6755555555555556,3.7698999996185307],[-0.11833333333333336,-0.6755555555555556,3.783399999618524],[-0.10447916666666662,-0.6768518518518518,3.8038999996185368],[-0.08010416666666664,-0.6487037037037037,3.8181999998092664],[-0.08364583333333328,-0.6644444444444445,3.836099999904633],[-0.08364583333333328,-0.6644444444444445,3.8592999997138975],[-0.08083333333333335,-0.6892592592592592,3.8662999997139025],[-0.04656250000000005,-0.6348148148148148,3.8829999999999956],[-0.01229166666666662,-0.5803703703703703,3.904899999618536],[-0.006979166666666714,-0.5657407407407408,3.919099999904631],[-0.0016666666666666904,-0.5511111111111111,3.934899999618537]]","[0.00019999980926854732,0.016399999618528227,0.03289999961852885,0.05000000000000426,0.06649999999999778,0.08459999990463274,0.09959999990463331,0.11650000000000205,0.13289999961853027,0.14959999990463047,0.16619999980926536,0.18299999999999983,0.19959999990463473,0.21619999980926252,0.23459999990463132,0.2498999996185276,0.2661999998092668,0.28289999961852885,0.30039999961853425,0.3190000000000026,0.33449999999999847,0.3495999999046333,0.3662999997138954,0.3828999996185303,0.4025000000000034,0.4191999998092655,0.43289999961853454,0.44950000000000045,0.4661999998092625,0.4828999996185317,0.5065000000000026,0.5162999997139011,0.5330000000000013,0.5495999999046361,0.5661999998092639,0.5828999996185331,0.5996999998092676,0.6165999999046363,0.6330000000000027,0.6495999999046305,0.6662999997138996,0.6860999999046342,0.7005999999046324,0.7188999996185288,0.735199999809268,0.7495999999046319,0.7665000000000006,0.7830000000000013,0.8040999999046363,0.8196999998092664,0.8345999999046327,0.8497999997139019,0.8692999997138955,0.8830999999046298,0.9032999997139015,0.9222999997138999,0.9330999999046341,0.9498999996185304,0.9743999996185337,0.9872999997138976,1,1.024000000000001,1.0330999999046355,1.0497999997138976,1.0670000000000002,1.0859999999999985,1.103500000000004,1.1207999997138955,1.1381999998092667,1.1525999999046306,1.168299999713895,1.1840999999046318,1.2042999997138963,1.2201999998092674,1.2371999998092633,1.2520999999046367,1.2715999999046304,1.2830999999046355,1.2998999996185319,1.3167999997139006,1.3386999998092648,1.3496999998092676,1.3663999996185296,1.3831999998092641,1.404599999904633,1.4202999997138974,1.43639999961853,1.4550999999046326,1.4700999999046331,1.4858999996185318,1.5071999998092664,1.5163999996185282,1.5330999999046355,1.5497999997138976,1.5686999998092688,1.5828999996185331,1.5997999997139019,1.6161999998092682,1.6330000000000027,1.6495999999046305,1.6665999999046335,1.683099999904634,1.7040000000000006,1.7162999997138968,1.733000000000004,1.752599999904632,1.7668999996185306,1.7830999999046355,1.8085000000000022,1.822499999999998,1.8330999999046327,1.8496999998092676,1.8689999999999998,1.8846999998092642,1.903500000000001,1.919399999618534,1.9336999998092637,1.9497999997138962,1.9701999998092674,1.9831999998092655,1.9998999996185276,2.016299999713901,2.0352999997138994,2.0497999997138976,2.066499999999998,2.0829999999999984,2.1037999997138996,2.116500000000002,2.133199999809264,2.1496999998092647,2.1688999996185316,2.183,2.1995999999046347,2.2187999997139016,2.233000000000004,2.249599999904632,2.266199999809267,2.285199999809265,2.2996999998092633,2.3193999996185326,2.333599999904635,2.349499999999999,2.3670999999046316,2.3828999996185303,2.3995999999046305,2.417599999904631,2.4365999999046366,2.4498999996185304,2.466399999618531,2.487000000000002,2.4997999997139004,2.516299999713901,2.532899999618529,2.549599999904636,2.566299999713898,2.5829999999999984,2.5996999998092676,2.6162999997138954,2.6328999996185303,2.6495000000000033,2.6662999997138996,2.6828999996185345,2.6995999999046347,2.7161999998092625,2.7372999997138976,2.749599999904632,2.766299999713901,2.782899999618529,2.799899999618532,2.816199999809264,2.832899999618533,2.849499999999999,2.866199999809268,2.882799999713896,2.8996999998092647,2.920099999904636,2.9361999998092685,2.952599999904635,2.966399999618531,2.983000000000004,2.999599999904632,3.016199999809267,3.0330000000000013,3.049500000000002,3.0677999997138983,3.0836999998092693,3.0995999999046333,3.119799999713898,3.1355000000000004,3.1500000000000057,3.1662999997138996,3.1828999996185274,3.1995999999046347,3.219699999809265,3.234099999904629,3.2494999999999976,3.266599999904628,3.282899999618536,3.2996999998092633,3.318399999618535,3.332899999618533,3.3495999999046404,3.366199999809268,3.3828999996185303,3.40009999990464,3.4195999999046336,3.434199999809266,3.4495000000000005,3.47069999980927,3.4865000000000066,3.500299999713903,3.519699999809262,3.5341999998092604,3.5494999999999948,3.566199999809271,3.582799999713899,3.5995999999046404,3.6187999997139,3.6346999998092713,3.649899999618526,3.6665999999046335,3.682799999713893,3.6998999996185375,3.7191999998092626,3.736000000000004,3.7517999997138958,3.7698999996185307,3.783399999618524,3.8038999996185368,3.8181999998092664,3.836099999904633,3.8592999997138975,3.8662999997139025,3.8829999999999956,3.904899999618536,3.919099999904631,3.934899999618537]","[1731905581254,1731905581268,1731905581285,1731905581302,1731905581318,1731905581336,1731905581351,1731905581368,1731905581385,1731905581401,1731905581418,1731905581435,1731905581451,1731905581468,1731905581486,1731905581502,1731905581518,1731905581535,1731905581552,1731905581571,1731905581586,1731905581601,1731905581618,1731905581635,1731905581654,1731905581671,1731905581685,1731905581701,1731905581718,1731905581735,1731905581758,1731905581768,1731905581785,1731905581801,1731905581818,1731905581835,1731905581851,1731905581868,1731905581885,1731905581901,1731905581918,1731905581938,1731905581952,1731905581971,1731905581987,1731905582001,1731905582018,1731905582035,1731905582056,1731905582071,1731905582086,1731905582102,1731905582121,1731905582135,1731905582155,1731905582174,1731905582185,1731905582202,1731905582226,1731905582239,1731905582252,1731905582276,1731905582285,1731905582302,1731905582319,1731905582338,1731905582355,1731905582373,1731905582390,1731905582404,1731905582420,1731905582436,1731905582456,1731905582472,1731905582489,1731905582504,1731905582523,1731905582535,1731905582552,1731905582569,1731905582591,1731905582602,1731905582618,1731905582635,1731905582656,1731905582672,1731905582688,1731905582707,1731905582722,1731905582738,1731905582759,1731905582768,1731905582785,1731905582802,1731905582821,1731905582835,1731905582852,1731905582868,1731905582885,1731905582901,1731905582918,1731905582935,1731905582956,1731905582968,1731905582985,1731905583004,1731905583019,1731905583035,1731905583060,1731905583074,1731905583085,1731905583101,1731905583121,1731905583136,1731905583155,1731905583171,1731905583185,1731905583202,1731905583222,1731905583235,1731905583252,1731905583268,1731905583287,1731905583302,1731905583318,1731905583335,1731905583356,1731905583368,1731905583385,1731905583402,1731905583421,1731905583435,1731905583451,1731905583471,1731905583485,1731905583501,1731905583518,1731905583537,1731905583551,1731905583571,1731905583585,1731905583601,1731905583619,1731905583635,1731905583651,1731905583669,1731905583688,1731905583702,1731905583718,1731905583739,1731905583752,1731905583768,1731905583785,1731905583801,1731905583818,1731905583835,1731905583851,1731905583868,1731905583885,1731905583901,1731905583918,1731905583935,1731905583951,1731905583968,1731905583989,1731905584001,1731905584018,1731905584035,1731905584052,1731905584068,1731905584085,1731905584101,1731905584118,1731905584135,1731905584151,1731905584172,1731905584188,1731905584204,1731905584218,1731905584235,1731905584251,1731905584268,1731905584285,1731905584301,1731905584320,1731905584335,1731905584351,1731905584372,1731905584387,1731905584402,1731905584418,1731905584435,1731905584451,1731905584472,1731905584486,1731905584501,1731905584518,1731905584535,1731905584552,1731905584570,1731905584585,1731905584601,1731905584618,1731905584635,1731905584652,1731905584671,1731905584686,1731905584701,1731905584722,1731905584738,1731905584752,1731905584771,1731905584786,1731905584801,1731905584818,1731905584835,1731905584851,1731905584871,1731905584887,1731905584902,1731905584918,1731905584935,1731905584952,1731905584971,1731905584988,1731905585004,1731905585022,1731905585035,1731905585056,1731905585070,1731905585088,1731905585111,1731905585118,1731905585135,1731905585157,1731905585171,1731905585187]","[[1170.7,492.6],[1161.3,515.6],[1151.7,514.1],[1149.7,517.2],[1149.7,517.2],[1133,508.8],[1104.2,507.2],[1088.3,498.8],[1083.8,496.2],[1091.5,502.8],[1103.6,504],[1107.6,498],[1113.9,494],[1120.5,507.9],[1116.6,520.3],[1118.4,521.8],[1132.3,516.5],[1101,525.1],[1069.7,533.7],[1022.7,545.2],[967.6,549.5],[922.5,569.4],[872.3,582.9],[809.5,579.2],[746.4,568.4],[711.1,575.6],[672.7,572.9],[651.9,558.3],[637.1,550.5],[629.9,533.7],[622.7,516.9],[622.7,516.9],[617,494],[617,494],[620.9,471.9],[620.9,471.9],[637.3,473.6],[637.3,473.6],[656.2,482.4],[656.2,482.4],[643.6,494.5],[628.1,510.1],[627.3,530.5],[664,538.3],[708.9,545.7],[746.3,529.2],[780.3,510.4],[804.9,519.7],[829.5,529],[834.3,489.3],[847.2,445.4],[883.2,407],[883.2,407],[902,367.5],[881.7,328.5],[865.1,304],[865.1,304],[862.6,293.4],[864.4,270.7],[864.4,270.7],[872.2,227.7],[877.2,180.2],[877.2,180.2],[903.2,182.9],[904.4,190.1],[901.9,208],[922.6,205.6],[935.6,208.1],[944.9,196.1],[936.4,192.5],[923.6,201],[894.2,209.6],[861.9,201.8],[844.7,212.7],[852.3,219.1],[849.3,218.5],[840.3,239.3],[840.3,239.3],[849.4,246.1],[848.7,266.9],[862.6,287.9],[862.6,287.9],[873.9,304.4],[873.9,304.4],[898.1,303.1],[894.6,358.8],[872.3,382.3],[852,397.7],[866.6,376.7],[893.4,371.5],[905.4,380.7],[905.4,380.7],[886.6,372.7],[861.5,374.2],[839,380.2],[789.3,398.2],[773,380.1],[753,364.3],[731,356.6],[671.4,374],[599.6,375.6],[521.9,396.8],[521.9,396.8],[553.5,384.6],[551.1,380.3],[538.6,411.3],[596.1,388.4],[653.6,365.5],[728.3,340.8],[728.3,340.8],[741.4,327.1],[754.4,321.9],[769.8,307.7],[812,264.5],[785.5,257.9],[791.3,246.9],[821.4,196.9],[803.8,160],[786.2,123.1],[786.2,123.1],[748.3,148],[767.4,170.4],[786.5,192.8],[823,198.3],[823,198.3],[872.9,211.8],[915.5,221.7],[915.5,221.7],[951.7,234.2],[951.5,259.4],[975.6,271.3],[973.6,309.9],[977.8,295.8],[977.8,295.8],[986.8,264],[979.4,239.4],[952.2,240.7],[952.2,240.7],[904,242.9],[864,245.1],[835,233.1],[819.7,192.2],[782.5,202.5],[782.5,202.5],[773.1,199.6],[742.5,198.2],[711.7,206],[714.9,196.8],[716.1,191.2],[704.1,197.5],[704.1,197.5],[692.5,198.8],[692.5,198.8],[676.6,198.1],[676.6,198.1],[652.7,235.6],[652.7,235.6],[652.3,258.4],[652.3,258.4],[652.7,278.7],[652.7,278.7],[687,287],[687,287],[706.9,308.1],[716.4,340.7],[716.4,340.7],[712.7,379.2],[712.7,379.2],[755.6,421.5],[755.6,421.5],[807.7,465.3],[807.7,465.3],[848.7,496.6],[848.7,496.6],[905.6,500.8],[929.9,530.4],[951.5,562.8],[956.3,609.1],[956.3,609.1],[975.5,642.6],[975.5,642.6],[981.5,615.2],[1009.1,580],[993.6,526.2],[970.7,486.3],[964.3,460.9],[958.5,444.3],[976.4,422.9],[978.8,382.2],[983.6,322],[988.4,261.8],[1009,280.6],[1023.2,297.7],[1061.7,314.3],[1096.2,325.7],[1141.7,307.1],[1187.2,288.5],[1220.7,259.6],[1271.8,236.4],[1327.3,225.5],[1382.8,214.6],[1419.8,174.5],[1456.8,134.4],[1465.9,98.2],[1467.4,51.8],[1456.8,35.4],[1401.8,63.5],[1332.8,103.3],[1261.9,142.9],[1195.6,177.1],[1141.6,212.2],[1087.1,241.9],[1032.6,271.6],[972.9,292.6],[921.7,322.2],[859.2,346.2],[841.1,325.7],[832.6,293.8],[824.1,261.9],[835.7,253.3],[835,243.8],[825.3,213.6],[815.6,183.4],[819.5,184.1],[823.4,184.8],[834.9,180],[846.4,175.2],[846.4,175.2],[859.7,174.5],[883.1,189.7],[879.7,181.2],[879.7,181.2],[882.4,167.8],[915.3,197.2],[948.2,226.6],[953.3,234.5],[958.4,242.4]]","[-0.2,0.6000000000000001]","[0.2,0.6000000000000001]","[0.6000000000000001,0.6000000000000001]","[-0.6000000000000001,0.2]","[-0.6000000000000001,-0.6000000000000001]","[-0.6000000000000001,-0.2]","[-0.2,0.2]","[0.2,0.2]","[0.6000000000000001,0.2]","[-0.2,-0.6000000000000001]","[0.2,-0.6000000000000001]","[0.6000000000000001,-0.6000000000000001]","[-0.2,-0.2]","[0.2,-0.2]","[0.6000000000000001,-0.2]",0,1,1,1,1,2,Monitor,20,20,7,3,70,6,3,60,3
