inst1_resp.keys,inst1_resp.rt,calibrationMouse.x,calibrationMouse.y,calibrationMouse.leftButton,calibrationMouse.midButton,calibrationMouse.rightButton,calibrationClick.x,calibrationClick.y,calibrationClick.leftButton,calibrationClick.midButton,calibrationClick.rightButton,trialsc.thisRepN,trialsc.thisTrialN,trialsc.thisN,trialsc.thisIndex,trialsc.ran,calibration_x,calibration_y,participant,session,date,expName,psychopyVersion,OS,frameRate,calibrationClick.clicked_name,ScreenRes_pixels,Camera_pixels,mouse_2.x,mouse_2.y,mouse_2.leftButton,mouse_2.midButton,mouse_2.rightButton,mouse_2.time,mouse_2.clicked_name,mouse.x,mouse.y,mouse.leftButton,mouse.midButton,mouse.rightButton,mouse.time,mouse.clicked_name,Choice,Trial,TrialDuration,MOUSE_GAZE,ET_GAZE,ET_GAZE_x_T,time,unixTime,ET_GAZE_NF,Loc_Bus_label,Loc_Metro_label,Loc_RH_label,Loc_Cost_label,Loc_Travel_label,Loc_Comfort_label,Loc_Bus_cost,Loc_Metro_cost,Loc_RH_cost,Loc_Bus_travel,Loc_Metro_travel,Loc_RH_travel,Loc_Bus_comfort,Loc_Metro_comfort,Loc_RH_comfort,trials.thisRepN,trials.thisTrialN,trials.thisN,trials.thisIndex,trials.ran,Block,Device,RH_cost,RH_travel_time,RH_Comfort,metro_cost,metro_travel_time,metro_Comfort,Bus_cost,Bus_travel_time,Bus_Comfort
space,2.6484,0.326041667,-0.248148148,1,0,0,0.326041667,-0.248148148,0,0,0,0,0,0,16,1,0.33,0,48,001,2024-11-30_11h17.58.755,Attention_exp_legacy,2023.1.0,Win32,59.88023952,,,,,,,,,,,,,,,,,,,,,,,,,,,,,,,,,,,,,,,,,,,,,,,,,,,,,,,,,
,,,,,,,0.322916667,-0.651851852,1,0,0,0,1,1,14,1,0.33,-0.67,48,001,2024-11-30_11h17.58.755,Attention_exp_legacy,2023.1.0,Win32,59.88023952,,,,,,,,,,,,,,,,,,,,,,,,,,,,,,,,,,,,,,,,,,,,,,,,,,,,,,,,,
,,,,,,,-0.344791667,0.342592593,1,0,0,0,2,2,7,1,-0.33,0.33,48,001,2024-11-30_11h17.58.755,Attention_exp_legacy,2023.1.0,Win32,59.88023952,,,,,,,,,,,,,,,,,,,,,,,,,,,,,,,,,,,,,,,,,,,,,,,,,,,,,,,,,
,,,,,,,-0.333333333,-0.342592593,1,0,0,0,3,3,5,1,-0.33,-0.33,48,001,2024-11-30_11h17.58.755,Attention_exp_legacy,2023.1.0,Win32,59.88023952,,,,,,,,,,,,,,,,,,,,,,,,,,,,,,,,,,,,,,,,,,,,,,,,,,,,,,,,,
,,,,,,,0.007291667,-0.337037037,1,0,0,0,4,4,10,1,0,-0.33,48,001,2024-11-30_11h17.58.755,Attention_exp_legacy,2023.1.0,Win32,59.88023952,calibration_square,,,,,,,,,,,,,,,,,,,,,,,,,,,,,,,,,,,,,,,,,,,,,,,,,,,,,,,,
,,,,,,,-0.679166667,0.324074074,1,0,0,0,5,5,3,1,-0.67,0.33,48,001,2024-11-30_11h17.58.755,Attention_exp_legacy,2023.1.0,Win32,59.88023952,calibration_square,,,,,,,,,,,,,,,,,,,,,,,,,,,,,,,,,,,,,,,,,,,,,,,,,,,,,,,,
,,,,,,,-0.665625,-0.312962963,1,0,0,0,6,6,1,1,-0.67,-0.33,48,001,2024-11-30_11h17.58.755,Attention_exp_legacy,2023.1.0,Win32,59.88023952,,,,,,,,,,,,,,,,,,,,,,,,,,,,,,,,,,,,,,,,,,,,,,,,,,,,,,,,,
,,,,,,,-0.680208333,0.005555556,1,0,0,0,7,7,2,1,-0.67,0,48,001,2024-11-30_11h17.58.755,Attention_exp_legacy,2023.1.0,Win32,59.88023952,,,,,,,,,,,,,,,,,,,,,,,,,,,,,,,,,,,,,,,,,,,,,,,,,,,,,,,,,
,,,,,,,0.00625,-0.657407407,1,0,0,0,8,8,9,1,0,-0.67,48,001,2024-11-30_11h17.58.755,Attention_exp_legacy,2023.1.0,Win32,59.88023952,,,,,,,,,,,,,,,,,,,,,,,,,,,,,,,,,,,,,,,,,,,,,,,,,,,,,,,,,
,,,,,,,0.002083333,0.009259259,1,0,0,0,9,9,11,1,0,0,48,001,2024-11-30_11h17.58.755,Attention_exp_legacy,2023.1.0,Win32,59.88023952,calibration_square,,,,,,,,,,,,,,,,,,,,,,,,,,,,,,,,,,,,,,,,,,,,,,,,,,,,,,,,
,,,,,,,0.003125,0.692592593,1,0,0,0,10,10,13,1,0,0.67,48,001,2024-11-30_11h17.58.755,Attention_exp_legacy,2023.1.0,Win32,59.88023952,,,,,,,,,,,,,,,,,,,,,,,,,,,,,,,,,,,,,,,,,,,,,,,,,,,,,,,,,
,,,,,,,0.326041667,0.348148148,1,0,0,0,11,11,17,1,0.33,0.33,48,001,2024-11-30_11h17.58.755,Attention_exp_legacy,2023.1.0,Win32,59.88023952,,,,,,,,,,,,,,,,,,,,,,,,,,,,,,,,,,,,,,,,,,,,,,,,,,,,,,,,,
,,,,,,,-0.003125,0.32037037,1,0,0,0,12,12,12,1,0,0.33,48,001,2024-11-30_11h17.58.755,Attention_exp_legacy,2023.1.0,Win32,59.88023952,calibration_square,,,,,,,,,,,,,,,,,,,,,,,,,,,,,,,,,,,,,,,,,,,,,,,,,,,,,,,,
,,,,,,,-0.666666667,-0.655555556,1,0,0,0,13,13,0,1,-0.67,-0.67,48,001,2024-11-30_11h17.58.755,Attention_exp_legacy,2023.1.0,Win32,59.88023952,,,,,,,,,,,,,,,,,,,,,,,,,,,,,,,,,,,,,,,,,,,,,,,,,,,,,,,,,
,,,,,,,0.667708333,-0.67037037,1,0,0,0,14,14,20,1,0.67,-0.67,48,001,2024-11-30_11h17.58.755,Attention_exp_legacy,2023.1.0,Win32,59.88023952,calibration_square,,,,,,,,,,,,,,,,,,,,,,,,,,,,,,,,,,,,,,,,,,,,,,,,,,,,,,,,
,,,,,,,-0.335416667,0.683333333,1,0,0,0,15,15,8,1,-0.33,0.67,48,001,2024-11-30_11h17.58.755,Attention_exp_legacy,2023.1.0,Win32,59.88023952,,,,,,,,,,,,,,,,,,,,,,,,,,,,,,,,,,,,,,,,,,,,,,,,,,,,,,,,,
,,,,,,,0.332291667,-0.335185185,1,0,0,0,16,16,15,1,0.33,-0.33,48,001,2024-11-30_11h17.58.755,Attention_exp_legacy,2023.1.0,Win32,59.88023952,calibration_square,,,,,,,,,,,,,,,,,,,,,,,,,,,,,,,,,,,,,,,,,,,,,,,,,,,,,,,,
,,,,,,,-0.329166667,0.005555556,1,0,0,0,17,17,6,1,-0.33,0,48,001,2024-11-30_11h17.58.755,Attention_exp_legacy,2023.1.0,Win32,59.88023952,calibration_square,,,,,,,,,,,,,,,,,,,,,,,,,,,,,,,,,,,,,,,,,,,,,,,,,,,,,,,,
,,,,,,,0.344791667,0.677777778,1,0,0,0,18,18,18,1,0.33,0.67,48,001,2024-11-30_11h17.58.755,Attention_exp_legacy,2023.1.0,Win32,59.88023952,,,,,,,,,,,,,,,,,,,,,,,,,,,,,,,,,,,,,,,,,,,,,,,,,,,,,,,,,
,,,,,,,0.66875,0.662962963,1,0,0,0,19,19,19,1,0.67,0.67,48,001,2024-11-30_11h17.58.755,Attention_exp_legacy,2023.1.0,Win32,59.88023952,calibration_square,,,,,,,,,,,,,,,,,,,,,,,,,,,,,,,,,,,,,,,,,,,,,,,,,,,,,,,,
,,,,,,,-0.339583333,-0.67962963,1,0,0,0,20,20,4,1,-0.33,-0.67,48,001,2024-11-30_11h17.58.755,Attention_exp_legacy,2023.1.0,Win32,59.88023952,calibration_square,,,,,,,,,,,,,,,,,,,,,,,,,,,,,,,,,,,,,,,,,,,,,,,,,,,,,,,,
,,,,,,,,,,,,,,,,,,,48,001,2024-11-30_11h17.58.755,Attention_exp_legacy,2023.1.0,Win32,59.88023952,,"[1920,1080]","[640,480]",[0.017708333333333333],[-0.5166666666666667],[1],[0],[0],[1.8434999999999988],"[""StartButton""]",[0.15729166666666666],[0.3888888888888889],[1],[0],[0],[6.312199999988074],"[""Metro_label""]",Metro_label,1,7.3241,"[[0.017708333333333333,-0.5166666666666667],[0.017708333333333333,-0.5166666666666667],[0.017708333333333333,-0.5166666666666667],[0.017708333333333333,-0.5166666666666667],[0.017708333333333333,-0.5166666666666667],[0.017708333333333333,-0.5166666666666667],[0.017708333333333333,-0.5166666666666667],[0.017708333333333333,-0.5166666666666667],[0.017708333333333333,-0.5166666666666667],[0.017708333333333333,-0.5166666666666667],[0.017708333333333333,-0.5166666666666667],[0.017708333333333333,-0.5166666666666667],[0.017708333333333333,-0.5166666666666667],[0.017708333333333333,-0.5166666666666667],[0.017708333333333333,-0.5166666666666667],[0.017708333333333333,-0.5166666666666667],[0.017708333333333333,-0.5166666666666667],[0.017708333333333333,-0.5166666666666667],[0.017708333333333333,-0.5166666666666667],[0.017708333333333333,-0.5166666666666667],[0.017708333333333333,-0.5166666666666667],[0.017708333333333333,-0.5166666666666667],[0.017708333333333333,-0.5166666666666667],[0.017708333333333333,-0.5166666666666667],[0.017708333333333333,-0.5166666666666667],[0.017708333333333333,-0.5166666666666667],[0.017708333333333333,-0.5166666666666667],[0.017708333333333333,-0.5166666666666667],[0.017708333333333333,-0.5166666666666667],[0.017708333333333333,-0.5166666666666667],[0.017708333333333333,-0.5166666666666667],[0.017708333333333333,-0.5166666666666667],[0.017708333333333333,-0.5166666666666667],[0.017708333333333333,-0.5166666666666667],[0.017708333333333333,-0.5166666666666667],[0.017708333333333333,-0.5166666666666667],[0.017708333333333333,-0.5166666666666667],[0.017708333333333333,-0.5166666666666667],[0.017708333333333333,-0.5166666666666667],[0.017708333333333333,-0.5166666666666667],[0.017708333333333333,-0.5166666666666667],[0.017708333333333333,-0.5166666666666667],[0.017708333333333333,-0.5166666666666667],[0.017708333333333333,-0.5166666666666667],[0.017708333333333333,-0.5166666666666667],[0.017708333333333333,-0.5166666666666667],[0.017708333333333333,-0.5166666666666667],[0.017708333333333333,-0.5166666666666667],[0.017708333333333333,-0.5166666666666667],[0.017708333333333333,-0.5166666666666667],[0.017708333333333333,-0.5166666666666667],[0.017708333333333333,-0.5166666666666667],[0.017708333333333333,-0.5166666666666667],[0.017708333333333333,-0.5166666666666667],[0.017708333333333333,-0.5166666666666667],[0.017708333333333333,-0.5166666666666667],[0.017708333333333333,-0.5166666666666667],[0.017708333333333333,-0.5166666666666667],[0.017708333333333333,-0.5166666666666667],[0.017708333333333333,-0.5166666666666667],[0.017708333333333333,-0.5166666666666667],[0.017708333333333333,-0.5166666666666667],[0.017708333333333333,-0.5166666666666667],[0.017708333333333333,-0.5166666666666667],[0.017708333333333333,-0.5166666666666667],[0.017708333333333333,-0.5166666666666667],[0.017708333333333333,-0.5166666666666667],[0.017708333333333333,-0.5166666666666667],[0.017708333333333333,-0.5166666666666667],[0.017708333333333333,-0.5166666666666667],[0.017708333333333333,-0.5166666666666667],[0.017708333333333333,-0.5166666666666667],[0.017708333333333333,-0.5166666666666667],[0.017708333333333333,-0.5166666666666667],[0.017708333333333333,-0.5166666666666667],[0.017708333333333333,-0.5166666666666667],[0.017708333333333333,-0.5166666666666667],[0.017708333333333333,-0.5166666666666667],[0.017708333333333333,-0.5185185185185185],[0.017708333333333333,-0.5185185185185185],[0.017708333333333333,-0.5185185185185185],[0.017708333333333333,-0.5185185185185185],[0.017708333333333333,-0.5185185185185185],[0.017708333333333333,-0.5185185185185185],[0.017708333333333333,-0.5203703703703704],[0.017708333333333333,-0.5203703703703704],[0.017708333333333333,-0.5222222222222223],[0.017708333333333333,-0.5222222222222223],[0.017708333333333333,-0.5222222222222223],[0.017708333333333333,-0.5222222222222223],[0.017708333333333333,-0.5222222222222223],[0.016666666666666666,-0.5259259259259259],[0.016666666666666666,-0.5277777777777778],[0.016666666666666666,-0.5314814814814814],[0.016666666666666666,-0.5388888888888889],[0.01875,-0.5518518518518518],[0.026041666666666668,-0.5685185185185185],[0.03854166666666667,-0.5944444444444444],[0.058333333333333334,-0.6240740740740741],[0.0875,-0.6685185185185185],[0.096875,-0.6833333333333333],[0.11666666666666667,-0.7037037037037037],[0.13541666666666666,-0.7240740740740741],[0.16354166666666667,-0.7481481481481481],[0.18125,-0.7592592592592593],[0.19166666666666668,-0.7685185185185185],[0.19791666666666666,-0.7722222222222223],[0.2,-0.774074074074074],[0.20104166666666667,-0.774074074074074],[0.203125,-0.7759259259259259],[0.203125,-0.7759259259259259],[0.203125,-0.7759259259259259],[0.203125,-0.7759259259259259],[0.203125,-0.7759259259259259],[0.203125,-0.7759259259259259],[0.203125,-0.7759259259259259],[0.203125,-0.7759259259259259],[0.203125,-0.7759259259259259],[0.203125,-0.7759259259259259],[0.203125,-0.7759259259259259],[0.203125,-0.7759259259259259],[0.203125,-0.7759259259259259],[0.203125,-0.7759259259259259],[0.203125,-0.7759259259259259],[0.203125,-0.7759259259259259],[0.203125,-0.7759259259259259],[0.203125,-0.7759259259259259],[0.203125,-0.7759259259259259],[0.203125,-0.7759259259259259],[0.203125,-0.7759259259259259],[0.203125,-0.7759259259259259],[0.203125,-0.7759259259259259],[0.203125,-0.7759259259259259],[0.203125,-0.7759259259259259],[0.203125,-0.7759259259259259],[0.203125,-0.7759259259259259],[0.203125,-0.7759259259259259],[0.203125,-0.7759259259259259],[0.203125,-0.7759259259259259],[0.203125,-0.7759259259259259],[0.203125,-0.7759259259259259],[0.203125,-0.7759259259259259],[0.203125,-0.7759259259259259],[0.203125,-0.7759259259259259],[0.203125,-0.7759259259259259],[0.203125,-0.7759259259259259],[0.203125,-0.7759259259259259],[0.203125,-0.7759259259259259],[0.203125,-0.7759259259259259],[0.203125,-0.7759259259259259],[0.203125,-0.7759259259259259],[0.203125,-0.7759259259259259],[0.203125,-0.7759259259259259],[0.203125,-0.7759259259259259],[0.203125,-0.7759259259259259],[0.203125,-0.7759259259259259],[0.203125,-0.7759259259259259],[0.203125,-0.7759259259259259],[0.203125,-0.7759259259259259],[0.203125,-0.7759259259259259],[0.203125,-0.7759259259259259],[0.203125,-0.7759259259259259],[0.203125,-0.7759259259259259],[0.203125,-0.7759259259259259],[0.203125,-0.7759259259259259],[0.203125,-0.7759259259259259],[0.203125,-0.7759259259259259],[0.203125,-0.7759259259259259],[0.203125,-0.7759259259259259],[0.203125,-0.7759259259259259],[0.203125,-0.7759259259259259],[0.203125,-0.7759259259259259],[0.203125,-0.7759259259259259],[0.203125,-0.7759259259259259],[0.203125,-0.7759259259259259],[0.203125,-0.7759259259259259],[0.203125,-0.7759259259259259],[0.203125,-0.7759259259259259],[0.203125,-0.7759259259259259],[0.203125,-0.7759259259259259],[0.203125,-0.7759259259259259],[0.203125,-0.7759259259259259],[0.203125,-0.7759259259259259],[0.203125,-0.7759259259259259],[0.203125,-0.7759259259259259],[0.203125,-0.7759259259259259],[0.203125,-0.7759259259259259],[0.203125,-0.7759259259259259],[0.203125,-0.7759259259259259],[0.203125,-0.7759259259259259],[0.203125,-0.7759259259259259],[0.203125,-0.7759259259259259],[0.203125,-0.7759259259259259],[0.203125,-0.7759259259259259],[0.203125,-0.7759259259259259],[0.203125,-0.7759259259259259],[0.203125,-0.7759259259259259],[0.203125,-0.7759259259259259],[0.203125,-0.7759259259259259],[0.203125,-0.7759259259259259],[0.203125,-0.7759259259259259],[0.203125,-0.7759259259259259],[0.203125,-0.7759259259259259],[0.203125,-0.7759259259259259],[0.203125,-0.7759259259259259],[0.203125,-0.7759259259259259],[0.203125,-0.7759259259259259],[0.203125,-0.7759259259259259],[0.203125,-0.7759259259259259],[0.203125,-0.7759259259259259],[0.203125,-0.7759259259259259],[0.203125,-0.7759259259259259],[0.203125,-0.7759259259259259],[0.203125,-0.7759259259259259],[0.203125,-0.7759259259259259],[0.203125,-0.7759259259259259],[0.203125,-0.7759259259259259],[0.203125,-0.7759259259259259],[0.203125,-0.7759259259259259],[0.203125,-0.7759259259259259],[0.203125,-0.7759259259259259],[0.203125,-0.7759259259259259],[0.20208333333333334,-0.7759259259259259],[0.20208333333333334,-0.7759259259259259],[0.20208333333333334,-0.7759259259259259],[0.20208333333333334,-0.7759259259259259],[0.20208333333333334,-0.7759259259259259],[0.20208333333333334,-0.7759259259259259],[0.20208333333333334,-0.7759259259259259],[0.20208333333333334,-0.7759259259259259],[0.20208333333333334,-0.7759259259259259],[0.20208333333333334,-0.7759259259259259],[0.20208333333333334,-0.7759259259259259],[0.20208333333333334,-0.7759259259259259],[0.20208333333333334,-0.7759259259259259],[0.20208333333333334,-0.7759259259259259],[0.20208333333333334,-0.7759259259259259],[0.20208333333333334,-0.7759259259259259],[0.20208333333333334,-0.7759259259259259],[0.20208333333333334,-0.7759259259259259],[0.20208333333333334,-0.7759259259259259],[0.20208333333333334,-0.7759259259259259],[0.20208333333333334,-0.7759259259259259],[0.20208333333333334,-0.7759259259259259],[0.20208333333333334,-0.7759259259259259],[0.20208333333333334,-0.7759259259259259],[0.20208333333333334,-0.7759259259259259],[0.20208333333333334,-0.7759259259259259],[0.20208333333333334,-0.7759259259259259],[0.20208333333333334,-0.7759259259259259],[0.20208333333333334,-0.7759259259259259],[0.20208333333333334,-0.7759259259259259],[0.20208333333333334,-0.7759259259259259],[0.20208333333333334,-0.7759259259259259],[0.20208333333333334,-0.7759259259259259],[0.20208333333333334,-0.7759259259259259],[0.20208333333333334,-0.7759259259259259],[0.20208333333333334,-0.7759259259259259],[0.20208333333333334,-0.7759259259259259],[0.20208333333333334,-0.7759259259259259],[0.20208333333333334,-0.7759259259259259],[0.20208333333333334,-0.7759259259259259],[0.20208333333333334,-0.7759259259259259],[0.20208333333333334,-0.7759259259259259],[0.20208333333333334,-0.7759259259259259],[0.20208333333333334,-0.7759259259259259],[0.20208333333333334,-0.7759259259259259],[0.20208333333333334,-0.7759259259259259],[0.20208333333333334,-0.7759259259259259],[0.20208333333333334,-0.7759259259259259],[0.20208333333333334,-0.7759259259259259],[0.20208333333333334,-0.7759259259259259],[0.20208333333333334,-0.7759259259259259],[0.20208333333333334,-0.7759259259259259],[0.20208333333333334,-0.7759259259259259],[0.20208333333333334,-0.7759259259259259],[0.20208333333333334,-0.7759259259259259],[0.20208333333333334,-0.7759259259259259],[0.20208333333333334,-0.7759259259259259],[0.20208333333333334,-0.7759259259259259],[0.20208333333333334,-0.7759259259259259],[0.20208333333333334,-0.7759259259259259],[0.20208333333333334,-0.7759259259259259],[0.20208333333333334,-0.7759259259259259],[0.20208333333333334,-0.7759259259259259],[0.20208333333333334,-0.7759259259259259],[0.20208333333333334,-0.7759259259259259],[0.20208333333333334,-0.7759259259259259],[0.20208333333333334,-0.7759259259259259],[0.20208333333333334,-0.7759259259259259],[0.20208333333333334,-0.7759259259259259],[0.20208333333333334,-0.7759259259259259],[0.20208333333333334,-0.7759259259259259],[0.20208333333333334,-0.7759259259259259],[0.20208333333333334,-0.7759259259259259],[0.20208333333333334,-0.7759259259259259],[0.20208333333333334,-0.7759259259259259],[0.20208333333333334,-0.7759259259259259],[0.20208333333333334,-0.7759259259259259],[0.20208333333333334,-0.7759259259259259],[0.20208333333333334,-0.7759259259259259],[0.20208333333333334,-0.7759259259259259],[0.20208333333333334,-0.7759259259259259],[0.20208333333333334,-0.7759259259259259],[0.20208333333333334,-0.7759259259259259],[0.20208333333333334,-0.7759259259259259],[0.20208333333333334,-0.7759259259259259],[0.20208333333333334,-0.7759259259259259],[0.20208333333333334,-0.7759259259259259],[0.20208333333333334,-0.7759259259259259],[0.20208333333333334,-0.7759259259259259],[0.20208333333333334,-0.7759259259259259],[0.20208333333333334,-0.7759259259259259],[0.20208333333333334,-0.7759259259259259],[0.20208333333333334,-0.7759259259259259],[0.20208333333333334,-0.7759259259259259],[0.20208333333333334,-0.7759259259259259],[0.20208333333333334,-0.7759259259259259],[0.20208333333333334,-0.7759259259259259],[0.20208333333333334,-0.7759259259259259],[0.20208333333333334,-0.7759259259259259],[0.20208333333333334,-0.7759259259259259],[0.20104166666666667,-0.7759259259259259],[0.20104166666666667,-0.7759259259259259],[0.2,-0.7722222222222223],[0.2,-0.7722222222222223],[0.2,-0.7722222222222223],[0.2,-0.7722222222222223],[0.2,-0.7722222222222223],[0.2,-0.7722222222222223],[0.2,-0.7722222222222223],[0.2,-0.7722222222222223],[0.2,-0.7722222222222223],[0.2,-0.7722222222222223],[0.2,-0.7722222222222223],[0.19895833333333332,-0.7703703703703704],[0.196875,-0.7666666666666667],[0.19375,-0.7518518518518519],[0.1875,-0.7185185185185186],[0.18229166666666666,-0.674074074074074],[0.16875,-0.5925925925925926],[0.16354166666666667,-0.562962962962963],[0.14895833333333333,-0.4759259259259259],[0.128125,-0.34074074074074073],[0.12395833333333334,-0.2833333333333333],[0.11875,-0.2388888888888889],[0.115625,-0.19814814814814816],[0.11354166666666667,-0.1648148148148148],[0.11145833333333334,-0.12962962962962962],[0.109375,-0.1037037037037037],[0.10729166666666666,-0.06851851851851852],[0.10729166666666666,-0.03333333333333333],[0.10729166666666666,0.014814814814814815],[0.10729166666666666,0.04259259259259259],[0.109375,0.05185185185185185],[0.11041666666666666,0.05555555555555555],[0.11145833333333334,0.05740740740740741],[0.11354166666666667,0.06666666666666667],[0.11770833333333333,0.09259259259259259],[0.12395833333333334,0.1259259259259259],[0.128125,0.1537037037037037],[0.13020833333333334,0.17222222222222222],[0.13333333333333333,0.20555555555555555],[0.134375,0.22037037037037038],[0.1375,0.2518518518518518],[0.13958333333333334,0.2814814814814815],[0.14166666666666666,0.2962962962962963],[0.14375,0.30925925925925923],[0.14895833333333333,0.34074074074074073],[0.15208333333333332,0.3592592592592593],[0.153125,0.36666666666666664],[0.153125,0.37037037037037035],[0.153125,0.37037037037037035],[0.153125,0.37407407407407406],[0.153125,0.37407407407407406],[0.15520833333333334,0.3814814814814815],[0.15625,0.387037037037037],[0.15729166666666666,0.3888888888888889],[0.15729166666666666,0.3888888888888889],[0.15729166666666666,0.3888888888888889],[0.15729166666666666,0.3888888888888889],[0.15729166666666666,0.3888888888888889],[0.15729166666666666,0.3888888888888889],[0.15729166666666666,0.3888888888888889],[0.15729166666666666,0.3888888888888889],[0.15729166666666666,0.3888888888888889],[0.15729166666666666,0.3888888888888889],[0.15729166666666666,0.3888888888888889],[0.15729166666666666,0.3888888888888889],[0.15729166666666666,0.3888888888888889],[0.15729166666666666,0.3888888888888889],[0.15729166666666666,0.3888888888888889],[0.15729166666666666,0.3888888888888889],[0.15729166666666666,0.3888888888888889],[0.15729166666666666,0.3888888888888889],[0.15729166666666666,0.3888888888888889],[0.15729166666666666,0.3888888888888889],[0.15729166666666666,0.3888888888888889],[0.15729166666666666,0.3888888888888889],[0.15729166666666666,0.3888888888888889],[0.15729166666666666,0.3888888888888889],[0.15729166666666666,0.3888888888888889],[0.15729166666666666,0.3888888888888889],[0.15729166666666666,0.3888888888888889],[0.15729166666666666,0.3888888888888889],[0.15729166666666666,0.3888888888888889],[0.15729166666666666,0.3888888888888889],[0.15729166666666666,0.3888888888888889],[0.15729166666666666,0.3888888888888889],[0.15729166666666666,0.3888888888888889],[0.15729166666666666,0.3888888888888889],[0.15729166666666666,0.3888888888888889],[0.15729166666666666,0.3888888888888889],[0.15729166666666666,0.3888888888888889],[0.15729166666666666,0.3888888888888889],[0.15729166666666666,0.3888888888888889],[0.15729166666666666,0.3888888888888889],[0.15729166666666666,0.3888888888888889],[0.15729166666666666,0.3888888888888889],[0.15729166666666666,0.3888888888888889],[0.15729166666666666,0.3888888888888889],[0.15729166666666666,0.3888888888888889],[0.15729166666666666,0.3888888888888889],[0.15729166666666666,0.3888888888888889],[0.15729166666666666,0.3888888888888889],[0.15729166666666666,0.3888888888888889],[0.15729166666666666,0.3888888888888889],[0.15729166666666666,0.3888888888888889],[0.15729166666666666,0.3888888888888889],[0.15729166666666666,0.3888888888888889],[0.15729166666666666,0.3888888888888889],[0.15729166666666666,0.3888888888888889],[0.15729166666666666,0.3888888888888889],[0.15729166666666666,0.3888888888888889],[0.15729166666666666,0.3888888888888889],[0.15729166666666666,0.3888888888888889],[0.15729166666666666,0.3888888888888889],[0.15729166666666666,0.3888888888888889],[0.15729166666666666,0.3888888888888889]]","[[0.16114583333333338,0.44074074074074077],[0.16114583333333338,0.44074074074074077],[0.19135416666666671,0.4812962962962963],[0.19135416666666671,0.4812962962962963],[0.1794791666666666,0.4794444444444444],[0.17937500000000003,0.46351851851851844],[0.17489583333333342,0.4698148148148149],[0.18364583333333329,0.3985185185185186],[0.1794791666666666,0.3544444444444444],[0.18250000000000005,0.3172222222222221],[0.1622916666666666,0.25685185185185194],[0.125,0.1449999999999999],[0.09364583333333343,0.03481481481481473],[0.08864583333333324,-0.04611111111111107],[0.08864583333333324,-0.04611111111111107],[0.07645833333333343,-0.09592592592592594],[0.08989583333333329,-0.15685185185185183],[0.08322916666666676,-0.18592592592592588],[0.058437500000000024,-0.2294444444444444],[0.03145833333333338,-0.2337037037037037],[0.02781250000000005,-0.2705555555555556],[0.014479166666666644,-0.2977777777777778],[0.04020833333333336,-0.3],[0.06229166666666662,-0.24351851851851852],[0.051250000000000046,-0.24518518518518514],[0.0609375,-0.24166666666666667],[0.03322916666666664,-0.21296296296296297],[0.03322916666666664,-0.21296296296296297],[0.028958333333333287,-0.225],[0.01114583333333338,-0.21851851851851853],[0.02041666666666669,-0.2718518518518519],[-0.001145833333333357,-0.2735185185185185],[0.013854166666666619,-0.26537037037037037],[-0.004062499999999977,-0.21240740740740738],[-0.008020833333333382,-0.25388888888888894],[-0.05239583333333329,-0.2690740740740741],[-0.0828125,-0.3109259259259259],[-0.14906250000000001,-0.32888888888888895],[-0.19500000000000003,-0.3427777777777778],[-0.19500000000000003,-0.3427777777777778],[-0.24718749999999995,-0.3109259259259259],[-0.3008333333333333,-0.2837037037037037],[-0.34135416666666674,-0.2946296296296297],[-0.36875,-0.24000000000000005],[-0.4188541666666667,-0.2698148148148148],[-0.44625,-0.21722222222222223],[-0.44979166666666665,-0.14592592592592596],[-0.46468750000000003,-0.11055555555555553],[-0.444375,-0.09037037037037039],[-0.44333333333333336,-0.09111111111111109],[-0.43989583333333326,-0.11500000000000005],[-0.43989583333333326,-0.11500000000000005],[-0.4211458333333333,-0.11870370370370374],[-0.41427083333333337,-0.11833333333333329],[-0.4205208333333334,-0.18351851851851855],[-0.4205208333333334,-0.18351851851851855],[-0.4122916666666666,-0.14648148148148152],[-0.4122916666666666,-0.14648148148148152],[-0.44125000000000003,-0.19574074074074072],[-0.44552083333333337,-0.24611111111111106],[-0.4544791666666666,-0.25092592592592594],[-0.42916666666666664,-0.24129629629629631],[-0.3955208333333334,-0.17166666666666663],[-0.353125,-0.07999999999999997],[-0.3260416666666667,0.003888888888888931],[-0.30583333333333335,0.08759259259259251],[-0.26020833333333326,0.14370370370370375],[-0.24562499999999995,0.17740740740740732],[-0.2063541666666667,0.22740740740740734],[-0.2015625,0.2381481481481482],[-0.2046875,0.24648148148148152],[-0.21875,0.21574074074074073],[-0.22062499999999996,0.18777777777777774],[-0.19302083333333328,0.14129629629629623],[-0.16437499999999997,0.07240740740740745],[-0.0967708333333333,0.09092592592592597],[-0.0967708333333333,0.09092592592592597],[-0.05458333333333331,0.13703703703703704],[-0.0016666666666666904,0.08203703703703695],[-0.0016666666666666904,0.08203703703703695],[0.019375000000000024,0.1],[0.06114583333333338,0.15722222222222218],[0.12687499999999996,0.20722222222222217],[0.2013541666666666,0.2103703703703704],[0.2013541666666666,0.2103703703703704],[0.23583333333333342,0.28407407407407403],[0.21864583333333343,0.3635185185185184],[0.20666666666666675,0.48703703703703705],[0.1618750000000001,0.543148148148148],[0.12729166666666672,0.5151851851851853],[0.11208333333333324,0.57],[0.1258333333333333,0.585],[0.1258333333333333,0.585],[0.11156249999999991,0.5994444444444446],[0.11281249999999995,0.5274074074074073],[0.0787499999999999,0.6594444444444445],[0.0787499999999999,0.6594444444444445],[0.07708333333333334,0.6905555555555555],[0.09718749999999995,0.6229629629629629],[0.11645833333333329,0.562962962962963],[0.11645833333333329,0.562962962962963],[0.13583333333333342,0.5312962962962963],[0.1359375,0.5275925925925925],[0.1359375,0.5275925925925925],[0.12145833333333324,0.5522222222222223],[0.13093750000000004,0.4596296296296297],[0.13270833333333343,0.4740740740740741],[0.11739583333333338,0.553888888888889],[0.10593750000000005,0.49240740740740735],[0.10593750000000005,0.49240740740740735],[0.08552083333333324,0.4272222222222223],[0.03187500000000002,0.47537037037037044],[-0.025729166666666713,0.48648148148148157],[-0.03875000000000005,0.447037037037037],[-0.03875000000000005,0.447037037037037],[-0.042708333333333334,0.4637037037037037],[-0.042708333333333334,0.4637037037037037],[-0.043333333333333356,0.4844444444444445],[-0.06739583333333338,0.6322222222222221],[-0.0672916666666667,0.7053703703703703],[-0.065625,0.7996296296296296],[-0.065625,0.7996296296296296],[-0.06458333333333334,0.8475925925925927],[-0.04520833333333331,0.855185185185185],[-0.0009374999999999763,0.8388888888888889],[0.059375,0.7998148148148148],[0.07541666666666676,0.7775925925925925],[0.06114583333333338,0.8109259259259259],[0.06114583333333338,0.8109259259259259],[0.0515625,0.8405555555555555],[0.017708333333333333,0.7964814814814816],[0.03916666666666669,0.7475925925925927],[0.03166666666666664,0.6638888888888889],[0.03166666666666664,0.6638888888888889],[-0.0032291666666666905,0.6692592592592592],[-0.07354166666666669,0.7337037037037037],[-0.1438541666666667,0.7981481481481482],[-0.2211458333333333,0.8898148148148148],[-0.30281250000000004,1.0103703703703701],[-0.3572916666666667,1.038703703703704],[-0.39562499999999995,1.0399999999999998],[-0.39562499999999995,1.0399999999999998],[-0.39822916666666663,1.0325925925925925],[-0.4635416666666667,0.9931481481481481],[-0.4998958333333333,0.9885185185185185],[-0.5111458333333333,0.974259259259259],[-0.5016666666666667,0.9442592592592595],[-0.5016666666666667,0.9442592592592595],[-0.4922916666666667,0.8681481481481481],[-0.5121875,0.8588888888888888],[-0.5277083333333333,0.8207407407407408],[-0.5543750000000001,0.8237037037037036],[-0.5886458333333333,0.8270370370370371],[-0.5886458333333333,0.8270370370370371],[-0.6167708333333334,0.8772222222222223],[-0.6161458333333333,0.9546296296296296],[-0.6329166666666667,1.0307407407407405],[-0.6329166666666667,1.0307407407407405],[-0.6611458333333334,1.0677777777777777],[-0.6766666666666666,0.992962962962963],[-0.7017708333333333,1.061851851851852],[-0.7066666666666667,1.0594444444444442],[-0.6851041666666667,0.9948148148148149],[-0.6515625,0.9883333333333334],[-0.6345833333333334,0.9538888888888887],[-0.6230208333333334,0.9661111111111111],[-0.6217708333333333,0.8859259259259259],[-0.6160416666666666,0.7972222222222223],[-0.595625,0.6896296296296296],[-0.5722916666666666,0.7209259259259259],[-0.5456249999999999,0.6116666666666666],[-0.5029166666666667,0.5398148148148149],[-0.48666666666666664,0.5301851851851851],[-0.466875,0.4527777777777778],[-0.466875,0.4527777777777778],[-0.42916666666666664,0.39462962962962966],[-0.42916666666666664,0.39462962962962966],[-0.40677083333333336,0.2975925925925927],[-0.40677083333333336,0.2975925925925927],[-0.39791666666666664,0.2935185185185185],[-0.37552083333333336,0.26648148148148143],[-0.34041666666666665,0.25685185185185194],[-0.34041666666666665,0.25685185185185194],[-0.3008333333333333,0.18796296296296297],[-0.2548958333333334,0.16203703703703703],[-0.2139583333333333,0.0772222222222223],[-0.2139583333333333,0.0772222222222223],[-0.17979166666666668,0.005555555555555556],[-0.14895833333333333,-0.02814814814814823],[-0.12114583333333329,-0.047037037037036995],[-0.09333333333333335,-0.06592592592592597],[-0.07291666666666667,-0.11407407407407412],[-0.06749999999999995,-0.13037037037037033],[-0.08718750000000004,-0.07740740740740742],[-0.08718750000000004,-0.07740740740740742],[-0.12166666666666662,0.00851851851851856],[-0.15822916666666664,0.04888888888888885],[-0.19427083333333334,0.19796296296296292],[-0.2235416666666667,0.3338888888888888],[-0.25510416666666663,0.37333333333333335],[-0.27468750000000003,0.46351851851851844],[-0.29333333333333333,0.5051851851851851],[-0.30145833333333333,0.5544444444444444],[-0.30145833333333333,0.5544444444444444],[-0.30833333333333335,0.5822222222222222],[-0.30833333333333335,0.5822222222222222],[-0.30406249999999996,0.6118518518518518],[-0.30354166666666665,0.5744444444444445],[-0.3203125,0.5922222222222221],[-0.3297916666666667,0.5053703703703704],[-0.33927083333333335,0.4185185185185185],[-0.34874999999999995,0.36277777777777775],[-0.37052083333333335,0.24814814814814815],[-0.3998958333333333,0.1772222222222223],[-0.41760416666666667,0.11925925925925922],[-0.41760416666666667,0.11925925925925922],[-0.409375,0.11592592592592597],[-0.3975,0.03037037037037033],[-0.381875,0.01185185185185181],[-0.3422916666666667,-0.003888888888888931],[-0.3271875,-0.013888888888888888],[-0.2695833333333333,-0.04333333333333329],[-0.2695833333333333,-0.04333333333333329],[-0.20437500000000006,0.0514814814814814],[-0.1454166666666667,0.11277777777777774],[-0.08218749999999998,0.16796296296296304],[-0.02791666666666662,0.21870370370370373],[-0.02791666666666662,0.21870370370370373],[0.014479166666666644,0.24277777777777781],[0.06322916666666671,0.31666666666666665],[0.11197916666666667,0.3905555555555555],[0.15322916666666658,0.41444444444444434],[0.15322916666666658,0.41444444444444434],[0.20770833333333344,0.4485185185185186],[0.20770833333333344,0.4485185185185186],[0.20739583333333325,0.5248148148148147],[0.20979166666666677,0.49444444444444446],[0.2133333333333333,0.49000000000000005],[0.21927083333333333,0.4964814814814815],[0.21302083333333333,0.5098148148148147],[0.20583333333333323,0.5175925925925926],[0.18677083333333327,0.4711111111111111],[0.16770833333333332,0.4246296296296295],[0.1414583333333333,0.3853703703703704],[0.103125,0.3731481481481482],[0.08791666666666677,0.4403703703703703],[0.06677083333333324,0.5225925925925927],[0.03708333333333336,0.5557407407407408],[-0.008541666666666715,0.5727777777777777],[-0.028125,0.5118518518518518],[-0.028125,0.5118518518518518],[-0.04812500000000005,0.48648148148148157],[-0.03989583333333328,0.43074074074074076],[-0.014583333333333334,0.4542592592592592],[0.01854166666666662,0.5227777777777777],[0.036145833333333384,0.4933333333333333],[0.04510416666666662,0.36277777777777775],[0.051874999999999956,0.23111111111111102],[0.08354166666666671,0.18037037037037032],[0.11958333333333329,0.1307407407407408],[0.1415625000000001,0.15907407407407403],[0.16416666666666657,0.1175925925925926],[0.16135416666666677,0.1294444444444444],[0.14177083333333323,0.08796296296296297],[0.12447916666666667,0.03185185185185194],[0.12322916666666663,0.0242592592592593],[0.11979166666666667,0.015555555555555513],[0.12406249999999991,-0.0012962962962963806],[0.11708333333333343,-0.042407407407407366],[0.12708333333333333,-0.05129629629629638],[0.1345833333333334,-0.07555555555555557],[0.146875,0.02111111111111107],[0.146875,0.02111111111111107],[0.15489583333333337,0.09759259259259268],[0.17333333333333342,0.11370370370370367],[0.18291666666666656,0.16962962962962966],[0.19645833333333323,0.24944444444444452],[0.2055208333333333,0.3111111111111111],[0.20906250000000004,0.38203703703703695],[0.22552083333333334,0.455925925925926],[0.22552083333333334,0.455925925925926],[0.22208333333333338,0.4922222222222221],[0.2353125000000001,0.549074074074074],[0.2478125000000001,0.47240740740740744],[0.2478125000000001,0.47240740740740744],[0.24864583333333337,0.4414814814814814],[0.24677083333333344,0.42666666666666664],[0.2564583333333334,0.35907407407407405],[0.2564583333333334,0.35907407407407405],[0.26614583333333336,0.29148148148148145],[0.2515625,0.25018518518518523],[0.2146874999999999,0.1933333333333333],[0.2146874999999999,0.1933333333333333],[0.17677083333333338,0.1772222222222223],[0.17677083333333338,0.1772222222222223],[0.1599999999999999,0.20666666666666672],[0.1599999999999999,0.20666666666666672],[0.11114583333333337,0.23444444444444448],[0.06614583333333333,0.26888888888888896],[0.0140625,0.2770370370370371],[0.0140625,0.2770370370370371],[-0.04604166666666672,0.30351851851851847],[-0.09937499999999998,0.3698148148148149],[-0.15395833333333328,0.43203703703703694],[-0.17979166666666668,0.4861111111111111],[-0.17979166666666668,0.4861111111111111],[-0.2033333333333334,0.5287037037037037],[-0.2202083333333333,0.5355555555555557],[-0.24375,0.5172222222222221],[-0.2491666666666667,0.5031481481481482],[-0.2627083333333334,0.5292592592592592],[-0.25031249999999994,0.5716666666666668],[-0.23552083333333335,0.5881481481481482],[-0.22947916666666662,0.5449999999999999],[-0.23239583333333336,0.494074074074074],[-0.24885416666666665,0.46222222222222226],[-0.24885416666666665,0.46222222222222226],[-0.2453125,0.45740740740740743],[-0.2521875,0.48333333333333334],[-0.26322916666666674,0.5075925925925926],[-0.26322916666666674,0.5075925925925926],[-0.27697916666666667,0.5087037037037038],[-0.28531249999999997,0.49740740740740746],[-0.25895833333333335,0.49907407407407406],[-0.25895833333333335,0.49907407407407406],[-0.23500000000000001,0.5266666666666666],[-0.20885416666666667,0.4964814814814815],[-0.1476041666666667,0.5390740740740741],[-0.07281249999999997,0.5625925925925925],[0.001979166666666643,0.5861111111111111],[0.06864583333333343,0.5657407407407408],[0.06864583333333343,0.5657407407407408],[0.15499999999999994,0.5553703703703703],[0.23968749999999991,0.5433333333333333],[0.3189583333333334,0.5437037037037038],[0.34135416666666674,0.4740740740740741],[0.35343749999999996,0.4668518518518519],[0.35343749999999996,0.4668518518518519],[0.3546875,0.49370370370370376],[0.3414583333333333,0.45185185185185184],[0.3228125000000001,0.42777777777777776],[0.3228125000000001,0.42777777777777776],[0.3030208333333334,0.44351851851851853],[0.28885416666666663,0.4051851851851851],[0.2538541666666667,0.35351851851851845],[0.2538541666666667,0.35351851851851845],[0.2117708333333333,0.2837037037037038],[0.19739583333333333,0.2814814814814815],[0.17291666666666666,0.29240740740740734],[0.17291666666666666,0.29240740740740734],[0.17312500000000006,0.23555555555555563],[0.16989583333333325,0.19222222222222213],[0.16052083333333325,0.19370370370370374],[0.16052083333333325,0.19370370370370374],[0.15281250000000005,0.1609259259259259],[0.15364583333333334,0.05851851851851856],[0.15364583333333334,0.05851851851851856],[0.14322916666666666,0.0418518518518519],[0.1382291666666667,0.025370370370370456],[0.13239583333333324,0.05740740740740741],[0.10958333333333338,-0.008888888888888804],[0.10572916666666667,-0.01796296296296305],[0.0875,-0.02166666666666675],[0.0875,-0.02166666666666675],[0.10416666666666667,-0.0014814814814813973],[0.1021874999999999,0.007407407407407408],[0.10729166666666666,-0.014629629629629588],[0.10729166666666666,-0.014629629629629588],[0.10822916666666677,0.07351851851851861],[0.09927083333333328,0.07518518518518523],[0.09020833333333324,0.0816666666666667],[0.10864583333333329,0.08574074074074066],[0.13114583333333343,0.15759259259259265],[0.1640625,0.20055555555555546],[0.1640625,0.20055555555555546],[0.18177083333333333,0.17796296296296302],[0.1759375000000001,0.17444444444444454],[0.18447916666666658,0.14518518518518514],[0.18447916666666658,0.14518518518518514],[0.19572916666666676,0.15],[0.20604166666666662,0.07611111111111116],[0.2178124999999999,0.0477777777777777],[0.22958333333333342,0.019444444444444445],[0.22979166666666656,-0.03555555555555564],[0.21822916666666667,-0.1522222222222222],[0.19874999999999995,-0.2681481481481482],[0.19874999999999995,-0.2681481481481482],[0.1944791666666667,-0.31851851851851853],[0.1974999999999999,-0.37407407407407406],[0.20729166666666668,-0.3544444444444444],[0.20729166666666668,-0.3544444444444444],[0.21104166666666657,-0.32148148148148153],[0.20020833333333338,-0.30907407407407406],[0.1944791666666667,-0.3212962962962963],[0.1944791666666667,-0.3212962962962963],[0.18875000000000006,-0.33351851851851855],[0.18791666666666676,-0.3014814814814815],[0.18624999999999994,-0.2494444444444444],[0.19249999999999995,-0.19814814814814816],[0.21062500000000003,-0.16407407407407412],[0.22145833333333323,-0.12481481481481477],[0.20864583333333328,-0.17222222222222222],[0.19583333333333333,-0.21962962962962967],[0.2087500000000001,-0.23629629629629634],[0.2087500000000001,-0.23629629629629634],[0.2306250000000001,-0.21388888888888888],[0.2509375000000001,-0.19074074074074074],[0.25833333333333336,-0.22518518518518524],[0.2660416666666668,-0.25],[0.2591666666666666,-0.2801851851851852],[0.2404166666666666,-0.29314814814814816],[0.22791666666666663,-0.2753703703703704],[0.22791666666666663,-0.2753703703703704],[0.23229166666666667,-0.24611111111111106],[0.23229166666666667,-0.24611111111111106],[0.22645833333333343,-0.24222222222222226],[0.15875000000000009,-0.21629629629629632],[0.11583333333333339,-0.13481481481481483],[0.03708333333333336,-0.1227777777777778],[0.03708333333333336,-0.1227777777777778],[-0.03999999999999997,-0.09703703703703699],[-0.1014583333333333,-0.09351851851851851],[-0.10239583333333328,-0.04944444444444453],[-0.10239583333333328,-0.04944444444444453],[-0.10302083333333331,-0.003888888888888931],[-0.10791666666666669,0.0257407407407407],[-0.11281249999999995,0.05537037037037033],[-0.13385416666666666,0.0794444444444444],[-0.09822916666666662,0.0868518518518518],[-0.12625000000000006,0.043703703703703745],[-0.11687500000000005,0.06925925925925921],[-0.11687500000000005,0.06925925925925921],[-0.11468750000000003,0.07111111111111107],[-0.1336458333333333,0.05611111111111103],[-0.1336458333333333,0.05611111111111103],[-0.19864583333333338,0.00592592592592601],[-0.2670833333333333,-0.08314814814814811],[-0.32781250000000006,-0.15111111111111114],[-0.38687499999999997,-0.21222222222222226]]","[[0.16114583333333338,0.44074074074074077,0.0002999999523112251],[0.16114583333333338,0.44074074074074077,0.04539999997615496],[0.19135416666666671,0.4812962962962963,0.05889999997615547],[0.19135416666666671,0.4812962962962963,0.07709999996423278],[0.1794791666666666,0.4794444444444444,0.09289999997615439],[0.17937500000000003,0.46351851851851844,0.10889999997615263],[0.17489583333333342,0.4698148148148149,0.1257999999523136],[0.18364583333333329,0.3985185185185186,0.14289999997615155],[0.1794791666666666,0.3544444444444444,0.15809999996423585],[0.18250000000000005,0.3172222222222221,0.17279999995231066],[0.1622916666666666,0.25685185185185194,0.18979999995231367],[0.125,0.1449999999999999,0.20639999997615632],[0.09364583333333343,0.03481481481481473,0.22279999995231492],[0.08864583333333324,-0.04611111111111107,0.2395999999642342],[0.08864583333333324,-0.04611111111111107,0.25619999998807685],[0.07645833333333343,-0.09592592592592594,0.2727999999523121],[0.08989583333333329,-0.15685185185185183,0.28939999997615473],[0.08322916666666676,-0.18592592592592588,0.306099999964232],[0.058437500000000024,-0.2294444444444444,0.323099999964235],[0.03145833333333338,-0.2337037037037037,0.3418999999761567],[0.02781250000000005,-0.2705555555555556,0.3562999999523129],[0.014479166666666644,-0.2977777777777778,0.3727999999523135],[0.04020833333333336,-0.3,0.39289999997615155],[0.06229166666666662,-0.24351851851851852,0.40749999999999886],[0.051250000000000046,-0.24518518518518514,0.4228999999761527],[0.0609375,-0.24166666666666667,0.43949999999999534],[0.03322916666666664,-0.21296296296296297,0.4568999999761516],[0.03322916666666664,-0.21296296296296297,0.4727999999523149],[0.028958333333333287,-0.225,0.4894999999999996],[0.01114583333333338,-0.21851851851851853,0.5061999999880769],[0.02041666666666669,-0.2718518518518519,0.5226999999880775],[-0.001145833333333357,-0.2735185185185185,0.5393999999761547],[0.013854166666666619,-0.26537037037037037,0.556899999976153],[-0.004062499999999977,-0.21240740740740738,0.5728999999761513],[-0.008020833333333382,-0.25388888888888894,0.5894999999999939],[-0.05239583333333329,-0.2690740740740741,0.6089999999999947],[-0.0828125,-0.3109259259259259,0.625],[-0.14906250000000001,-0.32888888888888895,0.6394999999999982],[-0.19500000000000003,-0.3427777777777778,0.6579999999999941],[-0.19500000000000003,-0.3427777777777778,0.6727999999523107],[-0.24718749999999995,-0.3109259259259259,0.6894999999999953],[-0.3008333333333333,-0.2837037037037037,0.7061999999880726],[-0.34135416666666674,-0.2946296296296297,0.7227999999523149],[-0.36875,-0.24000000000000005,0.7431999999880787],[-0.4188541666666667,-0.2698148148148148,0.7581999999880722],[-0.44625,-0.21722222222222223,0.7750999999642332],[-0.44979166666666665,-0.14592592592592596,0.7894999999999968],[-0.46468750000000003,-0.11055555555555553,0.8066999999880764],[-0.444375,-0.09037037037037039,0.8241999999880747],[-0.44333333333333336,-0.09111111111111109,0.8394999999999939],[-0.43989583333333326,-0.11500000000000005,0.8573999999761526],[-0.43989583333333326,-0.11500000000000005,0.8727999999523135],[-0.4211458333333333,-0.11870370370370374,0.8893999999761562],[-0.41427083333333337,-0.11833333333333329,0.9061999999880754],[-0.4205208333333334,-0.18351851851851855,0.9260999999642365],[-0.4205208333333334,-0.18351851851851855,0.939599999964237],[-0.4122916666666666,-0.14648148148148152,0.9561999999880726],[-0.4122916666666666,-0.14648148148148152,0.9727999999523149],[-0.44125000000000003,-0.19574074074074072,0.9894999999999996],[-0.44552083333333337,-0.24611111111111106,1.0063999999761535],[-0.4544791666666666,-0.25092592592592594,1.0233999999761565],[-0.42916666666666664,-0.24129629629629631,1.0393999999761547],[-0.3955208333333334,-0.17166666666666663,1.0566999999880764],[-0.353125,-0.07999999999999997,1.0744999999999933],[-0.3260416666666667,0.003888888888888931,1.0896999999880776],[-0.30583333333333335,0.08759259259259251,1.1062999999523129],[-0.26020833333333326,0.14370370370370375,1.122699999988079],[-0.24562499999999995,0.17740740740740732,1.141999999999996],[-0.2063541666666667,0.22740740740740734,1.1592999999523101],[-0.2015625,0.2381481481481482,1.1764999999999972],[-0.2046875,0.24648148148148152,1.1932999999523162],[-0.21875,0.21574074074074073,1.2091999999880727],[-0.22062499999999996,0.18777777777777774,1.2263999999761523],[-0.19302083333333328,0.14129629629629623,1.2417999999523133],[-0.16437499999999997,0.07240740740740745,1.2580999999642302],[-0.0967708333333333,0.09092592592592597,1.272899999976154],[-0.0967708333333333,0.09092592592592597,1.2894999999999968],[-0.05458333333333331,0.13703703703703704,1.306099999964232],[-0.0016666666666666904,0.08203703703703695,1.3280999999642304],[-0.0016666666666666904,0.08203703703703695,1.339499999999994],[0.019375000000000024,0.1,1.3561999999880783],[0.06114583333333338,0.15722222222222218,1.3727999999523135],[0.12687499999999996,0.20722222222222217,1.3914999999999935],[0.2013541666666666,0.2103703703703704,1.4060999999642334],[0.2013541666666666,0.2103703703703704,1.4253999999761575],[0.23583333333333342,0.28407407407407403,1.4394999999999953],[0.21864583333333343,0.3635185185185184,1.458099999964233],[0.20666666666666675,0.48703703703703705,1.472799999952315],[0.1618750000000001,0.543148148148148,1.4908999999761576],[0.12729166666666672,0.5151851851851853,1.5068999999761559],[0.11208333333333324,0.57,1.522899999976154],[0.1258333333333333,0.585,1.5428999999761572],[0.1258333333333333,0.585,1.5562999999523157],[0.11156249999999991,0.5994444444444446,1.5729999999999933],[0.11281249999999995,0.5274074074074073,1.5928999999761544],[0.0787499999999999,0.6594444444444445,1.608699999988076],[0.0787499999999999,0.6594444444444445,1.6228999999761555],[0.07708333333333334,0.6905555555555555,1.6397999999523094],[0.09718749999999995,0.6229629629629629,1.6608999999761522],[0.11645833333333329,0.562962962962963,1.6760999999642365],[0.11645833333333329,0.562962962962963,1.689599999964237],[0.13583333333333342,0.5312962962962963,1.7063999999761563],[0.1359375,0.5275925925925925,1.7263999999761523],[0.1359375,0.5275925925925925,1.7395999999642342],[0.12145833333333324,0.5522222222222223,1.7565999999642372],[0.13093750000000004,0.4596296296296297,1.777699999988073],[0.13270833333333343,0.4740740740740741,1.7932999999523105],[0.11739583333333338,0.553888888888889,1.809099999964232],[0.10593750000000005,0.49240740740740735,1.8303999999761515],[0.10593750000000005,0.49240740740740735,1.8395999999642356],[0.08552083333333324,0.4272222222222223,1.8561999999880783],[0.03187500000000002,0.47537037037037044,1.8727999999523135],[-0.025729166666666713,0.48648148148148157,1.8894999999999982],[-0.03875000000000005,0.447037037037037,1.9100999999642312],[-0.03875000000000005,0.447037037037037,1.9228999999761527],[-0.042708333333333334,0.4637037037037037,1.9394999999999953],[-0.042708333333333334,0.4637037037037037,1.9561999999880726],[-0.043333333333333356,0.4844444444444445,1.972799999952315],[-0.06739583333333338,0.6322222222222221,1.9893999999761576],[-0.0672916666666667,0.7053703703703703,2.006099999964235],[-0.065625,0.7996296296296296,2.022899999976154],[-0.065625,0.7996296296296296,2.0394999999999968],[-0.06458333333333334,0.8475925925925927,2.056199999988074],[-0.04520833333333331,0.855185185185185,2.0726999999880746],[-0.0009374999999999763,0.8388888888888889,2.089499999999994],[0.059375,0.7998148148148148,2.1075999999642363],[0.07541666666666676,0.7775925925925925,2.1257999999523136],[0.06114583333333338,0.8109259259259259,2.1437999999523143],[0.06114583333333338,0.8109259259259259,2.1560999999642334],[0.0515625,0.8405555555555555,2.1727999999523107],[0.017708333333333333,0.7964814814814816,2.1900999999642323],[0.03916666666666669,0.7475925925925927,2.207499999999996],[0.03166666666666664,0.6638888888888889,2.2261999999880757],[0.03166666666666664,0.6638888888888889,2.2393999999761576],[-0.0032291666666666905,0.6692592592592592,2.256099999964235],[-0.07354166666666669,0.7337037037037037,2.2732999999523145],[-0.1438541666666667,0.7981481481481482,2.2893999999761547],[-0.2211458333333333,0.8898148148148148,2.307899999976158],[-0.30281250000000004,1.0103703703703701,2.3235999999642303],[-0.3572916666666667,1.038703703703704,2.339399999976152],[-0.39562499999999995,1.0399999999999998,2.359499999999997],[-0.39562499999999995,1.0399999999999998,2.3727999999523135],[-0.39822916666666663,1.0325925925925925,2.389399999976156],[-0.4635416666666667,0.9931481481481481,2.40629999995231],[-0.4998958333333333,0.9885185185185185,2.4236999999880737],[-0.5111458333333333,0.974259259259259,2.442199999988077],[-0.5016666666666667,0.9442592592592595,2.4600999999642355],[-0.5016666666666667,0.9442592592592595,2.472799999952315],[-0.4922916666666667,0.8681481481481481,2.4894999999999996],[-0.5121875,0.8588888888888888,2.5077999999523115],[-0.5277083333333333,0.8207407407407408,2.525499999999994],[-0.5543750000000001,0.8237037037037036,2.542299999952313],[-0.5886458333333333,0.8270370370370371,2.558499999999995],[-0.5886458333333333,0.8270370370370371,2.5727999999523092],[-0.6167708333333334,0.8772222222222223,2.5895999999642356],[-0.6161458333333333,0.9546296296296296,2.607999999999997],[-0.6329166666666667,1.0307407407407405,2.626399999976158],[-0.6329166666666667,1.0307407407407405,2.639499999999998],[-0.6611458333333334,1.0677777777777777,2.6561999999880754],[-0.6766666666666666,0.992962962962963,2.6729999999999947],[-0.7017708333333333,1.061851851851852,2.6893999999761533],[-0.7066666666666667,1.0594444444444442,2.7071999999880774],[-0.6851041666666667,0.9948148148148149,2.7234999999999943],[-0.6515625,0.9883333333333334,2.739599999964234],[-0.6345833333333334,0.9538888888888887,2.7587999999523163],[-0.6230208333333334,0.9661111111111111,2.775199999988075],[-0.6217708333333333,0.8859259259259259,2.7926999999880735],[-0.6160416666666666,0.7972222222222223,2.809199999988074],[-0.595625,0.6896296296296296,2.825399999976156],[-0.5722916666666666,0.7209259259259259,2.8433999999761568],[-0.5456249999999999,0.6116666666666666,2.860899999976155],[-0.5029166666666667,0.5398148148148149,2.8773999999761557],[-0.48666666666666664,0.5301851851851851,2.8938999999761563],[-0.466875,0.4527777777777778,2.9128999999761547],[-0.466875,0.4527777777777778,2.927399999976153],[-0.42916666666666664,0.39462962962962966,2.9420999999642348],[-0.42916666666666664,0.39462962962962966,2.9560999999642306],[-0.40677083333333336,0.2975925925925927,2.972799999952315],[-0.40677083333333336,0.2975925925925927,2.9893999999761576],[-0.39791666666666664,0.2935185185185185,3.006099999964235],[-0.37552083333333336,0.26648148148148143,3.024399999976154],[-0.34041666666666665,0.25685185185185194,3.0400999999642337],[-0.34041666666666665,0.25685185185185194,3.056099999964232],[-0.3008333333333333,0.18796296296296297,3.0727999999523092],[-0.2548958333333334,0.16203703703703703,3.089499999999994],[-0.2139583333333333,0.0772222222222223,3.1080999999642316],[-0.2139583333333333,0.0772222222222223,3.1227999999523135],[-0.17979166666666668,0.005555555555555556,3.139499999999998],[-0.14895833333333333,-0.02814814814814823,3.1590999999642335],[-0.12114583333333329,-0.047037037037036995,3.1750999999642318],[-0.09333333333333335,-0.06592592592592597,3.192799999952314],[-0.07291666666666667,-0.11407407407407412,3.2082999999523096],[-0.06749999999999995,-0.13037037037037033,3.2253999999761547],[-0.08718750000000004,-0.07740740740740742,3.242099999964232],[-0.08718750000000004,-0.07740740740740742,3.256099999964235],[-0.12166666666666662,0.00851851851851856,3.2726999999880775],[-0.15822916666666664,0.04888888888888885,3.2893999999761547],[-0.19427083333333334,0.19796296296296292,3.306199999988074],[-0.2235416666666667,0.3338888888888888,3.324599999964235],[-0.25510416666666663,0.37333333333333335,3.3426999999880778],[-0.27468750000000003,0.46351851851851844,3.360199999988076],[-0.29333333333333333,0.5051851851851851,3.3765999999642347],[-0.30145833333333333,0.5544444444444444,3.3951999999880726],[-0.30145833333333333,0.5544444444444444,3.4061999999880754],[-0.30833333333333335,0.5822222222222222,3.4227999999523107],[-0.30833333333333335,0.5822222222222222,3.4394999999999953],[-0.30406249999999996,0.6118518518518518,3.4560999999642306],[-0.30354166666666665,0.5744444444444445,3.4756999999880733],[-0.3203125,0.5922222222222221,3.4915999999642366],[-0.3297916666666667,0.5053703703703704,3.508899999976151],[-0.33927083333333335,0.4185185185185185,3.5262999999523146],[-0.34874999999999995,0.36277777777777775,3.5433999999761525],[-0.37052083333333335,0.24814814814814815,3.5603999999761555],[-0.3998958333333333,0.1772222222222223,3.577099999964233],[-0.41760416666666667,0.11925925925925922,3.594599999964231],[-0.41760416666666667,0.11925925925925922,3.6060999999642362],[-0.409375,0.11592592592592597,3.6227999999523135],[-0.3975,0.03037037037037033,3.639499999999998],[-0.381875,0.01185185185185181,3.658899999976157],[-0.3422916666666667,-0.003888888888888931,3.6743999999761527],[-0.3271875,-0.013888888888888888,3.690499999999993],[-0.2695833333333333,-0.04333333333333329,3.7062999999523143],[-0.2695833333333333,-0.04333333333333329,3.727499999999999],[-0.20437500000000006,0.0514814814814814,3.7393999999761576],[-0.1454166666666667,0.11277777777777774,3.7593999999761536],[-0.08218749999999998,0.16796296296296304,3.775499999999994],[-0.02791666666666662,0.21870370370370373,3.790899999976155],[-0.02791666666666662,0.21870370370370373,3.8059999999999974],[0.014479166666666644,0.24277777777777781,3.8227999999523092],[0.06322916666666671,0.31666666666666665,3.839499999999994],[0.11197916666666667,0.3905555555555555,3.8582999999523153],[0.15322916666666658,0.41444444444444434,3.877899999976158],[0.15322916666666658,0.41444444444444434,3.8951999999880726],[0.20770833333333344,0.4485185185185186,3.9123999999761523],[0.20770833333333344,0.4485185185185186,3.9227999999523107],[0.20739583333333325,0.5248148148148147,3.939599999964237],[0.20979166666666677,0.49444444444444446,3.9591999999880727],[0.2133333333333333,0.49000000000000005,3.9740999999642312],[0.21927083333333333,0.4964814814814815,3.9894999999999996],[0.21302083333333333,0.5098148148148147,4.009199999988077],[0.20583333333333323,0.5175925925925926,4.022799999952312],[0.18677083333333327,0.4711111111111111,4.039699999988073],[0.16770833333333332,0.4246296296296295,4.056099999964232],[0.1414583333333333,0.3853703703703704,4.07659999996423],[0.103125,0.3731481481481482,4.090899999976152],[0.08791666666666677,0.4403703703703703,4.106099999964236],[0.06677083333333324,0.5225925925925927,4.122699999988079],[0.03708333333333336,0.5557407407407408,4.143999999999998],[-0.008541666666666715,0.5727777777777777,4.1590999999642335],[-0.028125,0.5118518518518518,4.1753999999761575],[-0.028125,0.5118518518518518,4.189399999976153],[-0.04812500000000005,0.48648148148148157,4.206099999964231],[-0.03989583333333328,0.43074074074074076,4.222799999952315],[-0.014583333333333334,0.4542592592592592,4.239899999976153],[0.01854166666666662,0.5227777777777777,4.2562999999523115],[0.036145833333333384,0.4933333333333333,4.2741999999880775],[0.04510416666666662,0.36277777777777775,4.289499999999997],[0.051874999999999956,0.23111111111111102,4.306099999964232],[0.08354166666666671,0.18037037037037032,4.322899999976151],[0.11958333333333329,0.1307407407407408,4.339399999976152],[0.1415625000000001,0.15907407407407403,4.357499999999995],[0.16416666666666657,0.1175925925925926,4.3727999999523135],[0.16135416666666677,0.1294444444444444,4.393099999964235],[0.14177083333333323,0.08796296296296297,4.409499999999994],[0.12447916666666667,0.03185185185185194,4.424999999999997],[0.12322916666666663,0.0242592592592593,4.439599999964237],[0.11979166666666667,0.015555555555555513,4.456099999964231],[0.12406249999999991,-0.0012962962962963806,4.472999999999999],[0.11708333333333343,-0.042407407407407366,4.489399999976158],[0.12708333333333333,-0.05129629629629638,4.506099999964235],[0.1345833333333334,-0.07555555555555557,4.522799999952312],[0.146875,0.02111111111111107,4.539499999999997],[0.146875,0.02111111111111107,4.556199999988074],[0.15489583333333337,0.09759259259259268,4.572799999952309],[0.17333333333333342,0.11370370370370367,4.589499999999994],[0.18291666666666656,0.16962962962962966,4.606099999964236],[0.19645833333333323,0.24944444444444452,4.624499999999998],[0.2055208333333333,0.3111111111111111,4.639499999999998],[0.20906250000000004,0.38203703703703695,4.65629999995231],[0.22552083333333334,0.455925925925926,4.672899999976153],[0.22552083333333334,0.455925925925926,4.689499999999995],[0.22208333333333338,0.4922222222222221,4.706099999964231],[0.2353125000000001,0.549074074074074,4.722999999999999],[0.2478125000000001,0.47240740740740744,4.739399999976158],[0.2478125000000001,0.47240740740740744,4.7562999999523115],[0.24864583333333337,0.4414814814814814,4.7726999999880775],[0.24677083333333344,0.42666666666666664,4.789499999999997],[0.2564583333333334,0.35907407407407405,4.806099999964232],[0.2564583333333334,0.35907407407407405,4.822699999988075],[0.26614583333333336,0.29148148148148145,4.839499999999994],[0.2515625,0.25018518518518523,4.859899999976157],[0.2146874999999999,0.1933333333333333,4.875899999976156],[0.2146874999999999,0.1933333333333333,4.889399999976156],[0.17677083333333338,0.1772222222222223,4.906199999988075],[0.17677083333333338,0.1772222222222223,4.922799999952311],[0.1599999999999999,0.20666666666666672,4.939499999999995],[0.1599999999999999,0.20666666666666672,4.956199999988073],[0.11114583333333337,0.23444444444444448,4.972699999988073],[0.06614583333333333,0.26888888888888896,4.989399999976158],[0.0140625,0.2770370370370371,5.006099999964235],[0.0140625,0.2770370370370371,5.022799999952312],[-0.04604166666666672,0.30351851851851847,5.039399999976155],[-0.09937499999999998,0.3698148148148149,5.058499999999995],[-0.15395833333333328,0.43203703703703694,5.073099999964235],[-0.17979166666666668,0.4861111111111111,5.08929999995231],[-0.17979166666666668,0.4861111111111111,5.106099999964236],[-0.2033333333333334,0.5287037037037037,5.1227999999523135],[-0.2202083333333333,0.5355555555555557,5.139599999964233],[-0.24375,0.5172222222222221,5.15929999995231],[-0.2491666666666667,0.5031481481481482,5.174499999999995],[-0.2627083333333334,0.5292592592592592,5.189399999976153],[-0.25031249999999994,0.5716666666666668,5.206099999964231],[-0.23552083333333335,0.5881481481481482,5.224699999988076],[-0.22947916666666662,0.5449999999999999,5.241299999952311],[-0.23239583333333336,0.494074074074074,5.2563999999761535],[-0.24885416666666665,0.46222222222222226,5.272799999952312],[-0.24885416666666665,0.46222222222222226,5.289499999999997],[-0.2453125,0.45740740740740743,5.306099999964232],[-0.2521875,0.48333333333333334,5.327099999964233],[-0.26322916666666674,0.5075925925925926,5.343499999999999],[-0.26322916666666674,0.5075925925925926,5.356399999976155],[-0.27697916666666667,0.5087037037037038,5.372699999988079],[-0.28531249999999997,0.49740740740740746,5.393599999964231],[-0.25895833333333335,0.49907407407407406,5.408699999988073],[-0.25895833333333335,0.49907407407407406,5.422999999999995],[-0.23500000000000001,0.5266666666666666,5.439399999976153],[-0.20885416666666667,0.4964814814814815,5.458099999964233],[-0.1476041666666667,0.5390740740740741,5.472899999976157],[-0.07281249999999997,0.5625925925925925,5.489399999976158],[0.001979166666666643,0.5861111111111111,5.50959999996423],[0.06864583333333343,0.5657407407407408,5.525599999964236],[0.06864583333333343,0.5657407407407408,5.539499999999997],[0.15499999999999994,0.5553703703703703,5.556099999964232],[0.23968749999999991,0.5433333333333333,5.576699999988072],[0.3189583333333334,0.5437037037037038,5.593199999988073],[0.34135416666666674,0.4740740740740741,5.610499999999995],[0.35343749999999996,0.4668518518518519,5.626199999988074],[0.35343749999999996,0.4668518518518519,5.639599999964233],[0.3546875,0.49370370370370376,5.65629999995231],[0.3414583333333333,0.45185185185185184,5.675599999964234],[0.3228125000000001,0.42777777777777776,5.691699999988074],[0.3228125000000001,0.42777777777777776,5.706199999988073],[0.3030208333333334,0.44351851851851853,5.726499999999994],[0.28885416666666663,0.4051851851851851,5.744],[0.2538541666666667,0.35351851851851845,5.760899999976154],[0.2538541666666667,0.35351851851851845,5.776999999999994],[0.2117708333333333,0.2837037037037038,5.789599999964231],[0.19739583333333333,0.2814814814814815,5.810699999988074],[0.17291666666666666,0.29240740740740734,5.829299999952312],[0.17291666666666666,0.29240740740740734,5.839599999964236],[0.17312500000000006,0.23555555555555563,5.856399999976155],[0.16989583333333325,0.19222222222222213,5.8735],[0.16052083333333325,0.19370370370370374,5.893299999952312],[0.16052083333333325,0.19370370370370374,5.906399999976152],[0.15281250000000005,0.1609259259259259,5.923099999964236],[0.15364583333333334,0.05851851851851856,5.951399999976154],[0.15364583333333334,0.05851851851851856,5.9608999999761565],[0.14322916666666666,0.0418518518518519,5.972899999976157],[0.1382291666666667,0.025370370370370456,5.9895],[0.13239583333333324,0.05740740740740741,6.009199999988077],[0.10958333333333338,-0.008888888888888804,6.024699999988073],[0.10572916666666667,-0.01796296296296305,6.043099999964234],[0.0875,-0.02166666666666675,6.062699999988077],[0.0875,-0.02166666666666675,6.072799999952309],[0.10416666666666667,-0.0014814814814813973,6.089499999999994],[0.1021874999999999,0.007407407407407408,6.110499999999995],[0.10729166666666666,-0.014629629629629588,6.129499999999993],[0.10729166666666666,-0.014629629629629588,6.139599999964233],[0.10822916666666677,0.07351851851851861,6.15629999995231],[0.09927083333333328,0.07518518518518523,6.174899999976155],[0.09020833333333324,0.0816666666666667,6.194099999964237],[0.10864583333333329,0.08574074074074066,6.209999999999994],[0.13114583333333343,0.15759259259259265,6.227299999952315],[0.1640625,0.20055555555555546,6.249699999988074],[0.1640625,0.20055555555555546,6.256999999999998],[0.18177083333333333,0.17796296296296302,6.272899999976154],[0.1759375000000001,0.17444444444444454,6.289499999999997],[0.18447916666666658,0.14518518518518514,6.312199999988074],[0.18447916666666658,0.14518518518518514,6.322799999952309],[0.19572916666666676,0.15,6.339399999976152],[0.20604166666666662,0.07611111111111116,6.358699999988076],[0.2178124999999999,0.0477777777777777,6.374099999964237],[0.22958333333333342,0.019444444444444445,6.391899999976154],[0.22979166666666656,-0.03555555555555564,6.408799999952315],[0.21822916666666667,-0.1522222222222222,6.424199999988076],[0.19874999999999995,-0.2681481481481482,6.439299999952311],[0.19874999999999995,-0.2681481481481482,6.456099999964231],[0.1944791666666667,-0.31851851851851853,6.472699999988073],[0.1974999999999999,-0.37407407407407406,6.489399999976158],[0.20729166666666668,-0.3544444444444444,6.507599999964235],[0.20729166666666668,-0.3544444444444444,6.5226999999880775],[0.21104166666666657,-0.32148148148148153,6.539399999976155],[0.20020833333333338,-0.30907407407407406,6.558299999952311],[0.1944791666666667,-0.3212962962962963,6.575499999999998],[0.1944791666666667,-0.3212962962962963,6.589399999976152],[0.18875000000000006,-0.33351851851851855,6.606099999964236],[0.18791666666666676,-0.3014814814814815,6.622699999988079],[0.18624999999999994,-0.2494444444444444,6.6414999999999935],[0.19249999999999995,-0.19814814814814816,6.66079999995231],[0.21062500000000003,-0.16407407407407412,6.675899999976153],[0.22145833333333323,-0.12481481481481477,6.691999999999993],[0.20864583333333328,-0.17222222222222222,6.709299999952314],[0.19583333333333333,-0.21962962962962967,6.726199999988076],[0.2087500000000001,-0.23629629629629634,6.744799999952313],[0.2087500000000001,-0.23629629629629634,6.755999999999993],[0.2306250000000001,-0.21388888888888888,6.7726999999880775],[0.2509375000000001,-0.19074074074074074,6.792499999999997],[0.25833333333333336,-0.22518518518518524,6.808499999999995],[0.2660416666666668,-0.25,6.82359999996423],[0.2591666666666666,-0.2801851851851852,6.839699999988078],[0.2404166666666666,-0.29314814814814816,6.859099999964236],[0.22791666666666663,-0.2753703703703704,6.875799999952314],[0.22791666666666663,-0.2753703703703704,6.889399999976156],[0.23229166666666667,-0.24611111111111106,6.906099999964233],[0.23229166666666667,-0.24611111111111106,6.922799999952311],[0.22645833333333343,-0.24222222222222226,6.939499999999995],[0.15875000000000009,-0.21629629629629632,6.9609999999999985],[0.11583333333333339,-0.13481481481481483,6.977699999988076],[0.03708333333333336,-0.1227777777777778,6.995199999988074],[0.03708333333333336,-0.1227777777777778,7.006099999964235],[-0.03999999999999997,-0.09703703703703699,7.0226999999880775],[-0.1014583333333333,-0.09351851851851851,7.039399999976155],[-0.10239583333333328,-0.04944444444444453,7.062199999988074],[-0.10239583333333328,-0.04944444444444453,7.072699999988075],[-0.10302083333333331,-0.003888888888888931,7.089399999976152],[-0.10791666666666669,0.0257407407407407,7.108799999952311],[-0.11281249999999995,0.05537037037037033,7.125899999976156],[-0.13385416666666666,0.0794444444444444,7.1428999999761515],[-0.09822916666666662,0.0868518518518518,7.158599999964231],[-0.12625000000000006,0.043703703703703745,7.174799999952313],[-0.11687500000000005,0.06925925925925921,7.191099999964237],[-0.11687500000000005,0.06925925925925921,7.205999999999996],[-0.11468750000000003,0.07111111111111107,7.222799999952315],[-0.1336458333333333,0.05611111111111103,7.239399999976158],[-0.1336458333333333,0.05611111111111103,7.256099999964235],[-0.19864583333333338,0.00592592592592601,7.272799999952312],[-0.2670833333333333,-0.08314814814814811,7.289299999952313],[-0.32781250000000006,-0.15111111111111114,7.305999999999997],[-0.38687499999999997,-0.21222222222222226,7.324099999964233]]","[0.0002999999523112251,0.04539999997615496,0.05889999997615547,0.07709999996423278,0.09289999997615439,0.10889999997615263,0.1257999999523136,0.14289999997615155,0.15809999996423585,0.17279999995231066,0.18979999995231367,0.20639999997615632,0.22279999995231492,0.2395999999642342,0.25619999998807685,0.2727999999523121,0.28939999997615473,0.306099999964232,0.323099999964235,0.3418999999761567,0.3562999999523129,0.3727999999523135,0.39289999997615155,0.40749999999999886,0.4228999999761527,0.43949999999999534,0.4568999999761516,0.4727999999523149,0.4894999999999996,0.5061999999880769,0.5226999999880775,0.5393999999761547,0.556899999976153,0.5728999999761513,0.5894999999999939,0.6089999999999947,0.625,0.6394999999999982,0.6579999999999941,0.6727999999523107,0.6894999999999953,0.7061999999880726,0.7227999999523149,0.7431999999880787,0.7581999999880722,0.7750999999642332,0.7894999999999968,0.8066999999880764,0.8241999999880747,0.8394999999999939,0.8573999999761526,0.8727999999523135,0.8893999999761562,0.9061999999880754,0.9260999999642365,0.939599999964237,0.9561999999880726,0.9727999999523149,0.9894999999999996,1.0063999999761535,1.0233999999761565,1.0393999999761547,1.0566999999880764,1.0744999999999933,1.0896999999880776,1.1062999999523129,1.122699999988079,1.141999999999996,1.1592999999523101,1.1764999999999972,1.1932999999523162,1.2091999999880727,1.2263999999761523,1.2417999999523133,1.2580999999642302,1.272899999976154,1.2894999999999968,1.306099999964232,1.3280999999642304,1.339499999999994,1.3561999999880783,1.3727999999523135,1.3914999999999935,1.4060999999642334,1.4253999999761575,1.4394999999999953,1.458099999964233,1.472799999952315,1.4908999999761576,1.5068999999761559,1.522899999976154,1.5428999999761572,1.5562999999523157,1.5729999999999933,1.5928999999761544,1.608699999988076,1.6228999999761555,1.6397999999523094,1.6608999999761522,1.6760999999642365,1.689599999964237,1.7063999999761563,1.7263999999761523,1.7395999999642342,1.7565999999642372,1.777699999988073,1.7932999999523105,1.809099999964232,1.8303999999761515,1.8395999999642356,1.8561999999880783,1.8727999999523135,1.8894999999999982,1.9100999999642312,1.9228999999761527,1.9394999999999953,1.9561999999880726,1.972799999952315,1.9893999999761576,2.006099999964235,2.022899999976154,2.0394999999999968,2.056199999988074,2.0726999999880746,2.089499999999994,2.1075999999642363,2.1257999999523136,2.1437999999523143,2.1560999999642334,2.1727999999523107,2.1900999999642323,2.207499999999996,2.2261999999880757,2.2393999999761576,2.256099999964235,2.2732999999523145,2.2893999999761547,2.307899999976158,2.3235999999642303,2.339399999976152,2.359499999999997,2.3727999999523135,2.389399999976156,2.40629999995231,2.4236999999880737,2.442199999988077,2.4600999999642355,2.472799999952315,2.4894999999999996,2.5077999999523115,2.525499999999994,2.542299999952313,2.558499999999995,2.5727999999523092,2.5895999999642356,2.607999999999997,2.626399999976158,2.639499999999998,2.6561999999880754,2.6729999999999947,2.6893999999761533,2.7071999999880774,2.7234999999999943,2.739599999964234,2.7587999999523163,2.775199999988075,2.7926999999880735,2.809199999988074,2.825399999976156,2.8433999999761568,2.860899999976155,2.8773999999761557,2.8938999999761563,2.9128999999761547,2.927399999976153,2.9420999999642348,2.9560999999642306,2.972799999952315,2.9893999999761576,3.006099999964235,3.024399999976154,3.0400999999642337,3.056099999964232,3.0727999999523092,3.089499999999994,3.1080999999642316,3.1227999999523135,3.139499999999998,3.1590999999642335,3.1750999999642318,3.192799999952314,3.2082999999523096,3.2253999999761547,3.242099999964232,3.256099999964235,3.2726999999880775,3.2893999999761547,3.306199999988074,3.324599999964235,3.3426999999880778,3.360199999988076,3.3765999999642347,3.3951999999880726,3.4061999999880754,3.4227999999523107,3.4394999999999953,3.4560999999642306,3.4756999999880733,3.4915999999642366,3.508899999976151,3.5262999999523146,3.5433999999761525,3.5603999999761555,3.577099999964233,3.594599999964231,3.6060999999642362,3.6227999999523135,3.639499999999998,3.658899999976157,3.6743999999761527,3.690499999999993,3.7062999999523143,3.727499999999999,3.7393999999761576,3.7593999999761536,3.775499999999994,3.790899999976155,3.8059999999999974,3.8227999999523092,3.839499999999994,3.8582999999523153,3.877899999976158,3.8951999999880726,3.9123999999761523,3.9227999999523107,3.939599999964237,3.9591999999880727,3.9740999999642312,3.9894999999999996,4.009199999988077,4.022799999952312,4.039699999988073,4.056099999964232,4.07659999996423,4.090899999976152,4.106099999964236,4.122699999988079,4.143999999999998,4.1590999999642335,4.1753999999761575,4.189399999976153,4.206099999964231,4.222799999952315,4.239899999976153,4.2562999999523115,4.2741999999880775,4.289499999999997,4.306099999964232,4.322899999976151,4.339399999976152,4.357499999999995,4.3727999999523135,4.393099999964235,4.409499999999994,4.424999999999997,4.439599999964237,4.456099999964231,4.472999999999999,4.489399999976158,4.506099999964235,4.522799999952312,4.539499999999997,4.556199999988074,4.572799999952309,4.589499999999994,4.606099999964236,4.624499999999998,4.639499999999998,4.65629999995231,4.672899999976153,4.689499999999995,4.706099999964231,4.722999999999999,4.739399999976158,4.7562999999523115,4.7726999999880775,4.789499999999997,4.806099999964232,4.822699999988075,4.839499999999994,4.859899999976157,4.875899999976156,4.889399999976156,4.906199999988075,4.922799999952311,4.939499999999995,4.956199999988073,4.972699999988073,4.989399999976158,5.006099999964235,5.022799999952312,5.039399999976155,5.058499999999995,5.073099999964235,5.08929999995231,5.106099999964236,5.1227999999523135,5.139599999964233,5.15929999995231,5.174499999999995,5.189399999976153,5.206099999964231,5.224699999988076,5.241299999952311,5.2563999999761535,5.272799999952312,5.289499999999997,5.306099999964232,5.327099999964233,5.343499999999999,5.356399999976155,5.372699999988079,5.393599999964231,5.408699999988073,5.422999999999995,5.439399999976153,5.458099999964233,5.472899999976157,5.489399999976158,5.50959999996423,5.525599999964236,5.539499999999997,5.556099999964232,5.576699999988072,5.593199999988073,5.610499999999995,5.626199999988074,5.639599999964233,5.65629999995231,5.675599999964234,5.691699999988074,5.706199999988073,5.726499999999994,5.744,5.760899999976154,5.776999999999994,5.789599999964231,5.810699999988074,5.829299999952312,5.839599999964236,5.856399999976155,5.8735,5.893299999952312,5.906399999976152,5.923099999964236,5.951399999976154,5.9608999999761565,5.972899999976157,5.9895,6.009199999988077,6.024699999988073,6.043099999964234,6.062699999988077,6.072799999952309,6.089499999999994,6.110499999999995,6.129499999999993,6.139599999964233,6.15629999995231,6.174899999976155,6.194099999964237,6.209999999999994,6.227299999952315,6.249699999988074,6.256999999999998,6.272899999976154,6.289499999999997,6.312199999988074,6.322799999952309,6.339399999976152,6.358699999988076,6.374099999964237,6.391899999976154,6.408799999952315,6.424199999988076,6.439299999952311,6.456099999964231,6.472699999988073,6.489399999976158,6.507599999964235,6.5226999999880775,6.539399999976155,6.558299999952311,6.575499999999998,6.589399999976152,6.606099999964236,6.622699999988079,6.6414999999999935,6.66079999995231,6.675899999976153,6.691999999999993,6.709299999952314,6.726199999988076,6.744799999952313,6.755999999999993,6.7726999999880775,6.792499999999997,6.808499999999995,6.82359999996423,6.839699999988078,6.859099999964236,6.875799999952314,6.889399999976156,6.906099999964233,6.922799999952311,6.939499999999995,6.9609999999999985,6.977699999988076,6.995199999988074,7.006099999964235,7.0226999999880775,7.039399999976155,7.062199999988074,7.072699999988075,7.089399999976152,7.108799999952311,7.125899999976156,7.1428999999761515,7.158599999964231,7.174799999952313,7.191099999964237,7.205999999999996,7.222799999952315,7.239399999976158,7.256099999964235,7.272799999952312,7.289299999952313,7.305999999999997,7.324099999964233]","[1732936723360,1732936723395,1732936723409,1732936723427,1732936723443,1732936723459,1732936723475,1732936723493,1732936723508,1732936723522,1732936723539,1732936723556,1732936723572,1732936723589,1732936723606,1732936723622,1732936723639,1732936723656,1732936723673,1732936723692,1732936723706,1732936723722,1732936723743,1732936723757,1732936723773,1732936723789,1732936723807,1732936723822,1732936723839,1732936723856,1732936723872,1732936723889,1732936723907,1732936723923,1732936723939,1732936723959,1732936723975,1732936723989,1732936724008,1732936724022,1732936724039,1732936724056,1732936724072,1732936724093,1732936724108,1732936724125,1732936724139,1732936724156,1732936724174,1732936724189,1732936724207,1732936724222,1732936724239,1732936724256,1732936724276,1732936724289,1732936724306,1732936724322,1732936724339,1732936724356,1732936724373,1732936724389,1732936724406,1732936724424,1732936724439,1732936724456,1732936724472,1732936724492,1732936724509,1732936724526,1732936724543,1732936724559,1732936724576,1732936724592,1732936724608,1732936724623,1732936724639,1732936724656,1732936724678,1732936724689,1732936724706,1732936724722,1732936724741,1732936724756,1732936724775,1732936724789,1732936724808,1732936724822,1732936724841,1732936724857,1732936724873,1732936724893,1732936724906,1732936724923,1732936724943,1732936724958,1732936724973,1732936724990,1732936725010,1732936725026,1732936725039,1732936725056,1732936725076,1732936725089,1732936725106,1732936725127,1732936725143,1732936725159,1732936725180,1732936725189,1732936725206,1732936725222,1732936725239,1732936725260,1732936725273,1732936725289,1732936725306,1732936725322,1732936725339,1732936725356,1732936725373,1732936725389,1732936725406,1732936725422,1732936725439,1732936725457,1732936725475,1732936725493,1732936725506,1732936725522,1732936725540,1732936725557,1732936725576,1732936725589,1732936725606,1732936725623,1732936725639,1732936725658,1732936725673,1732936725689,1732936725709,1732936725722,1732936725739,1732936725756,1732936725773,1732936725792,1732936725810,1732936725822,1732936725839,1732936725857,1732936725875,1732936725892,1732936725908,1732936725922,1732936725939,1732936725958,1732936725976,1732936725989,1732936726006,1732936726023,1732936726039,1732936726057,1732936726073,1732936726089,1732936726108,1732936726125,1732936726142,1732936726159,1732936726175,1732936726193,1732936726211,1732936726227,1732936726244,1732936726263,1732936726277,1732936726292,1732936726306,1732936726322,1732936726339,1732936726356,1732936726374,1732936726390,1732936726406,1732936726422,1732936726439,1732936726458,1732936726473,1732936726489,1732936726509,1732936726525,1732936726543,1732936726558,1732936726575,1732936726592,1732936726606,1732936726622,1732936726639,1732936726656,1732936726674,1732936726692,1732936726710,1732936726726,1732936726745,1732936726756,1732936726772,1732936726789,1732936726806,1732936726825,1732936726841,1732936726859,1732936726876,1732936726893,1732936726910,1732936726927,1732936726944,1732936726956,1732936726972,1732936726989,1732936727009,1732936727024,1732936727040,1732936727056,1732936727077,1732936727089,1732936727109,1732936727125,1732936727141,1732936727156,1732936727172,1732936727189,1732936727208,1732936727228,1732936727245,1732936727262,1732936727272,1732936727289,1732936727309,1732936727324,1732936727339,1732936727359,1732936727373,1732936727389,1732936727406,1732936727426,1732936727441,1732936727456,1732936727472,1732936727494,1732936727509,1732936727525,1732936727539,1732936727556,1732936727572,1732936727590,1732936727606,1732936727624,1732936727639,1732936727656,1732936727673,1732936727689,1732936727707,1732936727722,1732936727743,1732936727759,1732936727775,1732936727789,1732936727806,1732936727823,1732936727839,1732936727856,1732936727872,1732936727889,1732936727906,1732936727922,1732936727939,1732936727956,1732936727974,1732936727989,1732936728006,1732936728023,1732936728039,1732936728056,1732936728073,1732936728089,1732936728106,1732936728122,1732936728139,1732936728156,1732936728172,1732936728189,1732936728210,1732936728225,1732936728239,1732936728256,1732936728272,1732936728289,1732936728306,1732936728322,1732936728339,1732936728356,1732936728372,1732936728389,1732936728408,1732936728423,1732936728439,1732936728456,1732936728472,1732936728489,1732936728509,1732936728524,1732936728539,1732936728556,1732936728574,1732936728591,1732936728606,1732936728622,1732936728639,1732936728656,1732936728677,1732936728693,1732936728706,1732936728722,1732936728743,1732936728758,1732936728773,1732936728789,1732936728808,1732936728823,1732936728839,1732936728859,1732936728875,1732936728889,1732936728906,1732936728926,1732936728943,1732936728960,1732936728976,1732936728989,1732936729006,1732936729025,1732936729041,1732936729056,1732936729076,1732936729094,1732936729111,1732936729127,1732936729139,1732936729160,1732936729179,1732936729189,1732936729206,1732936729223,1732936729243,1732936729256,1732936729273,1732936729301,1732936729311,1732936729323,1732936729339,1732936729359,1732936729374,1732936729393,1732936729412,1732936729422,1732936729439,1732936729460,1732936729479,1732936729489,1732936729506,1732936729525,1732936729544,1732936729560,1732936729577,1732936729599,1732936729607,1732936729623,1732936729639,1732936729662,1732936729673,1732936729689,1732936729708,1732936729724,1732936729742,1732936729758,1732936729774,1732936729789,1732936729806,1732936729822,1732936729839,1732936729857,1732936729872,1732936729889,1732936729908,1732936729925,1732936729939,1732936729956,1732936729972,1732936729991,1732936730011,1732936730026,1732936730042,1732936730059,1732936730076,1732936730094,1732936730106,1732936730122,1732936730142,1732936730158,1732936730173,1732936730189,1732936730209,1732936730225,1732936730239,1732936730256,1732936730272,1732936730289,1732936730311,1732936730327,1732936730345,1732936730356,1732936730372,1732936730389,1732936730412,1732936730422,1732936730439,1732936730458,1732936730476,1732936730493,1732936730508,1732936730524,1732936730541,1732936730556,1732936730572,1732936730589,1732936730606,1732936730622,1732936730639,1732936730656,1732936730674]","[[1114.7,778],[1114.7,778],[1143.7,799.9],[1143.7,799.9],[1132.3,798.9],[1132.2,790.3],[1127.9,793.7],[1136.3,755.2],[1132.3,731.4],[1135.2,711.3],[1115.8,678.7],[1080,618.3],[1049.9,558.8],[1045.1,515.1],[1045.1,515.1],[1033.4,488.2],[1046.3,455.3],[1039.9,439.6],[1016.1,416.1],[990.2,413.8],[986.7,393.9],[973.9,379.2],[998.6,378],[1019.8,408.5],[1009.2,407.6],[1018.5,409.5],[991.9,425],[991.9,425],[987.8,418.5],[970.7,422],[979.6,393.2],[958.9,392.3],[973.3,396.7],[956.1,425.3],[952.3,402.9],[909.7,394.7],[880.5,372.1],[816.9,362.4],[772.8,354.9],[772.8,354.9],[722.7,372.1],[671.2,386.8],[632.3,380.9],[606,410.4],[557.9,394.3],[531.6,422.7],[528.2,461.2],[513.9,480.3],[533.4,491.2],[534.4,490.8],[537.7,477.9],[537.7,477.9],[555.7,475.9],[562.3,476.1],[556.3,440.9],[556.3,440.9],[564.2,460.9],[564.2,460.9],[536.4,434.3],[532.3,407.1],[523.7,404.5],[548,409.7],[580.3,447.3],[621,496.8],[647,542.1],[666.4,587.3],[710.2,617.6],[724.2,635.8],[761.9,662.8],[766.5,668.6],[763.5,673.1],[750,656.5],[748.2,641.4],[774.7,616.3],[802.2,579.1],[867.1,589.1],[867.1,589.1],[907.6,614],[958.4,584.3],[958.4,584.3],[978.6,594],[1018.7,624.9],[1081.8,651.9],[1153.3,653.6],[1153.3,653.6],[1186.4,693.4],[1169.9,736.3],[1158.4,803],[1115.4,833.3],[1082.2,818.2],[1067.6,847.8],[1080.8,855.9],[1080.8,855.9],[1067.1,863.7],[1068.3,824.8],[1035.6,896.1],[1035.6,896.1],[1034,912.9],[1053.3,876.4],[1071.8,844],[1071.8,844],[1090.4,826.9],[1090.5,824.9],[1090.5,824.9],[1076.6,838.2],[1085.7,788.2],[1087.4,796],[1072.7,839.1],[1061.7,805.9],[1061.7,805.9],[1042.1,770.7],[990.6,796.7],[935.3,802.7],[922.8,781.4],[922.8,781.4],[919,790.4],[919,790.4],[918.4,801.6],[895.3,881.4],[895.4,920.9],[897,971.8],[897,971.8],[898,997.7],[916.6,1001.8],[959.1,993],[1017,971.9],[1032.4,959.9],[1018.7,977.9],[1018.7,977.9],[1009.5,993.9],[977,970.1],[997.6,943.7],[990.4,898.5],[990.4,898.5],[956.9,901.4],[889.4,936.2],[821.9,971],[747.7,1020.5],[669.3,1085.6],[617,1100.9],[580.2,1101.6],[580.2,1101.6],[577.7,1097.6],[515,1076.3],[480.1,1073.8],[469.3,1066.1],[478.4,1049.9],[478.4,1049.9],[487.4,1008.8],[468.3,1003.8],[453.4,983.2],[427.8,984.8],[394.9,986.6],[394.9,986.6],[367.9,1013.7],[368.5,1055.5],[352.4,1096.6],[352.4,1096.6],[325.3,1116.6],[310.4,1076.2],[286.3,1113.4],[281.6,1112.1],[302.3,1077.2],[334.5,1073.7],[350.8,1055.1],[361.9,1061.7],[363.1,1018.4],[368.6,970.5],[388.2,912.4],[410.6,929.3],[436.2,870.3],[477.2,831.5],[492.8,826.3],[511.8,784.5],[511.8,784.5],[548,753.1],[548,753.1],[569.5,700.7],[569.5,700.7],[578,698.5],[599.5,683.9],[633.2,678.7],[633.2,678.7],[671.2,641.5],[715.3,627.5],[754.6,581.7],[754.6,581.7],[787.4,543],[817,524.8],[843.7,514.6],[870.4,504.4],[890,478.4],[895.2,469.6],[876.3,498.2],[876.3,498.2],[843.2,544.6],[808.1,566.4],[773.5,646.9],[745.4,720.3],[715.1,741.6],[696.3,790.3],[678.4,812.8],[670.6,839.4],[670.6,839.4],[664,854.4],[664,854.4],[668.1,870.4],[668.6,850.2],[652.5,859.8],[643.4,812.9],[634.3,766],[625.2,735.9],[604.3,674],[576.1,635.7],[559.1,604.4],[559.1,604.4],[567,602.6],[578.4,556.4],[593.4,546.4],[631.4,537.9],[645.9,532.5],[701.2,516.6],[701.2,516.6],[763.8,567.8],[820.4,600.9],[881.1,630.7],[933.2,658.1],[933.2,658.1],[973.9,671.1],[1020.7,711],[1067.5,750.9],[1107.1,763.8],[1107.1,763.8],[1159.4,782.2],[1159.4,782.2],[1159.1,823.4],[1161.4,807],[1164.8,804.6],[1170.5,808.1],[1164.5,815.3],[1157.6,819.5],[1139.3,794.4],[1121,769.3],[1095.8,748.1],[1059,741.5],[1044.4,777.8],[1024.1,822.2],[995.6,840.1],[951.8,849.3],[933,816.4],[933,816.4],[913.8,802.7],[921.7,772.6],[946,785.3],[977.8,822.3],[994.7,806.4],[1003.3,735.9],[1009.8,664.8],[1040.2,637.4],[1074.8,610.6],[1095.9,625.9],[1117.6,603.5],[1114.9,609.9],[1096.1,587.5],[1079.5,557.2],[1078.3,553.1],[1075,548.4],[1079.1,539.3],[1072.4,517.1],[1082,512.3],[1089.2,499.2],[1101,551.4],[1101,551.4],[1108.7,592.7],[1126.4,601.4],[1135.6,631.6],[1148.6,674.7],[1157.3,708],[1160.7,746.3],[1176.5,786.2],[1176.5,786.2],[1173.2,805.8],[1185.9,836.5],[1197.9,795.1],[1197.9,795.1],[1198.7,778.4],[1196.9,770.4],[1206.2,733.9],[1206.2,733.9],[1215.5,697.4],[1201.5,675.1],[1166.1,644.4],[1166.1,644.4],[1129.7,635.7],[1129.7,635.7],[1113.6,651.6],[1113.6,651.6],[1066.7,666.6],[1023.5,685.2],[973.5,689.6],[973.5,689.6],[915.8,703.9],[864.6,739.7],[812.2,773.3],[787.4,802.5],[787.4,802.5],[764.8,825.5],[748.6,829.2],[726,819.3],[720.8,811.7],[707.8,825.8],[719.7,848.7],[733.9,857.6],[739.7,834.3],[736.9,806.8],[721.1,789.6],[721.1,789.6],[724.5,787],[717.9,801],[707.3,814.1],[707.3,814.1],[694.1,814.7],[686.1,808.6],[711.4,809.5],[711.4,809.5],[734.4,824.4],[759.5,808.1],[818.3,831.1],[890.1,843.8],[961.9,856.5],[1025.9,845.5],[1025.9,845.5],[1108.8,839.9],[1190.1,833.4],[1266.2,833.6],[1287.7,796],[1299.3,792.1],[1299.3,792.1],[1300.5,806.6],[1287.8,784],[1269.9,771],[1269.9,771],[1250.9,779.5],[1237.3,758.8],[1203.7,730.9],[1203.7,730.9],[1163.3,693.2],[1149.5,692],[1126,697.9],[1126,697.9],[1126.2,667.2],[1123.1,643.8],[1114.1,644.6],[1114.1,644.6],[1106.7,626.9],[1107.5,571.6],[1107.5,571.6],[1097.5,562.6],[1092.7,553.7],[1087.1,571],[1065.2,535.2],[1061.5,530.3],[1044,528.3],[1044,528.3],[1060,539.2],[1058.1,544],[1063,532.1],[1063,532.1],[1063.9,579.7],[1055.3,580.6],[1046.6,584.1],[1064.3,586.3],[1085.9,625.1],[1117.5,648.3],[1117.5,648.3],[1134.5,636.1],[1128.9,634.2],[1137.1,618.4],[1137.1,618.4],[1147.9,621],[1157.8,581.1],[1169.1,565.8],[1180.4,550.5],[1180.6,520.8],[1169.5,457.8],[1150.8,395.2],[1150.8,395.2],[1146.7,368],[1149.6,338],[1159,348.6],[1159,348.6],[1162.6,366.4],[1152.2,373.1],[1146.7,366.5],[1146.7,366.5],[1141.2,359.9],[1140.4,377.2],[1138.8,405.3],[1144.8,433],[1162.2,451.4],[1172.6,472.6],[1160.3,447],[1148,421.4],[1160.4,412.4],[1160.4,412.4],[1181.4,424.5],[1200.9,437],[1208,418.4],[1215.4,405],[1208.8,388.7],[1190.8,381.7],[1178.8,391.3],[1178.8,391.3],[1183,407.1],[1183,407.1],[1177.4,409.2],[1112.4,423.2],[1071.2,467.2],[995.6,473.7],[995.6,473.7],[921.6,487.6],[862.6,489.5],[861.7,513.3],[861.7,513.3],[861.1,537.9],[856.4,553.9],[851.7,569.9],[831.5,582.9],[865.7,586.9],[838.8,563.6],[847.8,577.4],[847.8,577.4],[849.9,578.4],[831.7,570.3],[831.7,570.3],[769.3,543.2],[703.6,495.1],[645.3,458.4],[588.6,425.4]]","[-0.142,0.42599999999999993]","[0.142,0.42599999999999993]","[0.42599999999999993,0.42599999999999993]","[-0.42599999999999993,0.142]","[-0.42599999999999993,-0.42599999999999993]","[-0.42599999999999993,-0.142]","[-0.142,0.142]","[0.142,0.142]","[0.42599999999999993,0.142]","[-0.142,-0.42599999999999993]","[0.142,-0.42599999999999993]","[0.42599999999999993,-0.42599999999999993]","[-0.142,-0.142]","[0.142,-0.142]","[0.42599999999999993,-0.142]",0,0,0,0,1,4,Laptop,25,20,8,1,60,4,1,60,3
