inst1_resp.keys,inst1_resp.rt,calibrationMouse.x,calibrationMouse.y,calibrationMouse.leftButton,calibrationMouse.midButton,calibrationMouse.rightButton,calibrationClick.x,calibrationClick.y,calibrationClick.leftButton,calibrationClick.midButton,calibrationClick.rightButton,trialsc.thisRepN,trialsc.thisTrialN,trialsc.thisN,trialsc.thisIndex,trialsc.ran,calibration_x,calibration_y,participant,session,date,expName,psychopyVersion,OS,frameRate,calibrationClick.clicked_name,ScreenRes_pixels,mouse_2.x,mouse_2.y,mouse_2.leftButton,mouse_2.midButton,mouse_2.rightButton,mouse_2.time,mouse_2.clicked_name,Camera_pixels,mouse.x,mouse.y,mouse.leftButton,mouse.midButton,mouse.rightButton,mouse.time,mouse.clicked_name,Choice,Trial,TrialDuration,MOUSE_GAZE,ET_GAZE,ET_GAZE_x_T,time,unixTime,ET_GAZE_NF,Loc_Bus_label,Loc_Metro_label,Loc_RH_label,Loc_Cost_label,Loc_Travel_label,Loc_Comfort_label,Loc_Bus_cost,Loc_Metro_cost,Loc_RH_cost,Loc_Bus_travel,Loc_Metro_travel,Loc_RH_travel,Loc_Bus_comfort,Loc_Metro_comfort,Loc_RH_comfort,trials.thisRepN,trials.thisTrialN,trials.thisN,trials.thisIndex,trials.ran,Block,Device,RH_cost,RH_travel_time,RH_Comfort,metro_cost,metro_travel_time,metro_Comfort,Bus_cost,Bus_travel_time,Bus_Comfort
space,0.6433,0.005208333,0.303703704,1,0,0,-0.33125,-0.648148148,0,0,0,0,0,0,4,1,-0.33,-0.67,29,001,2024-11-30_11h30.21.981,Attention_exp_legacy,2023.1.0,Win32,60.24096386,,,,,,,,,,,,,,,,,,,,,,,,,,,,,,,,,,,,,,,,,,,,,,,,,,,,,,,,,
,,,,,,,-0.339583333,0.675925926,1,0,0,0,1,1,8,1,-0.33,0.67,29,001,2024-11-30_11h30.21.981,Attention_exp_legacy,2023.1.0,Win32,60.24096386,calibration_square,,,,,,,,,,,,,,,,,,,,,,,,,,,,,,,,,,,,,,,,,,,,,,,,,,,,,,,,
,,,,,,,-0.34375,0.335185185,1,0,0,0,2,2,7,1,-0.33,0.33,29,001,2024-11-30_11h30.21.981,Attention_exp_legacy,2023.1.0,Win32,60.24096386,,,,,,,,,,,,,,,,,,,,,,,,,,,,,,,,,,,,,,,,,,,,,,,,,,,,,,,,,
,,,,,,,-0.686458333,-0.662962963,1,0,0,0,3,3,0,1,-0.67,-0.67,29,001,2024-11-30_11h30.21.981,Attention_exp_legacy,2023.1.0,Win32,60.24096386,,,,,,,,,,,,,,,,,,,,,,,,,,,,,,,,,,,,,,,,,,,,,,,,,,,,,,,,,
,,,,,,,0.326041667,0.324074074,1,0,0,0,4,4,17,1,0.33,0.33,29,001,2024-11-30_11h30.21.981,Attention_exp_legacy,2023.1.0,Win32,60.24096386,calibration_square,,,,,,,,,,,,,,,,,,,,,,,,,,,,,,,,,,,,,,,,,,,,,,,,,,,,,,,,
,,,,,,,0.004166667,0.018518519,1,0,0,0,5,5,11,1,0,0,29,001,2024-11-30_11h30.21.981,Attention_exp_legacy,2023.1.0,Win32,60.24096386,,,,,,,,,,,,,,,,,,,,,,,,,,,,,,,,,,,,,,,,,,,,,,,,,,,,,,,,,
,,,,,,,0.326041667,-0.659259259,1,0,0,0,6,6,14,1,0.33,-0.67,29,001,2024-11-30_11h30.21.981,Attention_exp_legacy,2023.1.0,Win32,60.24096386,,,,,,,,,,,,,,,,,,,,,,,,,,,,,,,,,,,,,,,,,,,,,,,,,,,,,,,,,
,,,,,,,-0.661458333,0.011111111,1,0,0,0,7,7,2,1,-0.67,0,29,001,2024-11-30_11h30.21.981,Attention_exp_legacy,2023.1.0,Win32,60.24096386,,,,,,,,,,,,,,,,,,,,,,,,,,,,,,,,,,,,,,,,,,,,,,,,,,,,,,,,,
,,,,,,,0,0.698148148,1,0,0,0,8,8,13,1,0,0.67,29,001,2024-11-30_11h30.21.981,Attention_exp_legacy,2023.1.0,Win32,60.24096386,,,,,,,,,,,,,,,,,,,,,,,,,,,,,,,,,,,,,,,,,,,,,,,,,,,,,,,,,
,,,,,,,-0.328125,-0.324074074,1,0,0,0,9,9,5,1,-0.33,-0.33,29,001,2024-11-30_11h30.21.981,Attention_exp_legacy,2023.1.0,Win32,60.24096386,calibration_square,,,,,,,,,,,,,,,,,,,,,,,,,,,,,,,,,,,,,,,,,,,,,,,,,,,,,,,,
,,,,,,,-0.677083333,-0.333333333,1,0,0,0,10,10,1,1,-0.67,-0.33,29,001,2024-11-30_11h30.21.981,Attention_exp_legacy,2023.1.0,Win32,60.24096386,calibration_square,,,,,,,,,,,,,,,,,,,,,,,,,,,,,,,,,,,,,,,,,,,,,,,,,,,,,,,,
,,,,,,,0.008333333,-0.335185185,1,0,0,0,11,11,10,1,0,-0.33,29,001,2024-11-30_11h30.21.981,Attention_exp_legacy,2023.1.0,Win32,60.24096386,calibration_square,,,,,,,,,,,,,,,,,,,,,,,,,,,,,,,,,,,,,,,,,,,,,,,,,,,,,,,,
,,,,,,,-0.682291667,0.342592593,1,0,0,0,12,12,3,1,-0.67,0.33,29,001,2024-11-30_11h30.21.981,Attention_exp_legacy,2023.1.0,Win32,60.24096386,,,,,,,,,,,,,,,,,,,,,,,,,,,,,,,,,,,,,,,,,,,,,,,,,,,,,,,,,
,,,,,,,0.33125,-0.340740741,1,0,0,0,13,13,15,1,0.33,-0.33,29,001,2024-11-30_11h30.21.981,Attention_exp_legacy,2023.1.0,Win32,60.24096386,,,,,,,,,,,,,,,,,,,,,,,,,,,,,,,,,,,,,,,,,,,,,,,,,,,,,,,,,
,,,,,,,-0.33125,0.02037037,1,0,0,0,14,14,6,1,-0.33,0,29,001,2024-11-30_11h30.21.981,Attention_exp_legacy,2023.1.0,Win32,60.24096386,,,,,,,,,,,,,,,,,,,,,,,,,,,,,,,,,,,,,,,,,,,,,,,,,,,,,,,,,
,,,,,,,0,-0.67962963,1,0,0,0,15,15,9,1,0,-0.67,29,001,2024-11-30_11h30.21.981,Attention_exp_legacy,2023.1.0,Win32,60.24096386,calibration_square,,,,,,,,,,,,,,,,,,,,,,,,,,,,,,,,,,,,,,,,,,,,,,,,,,,,,,,,
,,,,,,,0.321875,0.67962963,1,0,0,0,16,16,18,1,0.33,0.67,29,001,2024-11-30_11h30.21.981,Attention_exp_legacy,2023.1.0,Win32,60.24096386,calibration_square,,,,,,,,,,,,,,,,,,,,,,,,,,,,,,,,,,,,,,,,,,,,,,,,,,,,,,,,
,,,,,,,-0.003125,0.344444444,1,0,0,0,17,17,12,1,0,0.33,29,001,2024-11-30_11h30.21.981,Attention_exp_legacy,2023.1.0,Win32,60.24096386,,,,,,,,,,,,,,,,,,,,,,,,,,,,,,,,,,,,,,,,,,,,,,,,,,,,,,,,,
,,,,,,,0.325,0,1,0,0,0,18,18,16,1,0.33,0,29,001,2024-11-30_11h30.21.981,Attention_exp_legacy,2023.1.0,Win32,60.24096386,calibration_square,,,,,,,,,,,,,,,,,,,,,,,,,,,,,,,,,,,,,,,,,,,,,,,,,,,,,,,,
,,,,,,,0.665625,0.7,1,0,0,0,19,19,19,1,0.67,0.67,29,001,2024-11-30_11h30.21.981,Attention_exp_legacy,2023.1.0,Win32,60.24096386,,,,,,,,,,,,,,,,,,,,,,,,,,,,,,,,,,,,,,,,,,,,,,,,,,,,,,,,,
,,,,,,,0.670833333,-0.659259259,1,0,0,0,20,20,20,1,0.67,-0.67,29,001,2024-11-30_11h30.21.981,Attention_exp_legacy,2023.1.0,Win32,60.24096386,,,,,,,,,,,,,,,,,,,,,,,,,,,,,,,,,,,,,,,,,,,,,,,,,,,,,,,,,
,,,,,,,,,,,,,,,,,,,29,001,2024-11-30_11h30.21.981,Attention_exp_legacy,2023.1.0,Win32,60.24096386,,"[1920,1080]",[0.1],[-0.5074074074074074],[1],[0],[0],[0.8936999999880726],"[""StartButton""]","[640,480]",[0.13541666666666666],[0.39444444444444443],[1],[0],[0],[3.835000000000001],"[""Metro_label""]",Metro_label,1,4.8623,"[[0.33229166666666665,0.40370370370370373],[0.31979166666666664,0.3907407407407407],[0.31979166666666664,0.3888888888888889],[0.31875,0.387037037037037],[0.31666666666666665,0.38333333333333336],[0.3145833333333333,0.3814814814814815],[0.3125,0.37777777777777777],[0.3072916666666667,0.36666666666666664],[0.29791666666666666,0.35185185185185186],[0.290625,0.3351851851851852],[0.28541666666666665,0.32222222222222224],[0.278125,0.3055555555555556],[0.2708333333333333,0.28888888888888886],[0.2625,0.2777777777777778],[0.2520833333333333,0.2574074074074074],[0.2375,0.22592592592592592],[0.23125,0.21296296296296297],[0.21875,0.18518518518518517],[0.20104166666666667,0.14814814814814814],[0.19166666666666668,0.12962962962962962],[0.18645833333333334,0.12777777777777777],[0.17916666666666667,0.12222222222222222],[0.175,0.12222222222222222],[0.17395833333333333,0.12222222222222222],[0.17395833333333333,0.12222222222222222],[0.17395833333333333,0.12222222222222222],[0.17395833333333333,0.12222222222222222],[0.17395833333333333,0.12222222222222222],[0.17291666666666666,0.12222222222222222],[0.171875,0.12222222222222222],[0.171875,0.1259259259259259],[0.171875,0.1259259259259259],[0.171875,0.12777777777777777],[0.171875,0.12777777777777777],[0.171875,0.12777777777777777],[0.171875,0.13148148148148148],[0.171875,0.13333333333333333],[0.17291666666666666,0.1388888888888889],[0.17395833333333333,0.14629629629629629],[0.178125,0.16296296296296298],[0.18333333333333332,0.19444444444444445],[0.184375,0.24259259259259258],[0.184375,0.29259259259259257],[0.184375,0.3314814814814815],[0.184375,0.36666666666666664],[0.171875,0.4111111111111111],[0.159375,0.43703703703703706],[0.140625,0.46296296296296297],[0.12083333333333333,0.48148148148148145],[0.1,0.4925925925925926],[0.07604166666666666,0.5018518518518519],[0.034375,0.512962962962963],[0.0020833333333333333,0.5148148148148148],[-0.01875,0.5148148148148148],[-0.03333333333333333,0.5166666666666667],[-0.03958333333333333,0.5203703703703704],[-0.03958333333333333,0.5203703703703704],[-0.03958333333333333,0.5203703703703704],[-0.03958333333333333,0.5203703703703704],[-0.03958333333333333,0.5203703703703704],[-0.03958333333333333,0.5203703703703704],[-0.03958333333333333,0.5203703703703704],[-0.040625,0.5222222222222223],[-0.03958333333333333,0.524074074074074],[-0.03958333333333333,0.5259259259259259],[-0.03854166666666667,0.5314814814814814],[-0.034375,0.5370370370370371],[-0.028125,0.5425925925925926],[-0.027083333333333334,0.5444444444444444],[-0.021875,0.55],[-0.019791666666666666,0.55],[-0.01875,0.55],[-0.015625,0.5518518518518518],[-0.0125,0.5518518518518518],[-0.010416666666666666,0.5518518518518518],[0.0010416666666666667,0.5574074074074075],[0.013541666666666667,0.5592592592592592],[0.020833333333333332,0.5592592592592592],[0.040625,0.5592592592592592],[0.059375,0.5592592592592592],[0.08229166666666667,0.5592592592592592],[0.10729166666666666,0.5592592592592592],[0.12604166666666666,0.5592592592592592],[0.14375,0.5555555555555556],[0.16145833333333334,0.5518518518518518],[0.18125,0.5444444444444444],[0.19583333333333333,0.5388888888888889],[0.2125,0.5277777777777778],[0.22291666666666668,0.524074074074074],[0.23229166666666667,0.5185185185185185],[0.240625,0.5148148148148148],[0.2552083333333333,0.5055555555555555],[0.25625,0.5018518518518519],[0.26145833333333335,0.4981481481481482],[0.2625,0.4981481481481482],[0.2625,0.4962962962962963],[0.2635416666666667,0.49444444444444446],[0.2635416666666667,0.49444444444444446],[0.2635416666666667,0.49444444444444446],[0.2635416666666667,0.49444444444444446],[0.2635416666666667,0.49444444444444446],[0.2635416666666667,0.49444444444444446],[0.2635416666666667,0.49444444444444446],[0.2635416666666667,0.49444444444444446],[0.2635416666666667,0.49444444444444446],[0.2635416666666667,0.49444444444444446],[0.2635416666666667,0.49444444444444446],[0.2635416666666667,0.49444444444444446],[0.2635416666666667,0.49444444444444446],[0.2635416666666667,0.49444444444444446],[0.2635416666666667,0.49444444444444446],[0.2635416666666667,0.49444444444444446],[0.2635416666666667,0.49444444444444446],[0.2635416666666667,0.49444444444444446],[0.2635416666666667,0.49444444444444446],[0.2635416666666667,0.49444444444444446],[0.2635416666666667,0.49444444444444446],[0.2635416666666667,0.49444444444444446],[0.2635416666666667,0.49444444444444446],[0.2635416666666667,0.49444444444444446],[0.2635416666666667,0.49444444444444446],[0.2635416666666667,0.49444444444444446],[0.2635416666666667,0.49444444444444446],[0.2635416666666667,0.49444444444444446],[0.2635416666666667,0.49444444444444446],[0.2635416666666667,0.49444444444444446],[0.2635416666666667,0.49444444444444446],[0.2635416666666667,0.49444444444444446],[0.2635416666666667,0.49444444444444446],[0.2635416666666667,0.49444444444444446],[0.2635416666666667,0.49444444444444446],[0.2635416666666667,0.49444444444444446],[0.2635416666666667,0.49444444444444446],[0.2635416666666667,0.49444444444444446],[0.2635416666666667,0.49444444444444446],[0.2635416666666667,0.49444444444444446],[0.2635416666666667,0.49444444444444446],[0.2635416666666667,0.49444444444444446],[0.2635416666666667,0.49444444444444446],[0.2635416666666667,0.49444444444444446],[0.2635416666666667,0.49444444444444446],[0.2635416666666667,0.49444444444444446],[0.2635416666666667,0.49444444444444446],[0.2635416666666667,0.49444444444444446],[0.2635416666666667,0.49444444444444446],[0.2635416666666667,0.49444444444444446],[0.2635416666666667,0.49444444444444446],[0.2635416666666667,0.49444444444444446],[0.2635416666666667,0.49444444444444446],[0.2635416666666667,0.49444444444444446],[0.2635416666666667,0.49444444444444446],[0.2635416666666667,0.49444444444444446],[0.2635416666666667,0.49444444444444446],[0.2635416666666667,0.49444444444444446],[0.2635416666666667,0.49444444444444446],[0.2635416666666667,0.49444444444444446],[0.2635416666666667,0.49444444444444446],[0.2635416666666667,0.49444444444444446],[0.2635416666666667,0.49444444444444446],[0.2635416666666667,0.49444444444444446],[0.2635416666666667,0.49444444444444446],[0.2635416666666667,0.49444444444444446],[0.2635416666666667,0.49444444444444446],[0.2635416666666667,0.49444444444444446],[0.2635416666666667,0.49444444444444446],[0.2635416666666667,0.49444444444444446],[0.2635416666666667,0.49444444444444446],[0.2635416666666667,0.49444444444444446],[0.2635416666666667,0.49444444444444446],[0.2635416666666667,0.49444444444444446],[0.2635416666666667,0.49444444444444446],[0.2635416666666667,0.49444444444444446],[0.2635416666666667,0.49444444444444446],[0.2635416666666667,0.49444444444444446],[0.2635416666666667,0.49444444444444446],[0.2635416666666667,0.49444444444444446],[0.2635416666666667,0.49444444444444446],[0.2635416666666667,0.49444444444444446],[0.2635416666666667,0.49444444444444446],[0.2635416666666667,0.49444444444444446],[0.2635416666666667,0.49444444444444446],[0.2635416666666667,0.49444444444444446],[0.2635416666666667,0.49444444444444446],[0.2635416666666667,0.49444444444444446],[0.2635416666666667,0.49444444444444446],[0.2635416666666667,0.49444444444444446],[0.26145833333333335,0.49444444444444446],[0.25729166666666664,0.49444444444444446],[0.25625,0.49444444444444446],[0.253125,0.49444444444444446],[0.253125,0.49444444444444446],[0.253125,0.49444444444444446],[0.253125,0.49444444444444446],[0.253125,0.49444444444444446],[0.253125,0.49444444444444446],[0.253125,0.49444444444444446],[0.253125,0.49444444444444446],[0.253125,0.49444444444444446],[0.253125,0.49444444444444446],[0.253125,0.49444444444444446],[0.253125,0.49444444444444446],[0.253125,0.49444444444444446],[0.253125,0.49444444444444446],[0.253125,0.49444444444444446],[0.253125,0.49444444444444446],[0.253125,0.49444444444444446],[0.253125,0.49444444444444446],[0.253125,0.49444444444444446],[0.24895833333333334,0.49074074074074076],[0.23958333333333334,0.48333333333333334],[0.21666666666666667,0.45925925925925926],[0.20416666666666666,0.4462962962962963],[0.18333333333333332,0.42777777777777776],[0.15520833333333334,0.39814814814814814],[0.14375,0.3814814814814815],[0.13541666666666666,0.37037037037037035],[0.13125,0.3648148148148148],[0.13125,0.3648148148148148],[0.13125,0.3648148148148148],[0.13125,0.3648148148148148],[0.13125,0.3648148148148148],[0.13020833333333334,0.37037037037037035],[0.13020833333333334,0.37592592592592594],[0.13125,0.3814814814814815],[0.134375,0.3925925925925926],[0.134375,0.3925925925925926],[0.134375,0.3925925925925926],[0.134375,0.3925925925925926],[0.134375,0.3925925925925926],[0.13541666666666666,0.39444444444444443],[0.13541666666666666,0.39444444444444443],[0.13541666666666666,0.39444444444444443],[0.13541666666666666,0.39444444444444443],[0.13541666666666666,0.39444444444444443],[0.13541666666666666,0.39444444444444443],[0.13541666666666666,0.39444444444444443],[0.13541666666666666,0.39444444444444443],[0.13541666666666666,0.39444444444444443],[0.13541666666666666,0.39444444444444443],[0.13541666666666666,0.39444444444444443],[0.13541666666666666,0.39444444444444443],[0.13541666666666666,0.39444444444444443],[0.13541666666666666,0.39444444444444443],[0.13541666666666666,0.39444444444444443],[0.13541666666666666,0.39444444444444443],[0.13541666666666666,0.39444444444444443],[0.13645833333333332,0.39444444444444443],[0.13854166666666667,0.39444444444444443],[0.14375,0.3907407407407407],[0.14791666666666667,0.38333333333333336],[0.15625,0.37222222222222223],[0.16145833333333334,0.362962962962963],[0.165625,0.35555555555555557],[0.16770833333333332,0.35185185185185186],[0.16979166666666667,0.34444444444444444],[0.171875,0.3425925925925926],[0.175,0.34074074074074073],[0.17708333333333334,0.337037037037037],[0.17708333333333334,0.337037037037037],[0.17708333333333334,0.337037037037037],[0.17708333333333334,0.337037037037037],[0.17708333333333334,0.337037037037037],[0.17708333333333334,0.337037037037037],[0.17708333333333334,0.337037037037037],[0.17708333333333334,0.337037037037037],[0.17708333333333334,0.337037037037037],[0.17708333333333334,0.337037037037037],[0.17708333333333334,0.337037037037037],[0.17708333333333334,0.337037037037037],[0.17708333333333334,0.337037037037037],[0.17708333333333334,0.337037037037037],[0.17708333333333334,0.337037037037037],[0.17708333333333334,0.337037037037037],[0.17708333333333334,0.337037037037037],[0.17708333333333334,0.337037037037037],[0.17708333333333334,0.3388888888888889],[0.17708333333333334,0.3388888888888889],[0.17708333333333334,0.3388888888888889],[0.17708333333333334,0.3388888888888889],[0.17708333333333334,0.3388888888888889],[0.17708333333333334,0.34074074074074073],[0.17708333333333334,0.34074074074074073],[0.17708333333333334,0.34074074074074073],[0.17708333333333334,0.34074074074074073],[0.17708333333333334,0.34074074074074073],[0.17708333333333334,0.34074074074074073],[0.17708333333333334,0.34074074074074073],[0.17708333333333334,0.34074074074074073],[0.17708333333333334,0.34074074074074073],[0.17708333333333334,0.34074074074074073],[0.17708333333333334,0.3425925925925926]]","[[0.31583333333333335,-0.6562962962962963],[0.31583333333333335,-0.6562962962962963],[0.24145833333333327,-0.6074074074074074],[0.24145833333333327,-0.6074074074074074],[0.2179166666666667,-0.6255555555555555],[0.23624999999999996,-0.6675925925925926],[0.23624999999999996,-0.6675925925925926],[0.18093750000000006,-0.6033333333333334],[0.1962500000000001,-0.5607407407407408],[0.1962500000000001,-0.5607407407407408],[0.21739583333333337,-0.4883333333333333],[0.2021874999999999,-0.5072222222222221],[0.2021874999999999,-0.5072222222222221],[0.17302083333333323,-0.3907407407407407],[0.1421875,-0.29388888888888887],[0.08239583333333324,-0.2183333333333333],[0.08239583333333324,-0.2183333333333333],[0.10843749999999991,-0.23703703703703705],[0.128125,-0.21129629629629634],[0.13166666666666677,-0.2059259259259259],[0.13166666666666677,-0.2059259259259259],[0.1578125,-0.23351851851851857],[0.13552083333333323,-0.19296296296296295],[0.13552083333333323,-0.19296296296296295],[0.15906250000000005,-0.17685185185185184],[0.15906250000000005,-0.17685185185185184],[0.14364583333333342,-0.1388888888888889],[0.14364583333333342,-0.1388888888888889],[0.11385416666666662,-0.1361111111111111],[0.11385416666666662,-0.1361111111111111],[0.10583333333333324,-0.17074074074074072],[0.10583333333333324,-0.17074074074074072],[0.11208333333333324,-0.19000000000000003],[0.09937500000000009,-0.172037037037037],[0.09854166666666657,-0.1764814814814815],[0.04770833333333328,-0.1905555555555555],[0.016770833333333356,-0.18796296296296297],[-0.0005208333333333333,-0.19518518518518516],[-0.03197916666666671,-0.192037037037037],[-0.03197916666666671,-0.192037037037037],[-0.0026041666666666665,-0.20555555555555555],[0.015208333333333357,-0.20425925925925928],[0.05531250000000002,-0.17925925925925928],[0.05531250000000002,-0.17925925925925928],[0.11375000000000005,-0.17629629629629628],[0.11375000000000005,-0.17629629629629628],[0.1490624999999999,-0.18629629629629635],[0.1490624999999999,-0.18629629629629635],[0.1165625000000001,-0.21814814814814817],[0.14833333333333343,-0.22740740740740742],[0.15,-0.2338888888888889],[0.15,-0.2338888888888889],[0.13291666666666657,-0.25981481481481483],[0.1502083333333334,-0.26666666666666666],[0.12854166666666675,-0.30277777777777776],[0.10645833333333338,-0.3227777777777778],[0.10739583333333323,-0.3314814814814815],[0.0787499999999999,-0.3512962962962963],[0.0787499999999999,-0.3512962962962963],[0.05010416666666669,-0.37111111111111106],[0.05010416666666669,-0.37111111111111106],[0.07906250000000009,-0.33296296296296296],[0.09031250000000005,-0.3496296296296296],[0.13114583333333343,-0.3925925925925926],[0.13114583333333343,-0.3925925925925926],[0.1787499999999999,-0.4074074074074074],[0.21208333333333323,-0.4318518518518518],[0.2103125000000001,-0.4346296296296296],[0.2103125000000001,-0.4346296296296296],[0.21375000000000005,-0.4438888888888889],[0.19083333333333338,-0.4868518518518518],[0.16697916666666662,-0.4788888888888889],[0.16697916666666662,-0.4788888888888889],[0.14552083333333338,-0.48222222222222216],[0.1267708333333334,-0.5175925925925926],[0.10385416666666672,-0.5418518518518519],[0.09989583333333343,-0.5457407407407407],[0.11104166666666657,-0.5433333333333333],[0.11104166666666657,-0.5433333333333333],[0.06416666666666669,-0.5375925925925926],[0.06416666666666669,-0.5375925925925926],[0.03458333333333338,-0.5377777777777777],[0.02791666666666662,-0.5357407407407407],[0.03999999999999997,-0.5107407407407407],[0.03999999999999997,-0.5107407407407407],[0.06104166666666669,-0.5307407407407407],[0.0709374999999999,-0.517962962962963],[0.05541666666666671,-0.542037037037037],[0.03687499999999998,-0.5227777777777778],[0.03687499999999998,-0.5227777777777778],[-0.0003124999999999526,-0.5042592592592593],[-0.0171875,-0.4925925925925926],[-0.0171875,-0.4925925925925926],[0.004270833333333357,-0.49851851851851847],[0.04989583333333331,-0.5055555555555555],[0.07770833333333324,-0.5224074074074074],[0.07770833333333324,-0.5224074074074074],[0.07614583333333323,-0.5262962962962963],[0.0578125,-0.5064814814814815],[0.04552083333333338,-0.5275925925925925],[0.04552083333333338,-0.5275925925925925],[0.06614583333333333,-0.515925925925926],[0.06614583333333333,-0.515925925925926],[0.04562499999999995,-0.5216666666666666],[0.04760416666666671,-0.5114814814814814],[-0.005208333333333333,-0.49722222222222223],[-0.058437500000000024,-0.4781481481481481],[-0.09864583333333338,-0.4390740740740741],[-0.12708333333333333,-0.3866666666666667],[-0.16333333333333327,-0.3574074074074074],[-0.16333333333333327,-0.3574074074074074],[-0.17854166666666665,-0.3383333333333333],[-0.1907291666666667,-0.3111111111111111],[-0.20833333333333334,-0.2766666666666666],[-0.19968750000000005,-0.23796296296296296],[-0.22760416666666666,-0.25759259259259265],[-0.2211458333333333,-0.27148148148148155],[-0.2211458333333333,-0.27148148148148155],[-0.23302083333333337,-0.2783333333333334],[-0.24489583333333337,-0.2942592592592592],[-0.2640625,-0.3181481481481482],[-0.2548958333333334,-0.3274074074074074],[-0.24572916666666664,-0.33666666666666667],[-0.20604166666666662,-0.3816666666666667],[-0.1609375,-0.43388888888888894],[-0.1609375,-0.43388888888888894],[-0.1304166666666667,-0.45499999999999996],[-0.06791666666666671,-0.4551851851851852],[-0.04656250000000005,-0.48259259259259263],[0.009791666666666643,-0.5053703703703704],[0.06614583333333333,-0.5281481481481481],[0.11260416666666657,-0.5512962962962963],[0.13718750000000005,-0.5894444444444444],[0.13718750000000005,-0.5894444444444444],[0.1943749999999999,-0.575925925925926],[0.18156249999999996,-0.5535185185185185],[0.16875,-0.5311111111111111],[0.16875,-0.5311111111111111],[0.17468750000000005,-0.4992592592592593],[0.17468750000000005,-0.4992592592592593],[0.15270833333333325,-0.4448148148148148],[0.15270833333333325,-0.4448148148148148],[0.14802083333333324,-0.3918518518518519],[0.15031249999999996,-0.3448148148148148],[0.14645833333333325,-0.30537037037037035],[0.14645833333333325,-0.30537037037037035],[0.1462500000000001,-0.2733333333333334],[0.1570833333333333,-0.23925925925925923],[0.1570833333333333,-0.23925925925925923],[0.13739583333333344,-0.2574074074074074],[0.17760416666666667,-0.23037037037037034],[0.18395833333333325,-0.19759259259259257],[0.18270833333333342,-0.20333333333333337],[0.18270833333333342,-0.20333333333333337],[0.20447916666666663,-0.23111111111111113],[0.22072916666666675,-0.24148148148148144],[0.17572916666666671,-0.272037037037037],[0.17572916666666671,-0.272037037037037],[0.12489583333333343,-0.2861111111111111],[0.08375000000000009,-0.27611111111111114],[0.03312499999999995,-0.25999999999999995],[-0.03187500000000002,-0.262037037037037],[-0.03187500000000002,-0.262037037037037],[-0.10708333333333328,-0.2640740740740741],[-0.1484375,-0.2718518518518519],[-0.18635416666666665,-0.28166666666666673],[-0.240625,-0.2581481481481481],[-0.2778125000000001,-0.24129629629629631],[-0.2773958333333333,-0.20999999999999996],[-0.25510416666666663,-0.18666666666666668],[-0.25510416666666663,-0.18666666666666668],[-0.24583333333333332,-0.17740740740740743],[-0.22729166666666673,-0.18037037037037032],[-0.2217708333333333,-0.14092592592592595],[-0.24270833333333333,-0.13203703703703706],[-0.24145833333333327,-0.11444444444444446],[-0.24020833333333336,-0.09685185185185187],[-0.2345833333333334,-0.09944444444444442],[-0.2345833333333334,-0.09944444444444442],[-0.23166666666666663,-0.0933333333333333],[-0.25114583333333335,-0.09092592592592597],[-0.27145833333333336,-0.10333333333333336],[-0.27145833333333336,-0.10333333333333336],[-0.29177083333333337,-0.11574074074074074],[-0.3219791666666667,-0.1507407407407407],[-0.33958333333333335,-0.18592592592592588],[-0.33958333333333335,-0.18592592592592588],[-0.2673958333333334,-0.2190740740740741],[-0.2639583333333333,-0.24111111111111108],[-0.26052083333333337,-0.2631481481481482],[-0.215625,-0.3122222222222223],[-0.16510416666666666,-0.3587037037037037],[-0.16510416666666666,-0.3587037037037037],[-0.0921875,-0.4014814814814815],[-0.0921875,-0.4014814814814815],[0.009895833333333333,-0.4401851851851852],[0.0453125,-0.495],[0.09614583333333329,-0.5162962962962964],[0.09614583333333329,-0.5162962962962964],[0.15968749999999995,-0.5611111111111111],[0.15625,-0.5918518518518519],[0.21572916666666658,-0.6401851851851852],[0.21572916666666658,-0.6401851851851852],[0.2752083333333334,-0.6885185185185185],[0.2546875,-0.7148148148148148],[0.2033333333333334,-0.7222222222222222],[0.2033333333333334,-0.7222222222222222],[0.15197916666666675,-0.7296296296296296],[0.15197916666666675,-0.7296296296296296],[0.07229166666666677,-0.7429629629629629],[0.08416666666666663,-0.7342592592592593],[0.08416666666666663,-0.7342592592592593],[0.09104166666666676,-0.6996296296296296],[0.1125,-0.7075925925925927],[0.10552083333333329,-0.6599999999999999],[0.10552083333333329,-0.6599999999999999],[0.08791666666666677,-0.6514814814814816],[0.09166666666666666,-0.6507407407407407],[0.13270833333333343,-0.6453703703703704],[0.19020833333333323,-0.642962962962963],[0.24770833333333328,-0.6405555555555555],[0.29093749999999996,-0.6301851851851852],[0.29093749999999996,-0.6301851851851852],[0.29270833333333335,-0.5964814814814815],[0.27583333333333326,-0.6098148148148148],[0.24989583333333343,-0.5811111111111111],[0.24552083333333338,-0.6005555555555556],[0.2228125000000001,-0.5748148148148148],[0.2228125000000001,-0.5748148148148148],[0.1787499999999999,-0.5412962962962963],[0.1492708333333333,-0.5092592592592593],[0.1492708333333333,-0.5092592592592593],[0.1337500000000001,-0.48055555555555557],[0.09979166666666663,-0.4661111111111111],[0.09979166666666663,-0.4661111111111111],[0.07020833333333343,-0.4438888888888889],[0.049583333333333354,-0.44462962962962965],[0.057291666666666664,-0.43259259259259264],[0.058229166666666644,-0.4262962962962963],[0.058229166666666644,-0.4262962962962963],[0.05916666666666662,-0.42000000000000004],[0.07197916666666657,-0.42000000000000004],[0.08479166666666677,-0.42000000000000004],[0.08479166666666677,-0.42000000000000004],[0.10125000000000005,-0.42240740740740745],[0.11854166666666661,-0.4559259259259259],[0.11854166666666661,-0.4559259259259259],[0.14739583333333334,-0.4764814814814815],[0.20145833333333343,-0.5064814814814815],[0.22208333333333338,-0.5207407407407407],[0.22208333333333338,-0.5207407407407407],[0.24812500000000004,-0.528888888888889],[0.24812500000000004,-0.528888888888889],[0.24697916666666658,-0.5314814814814814],[0.2620833333333332,-0.5388888888888889],[0.3182291666666667,-0.47555555555555556],[0.3697916666666667,-0.41462962962962957],[0.3697916666666667,-0.41462962962962957],[0.38916666666666655,-0.4233333333333334],[0.40687499999999993,-0.402962962962963],[0.4314583333333334,-0.38129629629629624],[0.42520833333333335,-0.2942592592592592],[0.4599999999999999,-0.22925925925925927],[0.42947916666666663,-0.16796296296296295],[0.4273958333333333,-0.10592592592592591],[0.4273958333333333,-0.10592592592592591],[0.40031249999999996,-0.020185185185185143],[0.40031249999999996,-0.020185185185185143],[0.35281250000000003,-0.01962962962962967],[0.2794791666666666,-0.0544444444444444],[0.2794791666666666,-0.0544444444444444],[0.2482291666666666,-0.000925925925925926],[0.19208333333333344,0.011111111111111112],[0.15302083333333344,0.006666666666666709],[0.11958333333333329,-0.053703703703703705],[0.096875,-0.13796296296296295],[0.09989583333333343,-0.18611111111111112],[0.08177083333333333,-0.23074074074074077],[0.07239583333333334,-0.2942592592592592],[0.04510416666666662,-0.3611111111111111],[0.04510416666666662,-0.3611111111111111],[0.07302083333333324,-0.37777777777777777],[0.04510416666666662,-0.42537037037037034],[0.024166666666666715,-0.41888888888888887],[0.024166666666666715,-0.41888888888888887],[-0.013854166666666619,-0.39592592592592596],[-0.05354166666666664,-0.3640740740740741],[-0.10770833333333331,-0.31962962962962965],[-0.10770833333333331,-0.31962962962962965],[-0.15364583333333334,-0.30833333333333335],[-0.17374999999999996,-0.27981481481481485]]","[[0.31583333333333335,-0.6562962962962963,0.0003000000119186552],[0.31583333333333335,-0.6562962962962963,0.0589999999999975],[0.24145833333333327,-0.6074074074074074,0.0671999999880768],[0.24145833333333327,-0.6074074074074074,0.07639999997616087],[0.2179166666666667,-0.6255555555555555,0.09309999996423812],[0.23624999999999996,-0.6675925925925926,0.11380000001192059],[0.23624999999999996,-0.6675925925925926,0.12650000000000006],[0.18093750000000006,-0.6033333333333334,0.14309999996423528],[0.1962500000000001,-0.5607407407407408,0.1600999999642383],[0.1962500000000001,-0.5607407407407408,0.17959999996423903],[0.21739583333333337,-0.4883333333333333,0.19309999996423954],[0.2021874999999999,-0.5072222222222221,0.21280000001192434],[0.2021874999999999,-0.5072222222222221,0.23219999998807594],[0.17302083333333323,-0.3907407407407407,0.2430999999642367],[0.1421875,-0.29388888888888887,0.26319999998808186],[0.08239583333333324,-0.2183333333333333,0.2820999999642382],[0.08239583333333324,-0.2183333333333333,0.29289999997615723],[0.10843749999999991,-0.23703703703703705,0.3095999999642345],[0.128125,-0.21129629629629634,0.3288999999761586],[0.13166666666666677,-0.2059259259259259,0.34900000000000375],[0.13166666666666677,-0.2059259259259259,0.35959999996423875],[0.1578125,-0.23351851851851857,0.37650000000000006],[0.13552083333333323,-0.19296296296296295,0.4030999999642404],[0.13552083333333323,-0.19296296296296295,0.41159999996423835],[0.15906250000000005,-0.17685185185185184,0.43080000001192076],[0.15906250000000005,-0.17685185185185184,0.44299999999999784],[0.14364583333333342,-0.1388888888888889,0.45949999999999847],[0.14364583333333342,-0.1388888888888889,0.4760999999642408],[0.11385416666666662,-0.1361111111111111,0.49669999998808123],[0.11385416666666662,-0.1361111111111111,0.5096999999880794],[0.10583333333333324,-0.17074074074074072,0.5265999999642403],[0.10583333333333324,-0.17074074074074072,0.5428999999761572],[0.11208333333333324,-0.19000000000000003,0.562399999976158],[0.09937500000000009,-0.172037037037037,0.5760999999642351],[0.09854166666666657,-0.1764814814814815,0.5926999999880778],[0.04770833333333328,-0.1905555555555555,0.6133000000119182],[0.016770833333333356,-0.18796296296296297,0.6293000000119235],[-0.0005208333333333333,-0.19518518518518516,0.6448999999761611],[-0.03197916666666671,-0.192037037037037,0.6606999999880827],[-0.03197916666666671,-0.192037037037037,0.6790999999642366],[-0.0026041666666666665,-0.20555555555555555,0.6929999999999978],[0.015208333333333357,-0.20425925925925928,0.7095999999642402],[0.05531250000000002,-0.17925925925925928,0.7304999999999993],[0.05531250000000002,-0.17925925925925928,0.7434999999999974],[0.11375000000000005,-0.17629629629629628,0.7596999999880794],[0.11375000000000005,-0.17629629629629628,0.77619999998808],[0.1490624999999999,-0.18629629629629635,0.7965000000000018],[0.1490624999999999,-0.18629629629629635,0.8095999999642345],[0.1165625000000001,-0.21814814814814817,0.8265999999642375],[0.14833333333333343,-0.22740740740740742,0.8451999999880826],[0.15,-0.2338888888888889,0.8623000000119205],[0.15,-0.2338888888888889,0.8761999999880814],[0.13291666666666657,-0.25981481481481483,0.8930999999642353],[0.1502083333333334,-0.26666666666666666,0.9123000000119177],[0.12854166666666675,-0.30277777777777776,0.9265999999642389],[0.10645833333333338,-0.3227777777777778,0.9465000000000003],[0.10739583333333323,-0.3314814814814815,0.963599999964238],[0.0787499999999999,-0.3512962962962963,0.9798000000119202],[0.0787499999999999,-0.3512962962962963,0.9928000000119184],[0.05010416666666669,-0.37111111111111106,1.0095999999642373],[0.05010416666666669,-0.37111111111111106,1.02619999998808],[0.07906250000000009,-0.33296296296296296,1.0428000000119226],[0.09031250000000005,-0.3496296296296296,1.0643000000119187],[0.13114583333333343,-0.3925925925925926,1.0811999999880797],[0.13114583333333343,-0.3925925925925926,1.0930000000000035],[0.1787499999999999,-0.4074074074074074,1.1095999999642387],[0.21208333333333323,-0.4318518518518518,1.1308000000119236],[0.2103125000000001,-0.4346296296296296,1.1478999999761612],[0.2103125000000001,-0.4346296296296296,1.159599999964236],[0.21375000000000005,-0.4438888888888889,1.1763000000119206],[0.19083333333333338,-0.4868518518518518,1.1958000000119213],[0.16697916666666662,-0.4788888888888889,1.2155999999642404],[0.16697916666666662,-0.4788888888888889,1.2265000000000015],[0.14552083333333338,-0.48222222222222216,1.243000000000002],[0.1267708333333334,-0.5175925925925926,1.2631999999880819],[0.10385416666666672,-0.5418518518518519,1.2805000000000035],[0.09989583333333343,-0.5457407407407407,1.296300000011918],[0.11104166666666657,-0.5433333333333333,1.3136999999880814],[0.11104166666666657,-0.5433333333333333,1.3263999999761609],[0.06416666666666669,-0.5375925925925926,1.3430999999642381],[0.06416666666666669,-0.5375925925925926,1.3595999999642387],[0.03458333333333338,-0.5377777777777777,1.3795999999642348],[0.02791666666666662,-0.5357407407407407,1.3933000000119193],[0.03999999999999997,-0.5107407407407407,1.413399999976157],[0.03999999999999997,-0.5107407407407407,1.4294999999999973],[0.06104166666666669,-0.5307407407407407,1.4429999999999978],[0.0709374999999999,-0.517962962962963,1.4600999999642355],[0.05541666666666671,-0.542037037037037,1.4763000000119177],[0.03687499999999998,-0.5227777777777778,1.4969999999999999],[0.03687499999999998,-0.5227777777777778,1.5098000000119214],[-0.0003124999999999526,-0.5042592592592593,1.5265999999642403],[-0.0171875,-0.4925925925925926,1.548399999976155],[-0.0171875,-0.4925925925925926,1.5595999999642345],[0.004270833333333357,-0.49851851851851847,1.5763000000119192],[0.04989583333333331,-0.5055555555555555,1.5935999999642405],[0.07770833333333324,-0.5224074074074074,1.6138999999761552],[0.07770833333333324,-0.5224074074074074,1.6265999999642347],[0.07614583333333323,-0.5262962962962963,1.642800000011924],[0.0578125,-0.5064814814814815,1.6595000000000013],[0.04552083333333338,-0.5275925925925925,1.6761999999880786],[0.04552083333333338,-0.5275925925925925,1.6928000000119212],[0.06614583333333333,-0.515925925925926,1.7093999999761564],[0.06614583333333333,-0.515925925925926,1.7263000000119177],[0.04562499999999995,-0.5216666666666666,1.7428000000119184],[0.04760416666666671,-0.5114814814814814,1.759999999999998],[-0.005208333333333333,-0.49722222222222223,1.7766999999880824],[-0.058437500000000024,-0.4781481481481481,1.793099999964241],[-0.09864583333333338,-0.4390740740740741,1.8094999999999999],[-0.12708333333333333,-0.3866666666666667,1.8281999999880796],[-0.16333333333333327,-0.3574074074074074,1.847199999988078],[-0.16333333333333327,-0.3574074074074074,1.859399999976155],[-0.17854166666666665,-0.3383333333333333,1.8760999999642394],[-0.1907291666666667,-0.3111111111111111,1.892800000011924],[-0.20833333333333334,-0.2766666666666666,1.9125000000000014],[-0.19968750000000005,-0.23796296296296296,1.929800000011923],[-0.22760416666666666,-0.25759259259259265,1.946800000011919],[-0.2211458333333333,-0.27148148148148155,1.9640999999642403],[-0.2211458333333333,-0.27148148148148155,1.9760999999642408],[-0.23302083333333337,-0.2783333333333334,1.9928000000119184],[-0.24489583333333337,-0.2942592592592592,2.0093999999761607],[-0.2640625,-0.3181481481481482,2.0281999999880824],[-0.2548958333333334,-0.3274074074074074,2.046899999976155],[-0.24572916666666664,-0.33666666666666667,2.0628999999761604],[-0.20604166666666662,-0.3816666666666667,2.078000000000003],[-0.1609375,-0.43388888888888894,2.0975000000000037],[-0.1609375,-0.43388888888888894,2.109399999976155],[-0.1304166666666667,-0.45499999999999996,2.1265],[-0.06791666666666671,-0.4551851851851852,2.1446999999880774],[-0.04656250000000005,-0.48259259259259263,2.1605999999642407],[0.009791666666666643,-0.5053703703703704,2.1786999999880763],[0.06614583333333333,-0.5281481481481481,2.192699999988079],[0.11260416666666657,-0.5512962962962963,2.20959999996424],[0.13718750000000005,-0.5894444444444444,2.2270999999642385],[0.13718750000000005,-0.5894444444444444,2.2428000000119184],[0.1943749999999999,-0.575925925925926,2.2593999999761607],[0.18156249999999996,-0.5535185185185185,2.277000000000001],[0.16875,-0.5311111111111111,2.296899999976155],[0.16875,-0.5311111111111111,2.3095],[0.17468750000000005,-0.4992592592592593,2.326199999988077],[0.17468750000000005,-0.4992592592592593,2.3428999999761615],[0.15270833333333325,-0.4448148148148148,2.359499999999997],[0.15270833333333325,-0.4448148148148148,2.3761999999880814],[0.14802083333333324,-0.3918518518518519,2.392800000011924],[0.15031249999999996,-0.3448148148148148,2.4098999999761617],[0.14645833333333325,-0.30537037037037035,2.429000000000002],[0.14645833333333325,-0.30537037037037035,2.442899999976156],[0.1462500000000001,-0.2733333333333334,2.4594999999999985],[0.1570833333333333,-0.23925925925925923,2.477599999964241],[0.1570833333333333,-0.23925925925925923,2.4928000000119184],[0.13739583333333344,-0.2574074074074074,2.5095000000000027],[0.17760416666666667,-0.23037037037037034,2.5308999999761568],[0.18395833333333325,-0.19759259259259257,2.54789999997616],[0.18270833333333342,-0.20333333333333337,2.563300000011921],[0.18270833333333342,-0.20333333333333337,2.576099999964235],[0.20447916666666663,-0.23111111111111113,2.59280000001192],[0.22072916666666675,-0.24148148148148144,2.609499999999997],[0.17572916666666671,-0.272037037037037,2.6295999999642348],[0.17572916666666671,-0.272037037037037,2.6428999999761587],[0.12489583333333343,-0.2861111111111111,2.6593999999761593],[0.08375000000000009,-0.27611111111111114,2.6761999999880786],[0.03312499999999995,-0.25999999999999995,2.6978999999761584],[-0.03187500000000002,-0.262037037037037,2.7153999999761567],[-0.03187500000000002,-0.262037037037037,2.7263000000119177],[-0.10708333333333328,-0.2640740740740741,2.74289999997616],[-0.1484375,-0.2718518518518519,2.7601999999880817],[-0.18635416666666665,-0.28166666666666673,2.7766999999880824],[-0.240625,-0.2581481481481481,2.795499999999997],[-0.2778125000000001,-0.24129629629629631,2.813199999988079],[-0.2773958333333333,-0.20999999999999996,2.8313000000119217],[-0.25510416666666663,-0.18666666666666668,2.8483000000119247],[-0.25510416666666663,-0.18666666666666668,2.859499999999997],[-0.24583333333333332,-0.17740740740740743,2.8759999999999977],[-0.22729166666666673,-0.18037037037037032,2.8935999999642377],[-0.2217708333333333,-0.14092592592592595,2.911099999964236],[-0.24270833333333333,-0.13203703703703706,2.9293999999761553],[-0.24145833333333327,-0.11444444444444446,2.945899999976156],[-0.24020833333333336,-0.09685185185185187,2.9620000000000033],[-0.2345833333333334,-0.09944444444444442,2.980699999988076],[-0.2345833333333334,-0.09944444444444442,2.9928000000119184],[-0.23166666666666663,-0.0933333333333333,3.0095000000000027],[-0.25114583333333335,-0.09092592592592597,3.0305000000000035],[-0.27145833333333336,-0.10333333333333336,3.047599999964234],[-0.27145833333333336,-0.10333333333333336,3.059399999976158],[-0.29177083333333337,-0.11574074074074074,3.076099999964235],[-0.3219791666666667,-0.1507407407407407,3.09280000001192],[-0.33958333333333335,-0.18592592592592588,3.110099999964234],[-0.33958333333333335,-0.18592592592592588,3.130399999976156],[-0.2673958333333334,-0.2190740740740741,3.1430000000000007],[-0.2639583333333333,-0.24111111111111108,3.159599999964236],[-0.26052083333333337,-0.2631481481481482,3.1803000000119184],[-0.215625,-0.3122222222222223,3.197499999999998],[-0.16510416666666666,-0.3587037037037037,3.214399999976159],[-0.16510416666666666,-0.3587037037037037,3.2263999999761594],[-0.0921875,-0.4014814814814815,3.2428000000119184],[-0.0921875,-0.4014814814814815,3.2596999999880794],[0.009895833333333333,-0.4401851851851852,3.276099999964238],[0.0453125,-0.495,3.2948999999761597],[0.09614583333333329,-0.5162962962962964,3.3113000000119186],[0.09614583333333329,-0.5162962962962964,3.326099999964235],[0.15968749999999995,-0.5611111111111111,3.3428999999761615],[0.15625,-0.5918518518518519,3.359800000011923],[0.21572916666666658,-0.6401851851851852,3.3780999999642347],[0.21572916666666658,-0.6401851851851852,3.392800000011924],[0.2752083333333334,-0.6885185185185185,3.4095000000000013],[0.2546875,-0.7148148148148148,3.4290999999642366],[0.2033333333333334,-0.7222222222222222,3.445999999999998],[0.2033333333333334,-0.7222222222222222,3.4593999999761564],[0.15197916666666675,-0.7296296296296296,3.476099999964241],[0.15197916666666675,-0.7296296296296296,3.498399999976158],[0.07229166666666677,-0.7429629629629629,3.5098000000119214],[0.08416666666666663,-0.7342592592592593,3.5325999999642406],[0.08416666666666663,-0.7342592592592593,3.5428999999761572],[0.09104166666666676,-0.6996296296296296,3.5636999999880814],[0.1125,-0.7075925925925927,3.580199999988082],[0.10552083333333329,-0.6599999999999999,3.5988999999761617],[0.10552083333333329,-0.6599999999999999,3.6143999999761576],[0.08791666666666677,-0.6514814814814816,3.6265],[0.09166666666666666,-0.6507407407407407,3.6433000000119193],[0.13270833333333343,-0.6453703703703704,3.6633000000119225],[0.19020833333333323,-0.642962962962963,3.6801999999880763],[0.24770833333333328,-0.6405555555555555,3.6965000000000003],[0.29093749999999996,-0.6301851851851852,3.7158000000119245],[0.29093749999999996,-0.6301851851851852,3.7263999999761594],[0.29270833333333335,-0.5964814814814815,3.74289999997616],[0.27583333333333326,-0.6098148148148148,3.7601999999880817],[0.24989583333333343,-0.5811111111111111,3.776099999964238],[0.24552083333333338,-0.6005555555555556,3.7935000000000016],[0.2228125000000001,-0.5748148148148148,3.8125],[0.2228125000000001,-0.5748148148148148,3.826199999988077],[0.1787499999999999,-0.5412962962962963,3.8450999999642406],[0.1492708333333333,-0.5092592592592593,3.8653000000119206],[0.1492708333333333,-0.5092592592592593,3.8760999999642394],[0.1337500000000001,-0.48055555555555557,3.892699999988082],[0.09979166666666663,-0.4661111111111111,3.9125000000000014],[0.09979166666666663,-0.4661111111111111,3.9260999999642365],[0.07020833333333343,-0.4438888888888889,3.942800000011921],[0.049583333333333354,-0.44462962962962965,3.9594999999999985],[0.057291666666666664,-0.43259259259259264,3.976099999964241],[0.058229166666666644,-0.4262962962962963,3.993800000011923],[0.058229166666666644,-0.4262962962962963,4.009399999976161],[0.05916666666666662,-0.42000000000000004,4.02619999998808],[0.07197916666666657,-0.42000000000000004,4.04339999997616],[0.08479166666666677,-0.42000000000000004,4.060199999988079],[0.08479166666666677,-0.42000000000000004,4.076099999964235],[0.10125000000000005,-0.42240740740740745,4.09280000001192],[0.11854166666666661,-0.4559259259259259,4.1114999999999995],[0.11854166666666661,-0.4559259259259259,4.130699999988082],[0.14739583333333334,-0.4764814814814815,4.143099999964235],[0.20145833333333343,-0.5064814814814815,4.161500000000004],[0.22208333333333338,-0.5207407407407407,4.1815],[0.22208333333333338,-0.5207407407407407,4.192800000011921],[0.24812500000000004,-0.528888888888889,4.20959999996424],[0.24812500000000004,-0.528888888888889,4.2263999999761594],[0.24697916666666658,-0.5314814814814814,4.2471999999880765],[0.2620833333333332,-0.5388888888888889,4.263699999988077],[0.3182291666666667,-0.47555555555555556,4.280199999988078],[0.3697916666666667,-0.41462962962962957,4.2998000000119205],[0.3697916666666667,-0.41462962962962957,4.3095],[0.38916666666666655,-0.4233333333333334,4.326300000011919],[0.40687499999999993,-0.402962962962963,4.345099999964241],[0.4314583333333334,-0.38129629629629624,4.363699999988079],[0.42520833333333335,-0.2942592592592592,4.379399999976158],[0.4599999999999999,-0.22925925925925927,4.39559999996424],[0.42947916666666663,-0.16796296296296295,4.413399999976157],[0.4273958333333333,-0.10592592592592591,4.431599999964234],[0.4273958333333333,-0.10592592592592591,4.443800000011919],[0.40031249999999996,-0.020185185185185143,4.461899999976161],[0.40031249999999996,-0.020185185185185143,4.482099999964241],[0.35281250000000003,-0.01962962962962967,4.49289999997616],[0.2794791666666666,-0.0544444444444444,4.510399999976158],[0.2794791666666666,-0.0544444444444444,4.52619999998808],[0.2482291666666666,-0.000925925925925926,4.542800000011923],[0.19208333333333344,0.011111111111111112,4.559399999976158],[0.15302083333333344,0.006666666666666709,4.5760000000000005],[0.11958333333333329,-0.053703703703703705,4.59280000001192],[0.096875,-0.13796296296296295,4.613500000000002],[0.09989583333333343,-0.18611111111111112,4.629699999988077],[0.08177083333333333,-0.23074074074074077,4.643999999999998],[0.07239583333333334,-0.2942592592592592,4.659500000000001],[0.04510416666666662,-0.3611111111111111,4.676000000000002],[0.04510416666666662,-0.3611111111111111,4.695599999964237],[0.07302083333333324,-0.37777777777777777,4.709399999976156],[0.04510416666666662,-0.42537037037037034,4.728399999976162],[0.024166666666666715,-0.41888888888888887,4.742699999988076],[0.024166666666666715,-0.41888888888888887,4.759399999976161],[-0.013854166666666619,-0.39592592592592596,4.776099999964238],[-0.05354166666666664,-0.3640740740740741,4.795000000000002],[-0.10770833333333331,-0.31962962962962965,4.8096999999880765],[-0.10770833333333331,-0.31962962962962965,4.826099999964235],[-0.15364583333333334,-0.30833333333333335,4.842699999988078],[-0.17374999999999996,-0.27981481481481485,4.8623000000119205]]","[0.0003000000119186552,0.0589999999999975,0.0671999999880768,0.07639999997616087,0.09309999996423812,0.11380000001192059,0.12650000000000006,0.14309999996423528,0.1600999999642383,0.17959999996423903,0.19309999996423954,0.21280000001192434,0.23219999998807594,0.2430999999642367,0.26319999998808186,0.2820999999642382,0.29289999997615723,0.3095999999642345,0.3288999999761586,0.34900000000000375,0.35959999996423875,0.37650000000000006,0.4030999999642404,0.41159999996423835,0.43080000001192076,0.44299999999999784,0.45949999999999847,0.4760999999642408,0.49669999998808123,0.5096999999880794,0.5265999999642403,0.5428999999761572,0.562399999976158,0.5760999999642351,0.5926999999880778,0.6133000000119182,0.6293000000119235,0.6448999999761611,0.6606999999880827,0.6790999999642366,0.6929999999999978,0.7095999999642402,0.7304999999999993,0.7434999999999974,0.7596999999880794,0.77619999998808,0.7965000000000018,0.8095999999642345,0.8265999999642375,0.8451999999880826,0.8623000000119205,0.8761999999880814,0.8930999999642353,0.9123000000119177,0.9265999999642389,0.9465000000000003,0.963599999964238,0.9798000000119202,0.9928000000119184,1.0095999999642373,1.02619999998808,1.0428000000119226,1.0643000000119187,1.0811999999880797,1.0930000000000035,1.1095999999642387,1.1308000000119236,1.1478999999761612,1.159599999964236,1.1763000000119206,1.1958000000119213,1.2155999999642404,1.2265000000000015,1.243000000000002,1.2631999999880819,1.2805000000000035,1.296300000011918,1.3136999999880814,1.3263999999761609,1.3430999999642381,1.3595999999642387,1.3795999999642348,1.3933000000119193,1.413399999976157,1.4294999999999973,1.4429999999999978,1.4600999999642355,1.4763000000119177,1.4969999999999999,1.5098000000119214,1.5265999999642403,1.548399999976155,1.5595999999642345,1.5763000000119192,1.5935999999642405,1.6138999999761552,1.6265999999642347,1.642800000011924,1.6595000000000013,1.6761999999880786,1.6928000000119212,1.7093999999761564,1.7263000000119177,1.7428000000119184,1.759999999999998,1.7766999999880824,1.793099999964241,1.8094999999999999,1.8281999999880796,1.847199999988078,1.859399999976155,1.8760999999642394,1.892800000011924,1.9125000000000014,1.929800000011923,1.946800000011919,1.9640999999642403,1.9760999999642408,1.9928000000119184,2.0093999999761607,2.0281999999880824,2.046899999976155,2.0628999999761604,2.078000000000003,2.0975000000000037,2.109399999976155,2.1265,2.1446999999880774,2.1605999999642407,2.1786999999880763,2.192699999988079,2.20959999996424,2.2270999999642385,2.2428000000119184,2.2593999999761607,2.277000000000001,2.296899999976155,2.3095,2.326199999988077,2.3428999999761615,2.359499999999997,2.3761999999880814,2.392800000011924,2.4098999999761617,2.429000000000002,2.442899999976156,2.4594999999999985,2.477599999964241,2.4928000000119184,2.5095000000000027,2.5308999999761568,2.54789999997616,2.563300000011921,2.576099999964235,2.59280000001192,2.609499999999997,2.6295999999642348,2.6428999999761587,2.6593999999761593,2.6761999999880786,2.6978999999761584,2.7153999999761567,2.7263000000119177,2.74289999997616,2.7601999999880817,2.7766999999880824,2.795499999999997,2.813199999988079,2.8313000000119217,2.8483000000119247,2.859499999999997,2.8759999999999977,2.8935999999642377,2.911099999964236,2.9293999999761553,2.945899999976156,2.9620000000000033,2.980699999988076,2.9928000000119184,3.0095000000000027,3.0305000000000035,3.047599999964234,3.059399999976158,3.076099999964235,3.09280000001192,3.110099999964234,3.130399999976156,3.1430000000000007,3.159599999964236,3.1803000000119184,3.197499999999998,3.214399999976159,3.2263999999761594,3.2428000000119184,3.2596999999880794,3.276099999964238,3.2948999999761597,3.3113000000119186,3.326099999964235,3.3428999999761615,3.359800000011923,3.3780999999642347,3.392800000011924,3.4095000000000013,3.4290999999642366,3.445999999999998,3.4593999999761564,3.476099999964241,3.498399999976158,3.5098000000119214,3.5325999999642406,3.5428999999761572,3.5636999999880814,3.580199999988082,3.5988999999761617,3.6143999999761576,3.6265,3.6433000000119193,3.6633000000119225,3.6801999999880763,3.6965000000000003,3.7158000000119245,3.7263999999761594,3.74289999997616,3.7601999999880817,3.776099999964238,3.7935000000000016,3.8125,3.826199999988077,3.8450999999642406,3.8653000000119206,3.8760999999642394,3.892699999988082,3.9125000000000014,3.9260999999642365,3.942800000011921,3.9594999999999985,3.976099999964241,3.993800000011923,4.009399999976161,4.02619999998808,4.04339999997616,4.060199999988079,4.076099999964235,4.09280000001192,4.1114999999999995,4.130699999988082,4.143099999964235,4.161500000000004,4.1815,4.192800000011921,4.20959999996424,4.2263999999761594,4.2471999999880765,4.263699999988077,4.280199999988078,4.2998000000119205,4.3095,4.326300000011919,4.345099999964241,4.363699999988079,4.379399999976158,4.39559999996424,4.413399999976157,4.431599999964234,4.443800000011919,4.461899999976161,4.482099999964241,4.49289999997616,4.510399999976158,4.52619999998808,4.542800000011923,4.559399999976158,4.5760000000000005,4.59280000001192,4.613500000000002,4.629699999988077,4.643999999999998,4.659500000000001,4.676000000000002,4.695599999964237,4.709399999976156,4.728399999976162,4.742699999988076,4.759399999976161,4.776099999964238,4.795000000000002,4.8096999999880765,4.826099999964235,4.842699999988078,4.8623000000119205]","[1732937460815,1732937460863,1732937460871,1732937460880,1732937460897,1732937460918,1732937460931,1732937460947,1732937460964,1732937460984,1732937460997,1732937461017,1732937461036,1732937461047,1732937461067,1732937461086,1732937461097,1732937461114,1732937461133,1732937461153,1732937461164,1732937461181,1732937461207,1732937461216,1732937461235,1732937461247,1732937461264,1732937461280,1732937461301,1732937461314,1732937461331,1732937461347,1732937461366,1732937461380,1732937461397,1732937461417,1732937461433,1732937461449,1732937461465,1732937461483,1732937461497,1732937461514,1732937461535,1732937461548,1732937461564,1732937461580,1732937461601,1732937461614,1732937461631,1732937461649,1732937461666,1732937461680,1732937461697,1732937461716,1732937461731,1732937461751,1732937461768,1732937461784,1732937461797,1732937461814,1732937461830,1732937461847,1732937461868,1732937461885,1732937461897,1732937461914,1732937461935,1732937461952,1732937461964,1732937461980,1732937462000,1732937462020,1732937462031,1732937462047,1732937462067,1732937462085,1732937462100,1732937462118,1732937462130,1732937462147,1732937462164,1732937462184,1732937462197,1732937462218,1732937462234,1732937462247,1732937462264,1732937462280,1732937462301,1732937462314,1732937462331,1732937462353,1732937462364,1732937462380,1732937462398,1732937462418,1732937462431,1732937462447,1732937462464,1732937462480,1732937462497,1732937462514,1732937462530,1732937462547,1732937462564,1732937462581,1732937462597,1732937462614,1732937462632,1732937462651,1732937462664,1732937462680,1732937462697,1732937462717,1732937462734,1732937462751,1732937462768,1732937462780,1732937462797,1732937462814,1732937462832,1732937462851,1732937462867,1732937462882,1732937462902,1732937462914,1732937462931,1732937462949,1732937462965,1732937462983,1732937462997,1732937463014,1732937463031,1732937463047,1732937463064,1732937463081,1732937463101,1732937463114,1732937463130,1732937463147,1732937463164,1732937463180,1732937463197,1732937463214,1732937463233,1732937463247,1732937463264,1732937463282,1732937463297,1732937463314,1732937463335,1732937463352,1732937463367,1732937463380,1732937463397,1732937463414,1732937463434,1732937463447,1732937463464,1732937463480,1732937463502,1732937463519,1732937463530,1732937463547,1732937463564,1732937463581,1732937463600,1732937463617,1732937463635,1732937463652,1732937463664,1732937463680,1732937463698,1732937463715,1732937463733,1732937463750,1732937463766,1732937463785,1732937463797,1732937463814,1732937463835,1732937463852,1732937463863,1732937463880,1732937463897,1732937463914,1732937463935,1732937463947,1732937463964,1732937463984,1732937464002,1732937464018,1732937464030,1732937464047,1732937464064,1732937464080,1732937464099,1732937464115,1732937464130,1732937464147,1732937464164,1732937464182,1732937464197,1732937464214,1732937464233,1732937464250,1732937464264,1732937464280,1732937464303,1732937464314,1732937464337,1732937464347,1732937464368,1732937464384,1732937464403,1732937464419,1732937464431,1732937464447,1732937464467,1732937464484,1732937464501,1732937464520,1732937464531,1732937464547,1732937464564,1732937464580,1732937464598,1732937464617,1732937464630,1732937464650,1732937464669,1732937464680,1732937464697,1732937464717,1732937464730,1732937464747,1732937464764,1732937464780,1732937464798,1732937464813,1732937464830,1732937464848,1732937464864,1732937464880,1732937464897,1732937464916,1732937464935,1732937464947,1732937464966,1732937464986,1732937464997,1732937465014,1732937465031,1732937465051,1732937465068,1732937465084,1732937465104,1732937465114,1732937465130,1732937465149,1732937465168,1732937465184,1732937465200,1732937465217,1732937465236,1732937465248,1732937465266,1732937465286,1732937465297,1732937465315,1732937465330,1732937465347,1732937465363,1732937465380,1732937465397,1732937465418,1732937465434,1732937465448,1732937465464,1732937465480,1732937465500,1732937465514,1732937465533,1732937465547,1732937465563,1732937465580,1732937465599,1732937465614,1732937465630,1732937465647,1732937465666]","[[1263.2,185.6],[1263.2,185.6],[1191.8,212],[1191.8,212],[1169.2,202.2],[1186.8,179.5],[1186.8,179.5],[1133.7,214.2],[1148.4,237.2],[1148.4,237.2],[1168.7,276.3],[1154.1,266.1],[1154.1,266.1],[1126.1,329],[1096.5,381.3],[1039.1,422.1],[1039.1,422.1],[1064.1,412],[1083,425.9],[1086.4,428.8],[1086.4,428.8],[1111.5,413.9],[1090.1,435.8],[1090.1,435.8],[1112.7,444.5],[1112.7,444.5],[1097.9,465],[1097.9,465],[1069.3,466.5],[1069.3,466.5],[1061.6,447.8],[1061.6,447.8],[1067.6,437.4],[1055.4,447.1],[1054.6,444.7],[1005.8,437.1],[976.1,438.5],[959.5,434.6],[929.3,436.3],[929.3,436.3],[957.5,429],[974.6,429.7],[1013.1,443.2],[1013.1,443.2],[1069.2,444.8],[1069.2,444.8],[1103.1,439.4],[1103.1,439.4],[1071.9,422.2],[1102.4,417.2],[1104,413.7],[1104,413.7],[1087.6,399.7],[1104.2,396],[1083.4,376.5],[1062.2,365.7],[1063.1,361],[1035.6,350.3],[1035.6,350.3],[1008.1,339.6],[1008.1,339.6],[1035.9,360.2],[1046.7,351.2],[1085.9,328],[1085.9,328],[1131.6,320],[1163.6,306.8],[1161.9,305.3],[1161.9,305.3],[1165.2,300.3],[1143.2,277.1],[1120.3,281.4],[1120.3,281.4],[1099.7,279.6],[1081.7,260.5],[1059.7,247.4],[1055.9,245.3],[1066.6,246.6],[1066.6,246.6],[1021.6,249.7],[1021.6,249.7],[993.2,249.6],[986.8,250.7],[998.4,264.2],[998.4,264.2],[1018.6,253.4],[1028.1,260.3],[1013.2,247.3],[995.4,257.7],[995.4,257.7],[959.7,267.7],[943.5,274],[943.5,274],[964.1,270.8],[1007.9,267],[1034.6,257.9],[1034.6,257.9],[1033.1,255.8],[1015.5,266.5],[1003.7,255.1],[1003.7,255.1],[1023.5,261.4],[1023.5,261.4],[1003.8,258.3],[1005.7,263.8],[955,271.5],[903.9,281.8],[865.3,302.9],[838,331.2],[803.2,347],[803.2,347],[788.6,357.3],[776.9,372],[760,390.6],[768.3,411.5],[741.5,400.9],[747.7,393.4],[747.7,393.4],[736.3,389.7],[724.9,381.1],[706.5,368.2],[715.3,363.2],[724.1,358.2],[762.2,333.9],[805.5,305.7],[805.5,305.7],[834.8,294.3],[894.8,294.2],[915.3,279.4],[969.4,267.1],[1023.5,254.8],[1068.1,242.3],[1091.7,221.7],[1091.7,221.7],[1146.6,229],[1134.3,241.1],[1122,253.2],[1122,253.2],[1127.7,270.4],[1127.7,270.4],[1106.6,299.8],[1106.6,299.8],[1102.1,328.4],[1104.3,353.8],[1100.6,375.1],[1100.6,375.1],[1100.4,392.4],[1110.8,410.8],[1110.8,410.8],[1091.9,401],[1130.5,415.6],[1136.6,433.3],[1135.4,430.2],[1135.4,430.2],[1156.3,415.2],[1171.9,409.6],[1128.7,393.1],[1128.7,393.1],[1079.9,385.5],[1040.4,390.9],[991.8,399.6],[929.4,398.5],[929.4,398.5],[857.2,397.4],[817.5,393.2],[781.1,387.9],[729,400.6],[693.3,409.7],[693.7,426.6],[715.1,439.2],[715.1,439.2],[724,444.2],[741.8,442.6],[747.1,463.9],[727,468.7],[728.2,478.2],[729.4,487.7],[734.8,486.3],[734.8,486.3],[737.6,489.6],[718.9,490.9],[699.4,484.2],[699.4,484.2],[679.9,477.5],[650.9,458.6],[634,439.6],[634,439.6],[703.3,421.7],[706.6,409.8],[709.9,397.9],[753,371.4],[801.5,346.3],[801.5,346.3],[871.5,323.2],[871.5,323.2],[969.5,302.3],[1003.5,272.7],[1052.3,261.2],[1052.3,261.2],[1113.3,237],[1110,220.4],[1167.1,194.3],[1167.1,194.3],[1224.2,168.2],[1204.5,154],[1155.2,150],[1155.2,150],[1105.9,146],[1105.9,146],[1029.4,138.8],[1040.8,143.5],[1040.8,143.5],[1047.4,162.2],[1068,157.9],[1061.3,183.6],[1061.3,183.6],[1044.4,188.2],[1048,188.6],[1087.4,191.5],[1142.6,192.8],[1197.8,194.1],[1239.3,199.7],[1239.3,199.7],[1241,217.9],[1224.8,210.7],[1199.9,226.2],[1195.7,215.7],[1173.9,229.6],[1173.9,229.6],[1131.6,247.7],[1103.3,265],[1103.3,265],[1088.4,280.5],[1055.8,288.3],[1055.8,288.3],[1027.4,300.3],[1007.6,299.9],[1015,306.4],[1015.9,309.8],[1015.9,309.8],[1016.8,313.2],[1029.1,313.2],[1041.4,313.2],[1041.4,313.2],[1057.2,311.9],[1073.8,293.8],[1073.8,293.8],[1101.5,282.7],[1153.4,266.5],[1173.2,258.8],[1173.2,258.8],[1198.2,254.4],[1198.2,254.4],[1197.1,253],[1211.6,249],[1265.5,283.2],[1315,316.1],[1315,316.1],[1333.6,311.4],[1350.6,322.4],[1374.2,334.1],[1368.2,381.1],[1401.6,416.2],[1372.3,449.3],[1370.3,482.8],[1370.3,482.8],[1344.3,529.1],[1344.3,529.1],[1298.7,529.4],[1228.3,510.6],[1228.3,510.6],[1198.3,539.5],[1144.4,546],[1106.9,543.6],[1074.8,511],[1053,465.5],[1055.9,439.5],[1038.5,415.4],[1029.5,381.1],[1003.3,345],[1003.3,345],[1030.1,336],[1003.3,310.3],[983.2,313.8],[983.2,313.8],[946.7,326.2],[908.6,343.4],[856.6,367.4],[856.6,367.4],[812.5,373.5],[793.2,388.9]]","[-0.132282,0.39684600000000003]","[0.132282,0.39684600000000003]","[0.39684600000000003,0.39684600000000003]","[-0.39684600000000003,-0.39684600000000003]","[-0.39684600000000003,-0.132282]","[-0.39684600000000003,0.132282]","[-0.132282,-0.39684600000000003]","[0.132282,-0.39684600000000003]","[0.39684600000000003,-0.39684600000000003]","[-0.132282,-0.132282]","[0.132282,-0.132282]","[0.39684600000000003,-0.132282]","[-0.132282,0.132282]","[0.132282,0.132282]","[0.39684600000000003,0.132282]",0,0,0,0,1,3,Tablet,25,40,9,1,50,4,1,60,5
,,,,,,,,,,,,,,,,,,,29,001,2024-11-30_11h30.21.981,Attention_exp_legacy,2023.1.0,Win32,60.24096386,,,,,,,,,,,[0.16875],[0.4185185185185185],[1],[0],[0],[2.6205],"[""Metro_label""]",Metro_label,2,3.6331,"[[0.178125,0.35],[0.178125,0.35],[0.178125,0.35],[0.178125,0.35],[0.178125,0.35],[0.178125,0.35],[0.178125,0.35],[0.178125,0.35],[0.178125,0.35],[0.178125,0.35],[0.178125,0.35],[0.178125,0.35],[0.178125,0.35],[0.178125,0.35],[0.178125,0.35],[0.178125,0.35],[0.178125,0.35],[0.178125,0.35],[0.178125,0.35],[0.178125,0.35],[0.178125,0.35],[0.178125,0.35],[0.178125,0.35],[0.178125,0.35],[0.178125,0.35],[0.178125,0.35],[0.178125,0.35],[0.178125,0.35],[0.178125,0.35],[0.178125,0.35],[0.178125,0.35],[0.178125,0.35],[0.178125,0.35],[0.178125,0.35],[0.178125,0.35],[0.178125,0.35],[0.178125,0.35],[0.178125,0.35],[0.178125,0.35],[0.178125,0.35],[0.178125,0.35],[0.178125,0.35],[0.178125,0.35],[0.178125,0.35],[0.178125,0.35],[0.178125,0.35],[0.178125,0.35],[0.178125,0.35],[0.178125,0.35],[0.178125,0.35],[0.178125,0.35],[0.178125,0.35],[0.178125,0.35],[0.178125,0.35],[0.178125,0.35],[0.178125,0.35],[0.178125,0.35],[0.178125,0.35],[0.178125,0.35],[0.178125,0.35],[0.178125,0.35],[0.178125,0.35],[0.178125,0.35],[0.178125,0.35],[0.178125,0.35],[0.178125,0.35],[0.178125,0.35],[0.178125,0.35],[0.178125,0.35],[0.178125,0.35],[0.178125,0.35],[0.178125,0.35],[0.178125,0.35],[0.178125,0.35],[0.178125,0.35],[0.178125,0.35],[0.178125,0.35],[0.178125,0.35],[0.178125,0.35],[0.178125,0.35],[0.178125,0.35],[0.178125,0.35],[0.178125,0.35],[0.178125,0.35],[0.178125,0.35],[0.178125,0.35],[0.178125,0.35],[0.178125,0.35],[0.178125,0.35],[0.178125,0.35],[0.178125,0.35],[0.178125,0.35],[0.178125,0.35],[0.178125,0.35],[0.178125,0.35],[0.178125,0.35],[0.178125,0.35],[0.178125,0.35],[0.178125,0.35],[0.178125,0.35],[0.178125,0.35],[0.178125,0.35],[0.178125,0.35],[0.178125,0.35],[0.178125,0.35],[0.178125,0.35],[0.178125,0.35],[0.178125,0.35],[0.178125,0.35],[0.178125,0.35],[0.178125,0.35],[0.178125,0.35],[0.178125,0.35],[0.178125,0.35],[0.178125,0.35],[0.178125,0.35],[0.178125,0.35],[0.178125,0.35],[0.178125,0.35],[0.178125,0.35],[0.178125,0.35],[0.178125,0.35],[0.178125,0.35],[0.178125,0.35],[0.178125,0.35],[0.178125,0.35],[0.178125,0.35],[0.178125,0.35],[0.178125,0.35],[0.178125,0.35],[0.178125,0.35],[0.178125,0.35],[0.178125,0.35],[0.178125,0.35],[0.178125,0.35],[0.178125,0.35],[0.178125,0.35],[0.178125,0.35],[0.178125,0.35],[0.178125,0.35],[0.178125,0.35],[0.178125,0.35],[0.178125,0.35],[0.178125,0.35],[0.178125,0.35],[0.17916666666666667,0.35185185185185186],[0.17916666666666667,0.3611111111111111],[0.178125,0.3814814814814815],[0.175,0.39444444444444443],[0.17395833333333333,0.4],[0.17083333333333334,0.412962962962963],[0.16875,0.4185185185185185],[0.16875,0.4185185185185185],[0.16875,0.4185185185185185],[0.16875,0.4185185185185185],[0.16875,0.4185185185185185],[0.16875,0.4185185185185185],[0.16875,0.4185185185185185],[0.16875,0.4185185185185185],[0.16875,0.4185185185185185],[0.16875,0.4185185185185185],[0.16875,0.4185185185185185],[0.16875,0.4185185185185185],[0.16875,0.4185185185185185],[0.16875,0.4185185185185185],[0.16875,0.4185185185185185],[0.16875,0.4185185185185185],[0.16875,0.4185185185185185],[0.16875,0.4185185185185185],[0.16875,0.4185185185185185],[0.16875,0.4185185185185185],[0.16875,0.4185185185185185],[0.16875,0.4185185185185185],[0.16875,0.4185185185185185],[0.16875,0.4185185185185185],[0.16875,0.4185185185185185],[0.16875,0.4185185185185185],[0.16875,0.4185185185185185],[0.16875,0.4185185185185185],[0.16875,0.4185185185185185],[0.16875,0.4185185185185185],[0.16875,0.4185185185185185],[0.16875,0.4185185185185185],[0.16875,0.4185185185185185],[0.16875,0.4185185185185185],[0.16875,0.4185185185185185],[0.16875,0.4185185185185185],[0.16875,0.4185185185185185],[0.16875,0.4185185185185185],[0.16875,0.4185185185185185],[0.16875,0.4185185185185185],[0.16875,0.4185185185185185],[0.16875,0.4185185185185185],[0.16875,0.4185185185185185],[0.16875,0.4185185185185185],[0.16875,0.4185185185185185],[0.16875,0.4185185185185185],[0.16875,0.4185185185185185],[0.16875,0.4185185185185185],[0.16875,0.4185185185185185],[0.16875,0.4185185185185185],[0.16875,0.4185185185185185],[0.16875,0.4185185185185185],[0.16875,0.4185185185185185],[0.16875,0.4185185185185185],[0.16875,0.4185185185185185],[0.16875,0.4185185185185185],[0.16875,0.4185185185185185],[0.16875,0.4185185185185185],[0.16875,0.4185185185185185],[0.16875,0.4185185185185185],[0.16875,0.4185185185185185],[0.16875,0.4185185185185185],[0.16875,0.4185185185185185],[0.16875,0.4185185185185185],[0.16875,0.4185185185185185],[0.16875,0.4185185185185185],[0.16875,0.4185185185185185],[0.16875,0.4185185185185185]]","[[0.09458333333333328,-0.15407407407407406],[0.06666666666666667,-0.1544444444444444],[0.06312500000000003,-0.1809259259259259],[0.07979166666666657,-0.22166666666666665],[0.09645833333333324,-0.23648148148148146],[0.09072916666666657,-0.24611111111111106],[0.11989583333333324,-0.23166666666666672],[0.13395833333333323,-0.24129629629629631],[0.11645833333333329,-0.23129629629629625],[0.1209374999999999,-0.2309259259259259],[0.13614583333333338,-0.23925925925925923],[0.1306250000000001,-0.2712962962962963],[0.11218750000000005,-0.2690740740740741],[0.09718749999999995,-0.26481481481481484],[0.06541666666666662,-0.2822222222222222],[0.06479166666666672,-0.27999999999999997],[0.04083333333333338,-0.30166666666666664],[0.028541666666666642,-0.31370370370370365],[0.02302083333333336,-0.3190740740740741],[0.03104166666666662,-0.33240740740740743],[0.03937499999999995,-0.32981481481481484],[0.06208333333333336,-0.31962962962962965],[0.07625000000000005,-0.3188888888888889],[0.07625000000000005,-0.3188888888888889],[0.07531249999999995,-0.32981481481481484],[0.13354166666666673,-0.34314814814814815],[0.1388541666666666,-0.35185185185185186],[0.1388541666666666,-0.35185185185185186],[0.15010416666666657,-0.35999999999999993],[0.14854166666666657,-0.3501851851851852],[0.16114583333333338,-0.37],[0.16114583333333338,-0.37],[0.15760416666666663,-0.37240740740740746],[0.16041666666666668,-0.3668518518518519],[0.16041666666666668,-0.3668518518518519],[0.1492708333333333,-0.3653703703703704],[0.14479166666666668,-0.3866666666666667],[0.14114583333333333,-0.40499999999999997],[0.14114583333333333,-0.40499999999999997],[0.09052083333333343,-0.3875925925925926],[0.09052083333333343,-0.3875925925925926],[0.09395833333333338,-0.3816666666666667],[0.10052083333333334,-0.35462962962962963],[0.12854166666666675,-0.34203703703703703],[0.15895833333333323,-0.34333333333333327],[0.1881249999999999,-0.32518518518518524],[0.18479166666666677,-0.33240740740740743],[0.18479166666666677,-0.33240740740740743],[0.18114583333333342,-0.30703703703703705],[0.18541666666666667,-0.29611111111111105],[0.1915625000000001,-0.2837037037037037],[0.2125,-0.3164814814814814],[0.20302083333333343,-0.29796296296296293],[0.20729166666666668,-0.31203703703703706],[0.18114583333333342,-0.31074074074074076],[0.16760416666666675,-0.26500000000000007],[0.16760416666666675,-0.26500000000000007],[0.16458333333333333,-0.22870370370370371],[0.17135416666666667,-0.23444444444444448],[0.17604166666666668,-0.2346296296296296],[0.16447916666666676,-0.18185185185185182],[0.14322916666666666,-0.15777777777777777],[0.12020833333333343,-0.1242592592592593],[0.10843749999999991,-0.12111111111111107],[0.10239583333333328,-0.11555555555555551],[0.09229166666666658,-0.11870370370370374],[0.07760416666666667,-0.13333333333333333],[0.06291666666666665,-0.1479629629629629],[0.04854166666666669,-0.15777777777777777],[0.03343750000000002,-0.12888888888888894],[0.03125,-0.172037037037037],[0.02374999999999995,-0.1648148148148148],[0.02374999999999995,-0.1648148148148148],[0.028125,-0.17296296296296293],[0.03114583333333331,-0.1542592592592593],[0.028437499999999952,-0.13796296296296295],[0.028437499999999952,-0.13796296296296295],[0.04770833333333328,-0.12462962962962965],[0.04906250000000002,-0.1294444444444444],[0.029166666666666667,-0.13481481481481483],[0.02020833333333331,-0.11148148148148146],[0.028125,-0.14425925925925923],[0.05249999999999998,-0.10111111111111115],[0.0806250000000001,-0.06018518518518518],[0.15052083333333333,-0.0514814814814814],[0.20416666666666666,-0.045740740740740825],[0.24020833333333325,-0.02296296296296292],[0.26197916666666665,-0.007592592592592635],[0.26197916666666665,-0.007592592592592635],[0.27447916666666666,0.020555555555555598],[0.30572916666666666,0.05592592592592601],[0.3385416666666667,0.07907407407407416],[0.3680208333333333,0.10425925925925918],[0.35833333333333334,0.05740740740740741],[0.35833333333333334,0.05740740740740741],[0.35302083333333345,0.028888888888888933],[0.35302083333333345,0.028888888888888933],[0.3398958333333333,0.0485185185185186],[0.3398958333333333,0.0485185185185186],[0.3255208333333333,0.05185185185185185],[0.3255208333333333,0.05185185185185185],[0.2951041666666666,0.03611111111111111],[0.26104166666666656,0.03944444444444436],[0.2273958333333333,0.02111111111111107],[0.21947916666666673,0.012037037037037037],[0.1788541666666667,0.00851851851851856],[0.16635416666666672,0.03148148148148148],[0.18364583333333329,0.08796296296296297],[0.1681250000000001,0.11203703703703703],[0.14520833333333344,0.11999999999999991],[0.13708333333333325,0.14129629629629623],[0.16260416666666658,0.1646296296296296],[0.1622916666666666,0.17759259259259255],[0.1622916666666666,0.17759259259259255],[0.17083333333333334,0.19944444444444454],[0.15552083333333327,0.19518518518518516],[0.17760416666666667,0.21203703703703702],[0.16135416666666677,0.21351851851851844],[0.15437500000000004,0.17481481481481478],[0.17583333333333329,0.15018518518518523],[0.14385416666666656,0.08777777777777773],[0.14385416666666656,0.08777777777777773],[0.1271874999999999,0.018148148148148063],[0.11697916666666662,-0.022037037037036994],[0.13635416666666675,-0.04425925925925922],[0.13635416666666675,-0.04425925925925922],[0.15572916666666667,-0.06648148148148143],[0.2013541666666666,-0.08296296296296299],[0.18562500000000004,-0.12740740740740744],[0.18562500000000004,-0.12740740740740744],[0.1953125,-0.18870370370370365],[0.18708333333333324,-0.19796296296296292],[0.20020833333333338,-0.21574074074074073],[0.20020833333333338,-0.21574074074074073],[0.23010416666666675,-0.1896296296296296],[0.24854166666666658,-0.16592592592592598],[0.2555208333333333,-0.17999999999999997],[0.2555208333333333,-0.17999999999999997],[0.24489583333333323,-0.21074074074074076],[0.22489583333333343,-0.22777777777777777],[0.18458333333333338,-0.2548148148148149],[0.18458333333333338,-0.2548148148148149],[0.2009375000000001,-0.28055555555555556],[0.17395833333333333,-0.27611111111111114],[0.1896874999999999,-0.3024074074074074],[0.1896874999999999,-0.3024074074074074],[0.175,-0.3122222222222223],[0.13666666666666671,-0.30481481481481487],[0.10166666666666657,-0.3290740740740741],[0.10166666666666657,-0.3290740740740741],[0.08093750000000005,-0.3333333333333333],[0.08093750000000005,-0.3333333333333333],[0.05604166666666662,-0.32833333333333337],[0.05604166666666662,-0.32833333333333337],[0.05354166666666664,-0.33925925925925926],[0.057187499999999974,-0.3316666666666667],[0.04874999999999995,-0.32629629629629625],[0.051770833333333384,-0.3205555555555556],[0.051770833333333384,-0.3205555555555556],[0.0421875,-0.30777777777777776],[0.0421875,-0.30777777777777776],[-0.0037500000000000237,-0.28648148148148145],[-0.017604166666666643,-0.29018518518518516],[-0.0359375,-0.2681481481481482],[-0.005729166666666666,-0.26888888888888884],[-0.005729166666666666,-0.26888888888888884],[0.036666666666666715,-0.26851851851851855],[0.06614583333333333,-0.2442592592592592],[0.07145833333333323,-0.22999999999999998],[0.08885416666666662,-0.21351851851851855],[0.08885416666666662,-0.21351851851851855],[0.13052083333333328,-0.20611111111111113],[0.12635416666666663,-0.18425925925925926],[0.14916666666666673,-0.1764814814814815],[0.16354166666666667,-0.1609259259259259],[0.18895833333333342,-0.13222222222222219],[0.1803124999999999,-0.12148148148148152],[0.1775000000000001,-0.11203703703703703],[0.1775000000000001,-0.11203703703703703],[0.1397916666666667,-0.10944444444444448],[0.15260416666666668,-0.10185185185185185],[0.16541666666666663,-0.09425925925925922],[0.16541666666666663,-0.09425925925925922],[0.09489583333333323,-0.07999999999999997],[0.09489583333333323,-0.07999999999999997],[0.06239583333333331,-0.06185185185185181],[0.0265625,-0.039629629629629584],[0.003333333333333381,-0.005740740740740783],[-0.03239583333333336,0.013888888888888888],[-0.09187500000000005,0.0625925925925925],[-0.14197916666666663,0.06925925925925921],[-0.1640625,0.06407407407407412],[-0.20093749999999996,0.09314814814814806],[-0.23781249999999995,0.12222222222222222],[-0.2341666666666666,0.1257407407407407],[-0.2476041666666667,0.11999999999999991],[-0.18479166666666663,0.17111111111111107],[-0.14395833333333338,0.1737037037037036],[-0.08052083333333329,0.205925925925926],[0.017812500000000023,0.20759259259259263],[0.10677083333333333,0.2512962962962964],[0.18875000000000006,0.297037037037037],[0.18875000000000006,0.297037037037037],[0.2384375000000001,0.30907407407407406],[0.2509375000000001,0.3653703703703703],[0.2953125,0.4353703703703704],[0.34385416666666657,0.5218518518518518],[0.3366666666666667,0.5346296296296297],[0.34187500000000004,0.5748148148148148],[0.3537499999999999,0.6040740740740742],[0.29229166666666656,0.6185185185185185],[0.2196875000000001,0.6277777777777778],[0.17437500000000009,0.6224074074074074],[0.13833333333333328,0.6174074074074074],[0.1818749999999999,0.5459259259259258],[0.1818749999999999,0.5459259259259258],[0.2068749999999999,0.48037037037037034],[0.2068749999999999,0.48037037037037034],[0.20739583333333325,0.4035185185185185]]","[[0.09458333333333328,-0.15407407407407406,0.00019999998807662678],[0.06666666666666667,-0.1544444444444444,0.020699999988075035],[0.06312500000000003,-0.1809259259259259,0.03679999995231498],[0.07979166666666657,-0.22166666666666665,0.05359999996423426],[0.09645833333333324,-0.23648148148148146,0.06829999995231617],[0.09072916666666657,-0.24611111111111106,0.083099999964233],[0.11989583333333324,-0.23166666666666672,0.09969999998807566],[0.13395833333333323,-0.24129629629629631,0.11649999999999494],[0.11645833333333329,-0.23129629629629625,0.13309999996423727],[0.1209374999999999,-0.2309259259259259,0.14999999999999858],[0.13614583333333338,-0.23925925925925923,0.16639999997615718],[0.1306250000000001,-0.2712962962962963,0.1839999999999975],[0.11218750000000005,-0.2690740740740741,0.19979999995231168],[0.09718749999999995,-0.26481481481481484,0.21949999999999648],[0.06541666666666662,-0.2822222222222222,0.2365999999642341],[0.06479166666666672,-0.27999999999999997,0.25459999996423477],[0.04083333333333338,-0.30166666666666664,0.2711999999880774],[0.028541666666666642,-0.31370370370370365,0.28699999999999903],[0.02302083333333336,-0.3190740740740741,0.30349999999999966],[0.03104166666666662,-0.33240740740740743,0.32059999996423727],[0.03937499999999995,-0.32981481481481484,0.3341999999880798],[0.06208333333333336,-0.31962962962962965,0.3499999999999943],[0.07625000000000005,-0.3188888888888889,0.3680999999642367],[0.07625000000000005,-0.3188888888888889,0.38299999999999557],[0.07531249999999995,-0.32981481481481484,0.3997999999523145],[0.13354166666666673,-0.34314814814814815,0.41739999997615485],[0.1388541666666666,-0.35185185185185186,0.43309999996423443],[0.1388541666666666,-0.35185185185185186,0.4497999999523117],[0.15010416666666657,-0.35999999999999993,0.46659999996423807],[0.14854166666666657,-0.3501851851851852,0.4830999999642316],[0.16114583333333338,-0.37,0.49979999995231594],[0.16114583333333338,-0.37,0.5165000000000006],[0.15760416666666663,-0.37240740740740746,0.5330999999642358],[0.16041666666666668,-0.3668518518518519,0.555399999976153],[0.16041666666666668,-0.3668518518518519,0.5665999999642324],[0.1492708333333333,-0.3653703703703704,0.583199999988075],[0.14479166666666668,-0.3866666666666667,0.6030999999642361],[0.14114583333333333,-0.40499999999999997,0.6217999999523158],[0.14114583333333333,-0.40499999999999997,0.6330999999642373],[0.09052083333333343,-0.3875925925925926,0.6498999999761566],[0.09052083333333343,-0.3875925925925926,0.6664999999999992],[0.09395833333333338,-0.3816666666666667,0.6830999999642344],[0.10052083333333334,-0.35462962962962963,0.6996999999880771],[0.12854166666666675,-0.34203703703703703,0.7169999999999987],[0.15895833333333323,-0.34333333333333327,0.7368999999761527],[0.1881249999999999,-0.32518518518518524,0.7546999999880768],[0.18479166666666677,-0.33240740740740743,0.7700999999642377],[0.18479166666666677,-0.33240740740740743,0.7830999999642358],[0.18114583333333342,-0.30703703703703705,0.7997999999523131],[0.18541666666666667,-0.29611111111111105,0.8166999999880744],[0.1915625000000001,-0.2837037037037037,0.833099999964233],[0.2125,-0.3164814814814814,0.8511999999880757],[0.20302083333333343,-0.29796296296296293,0.8698999999761554],[0.20729166666666668,-0.31203703703703706,0.8840999999642349],[0.18114583333333342,-0.31074074074074076,0.8996999999880799],[0.16760416666666675,-0.26500000000000007,0.9172999999523128],[0.16760416666666675,-0.26500000000000007,0.9330999999642344],[0.16458333333333333,-0.22870370370370371,0.9498999999761537],[0.17135416666666667,-0.23444444444444448,0.9668999999761567],[0.17604166666666668,-0.2346296296296296,0.9846999999880737],[0.16447916666666676,-0.18185185185185182,1.0026999999880744],[0.14322916666666666,-0.15777777777777777,1.020699999988075],[0.12020833333333343,-0.1242592592592593,1.036899999976157],[0.10843749999999991,-0.12111111111111107,1.054599999964232],[0.10239583333333328,-0.11555555555555551,1.0704999999999956],[0.09229166666666658,-0.11870370370370374,1.0868999999761542],[0.07760416666666667,-0.13333333333333333,1.1026999999880758],[0.06291666666666665,-0.1479629629629629,1.120899999976153],[0.04854166666666669,-0.15777777777777777,1.1382999999523165],[0.03343750000000002,-0.12888888888888894,1.154799999952317],[0.03125,-0.172037037037037,1.1705999999642316],[0.02374999999999995,-0.1648148148148148,1.1891999999880767],[0.02374999999999995,-0.1648148148148148,1.1997999999523117],[0.028125,-0.17296296296296293,1.2163999999761543],[0.03114583333333331,-0.1542592592592593,1.232999999999997],[0.028437499999999952,-0.13796296296296295,1.2507999999523136],[0.028437499999999952,-0.13796296296296295,1.2665000000000006],[0.04770833333333328,-0.12462962962962965,1.2830999999642358],[0.04906250000000002,-0.1294444444444444,1.2998999999761551],[0.029166666666666667,-0.13481481481481483,1.3166999999880744],[0.02020833333333331,-0.11148148148148146,1.3376999999880752],[0.028125,-0.14425925925925923,1.3547999999523128],[0.05249999999999998,-0.10111111111111115,1.3717999999523158],[0.0806250000000001,-0.06018518518518518,1.3876999999880795],[0.15052083333333333,-0.0514814814814814,1.4042999999523147],[0.20416666666666666,-0.045740740740740825,1.4207999999523153],[0.24020833333333325,-0.02296296296296292,1.4353999999761555],[0.26197916666666665,-0.007592592592592635,1.4512999999523117],[0.26197916666666665,-0.007592592592592635,1.4663999999761543],[0.27447916666666666,0.020555555555555598,1.4830999999642316],[0.30572916666666666,0.05592592592592601,1.5008999999761556],[0.3385416666666667,0.07907407407407416,1.5173999999761563],[0.3680208333333333,0.10425925925925918,1.535299999952315],[0.35833333333333334,0.05740740740740741,1.5557999999523133],[0.35833333333333334,0.05740740740740741,1.5663999999761558],[0.35302083333333345,0.028888888888888933,1.583099999964233],[0.35302083333333345,0.028888888888888933,1.5997999999523174],[0.3398958333333333,0.0485185185185186,1.616499999999995],[0.3398958333333333,0.0485185185185186,1.6331999999880793],[0.3255208333333333,0.05185185185185185,1.6498999999761566],[0.3255208333333333,0.05185185185185185,1.6664999999999992],[0.2951041666666666,0.03611111111111111,1.6830999999642344],[0.26104166666666656,0.03944444444444436,1.699699999988077],[0.2273958333333333,0.02111111111111107,1.7163999999761543],[0.21947916666666673,0.012037037037037037,1.7341999999880784],[0.1788541666666667,0.00851851851851856,1.7542999999523161],[0.16635416666666672,0.03148148148148148,1.7696999999880774],[0.18364583333333329,0.08796296296296297,1.7866999999880804],[0.1681250000000001,0.11203703703703703,1.8044999999999973],[0.14520833333333344,0.11999999999999991,1.820799999952314],[0.13708333333333325,0.14129629629629623,1.8369999999999962],[0.16260416666666658,0.1646296296296296,1.8539999999999992],[0.1622916666666666,0.17759259259259255,1.873399999976158],[0.1622916666666666,0.17759259259259255,1.8831999999880793],[0.17083333333333334,0.19944444444444454,1.89969999998808],[0.15552083333333327,0.19518518518518516,1.9174999999999969],[0.17760416666666667,0.21203703703703702,1.9352999999523135],[0.16135416666666677,0.21351851851851844,1.954499999999996],[0.15437500000000004,0.17481481481481478,1.9715999999642335],[0.17583333333333329,0.15018518518518523,1.9873999999761551],[0.14385416666666656,0.08777777777777773,2.0056999999880745],[0.14385416666666656,0.08777777777777773,2.0163999999761586],[0.1271874999999999,0.018148148148148063,2.0330000000000013],[0.11697916666666662,-0.022037037037036994,2.0519999999999996],[0.13635416666666675,-0.04425925925925922,2.067599999964237],[0.13635416666666675,-0.04425925925925922,2.083099999964233],[0.15572916666666667,-0.06648148148148143,2.0997999999523174],[0.2013541666666666,-0.08296296296296299,2.1195999999642368],[0.18562500000000004,-0.12740740740740744,2.138999999999996],[0.18562500000000004,-0.12740740740740744,2.150099999964233],[0.1953125,-0.18870370370370365,2.166399999976157],[0.18708333333333324,-0.19796296296296292,2.186399999976153],[0.20020833333333338,-0.21574074074074073,2.201799999952314],[0.20020833333333338,-0.21574074074074073,2.2163999999761543],[0.23010416666666675,-0.1896296296296296,2.2330999999642316],[0.24854166666666658,-0.16592592592592598,2.2534999999999954],[0.2555208333333333,-0.17999999999999997,2.2695000000000007],[0.2555208333333333,-0.17999999999999997,2.2830000000000013],[0.24489583333333323,-0.21074074074074076,2.2996999999880785],[0.22489583333333343,-0.22777777777777777,2.3174999999999955],[0.18458333333333338,-0.2548148148148149,2.333500000000001],[0.18458333333333338,-0.2548148148148149,2.3497999999523174],[0.2009375000000001,-0.28055555555555556,2.366499999999995],[0.17395833333333333,-0.27611111111111114,2.3857999999523116],[0.1896874999999999,-0.3024074074074074,2.4027999999523146],[0.1896874999999999,-0.3024074074074074,2.4215999999642364],[0.175,-0.3122222222222223,2.433299999952311],[0.13666666666666671,-0.30481481481481487,2.454399999976154],[0.10166666666666657,-0.3290740740740741,2.4755999999642384],[0.10166666666666657,-0.3290740740740741,2.4831999999880736],[0.08093750000000005,-0.3333333333333333,2.5007999999523136],[0.08093750000000005,-0.3333333333333333,2.5195999999642353],[0.05604166666666662,-0.32833333333333337,2.537699999988078],[0.05604166666666662,-0.32833333333333337,2.549799999952313],[0.05354166666666664,-0.33925925925925926,2.5663999999761558],[0.057187499999999974,-0.3316666666666667,2.58419999998808],[0.04874999999999995,-0.32629629629629625,2.5996999999880757],[0.051770833333333384,-0.3205555555555556,2.6227999999523135],[0.051770833333333384,-0.3205555555555556,2.6360999999642374],[0.0421875,-0.30777777777777776,2.64969999998808],[0.0421875,-0.30777777777777776,2.666399999976157],[-0.0037500000000000237,-0.28648148148148145,2.6830999999642344],[-0.017604166666666643,-0.29018518518518516,2.699699999988077],[-0.0359375,-0.2681481481481482,2.7186999999880754],[-0.005729166666666666,-0.26888888888888884,2.7331999999880736],[-0.005729166666666666,-0.26888888888888884,2.749799999952316],[0.036666666666666715,-0.26851851851851855,2.7663999999761586],[0.06614583333333333,-0.2442592592592592,2.7871999999880757],[0.07145833333333323,-0.22999999999999998,2.801599999964232],[0.08885416666666662,-0.21351851851851855,2.8162999999523137],[0.08885416666666662,-0.21351851851851855,2.8329999999999984],[0.13052083333333328,-0.20611111111111113,2.8497999999523174],[0.12635416666666663,-0.18425925925925926,2.866499999999995],[0.14916666666666673,-0.1764814814814815,2.8829999999999956],[0.16354166666666667,-0.1609259259259259,2.9037999999523123],[0.18895833333333342,-0.13222222222222219,2.9199999999999946],[0.1803124999999999,-0.12148148148148152,2.936599999964237],[0.1775000000000001,-0.11203703703703703,2.953699999988075],[0.1775000000000001,-0.11203703703703703,2.9662999999523123],[0.1397916666666667,-0.10944444444444448,2.9830999999642316],[0.15260416666666668,-0.10185185185185185,2.9996999999880742],[0.16541666666666663,-0.09425925925925922,3.0163999999761586],[0.16541666666666663,-0.09425925925925922,3.033099999964236],[0.09489583333333323,-0.07999999999999997,3.049999999999997],[0.09489583333333323,-0.07999999999999997,3.066499999999998],[0.06239583333333331,-0.06185185185185181,3.083199999988075],[0.0265625,-0.039629629629629584,3.0999999999999943],[0.003333333333333381,-0.005740740740740783,3.116299999952311],[-0.03239583333333336,0.013888888888888888,3.1330999999642373],[-0.09187500000000005,0.0625925925925925,3.150199999988075],[-0.14197916666666663,0.06925925925925921,3.1693999999761573],[-0.1640625,0.06407407407407412,3.186699999988079],[-0.20093749999999996,0.09314814814814806,3.2016999999880795],[-0.23781249999999995,0.12222222222222222,3.2162999999523123],[-0.2341666666666666,0.1257407407407407,3.2330999999642316],[-0.2476041666666667,0.11999999999999991,3.2508999999761556],[-0.18479166666666663,0.17111111111111107,3.2665000000000006],[-0.14395833333333338,0.1737037037037036,3.2830000000000013],[-0.08052083333333329,0.205925925925926,3.2996999999880785],[0.017812500000000023,0.20759259259259263,3.317],[0.10677083333333333,0.2512962962962964,3.333099999964233],[0.18875000000000006,0.297037037037037,3.3502999999523126],[0.18875000000000006,0.297037037037037,3.366499999999995],[0.2384375000000001,0.30907407407407406,3.3830999999642373],[0.2509375000000001,0.3653703703703703,3.3999999999999986],[0.2953125,0.4353703703703704,3.416499999999999],[0.34385416666666657,0.5218518518518518,3.4330999999642344],[0.3366666666666667,0.5346296296296297,3.4497999999523117],[0.34187500000000004,0.5748148148148148,3.4663999999761543],[0.3537499999999999,0.6040740740740742,3.4830999999642316],[0.29229166666666656,0.6185185185185185,3.499799999952316],[0.2196875000000001,0.6277777777777778,3.5170999999642376],[0.17437500000000009,0.6224074074074074,3.5332999999523125],[0.13833333333333328,0.6174074074074074,3.549799999952313],[0.1818749999999999,0.5459259259259258,3.566499999999998],[0.1818749999999999,0.5459259259259258,3.583099999964233],[0.2068749999999999,0.48037037037037034,3.5997999999523174],[0.2068749999999999,0.48037037037037034,3.616499999999995],[0.20739583333333325,0.4035185185185185,3.6330999999642373]]","[0.00019999998807662678,0.020699999988075035,0.03679999995231498,0.05359999996423426,0.06829999995231617,0.083099999964233,0.09969999998807566,0.11649999999999494,0.13309999996423727,0.14999999999999858,0.16639999997615718,0.1839999999999975,0.19979999995231168,0.21949999999999648,0.2365999999642341,0.25459999996423477,0.2711999999880774,0.28699999999999903,0.30349999999999966,0.32059999996423727,0.3341999999880798,0.3499999999999943,0.3680999999642367,0.38299999999999557,0.3997999999523145,0.41739999997615485,0.43309999996423443,0.4497999999523117,0.46659999996423807,0.4830999999642316,0.49979999995231594,0.5165000000000006,0.5330999999642358,0.555399999976153,0.5665999999642324,0.583199999988075,0.6030999999642361,0.6217999999523158,0.6330999999642373,0.6498999999761566,0.6664999999999992,0.6830999999642344,0.6996999999880771,0.7169999999999987,0.7368999999761527,0.7546999999880768,0.7700999999642377,0.7830999999642358,0.7997999999523131,0.8166999999880744,0.833099999964233,0.8511999999880757,0.8698999999761554,0.8840999999642349,0.8996999999880799,0.9172999999523128,0.9330999999642344,0.9498999999761537,0.9668999999761567,0.9846999999880737,1.0026999999880744,1.020699999988075,1.036899999976157,1.054599999964232,1.0704999999999956,1.0868999999761542,1.1026999999880758,1.120899999976153,1.1382999999523165,1.154799999952317,1.1705999999642316,1.1891999999880767,1.1997999999523117,1.2163999999761543,1.232999999999997,1.2507999999523136,1.2665000000000006,1.2830999999642358,1.2998999999761551,1.3166999999880744,1.3376999999880752,1.3547999999523128,1.3717999999523158,1.3876999999880795,1.4042999999523147,1.4207999999523153,1.4353999999761555,1.4512999999523117,1.4663999999761543,1.4830999999642316,1.5008999999761556,1.5173999999761563,1.535299999952315,1.5557999999523133,1.5663999999761558,1.583099999964233,1.5997999999523174,1.616499999999995,1.6331999999880793,1.6498999999761566,1.6664999999999992,1.6830999999642344,1.699699999988077,1.7163999999761543,1.7341999999880784,1.7542999999523161,1.7696999999880774,1.7866999999880804,1.8044999999999973,1.820799999952314,1.8369999999999962,1.8539999999999992,1.873399999976158,1.8831999999880793,1.89969999998808,1.9174999999999969,1.9352999999523135,1.954499999999996,1.9715999999642335,1.9873999999761551,2.0056999999880745,2.0163999999761586,2.0330000000000013,2.0519999999999996,2.067599999964237,2.083099999964233,2.0997999999523174,2.1195999999642368,2.138999999999996,2.150099999964233,2.166399999976157,2.186399999976153,2.201799999952314,2.2163999999761543,2.2330999999642316,2.2534999999999954,2.2695000000000007,2.2830000000000013,2.2996999999880785,2.3174999999999955,2.333500000000001,2.3497999999523174,2.366499999999995,2.3857999999523116,2.4027999999523146,2.4215999999642364,2.433299999952311,2.454399999976154,2.4755999999642384,2.4831999999880736,2.5007999999523136,2.5195999999642353,2.537699999988078,2.549799999952313,2.5663999999761558,2.58419999998808,2.5996999999880757,2.6227999999523135,2.6360999999642374,2.64969999998808,2.666399999976157,2.6830999999642344,2.699699999988077,2.7186999999880754,2.7331999999880736,2.749799999952316,2.7663999999761586,2.7871999999880757,2.801599999964232,2.8162999999523137,2.8329999999999984,2.8497999999523174,2.866499999999995,2.8829999999999956,2.9037999999523123,2.9199999999999946,2.936599999964237,2.953699999988075,2.9662999999523123,2.9830999999642316,2.9996999999880742,3.0163999999761586,3.033099999964236,3.049999999999997,3.066499999999998,3.083199999988075,3.0999999999999943,3.116299999952311,3.1330999999642373,3.150199999988075,3.1693999999761573,3.186699999988079,3.2016999999880795,3.2162999999523123,3.2330999999642316,3.2508999999761556,3.2665000000000006,3.2830000000000013,3.2996999999880785,3.317,3.333099999964233,3.3502999999523126,3.366499999999995,3.3830999999642373,3.3999999999999986,3.416499999999999,3.4330999999642344,3.4497999999523117,3.4663999999761543,3.4830999999642316,3.499799999952316,3.5170999999642376,3.5332999999523125,3.549799999952313,3.566499999999998,3.583099999964233,3.5997999999523174,3.616499999999995,3.6330999999642373]","[1732937466686,1732937466704,1732937466720,1732937466737,1732937466752,1732937466766,1732937466783,1732937466800,1732937466816,1732937466833,1732937466850,1732937466867,1732937466883,1732937466903,1732937466920,1732937466938,1732937466954,1732937466970,1732937466987,1732937467004,1732937467017,1732937467033,1732937467051,1732937467066,1732937467083,1732937467101,1732937467116,1732937467133,1732937467150,1732937467166,1732937467183,1732937467200,1732937467216,1732937467239,1732937467250,1732937467267,1732937467286,1732937467305,1732937467316,1732937467333,1732937467350,1732937467366,1732937467383,1732937467400,1732937467420,1732937467438,1732937467453,1732937467466,1732937467483,1732937467500,1732937467516,1732937467535,1732937467553,1732937467567,1732937467583,1732937467601,1732937467616,1732937467633,1732937467650,1732937467668,1732937467686,1732937467704,1732937467720,1732937467738,1732937467754,1732937467770,1732937467786,1732937467804,1732937467822,1732937467838,1732937467854,1732937467873,1732937467883,1732937467900,1732937467916,1732937467934,1732937467950,1732937467966,1732937467983,1732937468000,1732937468021,1732937468038,1732937468055,1732937468071,1732937468088,1732937468104,1732937468119,1732937468135,1732937468150,1732937468166,1732937468184,1732937468201,1732937468219,1732937468239,1732937468250,1732937468266,1732937468283,1732937468300,1732937468316,1732937468333,1732937468350,1732937468366,1732937468383,1732937468400,1732937468418,1732937468438,1732937468453,1732937468470,1732937468488,1732937468504,1732937468520,1732937468537,1732937468557,1732937468567,1732937468583,1732937468601,1732937468619,1732937468638,1732937468655,1732937468671,1732937468689,1732937468700,1732937468716,1732937468735,1732937468751,1732937468766,1732937468783,1732937468803,1732937468822,1732937468833,1732937468850,1732937468870,1732937468885,1732937468900,1732937468916,1732937468937,1732937468953,1732937468966,1732937468983,1732937469001,1732937469017,1732937469033,1732937469050,1732937469069,1732937469086,1732937469105,1732937469117,1732937469138,1732937469159,1732937469166,1732937469184,1732937469203,1732937469221,1732937469233,1732937469250,1732937469268,1732937469283,1732937469306,1732937469319,1732937469333,1732937469350,1732937469366,1732937469383,1732937469402,1732937469416,1732937469433,1732937469450,1732937469471,1732937469485,1732937469500,1732937469516,1732937469533,1732937469550,1732937469566,1732937469587,1732937469603,1732937469620,1732937469637,1732937469650,1732937469666,1732937469683,1732937469700,1732937469717,1732937469733,1732937469750,1732937469766,1732937469783,1732937469800,1732937469816,1732937469833,1732937469853,1732937469870,1732937469885,1732937469900,1732937469916,1732937469934,1732937469950,1732937469966,1732937469983,1732937470000,1732937470016,1732937470034,1732937470050,1732937470066,1732937470083,1732937470100,1732937470116,1732937470133,1732937470150,1732937470166,1732937470183,1732937470200,1732937470217,1732937470233,1732937470250,1732937470266,1732937470283,1732937470300,1732937470316]","[[1050.8,456.8],[1024,456.6],[1020.6,442.3],[1036.6,420.3],[1052.6,412.3],[1047.1,407.1],[1075.1,414.9],[1088.6,409.7],[1071.8,415.1],[1076.1,415.3],[1090.7,410.8],[1085.4,393.5],[1067.7,394.7],[1053.3,397],[1022.8,387.6],[1022.2,388.8],[999.2,377.1],[987.4,370.6],[982.1,367.7],[989.8,360.5],[997.8,361.9],[1019.6,367.4],[1033.2,367.8],[1033.2,367.8],[1032.3,361.9],[1088.2,354.7],[1093.3,350],[1093.3,350],[1104.1,345.6],[1102.6,350.9],[1114.7,340.2],[1114.7,340.2],[1111.3,338.9],[1114,341.9],[1114,341.9],[1103.3,342.7],[1099,331.2],[1095.5,321.3],[1095.5,321.3],[1046.9,330.7],[1046.9,330.7],[1050.2,333.9],[1056.5,348.5],[1083.4,355.3],[1112.6,354.6],[1140.6,364.4],[1137.4,360.5],[1137.4,360.5],[1133.9,374.2],[1138,380.1],[1143.9,386.8],[1164,369.1],[1154.9,379.1],[1159,371.5],[1133.9,372.2],[1120.9,396.9],[1120.9,396.9],[1118,416.5],[1124.5,413.4],[1129,413.3],[1117.9,441.8],[1097.5,454.8],[1075.4,472.9],[1064.1,474.6],[1058.3,477.6],[1048.6,475.9],[1034.5,468],[1020.4,460.1],[1006.6,454.8],[992.1,470.4],[990,447.1],[982.8,451],[982.8,451],[987,446.6],[989.9,456.7],[987.3,465.5],[987.3,465.5],[1005.8,472.7],[1007.1,470.1],[988,467.2],[979.4,479.8],[987,462.1],[1010.4,485.4],[1037.4,507.5],[1104.5,512.2],[1156,515.3],[1190.6,527.6],[1211.5,535.9],[1211.5,535.9],[1223.5,551.1],[1253.5,570.2],[1285,582.7],[1313.3,596.3],[1304,571],[1304,571],[1298.9,555.6],[1298.9,555.6],[1286.3,566.2],[1286.3,566.2],[1272.5,568],[1272.5,568],[1243.3,559.5],[1210.6,561.3],[1178.3,551.4],[1170.7,546.5],[1131.7,544.6],[1119.7,557],[1136.3,587.5],[1121.4,600.5],[1099.4,604.8],[1091.6,616.3],[1116.1,628.9],[1115.8,635.9],[1115.8,635.9],[1124,647.7],[1109.3,645.4],[1130.5,654.5],[1114.9,655.3],[1108.2,634.4],[1128.8,621.1],[1098.1,587.4],[1098.1,587.4],[1082.1,549.8],[1072.3,528.1],[1090.9,516.1],[1090.9,516.1],[1109.5,504.1],[1153.3,495.2],[1138.2,471.2],[1138.2,471.2],[1147.5,438.1],[1139.6,433.1],[1152.2,423.5],[1152.2,423.5],[1180.9,437.6],[1198.6,450.4],[1205.3,442.8],[1205.3,442.8],[1195.1,426.2],[1175.9,417],[1137.2,402.4],[1137.2,402.4],[1152.9,388.5],[1127,390.9],[1142.1,376.7],[1142.1,376.7],[1128,371.4],[1091.2,375.4],[1057.6,362.3],[1057.6,362.3],[1037.7,360],[1037.7,360],[1013.8,362.7],[1013.8,362.7],[1011.4,356.8],[1014.9,360.9],[1006.8,363.8],[1009.7,366.9],[1009.7,366.9],[1000.5,373.8],[1000.5,373.8],[956.4,385.3],[943.1,383.3],[925.5,395.2],[954.5,394.8],[954.5,394.8],[995.2,395],[1023.5,408.1],[1028.6,415.8],[1045.3,424.7],[1045.3,424.7],[1085.3,428.7],[1081.3,440.5],[1103.2,444.7],[1117,453.1],[1141.4,468.6],[1133.1,474.4],[1130.4,479.5],[1130.4,479.5],[1094.2,480.9],[1106.5,485],[1118.8,489.1],[1118.8,489.1],[1051.1,496.8],[1051.1,496.8],[1019.9,506.6],[985.5,518.6],[963.2,536.9],[928.9,547.5],[871.8,573.8],[823.7,577.4],[802.5,574.6],[767.1,590.3],[731.7,606],[735.2,607.9],[722.3,604.8],[782.6,632.4],[821.8,633.8],[882.7,651.2],[977.1,652.1],[1062.5,675.7],[1141.2,700.4],[1141.2,700.4],[1188.9,706.9],[1200.9,737.3],[1243.5,775.1],[1290.1,821.8],[1283.2,828.7],[1288.2,850.4],[1299.6,866.2],[1240.6,874],[1170.9,879],[1127.4,876.1],[1092.8,873.4],[1134.6,834.8],[1134.6,834.8],[1158.6,799.4],[1158.6,799.4],[1159.1,757.9]]","[-0.132282,0.39684600000000003]","[0.132282,0.39684600000000003]","[0.39684600000000003,0.39684600000000003]","[-0.39684600000000003,0.132282]","[-0.39684600000000003,-0.39684600000000003]","[-0.39684600000000003,-0.132282]","[-0.132282,0.132282]","[0.132282,0.132282]","[0.39684600000000003,0.132282]","[-0.132282,-0.39684600000000003]","[0.132282,-0.39684600000000003]","[0.39684600000000003,-0.39684600000000003]","[-0.132282,-0.132282]","[0.132282,-0.132282]","[0.39684600000000003,-0.132282]",0,1,1,1,1,3,Tablet,20,30,8,1,70,6,1,80,5
