inst1_resp.keys,inst1_resp.rt,calibrationMouse.x,calibrationMouse.y,calibrationMouse.leftButton,calibrationMouse.midButton,calibrationMouse.rightButton,calibrationClick.x,calibrationClick.y,calibrationClick.leftButton,calibrationClick.midButton,calibrationClick.rightButton,trialsc.thisRepN,trialsc.thisTrialN,trialsc.thisN,trialsc.thisIndex,trialsc.ran,calibration_x,calibration_y,participant,session,date,expName,psychopyVersion,OS,frameRate,calibrationClick.clicked_name,ScreenRes_pixels,Camera_pixels,mouse_2.x,mouse_2.y,mouse_2.leftButton,mouse_2.midButton,mouse_2.rightButton,mouse_2.time,mouse_2.clicked_name,mouse.x,mouse.y,mouse.leftButton,mouse.midButton,mouse.rightButton,mouse.time,mouse.clicked_name,Choice,Trial,TrialDuration,MOUSE_GAZE,ET_GAZE,ET_GAZE_x_T,time,unixTime,ET_GAZE_NF,Loc_Bus_label,Loc_Metro_label,Loc_RH_label,Loc_Cost_label,Loc_Travel_label,Loc_Comfort_label,Loc_Bus_cost,Loc_Metro_cost,Loc_RH_cost,Loc_Bus_travel,Loc_Metro_travel,Loc_RH_travel,Loc_Bus_comfort,Loc_Metro_comfort,Loc_RH_comfort,trials.thisRepN,trials.thisTrialN,trials.thisN,trials.thisIndex,trials.ran,Block,Device,RH_cost,RH_travel_time,RH_Comfort,metro_cost,metro_travel_time,metro_Comfort,Bus_cost,Bus_travel_time,Bus_Comfort
space,1.9007,-0.490625,-0.051851852,1,0,0,-0.329166667,0.659259259,1,0,0,0,0,0,8,1,-0.33,0.67,04,001,2024-11-18_12h43.17.399,Attention_exp_legacy,2023.1.0,Win32,60.24096386,,,,,,,,,,,,,,,,,,,,,,,,,,,,,,,,,,,,,,,,,,,,,,,,,,,,,,,,,
,,,,,,,-0.00625,0.322222222,1,0,0,0,1,1,12,1,0,0.33,04,001,2024-11-18_12h43.17.399,Attention_exp_legacy,2023.1.0,Win32,60.24096386,calibration_square,,,,,,,,,,,,,,,,,,,,,,,,,,,,,,,,,,,,,,,,,,,,,,,,,,,,,,,,
,,,,,,,-0.005208333,0.664814815,1,0,0,0,2,2,13,1,0,0.67,04,001,2024-11-18_12h43.17.399,Attention_exp_legacy,2023.1.0,Win32,60.24096386,calibration_square,,,,,,,,,,,,,,,,,,,,,,,,,,,,,,,,,,,,,,,,,,,,,,,,,,,,,,,,
,,,,,,,-0.340625,-0.001851852,1,0,0,0,3,3,6,1,-0.33,0,04,001,2024-11-18_12h43.17.399,Attention_exp_legacy,2023.1.0,Win32,60.24096386,,,,,,,,,,,,,,,,,,,,,,,,,,,,,,,,,,,,,,,,,,,,,,,,,,,,,,,,,
,,,,,,,-0.326041667,-0.681481481,1,0,0,0,4,4,4,1,-0.33,-0.67,04,001,2024-11-18_12h43.17.399,Attention_exp_legacy,2023.1.0,Win32,60.24096386,,,,,,,,,,,,,,,,,,,,,,,,,,,,,,,,,,,,,,,,,,,,,,,,,,,,,,,,,
,,,,,,,-0.663541667,-0.668518519,1,0,0,0,5,5,0,1,-0.67,-0.67,04,001,2024-11-18_12h43.17.399,Attention_exp_legacy,2023.1.0,Win32,60.24096386,calibration_square,,,,,,,,,,,,,,,,,,,,,,,,,,,,,,,,,,,,,,,,,,,,,,,,,,,,,,,,
,,,,,,,-0.0125,-0.666666667,1,0,0,0,6,6,9,1,0,-0.67,04,001,2024-11-18_12h43.17.399,Attention_exp_legacy,2023.1.0,Win32,60.24096386,,,,,,,,,,,,,,,,,,,,,,,,,,,,,,,,,,,,,,,,,,,,,,,,,,,,,,,,,
,,,,,,,0.341666667,-0.335185185,1,0,0,0,7,7,15,1,0.33,-0.33,04,001,2024-11-18_12h43.17.399,Attention_exp_legacy,2023.1.0,Win32,60.24096386,,,,,,,,,,,,,,,,,,,,,,,,,,,,,,,,,,,,,,,,,,,,,,,,,,,,,,,,,
,,,,,,,0.317708333,0.292592593,1,0,0,0,8,8,17,1,0.33,0.33,04,001,2024-11-18_12h43.17.399,Attention_exp_legacy,2023.1.0,Win32,60.24096386,,,,,,,,,,,,,,,,,,,,,,,,,,,,,,,,,,,,,,,,,,,,,,,,,,,,,,,,,
,,,,,,,0.327083333,0.666666667,1,0,0,0,9,9,18,1,0.33,0.67,04,001,2024-11-18_12h43.17.399,Attention_exp_legacy,2023.1.0,Win32,60.24096386,calibration_square,,,,,,,,,,,,,,,,,,,,,,,,,,,,,,,,,,,,,,,,,,,,,,,,,,,,,,,,
,,,,,,,-0.003125,0.011111111,1,0,0,0,10,10,11,1,0,0,04,001,2024-11-18_12h43.17.399,Attention_exp_legacy,2023.1.0,Win32,60.24096386,,,,,,,,,,,,,,,,,,,,,,,,,,,,,,,,,,,,,,,,,,,,,,,,,,,,,,,,,
,,,,,,,-0.33125,-0.327777778,1,0,0,0,11,11,5,1,-0.33,-0.33,04,001,2024-11-18_12h43.17.399,Attention_exp_legacy,2023.1.0,Win32,60.24096386,calibration_square,,,,,,,,,,,,,,,,,,,,,,,,,,,,,,,,,,,,,,,,,,,,,,,,,,,,,,,,
,,,,,,,0.672916667,-0.668518519,1,0,0,0,12,12,20,1,0.67,-0.67,04,001,2024-11-18_12h43.17.399,Attention_exp_legacy,2023.1.0,Win32,60.24096386,calibration_square,,,,,,,,,,,,,,,,,,,,,,,,,,,,,,,,,,,,,,,,,,,,,,,,,,,,,,,,
,,,,,,,-0.327083333,0.327777778,1,0,0,0,13,13,7,1,-0.33,0.33,04,001,2024-11-18_12h43.17.399,Attention_exp_legacy,2023.1.0,Win32,60.24096386,calibration_square,,,,,,,,,,,,,,,,,,,,,,,,,,,,,,,,,,,,,,,,,,,,,,,,,,,,,,,,
,,,,,,,-0.663541667,0.331481481,1,0,0,0,14,14,3,1,-0.67,0.33,04,001,2024-11-18_12h43.17.399,Attention_exp_legacy,2023.1.0,Win32,60.24096386,calibration_square,,,,,,,,,,,,,,,,,,,,,,,,,,,,,,,,,,,,,,,,,,,,,,,,,,,,,,,,
,,,,,,,-0.666666667,0.005555556,1,0,0,0,15,15,2,1,-0.67,0,04,001,2024-11-18_12h43.17.399,Attention_exp_legacy,2023.1.0,Win32,60.24096386,calibration_square,,,,,,,,,,,,,,,,,,,,,,,,,,,,,,,,,,,,,,,,,,,,,,,,,,,,,,,,
,,,,,,,0.332291667,-0.001851852,1,0,0,0,16,16,16,1,0.33,0,04,001,2024-11-18_12h43.17.399,Attention_exp_legacy,2023.1.0,Win32,60.24096386,calibration_square,,,,,,,,,,,,,,,,,,,,,,,,,,,,,,,,,,,,,,,,,,,,,,,,,,,,,,,,
,,,,,,,0.6625,0.657407407,1,0,0,0,17,17,19,1,0.67,0.67,04,001,2024-11-18_12h43.17.399,Attention_exp_legacy,2023.1.0,Win32,60.24096386,,,,,,,,,,,,,,,,,,,,,,,,,,,,,,,,,,,,,,,,,,,,,,,,,,,,,,,,,
,,,,,,,0.005208333,-0.312962963,1,0,0,0,18,18,10,1,0,-0.33,04,001,2024-11-18_12h43.17.399,Attention_exp_legacy,2023.1.0,Win32,60.24096386,,,,,,,,,,,,,,,,,,,,,,,,,,,,,,,,,,,,,,,,,,,,,,,,,,,,,,,,,
,,,,,,,0.3375,-0.67037037,1,0,0,0,19,19,14,1,0.33,-0.67,04,001,2024-11-18_12h43.17.399,Attention_exp_legacy,2023.1.0,Win32,60.24096386,calibration_square,,,,,,,,,,,,,,,,,,,,,,,,,,,,,,,,,,,,,,,,,,,,,,,,,,,,,,,,
,,,,,,,-0.684375,-0.32962963,1,0,0,0,20,20,1,1,-0.67,-0.33,04,001,2024-11-18_12h43.17.399,Attention_exp_legacy,2023.1.0,Win32,60.24096386,,,,,,,,,,,,,,,,,,,,,,,,,,,,,,,,,,,,,,,,,,,,,,,,,,,,,,,,,
,,,,,,,,,,,,,,,,,,,04,001,2024-11-18_12h43.17.399,Attention_exp_legacy,2023.1.0,Win32,60.24096386,,"[1920,1080]","[640,480]",[0.016666666666666666],[-0.5074074074074074],[1],[0],[0],[6.608100000381469],"[""StartButton""]",[0.15520833333333334],[0.40370370370370373],[1],[0],[0],[4.907199999809265],"[""Metro_label""]",Metro_label,1,5.9313,"[[0.059375,-0.38333333333333336],[0.059375,-0.38333333333333336],[0.059375,-0.38333333333333336],[0.059375,-0.38333333333333336],[0.059375,-0.38333333333333336],[0.058333333333333334,-0.38333333333333336],[0.052083333333333336,-0.38333333333333336],[0.051041666666666666,-0.38333333333333336],[0.051041666666666666,-0.38333333333333336],[0.051041666666666666,-0.38333333333333336],[0.051041666666666666,-0.38333333333333336],[0.051041666666666666,-0.38333333333333336],[0.04791666666666667,-0.38333333333333336],[0.04583333333333333,-0.38333333333333336],[0.04479166666666667,-0.38333333333333336],[0.042708333333333334,-0.38333333333333336],[0.042708333333333334,-0.38333333333333336],[0.03958333333333333,-0.38333333333333336],[0.03958333333333333,-0.38333333333333336],[0.036458333333333336,-0.38333333333333336],[0.034375,-0.38333333333333336],[0.027083333333333334,-0.37777777777777777],[0.017708333333333333,-0.37222222222222223],[0.008333333333333333,-0.3648148148148148],[-0.008333333333333333,-0.3537037037037037],[-0.027083333333333334,-0.337037037037037],[-0.046875,-0.32407407407407407],[-0.06354166666666666,-0.3074074074074074],[-0.07395833333333333,-0.30185185185185187],[-0.08020833333333334,-0.2962962962962963],[-0.08333333333333333,-0.29444444444444445],[-0.084375,-0.29259259259259257],[-0.0875,-0.29259259259259257],[-0.090625,-0.29074074074074074],[-0.09479166666666666,-0.28888888888888886],[-0.09583333333333334,-0.28888888888888886],[-0.09791666666666667,-0.28703703703703703],[-0.09895833333333333,-0.2851851851851852],[-0.1,-0.2851851851851852],[-0.1,-0.2851851851851852],[-0.1,-0.2851851851851852],[-0.1,-0.2851851851851852],[-0.1,-0.2851851851851852],[-0.1,-0.2851851851851852],[-0.1,-0.2851851851851852],[-0.10104166666666667,-0.2851851851851852],[-0.10416666666666667,-0.2833333333333333],[-0.10520833333333333,-0.2814814814814815],[-0.10729166666666666,-0.2814814814814815],[-0.109375,-0.2814814814814815],[-0.11145833333333334,-0.2796296296296296],[-0.115625,-0.2777777777777778],[-0.11875,-0.2759259259259259],[-0.12395833333333334,-0.2722222222222222],[-0.13333333333333333,-0.26851851851851855],[-0.15104166666666666,-0.25925925925925924],[-0.16666666666666666,-0.2537037037037037],[-0.19270833333333334,-0.23703703703703705],[-0.20833333333333334,-0.22777777777777777],[-0.22291666666666668,-0.21851851851851853],[-0.234375,-0.2111111111111111],[-0.24375,-0.2037037037037037],[-0.25104166666666666,-0.19444444444444445],[-0.25833333333333336,-0.18888888888888888],[-0.26458333333333334,-0.18333333333333332],[-0.271875,-0.17592592592592593],[-0.278125,-0.1685185185185185],[-0.28541666666666665,-0.16111111111111112],[-0.290625,-0.15555555555555556],[-0.29375,-0.15185185185185185],[-0.2989583333333333,-0.15],[-0.30104166666666665,-0.14814814814814814],[-0.303125,-0.14814814814814814],[-0.30625,-0.14629629629629629],[-0.309375,-0.14444444444444443],[-0.3125,-0.1425925925925926],[-0.31354166666666666,-0.1425925925925926],[-0.315625,-0.1425925925925926],[-0.3177083333333333,-0.1425925925925926],[-0.31875,-0.1425925925925926],[-0.321875,-0.1425925925925926],[-0.32395833333333335,-0.1425925925925926],[-0.325,-0.1425925925925926],[-0.3260416666666667,-0.1425925925925926],[-0.32708333333333334,-0.1425925925925926],[-0.32708333333333334,-0.1425925925925926],[-0.328125,-0.1425925925925926],[-0.32916666666666666,-0.1425925925925926],[-0.32916666666666666,-0.1425925925925926],[-0.32916666666666666,-0.14444444444444443],[-0.32916666666666666,-0.14814814814814814],[-0.32916666666666666,-0.15185185185185185],[-0.32916666666666666,-0.15555555555555556],[-0.32916666666666666,-0.15925925925925927],[-0.32916666666666666,-0.1648148148148148],[-0.32916666666666666,-0.16666666666666666],[-0.32916666666666666,-0.17407407407407408],[-0.32916666666666666,-0.17777777777777778],[-0.32916666666666666,-0.18333333333333332],[-0.32708333333333334,-0.18703703703703703],[-0.32395833333333335,-0.19444444444444445],[-0.3229166666666667,-0.1962962962962963],[-0.3177083333333333,-0.2],[-0.31354166666666666,-0.2037037037037037],[-0.30416666666666664,-0.2111111111111111],[-0.28125,-0.2222222222222222],[-0.26145833333333335,-0.22962962962962963],[-0.23645833333333333,-0.2351851851851852],[-0.21145833333333333,-0.24259259259259258],[-0.18854166666666666,-0.25],[-0.165625,-0.2537037037037037],[-0.13333333333333333,-0.2537037037037037],[-0.11458333333333333,-0.2537037037037037],[-0.10520833333333333,-0.2537037037037037],[-0.09270833333333334,-0.2537037037037037],[-0.075,-0.2537037037037037],[-0.06875,-0.2537037037037037],[-0.04791666666666667,-0.2537037037037037],[-0.029166666666666667,-0.25],[-0.007291666666666667,-0.24074074074074073],[0.008333333333333333,-0.22962962962962963],[0.026041666666666668,-0.22037037037037038],[0.04895833333333333,-0.2074074074074074],[0.06770833333333333,-0.19444444444444445],[0.08020833333333334,-0.1814814814814815],[0.08958333333333333,-0.17222222222222222],[0.1,-0.15555555555555556],[0.1125,-0.13703703703703704],[0.12291666666666666,-0.11296296296296296],[0.13333333333333333,-0.08888888888888889],[0.153125,-0.040740740740740744],[0.16979166666666667,0.001851851851851852],[0.18958333333333333,0.053703703703703705],[0.21458333333333332,0.12407407407407407],[0.21979166666666666,0.14074074074074075],[0.228125,0.17222222222222222],[0.23333333333333334,0.1962962962962963],[0.23645833333333333,0.21481481481481482],[0.23958333333333334,0.24814814814814815],[0.23958333333333334,0.2611111111111111],[0.23854166666666668,0.27037037037037037],[0.2375,0.2740740740740741],[0.23541666666666666,0.2777777777777778],[0.23229166666666667,0.2796296296296296],[0.23125,0.2796296296296296],[0.22604166666666667,0.2814814814814815],[0.22291666666666668,0.2814814814814815],[0.21875,0.2833333333333333],[0.21666666666666667,0.2833333333333333],[0.21458333333333332,0.2833333333333333],[0.21145833333333333,0.2833333333333333],[0.20729166666666668,0.28703703703703703],[0.196875,0.28888888888888886],[0.19375,0.28888888888888886],[0.184375,0.29074074074074074],[0.18333333333333332,0.29074074074074074],[0.18125,0.29444444444444445],[0.18020833333333333,0.29444444444444445],[0.18020833333333333,0.29444444444444445],[0.178125,0.29444444444444445],[0.17604166666666668,0.29444444444444445],[0.175,0.2962962962962963],[0.17083333333333334,0.2962962962962963],[0.16770833333333332,0.30185185185185187],[0.1625,0.3037037037037037],[0.15416666666666667,0.3111111111111111],[0.14895833333333333,0.3148148148148148],[0.14479166666666668,0.31851851851851853],[0.14270833333333333,0.32037037037037036],[0.14166666666666666,0.32222222222222224],[0.140625,0.32222222222222224],[0.13854166666666667,0.32407407407407407],[0.13645833333333332,0.3296296296296296],[0.13645833333333332,0.3314814814814815],[0.13645833333333332,0.3388888888888889],[0.13645833333333332,0.34444444444444444],[0.13541666666666666,0.35185185185185186],[0.13541666666666666,0.3574074074074074],[0.13541666666666666,0.37037037037037035],[0.1375,0.37777777777777777],[0.13958333333333334,0.3851851851851852],[0.140625,0.3888888888888889],[0.14166666666666666,0.3925925925925926],[0.14375,0.39814814814814814],[0.14375,0.39814814814814814],[0.14583333333333334,0.40185185185185185],[0.146875,0.40370370370370373],[0.146875,0.40370370370370373],[0.14791666666666667,0.40555555555555556],[0.14895833333333333,0.40555555555555556],[0.14895833333333333,0.4074074074074074],[0.15,0.4074074074074074],[0.15,0.40925925925925927],[0.15104166666666666,0.4111111111111111],[0.15104166666666666,0.4111111111111111],[0.15104166666666666,0.4111111111111111],[0.15104166666666666,0.4111111111111111],[0.15104166666666666,0.4111111111111111],[0.15104166666666666,0.4111111111111111],[0.153125,0.4111111111111111],[0.153125,0.4111111111111111],[0.15416666666666667,0.412962962962963],[0.15416666666666667,0.412962962962963],[0.15520833333333334,0.412962962962963],[0.15520833333333334,0.412962962962963],[0.15520833333333334,0.412962962962963],[0.15520833333333334,0.412962962962963],[0.15520833333333334,0.412962962962963],[0.15520833333333334,0.412962962962963],[0.15520833333333334,0.412962962962963],[0.15520833333333334,0.412962962962963],[0.15520833333333334,0.412962962962963],[0.15520833333333334,0.412962962962963],[0.15520833333333334,0.412962962962963],[0.15520833333333334,0.4111111111111111],[0.15520833333333334,0.40925925925925927],[0.15520833333333334,0.4074074074074074],[0.15520833333333334,0.40555555555555556],[0.15520833333333334,0.40555555555555556],[0.15520833333333334,0.40555555555555556],[0.15520833333333334,0.40370370370370373],[0.15520833333333334,0.40370370370370373],[0.15520833333333334,0.40370370370370373],[0.15520833333333334,0.40370370370370373],[0.15520833333333334,0.40370370370370373],[0.15520833333333334,0.40370370370370373],[0.15520833333333334,0.40370370370370373],[0.15520833333333334,0.40370370370370373],[0.15520833333333334,0.40370370370370373],[0.15520833333333334,0.40370370370370373],[0.15520833333333334,0.40370370370370373],[0.15520833333333334,0.40370370370370373],[0.15520833333333334,0.40370370370370373],[0.15520833333333334,0.40370370370370373],[0.15520833333333334,0.40370370370370373],[0.15520833333333334,0.40370370370370373],[0.15520833333333334,0.40370370370370373],[0.15520833333333334,0.40370370370370373],[0.15520833333333334,0.40370370370370373],[0.15520833333333334,0.40370370370370373],[0.15520833333333334,0.40370370370370373],[0.15520833333333334,0.40370370370370373],[0.15520833333333334,0.40370370370370373],[0.15520833333333334,0.40370370370370373],[0.15520833333333334,0.40370370370370373],[0.15520833333333334,0.40370370370370373],[0.15520833333333334,0.40370370370370373],[0.15520833333333334,0.40370370370370373],[0.15520833333333334,0.40370370370370373],[0.15520833333333334,0.40370370370370373],[0.15520833333333334,0.40370370370370373],[0.15520833333333334,0.40370370370370373],[0.15520833333333334,0.40370370370370373],[0.15520833333333334,0.40370370370370373],[0.15520833333333334,0.40370370370370373],[0.15520833333333334,0.40370370370370373],[0.15520833333333334,0.40370370370370373],[0.15520833333333334,0.40370370370370373],[0.15520833333333334,0.40370370370370373],[0.15520833333333334,0.40370370370370373],[0.15520833333333334,0.40370370370370373],[0.15520833333333334,0.40370370370370373],[0.15520833333333334,0.40370370370370373],[0.15520833333333334,0.40370370370370373],[0.15520833333333334,0.40370370370370373],[0.15520833333333334,0.40370370370370373],[0.15520833333333334,0.40370370370370373],[0.15520833333333334,0.40370370370370373],[0.15520833333333334,0.40370370370370373],[0.15520833333333334,0.40370370370370373],[0.15520833333333334,0.40370370370370373],[0.15520833333333334,0.40370370370370373],[0.15520833333333334,0.40370370370370373],[0.15520833333333334,0.40370370370370373],[0.15520833333333334,0.40370370370370373],[0.15520833333333334,0.40370370370370373],[0.15520833333333334,0.40370370370370373],[0.15520833333333334,0.40370370370370373],[0.15520833333333334,0.40370370370370373],[0.15520833333333334,0.40370370370370373],[0.15520833333333334,0.40370370370370373],[0.15520833333333334,0.40370370370370373],[0.15520833333333334,0.40370370370370373],[0.15520833333333334,0.40370370370370373],[0.15520833333333334,0.40370370370370373],[0.15520833333333334,0.40370370370370373],[0.15520833333333334,0.40370370370370373],[0.15520833333333334,0.40370370370370373],[0.15520833333333334,0.40370370370370373],[0.15520833333333334,0.40370370370370373],[0.15520833333333334,0.40370370370370373],[0.15520833333333334,0.40370370370370373],[0.15520833333333334,0.40370370370370373],[0.15520833333333334,0.40370370370370373],[0.15520833333333334,0.40370370370370373],[0.15520833333333334,0.40370370370370373],[0.15520833333333334,0.40370370370370373],[0.15520833333333334,0.40370370370370373],[0.15520833333333334,0.40370370370370373],[0.15520833333333334,0.40370370370370373],[0.15520833333333334,0.40370370370370373],[0.15520833333333334,0.40370370370370373],[0.15520833333333334,0.40370370370370373],[0.15520833333333334,0.40370370370370373],[0.15520833333333334,0.40370370370370373],[0.15520833333333334,0.40370370370370373],[0.15520833333333334,0.40370370370370373],[0.15520833333333334,0.40370370370370373],[0.15520833333333334,0.40370370370370373],[0.15520833333333334,0.40370370370370373],[0.15520833333333334,0.40370370370370373],[0.15520833333333334,0.40370370370370373],[0.15520833333333334,0.40370370370370373],[0.15520833333333334,0.40370370370370373],[0.15520833333333334,0.40370370370370373],[0.15520833333333334,0.40370370370370373],[0.15520833333333334,0.40370370370370373],[0.15520833333333334,0.40370370370370373],[0.15520833333333334,0.40370370370370373],[0.15520833333333334,0.40370370370370373],[0.15520833333333334,0.40370370370370373],[0.15520833333333334,0.40370370370370373],[0.15520833333333334,0.40370370370370373],[0.15520833333333334,0.40370370370370373],[0.15520833333333334,0.40370370370370373],[0.15520833333333334,0.40370370370370373],[0.15520833333333334,0.40370370370370373],[0.15520833333333334,0.40370370370370373],[0.15520833333333334,0.40370370370370373],[0.15520833333333334,0.40370370370370373],[0.15520833333333334,0.40370370370370373],[0.15520833333333334,0.40370370370370373],[0.15520833333333334,0.40370370370370373],[0.15520833333333334,0.40370370370370373],[0.15520833333333334,0.40370370370370373],[0.15520833333333334,0.40370370370370373],[0.15520833333333334,0.40370370370370373],[0.15520833333333334,0.40370370370370373],[0.15520833333333334,0.40370370370370373],[0.15520833333333334,0.40370370370370373],[0.15520833333333334,0.40370370370370373],[0.15520833333333334,0.40370370370370373],[0.15520833333333334,0.40370370370370373],[0.15520833333333334,0.40370370370370373],[0.15520833333333334,0.40370370370370373],[0.15520833333333334,0.40370370370370373],[0.15520833333333334,0.40370370370370373],[0.15520833333333334,0.40370370370370373],[0.15520833333333334,0.40370370370370373],[0.15520833333333334,0.40370370370370373],[0.15520833333333334,0.40370370370370373],[0.15520833333333334,0.40370370370370373],[0.15520833333333334,0.40370370370370373],[0.15520833333333334,0.40370370370370373],[0.15520833333333334,0.40370370370370373]]","[[0.049791666666666616,0.47074074074074085],[0.049791666666666616,0.47074074074074085],[0.035416666666666666,0.46518518518518526],[0.035416666666666666,0.46518518518518526],[0.03083333333333336,0.4422222222222221],[0.014374999999999952,0.4212962962962963],[0.004166666666666667,0.40037037037037043],[-0.005624999999999976,0.3998148148148148],[-0.005624999999999976,0.3998148148148148],[-0.009062500000000048,0.3961111111111111],[-0.009062500000000048,0.3961111111111111],[-0.018229166666666668,0.39388888888888896],[-0.03083333333333336,0.42166666666666675],[-0.03083333333333336,0.42166666666666675],[-0.025833333333333285,0.43425925925925923],[-0.025833333333333285,0.43425925925925923],[-0.01593749999999995,0.4275925925925925],[-0.010520833333333358,0.4427777777777778],[-0.010520833333333358,0.4427777777777778],[-0.03687499999999998,0.4383333333333334],[-0.08374999999999998,0.43796296296296294],[-0.134375,0.43148148148148147],[-0.134375,0.43148148148148147],[-0.1554166666666667,0.3646296296296296],[-0.18083333333333335,0.3164814814814814],[-0.18083333333333335,0.3164814814814814],[-0.19010416666666666,0.2770370370370371],[-0.19010416666666666,0.2770370370370371],[-0.2061458333333333,0.24740740740740744],[-0.23083333333333336,0.23981481481481481],[-0.23083333333333336,0.23981481481481481],[-0.2171875,0.2683333333333333],[-0.2171875,0.2683333333333333],[-0.21302083333333333,0.23629629629629634],[-0.23489583333333333,0.2403703703703703],[-0.18645833333333334,0.24000000000000005],[-0.14416666666666664,0.23444444444444448],[-0.13145833333333337,0.2892592592592593],[-0.1296875,0.2948148148148149],[-0.13833333333333328,0.29018518518518527],[-0.13833333333333328,0.29018518518518527],[-0.1123958333333333,0.3183333333333333],[-0.12208333333333338,0.31129629629629635],[-0.12208333333333338,0.31129629629629635],[-0.1658333333333334,0.2857407407407407],[-0.2063541666666667,0.28351851851851856],[-0.1664583333333333,0.25462962962962965],[-0.1701041666666666,0.23351851851851857],[-0.20510416666666664,0.2542592592592592],[-0.20625,0.23981481481481481],[-0.2373958333333333,0.28888888888888886],[-0.23624999999999996,0.32407407407407407],[-0.26989583333333333,0.3085185185185186],[-0.26208333333333333,0.30481481481481487],[-0.2617708333333333,0.337037037037037],[-0.2482291666666666,0.384074074074074],[-0.2727083333333333,0.4414814814814814],[-0.25875,0.43796296296296294],[-0.20729166666666668,0.3977777777777777],[-0.20760416666666662,0.4009259259259259],[-0.17541666666666664,0.37222222222222223],[-0.16781250000000003,0.33666666666666656],[-0.14739583333333334,0.29259259259259257],[-0.14739583333333334,0.29259259259259257],[-0.16135416666666663,0.2996296296296295],[-0.16458333333333333,0.24222222222222214],[-0.16000000000000003,0.21277777777777773],[-0.1554166666666667,0.18333333333333332],[-0.1554166666666667,0.18333333333333332],[-0.21843750000000003,0.19129629629629621],[-0.21385416666666662,0.1875925925925925],[-0.19135416666666671,0.1757407407407407],[-0.16499999999999998,0.17629629629629637],[-0.1742708333333333,0.21481481481481482],[-0.14708333333333337,0.2692592592592592],[-0.10656249999999995,0.2770370370370371],[-0.08156249999999995,0.2903703703703703],[-0.0889583333333333,0.2594444444444445],[-0.07281249999999997,0.24981481481481477],[-0.02520833333333338,0.2548148148148149],[-0.07010416666666662,0.2601851851851852],[-0.1141666666666667,0.26500000000000007],[-0.1492708333333333,0.25629629629629624],[-0.15114583333333337,0.2455555555555556],[-0.2078125,0.21092592592592588],[-0.25062500000000004,0.1735185185185186],[-0.28875000000000006,0.17388888888888884],[-0.28875000000000006,0.17388888888888884],[-0.29281250000000003,0.20500000000000007],[-0.3385416666666667,0.21574074074074073],[-0.34562499999999996,0.23740740740740748],[-0.32781250000000006,0.27037037037037037],[-0.315625,0.31814814814814807],[-0.315625,0.31814814814814807],[-0.31749999999999995,0.3199999999999999],[-0.3085416666666667,0.3044444444444444],[-0.29562499999999997,0.2892592592592593],[-0.2920833333333333,0.30037037037037045],[-0.263125,0.3242592592592593],[-0.2436458333333333,0.3337037037037038],[-0.19760416666666672,0.3296296296296296],[-0.19020833333333337,0.3146296296296296],[-0.16749999999999995,0.2911111111111112],[-0.14197916666666663,0.24092592592592596],[-0.10739583333333336,0.24981481481481477],[-0.09770833333333329,0.25999999999999995],[-0.09031250000000005,0.275],[-0.05614583333333331,0.29018518518518527],[-0.071875,0.28833333333333344],[-0.0626041666666667,0.27925925925925915],[-0.0702083333333333,0.2742592592592593],[-0.07781250000000005,0.2692592592592592],[-0.07781250000000005,0.2692592592592592],[-0.09979166666666663,0.26351851851851843],[-0.12312500000000005,0.27018518518518514],[-0.15406249999999996,0.24777777777777768],[-0.17260416666666673,0.23499999999999996],[-0.159375,0.22296296296296292],[-0.16302083333333334,0.21777777777777782],[-0.16312500000000002,0.19407407407407398],[-0.15697916666666673,0.16444444444444437],[-0.14010416666666667,0.12444444444444452],[-0.12770833333333337,0.0787037037037037],[-0.11625000000000002,0.04222222222222214],[-0.09635416666666667,0.07962962962962963],[-0.06083333333333331,0.1235185185185186],[-0.050520833333333334,0.12481481481481477],[-0.050520833333333334,0.12481481481481477],[-0.04864583333333338,0.13870370370370366],[-0.04864583333333338,0.13870370370370366],[-0.05614583333333331,0.1346296296296297],[-0.05614583333333331,0.1346296296296297],[-0.004999999999999952,0.11833333333333329],[-0.0032291666666666905,0.12537037037037047],[-0.0032291666666666905,0.12537037037037047],[0.013541666666666667,0.152962962962963],[0.013541666666666667,0.152962962962963],[0.029999999999999954,0.16592592592592598],[0.06145833333333333,0.19129629629629621],[0.08781249999999995,0.1427777777777778],[0.08802083333333334,0.10870370370370379],[0.08802083333333334,0.10870370370370379],[0.12708333333333333,0.06962962962962967],[0.08677083333333328,0.10648148148148148],[0.08677083333333328,0.10648148148148148],[0.05322916666666669,0.08277777777777787],[0.0016666666666666904,0.0948148148148149],[-0.03177083333333333,0.09666666666666675],[-0.051979166666666646,0.07981481481481485],[-0.06739583333333338,0.08333333333333333],[-0.09208333333333331,0.06518518518518526],[-0.11677083333333335,0.047037037037036995],[-0.10260416666666666,0.006481481481481481],[-0.10260416666666666,0.006481481481481481],[-0.09427083333333333,-0.011111111111111112],[-0.03239583333333336,-0.10240740740740743],[0.04354166666666662,-0.15351851851851847],[0.115625,-0.21944444444444444],[0.1877083333333334,-0.2853703703703704],[0.18291666666666656,-0.3225925925925926],[0.20572916666666666,-0.3531481481481481],[0.2228125000000001,-0.3744444444444444],[0.2321875000000001,-0.38259259259259265],[0.22583333333333327,-0.37333333333333335],[0.21843750000000003,-0.34444444444444444],[0.23020833333333332,-0.32833333333333337],[0.2021874999999999,-0.29870370370370375],[0.16593749999999996,-0.2698148148148148],[0.15322916666666658,-0.2561111111111111],[0.1868750000000001,-0.25407407407407406],[0.17677083333333338,-0.24407407407407408],[0.16666666666666666,-0.23407407407407405],[0.17447916666666666,-0.2531481481481481],[0.18229166666666666,-0.2722222222222222],[0.19718749999999996,-0.30351851851851847],[0.21208333333333323,-0.33481481481481484],[0.22125000000000009,-0.34740740740740744],[0.22125000000000009,-0.34740740740740744],[0.22666666666666657,-0.31074074074074076],[0.24447916666666672,-0.2890740740740741],[0.23020833333333332,-0.28962962962962957],[0.24666666666666662,-0.3007407407407407],[0.2631249999999999,-0.3118518518518518],[0.2631249999999999,-0.3118518518518518],[0.2646874999999999,-0.3227777777777778],[0.27364583333333337,-0.3101851851851852],[0.26614583333333336,-0.27981481481481485],[0.2638541666666666,-0.2690740740740741],[0.29572916666666677,-0.26129629629629636],[0.3006249999999999,-0.3164814814814814],[0.2493750000000001,-0.30925925925925923],[0.23020833333333332,-0.27981481481481485],[0.2048958333333334,-0.28962962962962957],[0.17468750000000005,-0.29259259259259257],[0.17489583333333342,-0.27740740740740744],[0.16770833333333332,-0.2992592592592593],[0.1482291666666666,-0.29611111111111105],[0.12354166666666658,-0.2733333333333334],[0.10583333333333324,-0.27555555555555555],[0.11885416666666657,-0.2640740740740741],[0.13958333333333334,-0.29685185185185187],[0.13958333333333334,-0.29685185185185187],[0.16656250000000009,-0.32222222222222224],[0.1921875,-0.33666666666666667],[0.2287499999999999,-0.3442592592592592],[0.20125000000000004,-0.3327777777777778],[0.22729166666666673,-0.3327777777777778],[0.22729166666666673,-0.3327777777777778],[0.20197916666666677,-0.3537037037037037],[0.23770833333333338,-0.3598148148148148],[0.2341666666666666,-0.3387037037037037],[0.2283333333333334,-0.30944444444444447],[0.23552083333333323,-0.2631481481481482],[0.23645833333333333,-0.2242592592592593],[0.21489583333333329,-0.1705555555555556],[0.19572916666666676,-0.16740740740740737],[0.21052083333333324,-0.12370370370370372],[0.17541666666666675,-0.06166666666666669],[0.2150000000000001,-0.0235185185185186],[0.1935416666666666,-0.0001851851851852273],[0.1772916666666667,0.006481481481481481],[0.17072916666666677,-0.034074074074074034],[0.1662499999999999,-0.03851851851851843],[0.1632291666666667,-0.06111111111111111],[0.1756249999999999,-0.0742592592592593],[0.1946875000000001,-0.05462962962962963],[0.2181250000000001,-0.09703703703703699],[0.22937500000000005,-0.13240740740740742],[0.22854166666666675,-0.15722222222222218],[0.2306250000000001,-0.18666666666666668],[0.2515625,-0.2111111111111111],[0.2515625,-0.2111111111111111],[0.24510416666666662,-0.22018518518518515],[0.24104166666666677,-0.2603703703703704],[0.25010416666666657,-0.24222222222222226],[0.2591666666666666,-0.22407407407407406],[0.24812500000000004,-0.23018518518518521],[0.23708333333333323,-0.23629629629629634],[0.2283333333333334,-0.21388888888888888],[0.22708333333333333,-0.22666666666666663],[0.22708333333333333,-0.22666666666666663],[0.22135416666666666,-0.19222222222222224],[0.19635416666666666,-0.20111111111111116],[0.19135416666666671,-0.18629629629629635],[0.19458333333333327,-0.17074074074074072],[0.18322916666666675,-0.19537037037037036],[0.16791666666666671,-0.19981481481481478],[0.16791666666666671,-0.19981481481481478],[0.15760416666666663,-0.17592592592592593],[0.15760416666666663,-0.17592592592592593],[0.14208333333333342,-0.13759259259259263],[0.14208333333333342,-0.13759259259259263],[0.14197916666666663,-0.14370370370370375],[0.14197916666666663,-0.14370370370370375],[0.15291666666666662,-0.10240740740740743],[0.15291666666666662,-0.10240740740740743],[0.1446875000000001,-0.11851851851851852],[0.1446875000000001,-0.11851851851851852],[0.16062500000000005,-0.08203703703703706],[0.16062500000000005,-0.08203703703703706],[0.18291666666666656,-0.022592592592592678],[0.18291666666666656,-0.022592592592592678],[0.1798958333333334,0.00851851851851856],[0.1798958333333334,0.00851851851851856],[0.18645833333333334,0.05759259259259263],[0.18645833333333334,0.05759259259259263],[0.19364583333333343,0.062407407407407495],[0.19364583333333343,0.062407407407407495],[0.20499999999999996,0.06444444444444436],[0.20499999999999996,0.06444444444444436],[0.21833333333333324,0.04537037037037037],[0.2263541666666666,0.03777777777777774],[0.2263541666666666,0.03777777777777774],[0.21583333333333338,0.01796296296296305],[0.23156249999999995,0.016666666666666666],[0.2267708333333334,0.039629629629629584],[0.215625,0.039629629629629584],[0.1953125,0.06555555555555552],[0.16541666666666663,0.07351851851851861],[0.16541666666666663,0.07351851851851861],[0.1259375000000001,0.08814814814814818],[0.08666666666666671,0.11703703703703712],[0.08666666666666671,0.11703703703703712],[0.03895833333333331,0.15018518518518523],[-0.04885416666666664,0.16407407407407412],[-0.13562500000000005,0.17166666666666675],[-0.23510416666666673,0.17092592592592584],[-0.3189583333333334,0.13666666666666658],[-0.4126041666666667,0.10388888888888893],[-0.48500000000000004,0.06277777777777774],[-0.5327083333333333,0.01962962962962967],[-0.5675,-0.006111111111111027],[-0.6208333333333333,-0.04000000000000004],[-0.6466666666666666,-0.08203703703703706],[-0.6466666666666666,-0.08203703703703706],[-0.6461458333333333,-0.09518518518518514],[-0.6466666666666666,-0.10203703703703708],[-0.6466666666666666,-0.10203703703703708],[-0.58875,-0.06277777777777774],[-0.5063541666666667,-0.08037037037037033],[-0.4123958333333333,-0.11277777777777774],[-0.32614583333333336,-0.13185185185185183],[-0.26458333333333334,-0.14888888888888885],[-0.20583333333333337,-0.17222222222222222],[-0.12843749999999995,-0.21222222222222226],[-0.06687500000000005,-0.24166666666666667],[-0.002499999999999976,-0.2553703703703703],[0.05614583333333331,-0.2505555555555556],[0.08916666666666657,-0.31925925925925924],[0.09770833333333329,-0.33111111111111113],[0.09833333333333343,-0.3264814814814815],[0.10666666666666676,-0.3351851851851852],[0.10354166666666677,-0.3427777777777778],[0.10281250000000004,-0.30888888888888894],[0.09968750000000005,-0.30574074074074076],[0.09656250000000005,-0.3025925925925925],[0.1009375000000001,-0.29870370370370375],[0.11104166666666657,-0.3133333333333333],[0.1,-0.31055555555555553],[0.0765625,-0.29000000000000004],[0.05927083333333331,-0.27259259259259255],[0.05447916666666662,-0.23537037037037042],[0.06114583333333338,-0.1992592592592593],[0.07802083333333343,-0.1933333333333333],[0.1040625000000001,-0.14814814814814814],[0.11572916666666658,-0.10314814814814813],[0.10906250000000005,-0.08462962962962961],[0.11885416666666657,-0.06722222222222224],[0.03760416666666669,-0.040740740740740744],[-0.03125,-0.032037037037036954],[-0.08062499999999997,-0.03814814814814819],[-0.14249999999999996,-0.06407407407407412],[-0.2013541666666666,-0.07407407407407407],[-0.2700000000000001,-0.08907407407407411],[-0.37385416666666665,-0.10333333333333336],[-0.4375,-0.11296296296296296],[-0.4926041666666666,-0.13425925925925927],[-0.5670833333333333,-0.13092592592592592],[-0.5416666666666666,-0.12111111111111107],[-0.51625,-0.11129629629629634],[-0.5364583333333334,-0.10999999999999996],[-0.536875,-0.09907407407407408],[-0.49416666666666664,-0.10759259259259263],[-0.4514583333333333,-0.1161111111111111],[-0.38479166666666664,-0.1205555555555556],[-0.3237499999999999,-0.1544444444444444],[-0.25333333333333335,-0.17222222222222222],[-0.18500000000000003,-0.20629629629629626],[-0.12999999999999995,-0.24129629629629631],[-0.0734375,-0.28592592592592586],[0.00927083333333331,-0.3072222222222222],[0.06364583333333336,-0.3205555555555556],[0.07062499999999995,-0.31444444444444447],[0.07760416666666667,-0.30833333333333335],[0.07760416666666667,-0.30833333333333335]]","[[0.049791666666666616,0.47074074074074085,0.00020000028609956644],[0.049791666666666616,0.47074074074074085,0.04949999999999477],[0.035416666666666666,0.46518518518518526,0.06070000028610423],[0.035416666666666666,0.46518518518518526,0.07759999990463484],[0.03083333333333336,0.4422222222222221,0.09409999990462836],[0.014374999999999952,0.4212962962962963,0.11650000000000205],[0.004166666666666667,0.40037037037037043,0.13009999990462973],[-0.005624999999999976,0.3998148148148148,0.14709999990462563],[-0.005624999999999976,0.3998148148148148,0.16080000019073282],[-0.009062500000000048,0.3961111111111111,0.17759999990462916],[-0.009062500000000048,0.3961111111111111,0.19420000028610218],[-0.018229166666666668,0.39388888888888896,0.21080000019072997],[-0.03083333333333336,0.42166666666666675,0.23420000028610843],[-0.03083333333333336,0.42166666666666675,0.24420000028609934],[-0.025833333333333285,0.43425925925925923,0.26109999990462995],[-0.025833333333333285,0.43425925925925923,0.2775999999046377],[-0.01593749999999995,0.4275925925925925,0.2940999999046312],[-0.010520833333333358,0.4427777777777778,0.32049999999999557],[-0.010520833333333358,0.4427777777777778,0.32750000000000057],[-0.03687499999999998,0.4383333333333334,0.3444000000953622],[-0.08374999999999998,0.43796296296296294,0.3610999999046385],[-0.134375,0.43148148148148147,0.3837000002860975],[-0.134375,0.43148148148148147,0.3943000001907393],[-0.1554166666666667,0.3646296296296296,0.4109000000953671],[-0.18083333333333335,0.3164814814814814,0.43430000019073134],[-0.18083333333333335,0.3164814814814814,0.44440000009537073],[-0.19010416666666666,0.2770370370370371,0.46090000009536425],[-0.19010416666666666,0.2770370370370371,0.4775999999046263],[-0.2061458333333333,0.24740740740740744,0.4979000000953704],[-0.23083333333333336,0.23981481481481481,0.5135999999046277],[-0.23083333333333336,0.23981481481481481,0.5279000000953715],[-0.2171875,0.2683333333333333,0.5485000000000042],[-0.2171875,0.2683333333333333,0.5619000000953633],[-0.21302083333333333,0.23629629629629634,0.5779000000953687],[-0.23489583333333333,0.2403703703703703,0.5987000002861009],[-0.18645833333333334,0.24000000000000005,0.6149999999999949],[-0.14416666666666664,0.23444444444444448,0.6317000002861022],[-0.13145833333333337,0.2892592592592593,0.6492000002861005],[-0.1296875,0.2948148148148149,0.6650000000000063],[-0.13833333333333328,0.29018518518518527,0.6844999999999999],[-0.13833333333333328,0.29018518518518527,0.6942000002861022],[-0.1123958333333333,0.3183333333333333,0.7109000000953642],[-0.12208333333333338,0.31129629629629635,0.7322000002860989],[-0.12208333333333338,0.31129629629629635,0.7469999999999999],[-0.1658333333333334,0.2857407407407407,0.7607000002861071],[-0.2063541666666667,0.28351851851851856,0.7805999999046378],[-0.1664583333333333,0.25462962962962965,0.794400000095365],[-0.1701041666666666,0.23351851851851857,0.8109000000953728],[-0.20510416666666664,0.2542592592592592,0.8275999999046348],[-0.20625,0.23981481481481481,0.8469000000953741],[-0.2373958333333333,0.28888888888888886,0.8609000000953699],[-0.23624999999999996,0.32407407407407407,0.8778000001907316],[-0.26989583333333333,0.3085185185185186,0.8978000001907418],[-0.26208333333333333,0.30481481481481487,0.9125999999046286],[-0.2617708333333333,0.337037037037037,0.9283000001907311],[-0.2482291666666666,0.384074074074074,0.9444000000953707],[-0.2727083333333333,0.4414814814814814,0.9628000001907395],[-0.25875,0.43796296296296294,0.9795000000000016],[-0.20729166666666668,0.3977777777777777,0.9942000002860993],[-0.20760416666666662,0.4009259259259259,1.0135999999046277],[-0.17541666666666664,0.37222222222222223,1.0275999999046377],[-0.16781250000000003,0.33666666666666656,1.0442000002860965],[-0.14739583333333334,0.29259259259259257,1.0628000001907338],[-0.14739583333333334,0.29259259259259257,1.0775999999046348],[-0.16135416666666663,0.2996296296296295,1.094300000190728],[-0.16458333333333333,0.24222222222222214,1.1143000001907382],[-0.16000000000000003,0.21277777777777773,1.1290000000000049],[-0.1554166666666667,0.18333333333333332,1.1443000001907393],[-0.1554166666666667,0.18333333333333332,1.163499999999999],[-0.21843750000000003,0.19129629629629621,1.1777000002861087],[-0.21385416666666662,0.1875925925925925,1.1943000001907365],[-0.19135416666666671,0.1757407407407407,1.21080000019073],[-0.16499999999999998,0.17629629629629637,1.230000000000004],[-0.1742708333333333,0.21481481481481482,1.2460999999046294],[-0.14708333333333337,0.2692592592592592,1.2609000000953614],[-0.10656249999999995,0.2770370370370371,1.2805000000000035],[-0.08156249999999995,0.2903703703703703,1.295800000190738],[-0.0889583333333333,0.2594444444444445,1.3109000000953728],[-0.07281249999999997,0.24981481481481477,1.3279000000953687],[-0.02520833333333338,0.2548148148148149,1.347200000286108],[-0.07010416666666662,0.2601851851851852,1.3614000000953723],[-0.1141666666666667,0.26500000000000007,1.3825999999046275],[-0.1492708333333333,0.25629629629629624,1.3990999999046352],[-0.15114583333333337,0.2455555555555556,1.4145999999046381],[-0.2078125,0.21092592592592588,1.4307000002861088],[-0.25062500000000004,0.1735185185185186,1.4455999999046298],[-0.28875000000000006,0.17388888888888884,1.4633000001907277],[-0.28875000000000006,0.17388888888888884,1.4779000000953744],[-0.29281250000000003,0.20500000000000007,1.4939999999999998],[-0.3385416666666667,0.21574074074074073,1.5153000001907344],[-0.34562499999999996,0.23740740740740748,1.5317000002861079],[-0.32781250000000006,0.27037037037037037,1.5475999999046337],[-0.315625,0.31814814814814807,1.5664000000953706],[-0.315625,0.31814814814814807,1.5778000001907344],[-0.31749999999999995,0.3199999999999999,1.594300000190728],[-0.3085416666666667,0.3044444444444444,1.6108000001907357],[-0.29562499999999997,0.2892592592592593,1.6304999999999978],[-0.2920833333333333,0.30037037037037045,1.6447000002861074],[-0.263125,0.3242592592592593,1.660900000095367],[-0.2436458333333333,0.3337037037037038,1.6813000001907312],[-0.19760416666666672,0.3296296296296296,1.6949000000953731],[-0.19020833333333337,0.3146296296296296,1.711500000000001],[-0.16749999999999995,0.2911111111111112,1.7275000000000063],[-0.14197916666666663,0.24092592592592596,1.7464999999999975],[-0.10739583333333336,0.24981481481481477,1.7608000001907413],[-0.09770833333333329,0.25999999999999995,1.7805000000000035],[-0.09031250000000005,0.275,1.7973000001907309],[-0.05614583333333331,0.29018518518518527,1.8134000000953705],[-0.071875,0.28833333333333344,1.828000000000003],[-0.0626041666666667,0.27925925925925915,1.848400000095367],[-0.0702083333333333,0.2742592592592593,1.8645999999046268],[-0.07781250000000005,0.2692592592592592,1.8820999999046393],[-0.07781250000000005,0.2692592592592592,1.9040999999046306],[-0.09979166666666663,0.26351851851851843,1.9110000000000014],[-0.12312500000000005,0.27018518518518514,1.9275999999046292],[-0.15406249999999996,0.24777777777777768,1.9465000000000003],[-0.17260416666666673,0.23499999999999996,1.9642000002860982],[-0.159375,0.22296296296296292,1.980700000286106],[-0.16302083333333334,0.21777777777777782,1.9964000000953632],[-0.16312500000000002,0.19407407407407398,2.0134000000953733],[-0.15697916666666673,0.16444444444444437,2.029200000286096],[-0.14010416666666667,0.12444444444444452,2.0457000002861037],[-0.12770833333333337,0.0787037037037037,2.0609000000953728],[-0.11625000000000002,0.04222222222222214,2.0807000002861002],[-0.09635416666666667,0.07962962962962963,2.095800000190735],[-0.06083333333333331,0.1235185185185186,2.11090000009537],[-0.050520833333333334,0.12481481481481477,2.127599999904632],[-0.050520833333333334,0.12481481481481477,2.147900000095362],[-0.04864583333333338,0.13870370370370366,2.160900000095367],[-0.04864583333333338,0.13870370370370366,2.1777000002861087],[-0.05614583333333331,0.1346296296296297,2.200000000000003],[-0.05614583333333331,0.1346296296296297,2.2109000000953642],[-0.004999999999999952,0.11833333333333329,2.2275999999046263],[-0.0032291666666666905,0.12537037037037047,2.2520999999046296],[-0.0032291666666666905,0.12537037037037047,2.2609000000953614],[0.013541666666666667,0.152962962962963,2.2779000000953715],[0.013541666666666667,0.152962962962963,2.2942000002860965],[0.029999999999999954,0.16592592592592598,2.3155999999046344],[0.06145833333333333,0.19129629629629621,2.3315000000000055],[0.08781249999999995,0.1427777777777778,2.3470999999046285],[0.08802083333333334,0.10870370370370379,2.3680999999046293],[0.08802083333333334,0.10870370370370379,2.3848000001907366],[0.12708333333333333,0.06962962962962967,2.3943000001907393],[0.08677083333333328,0.10648148148148148,2.4217000002861084],[0.08677083333333328,0.10648148148148148,2.4279999999999973],[0.05322916666666669,0.08277777777777787,2.444200000286102],[0.0016666666666666904,0.0948148148148149,2.4609000000953642],[-0.03177083333333333,0.09666666666666675,2.481499999999997],[-0.051979166666666646,0.07981481481481485,2.4947000002861017],[-0.06739583333333338,0.08333333333333333,2.5123000001907343],[-0.09208333333333331,0.06518518518518526,2.5285999999046282],[-0.11677083333333335,0.047037037037036995,2.5469000000953628],[-0.10260416666666666,0.006481481481481481,2.562800000190734],[-0.10260416666666666,0.006481481481481481,2.577599999904635],[-0.09427083333333333,-0.011111111111111112,2.594300000190728],[-0.03239583333333336,-0.10240740740740743,2.6138000001907358],[0.04354166666666662,-0.15351851851851847,2.6274999999999977],[0.115625,-0.21944444444444444,2.6450999999046303],[0.1877083333333334,-0.2853703703703704,2.660800000190733],[0.18291666666666656,-0.3225925925925926,2.6828000001907384],[0.20572916666666666,-0.3531481481481481,2.6972000002861023],[0.2228125000000001,-0.3744444444444444,2.7114000000953666],[0.2321875000000001,-0.38259259259259265,2.7275999999046263],[0.22583333333333327,-0.37333333333333335,2.7464000000953632],[0.21843750000000003,-0.34444444444444444,2.7609000000953614],[0.23020833333333332,-0.32833333333333337,2.7800999999046354],[0.2021874999999999,-0.29870370370370375,2.7942000002860965],[0.16593749999999996,-0.2698148148148148,2.812800000190734],[0.15322916666666658,-0.2561111111111111,2.827599999904635],[0.1868750000000001,-0.25407407407407406,2.845700000286101],[0.17677083333333338,-0.24407407407407408,2.8608000001907357],[0.16666666666666666,-0.23407407407407405,2.8799999999999955],[0.17447916666666666,-0.2531481481481481,2.894200000286105],[0.18229166666666666,-0.2722222222222222,2.9132000002860963],[0.19718749999999996,-0.30351851851851847,2.927900000095363],[0.21208333333333323,-0.33481481481481484,2.946300000190732],[0.22125000000000009,-0.34740740740740744,2.96080000019073],[0.22125000000000009,-0.34740740740740744,2.977700000286106],[0.22666666666666657,-0.31074074074074076,2.9942000002860993],[0.24447916666666672,-0.2890740740740741,3.013300000190739],[0.23020833333333332,-0.28962962962962957,3.0275999999046377],[0.24666666666666662,-0.3007407407407407,3.0450000000000017],[0.2631249999999999,-0.3118518518518518,3.0609000000953728],[0.2631249999999999,-0.3118518518518518,3.0819999999999936],[0.2646874999999999,-0.3227777777777778,3.0940999999046284],[0.27364583333333337,-0.3101851851851852,3.1112000002861038],[0.26614583333333336,-0.27981481481481485,3.127599999904632],[0.2638541666666666,-0.2690740740740741,3.1454999999999984],[0.29572916666666677,-0.26129629629629636,3.162700000286108],[0.3006249999999999,-0.3164814814814814,3.1784000000953654],[0.2493750000000001,-0.30925925925925923,3.1945999999046393],[0.23020833333333332,-0.27981481481481485,3.214200000286098],[0.2048958333333334,-0.28962962962962957,3.229599999904636],[0.17468750000000005,-0.29259259259259257,3.2442000002860993],[0.17489583333333342,-0.27740740740740744,3.260700000286107],[0.16770833333333332,-0.2992592592592593,3.2790999999046306],[0.1482291666666666,-0.29611111111111105,3.2955999999046384],[0.12354166666666658,-0.2733333333333334,3.3133000001907362],[0.10583333333333324,-0.27555555555555555,3.3278000001907344],[0.11885416666666657,-0.2640740740740741,3.346200000286103],[0.13958333333333334,-0.29685185185185187,3.3607000002861014],[0.13958333333333334,-0.29685185185185187,3.377599999904632],[0.16656250000000009,-0.32222222222222224,3.3940999999046255],[0.1921875,-0.33666666666666667,3.413400000095365],[0.2287499999999999,-0.3442592592592592,3.4287000002860992],[0.20125000000000004,-0.3327777777777778,3.4445999999046393],[0.22729166666666673,-0.3327777777777778,3.4607000002860957],[0.22729166666666673,-0.3327777777777778,3.477400000095372],[0.20197916666666677,-0.3537037037037037,3.4939999999999998],[0.23770833333333338,-0.3598148148148148,3.5112000002860952],[0.2341666666666666,-0.3387037037037037,3.5275999999046377],[0.2283333333333334,-0.30944444444444447,3.544700000286099],[0.23552083333333323,-0.2631481481481482,3.5644999999999953],[0.23645833333333333,-0.2242592592592593,3.5822000002861074],[0.21489583333333329,-0.1705555555555556,3.5999999999999943],[0.19572916666666676,-0.16740740740740737,3.6145999999046268],[0.21052083333333324,-0.12370370370370372,3.6293000001907387],[0.17541666666666675,-0.06166666666666669,3.644200000286105],[0.2150000000000001,-0.0235185185185186,3.6607000002860985],[0.1935416666666666,-0.0001851851851852273,3.6777000002861087],[0.1772916666666667,0.006481481481481481,3.696800000190734],[0.17072916666666677,-0.034074074074074034,3.711200000286098],[0.1662499999999999,-0.03851851851851843,3.727400000095372],[0.1632291666666667,-0.06111111111111111,3.7442000002860993],[0.1756249999999999,-0.0742592592592593,3.760700000286107],[0.1946875000000001,-0.05462962962962963,3.7794000000953645],[0.2181250000000001,-0.09703703703703699,3.793999999999997],[0.22937500000000005,-0.13240740740740742,3.8107000002861042],[0.22854166666666675,-0.15722222222222218,3.827300000190732],[0.2306250000000001,-0.18666666666666668,3.843999999999994],[0.2515625,-0.2111111111111111,3.8607000002861014],[0.2515625,-0.2111111111111111,3.877599999904632],[0.24510416666666662,-0.22018518518518515,3.8940000000000055],[0.24104166666666677,-0.2603703703703704,3.910900000095367],[0.25010416666666657,-0.24222222222222226,3.9274000000953606],[0.2591666666666666,-0.22407407407407406,3.944099999904637],[0.24812500000000004,-0.23018518518518521,3.9620999999046376],[0.23708333333333323,-0.23629629629629634,3.9788000001907307],[0.2283333333333334,-0.21388888888888888,3.994400000095368],[0.22708333333333333,-0.22666666666666663,4.014900000095366],[0.22708333333333333,-0.22666666666666663,4.029800000190733],[0.22135416666666666,-0.19222222222222224,4.044099999904631],[0.19635416666666666,-0.20111111111111116,4.060700000286104],[0.19135416666666671,-0.18629629629629635,4.077400000095366],[0.19458333333333327,-0.17074074074074072,4.093999999999994],[0.18322916666666675,-0.19537037037037036,4.110700000286101],[0.16791666666666671,-0.19981481481481478,4.127800000190732],[0.16791666666666671,-0.19981481481481478,4.1440999999046255],[0.15760416666666663,-0.17592592592592593,4.1607000002860985],[0.15760416666666663,-0.17592592592592593,4.177499999999995],[0.14208333333333342,-0.13759259259259263,4.194099999904637],[0.14208333333333342,-0.13759259259259263,4.210700000286096],[0.14197916666666663,-0.14370370370370375,4.227400000095372],[0.14197916666666663,-0.14370370370370375,4.244],[0.15291666666666662,-0.10240740740740743,4.260700000286107],[0.15291666666666662,-0.10240740740740743,4.277500000000003],[0.1446875000000001,-0.11851851851851852,4.293999999999997],[0.1446875000000001,-0.11851851851851852,4.310900000095373],[0.16062500000000005,-0.08203703703703706,4.327400000095366],[0.16062500000000005,-0.08203703703703706,4.344099999904628],[0.18291666666666656,-0.022592592592592678,4.360700000286101],[0.18291666666666656,-0.022592592592592678,4.3774000000953635],[0.1798958333333334,0.00851851851851856,4.3940000000000055],[0.1798958333333334,0.00851851851851856,4.4107000002860985],[0.18645833333333334,0.05759259259259263,4.427400000095361],[0.18645833333333334,0.05759259259259263,4.444500000000005],[0.19364583333333343,0.062407407407407495,4.46080000019073],[0.19364583333333343,0.062407407407407495,4.477599999904626],[0.20499999999999996,0.06444444444444436,4.494099999904634],[0.20499999999999996,0.06444444444444436,4.510800000190741],[0.21833333333333324,0.04537037037037037,4.5279000000953715],[0.2263541666666666,0.03777777777777774,4.548200000286101],[0.2263541666666666,0.03777777777777774,4.5608000001907385],[0.21583333333333338,0.01796296296296305,4.577599999904635],[0.23156249999999995,0.016666666666666666,4.598400000095367],[0.2267708333333334,0.039629629629629584,4.614000000000004],[0.215625,0.039629629629629584,4.627800000190732],[0.1953125,0.06555555555555552,4.6440000000000055],[0.16541666666666663,0.07351851851851861,4.660800000190733],[0.16541666666666663,0.07351851851851861,4.677400000095361],[0.1259375000000001,0.08814814814814818,4.694099999904637],[0.08666666666666671,0.11703703703703712,4.711200000286098],[0.08666666666666671,0.11703703703703712,4.727700000286106],[0.03895833333333331,0.15018518518518523,4.744099999904634],[-0.04885416666666664,0.16407407407407412,4.761400000095364],[-0.13562500000000005,0.17166666666666675,4.780700000286103],[-0.23510416666666673,0.17092592592592584,4.7968000001907285],[-0.3189583333333334,0.13666666666666658,4.812200000286097],[-0.4126041666666667,0.10388888888888893,4.827300000190732],[-0.48500000000000004,0.06277777777777774,4.843999999999994],[-0.5327083333333333,0.01962962962962967,4.860599999904636],[-0.5675,-0.006111111111111027,4.881300000190734],[-0.6208333333333333,-0.04000000000000004,4.894900000095362],[-0.6466666666666666,-0.08203703703703706,4.917300000190735],[-0.6466666666666666,-0.08203703703703706,4.927400000095361],[-0.6461458333333333,-0.09518518518518514,4.944000000000003],[-0.6466666666666666,-0.10203703703703708,4.96080000019073],[-0.6466666666666666,-0.10203703703703708,4.977400000095372],[-0.58875,-0.06277777777777774,4.994],[-0.5063541666666667,-0.08037037037037033,5.0113000001907295],[-0.4123958333333333,-0.11277777777777774,5.02830000019074],[-0.32614583333333336,-0.13185185185185183,5.04540000009537],[-0.26458333333333334,-0.14888888888888885,5.060599999904639],[-0.20583333333333337,-0.17222222222222222,5.0789000000953735],[-0.12843749999999995,-0.21222222222222226,5.093999999999994],[-0.06687500000000005,-0.24166666666666667,5.110599999904636],[-0.002499999999999976,-0.2553703703703703,5.127499999999998],[0.05614583333333331,-0.2505555555555556,5.1440000000000055],[0.08916666666666657,-0.31925925925925924,5.1607000002860985],[0.09770833333333329,-0.33111111111111113,5.180300000190741],[0.09833333333333343,-0.3264814814814815,5.194099999904637],[0.10666666666666676,-0.3351851851851852,5.210700000286096],[0.10354166666666677,-0.3427777777777778,5.227300000190738],[0.10281250000000004,-0.30888888888888894,5.244],[0.09968750000000005,-0.30574074074074076,5.260700000286107],[0.09656250000000005,-0.3025925925925925,5.278800000190728],[0.1009375000000001,-0.29870370370370375,5.2953000001907355],[0.11104166666666657,-0.3133333333333333,5.310700000286104],[0.1,-0.31055555555555553,5.327300000190732],[0.0765625,-0.29000000000000004,5.343999999999994],[0.05927083333333331,-0.27259259259259255,5.360700000286101],[0.05447916666666662,-0.23537037037037042,5.378700000286102],[0.06114583333333338,-0.1992592592592593,5.39809999990463],[0.07802083333333343,-0.1933333333333333,5.4133000001907305],[0.1040625000000001,-0.14814814814814814,5.4273000001907405],[0.11572916666666658,-0.10314814814814813,5.448400000095361],[0.10906250000000005,-0.08462962962962961,5.462000000000003],[0.11885416666666657,-0.06722222222222224,5.478900000095365],[0.03760416666666669,-0.040740740740740744,5.494099999904634],[-0.03125,-0.032037037037036954,5.510599999904628],[-0.08062499999999997,-0.03814814814814819,5.528700000286108],[-0.14249999999999996,-0.06407407407407412,5.543999999999997],[-0.2013541666666666,-0.07407407407407407,5.5608000001907385],[-0.2700000000000001,-0.08907407407407411,5.579200000286107],[-0.37385416666666665,-0.10333333333333336,5.594099999904628],[-0.4375,-0.11296296296296296,5.612099999904629],[-0.4926041666666666,-0.13425925925925927,5.627300000190729],[-0.5670833333333333,-0.13092592592592592,5.6440000000000055],[-0.5416666666666666,-0.12111111111111107,5.661000000000001],[-0.51625,-0.11129629629629634,5.680300000190741],[-0.5364583333333334,-0.10999999999999996,5.694099999904637],[-0.536875,-0.09907407407407408,5.710700000286096],[-0.49416666666666664,-0.10759259259259263,5.727400000095372],[-0.4514583333333333,-0.1161111111111111,5.744099999904634],[-0.38479166666666664,-0.1205555555555556,5.760599999904628],[-0.3237499999999999,-0.1544444444444444,5.778099999904626],[-0.25333333333333335,-0.17222222222222222,5.793999999999997],[-0.18500000000000003,-0.20629629629629626,5.810700000286104],[-0.12999999999999995,-0.24129629629629631,5.827800000190734],[-0.0734375,-0.28592592592592586,5.843999999999994],[0.00927083333333331,-0.3072222222222222,5.860599999904636],[0.06364583333333336,-0.3205555555555556,5.8810999999046345],[0.07062499999999995,-0.31444444444444447,5.896700000286103],[0.07760416666666667,-0.30833333333333335,5.916499999999999],[0.07760416666666667,-0.30833333333333335,5.931300000190731]]","[0.00020000028609956644,0.04949999999999477,0.06070000028610423,0.07759999990463484,0.09409999990462836,0.11650000000000205,0.13009999990462973,0.14709999990462563,0.16080000019073282,0.17759999990462916,0.19420000028610218,0.21080000019072997,0.23420000028610843,0.24420000028609934,0.26109999990462995,0.2775999999046377,0.2940999999046312,0.32049999999999557,0.32750000000000057,0.3444000000953622,0.3610999999046385,0.3837000002860975,0.3943000001907393,0.4109000000953671,0.43430000019073134,0.44440000009537073,0.46090000009536425,0.4775999999046263,0.4979000000953704,0.5135999999046277,0.5279000000953715,0.5485000000000042,0.5619000000953633,0.5779000000953687,0.5987000002861009,0.6149999999999949,0.6317000002861022,0.6492000002861005,0.6650000000000063,0.6844999999999999,0.6942000002861022,0.7109000000953642,0.7322000002860989,0.7469999999999999,0.7607000002861071,0.7805999999046378,0.794400000095365,0.8109000000953728,0.8275999999046348,0.8469000000953741,0.8609000000953699,0.8778000001907316,0.8978000001907418,0.9125999999046286,0.9283000001907311,0.9444000000953707,0.9628000001907395,0.9795000000000016,0.9942000002860993,1.0135999999046277,1.0275999999046377,1.0442000002860965,1.0628000001907338,1.0775999999046348,1.094300000190728,1.1143000001907382,1.1290000000000049,1.1443000001907393,1.163499999999999,1.1777000002861087,1.1943000001907365,1.21080000019073,1.230000000000004,1.2460999999046294,1.2609000000953614,1.2805000000000035,1.295800000190738,1.3109000000953728,1.3279000000953687,1.347200000286108,1.3614000000953723,1.3825999999046275,1.3990999999046352,1.4145999999046381,1.4307000002861088,1.4455999999046298,1.4633000001907277,1.4779000000953744,1.4939999999999998,1.5153000001907344,1.5317000002861079,1.5475999999046337,1.5664000000953706,1.5778000001907344,1.594300000190728,1.6108000001907357,1.6304999999999978,1.6447000002861074,1.660900000095367,1.6813000001907312,1.6949000000953731,1.711500000000001,1.7275000000000063,1.7464999999999975,1.7608000001907413,1.7805000000000035,1.7973000001907309,1.8134000000953705,1.828000000000003,1.848400000095367,1.8645999999046268,1.8820999999046393,1.9040999999046306,1.9110000000000014,1.9275999999046292,1.9465000000000003,1.9642000002860982,1.980700000286106,1.9964000000953632,2.0134000000953733,2.029200000286096,2.0457000002861037,2.0609000000953728,2.0807000002861002,2.095800000190735,2.11090000009537,2.127599999904632,2.147900000095362,2.160900000095367,2.1777000002861087,2.200000000000003,2.2109000000953642,2.2275999999046263,2.2520999999046296,2.2609000000953614,2.2779000000953715,2.2942000002860965,2.3155999999046344,2.3315000000000055,2.3470999999046285,2.3680999999046293,2.3848000001907366,2.3943000001907393,2.4217000002861084,2.4279999999999973,2.444200000286102,2.4609000000953642,2.481499999999997,2.4947000002861017,2.5123000001907343,2.5285999999046282,2.5469000000953628,2.562800000190734,2.577599999904635,2.594300000190728,2.6138000001907358,2.6274999999999977,2.6450999999046303,2.660800000190733,2.6828000001907384,2.6972000002861023,2.7114000000953666,2.7275999999046263,2.7464000000953632,2.7609000000953614,2.7800999999046354,2.7942000002860965,2.812800000190734,2.827599999904635,2.845700000286101,2.8608000001907357,2.8799999999999955,2.894200000286105,2.9132000002860963,2.927900000095363,2.946300000190732,2.96080000019073,2.977700000286106,2.9942000002860993,3.013300000190739,3.0275999999046377,3.0450000000000017,3.0609000000953728,3.0819999999999936,3.0940999999046284,3.1112000002861038,3.127599999904632,3.1454999999999984,3.162700000286108,3.1784000000953654,3.1945999999046393,3.214200000286098,3.229599999904636,3.2442000002860993,3.260700000286107,3.2790999999046306,3.2955999999046384,3.3133000001907362,3.3278000001907344,3.346200000286103,3.3607000002861014,3.377599999904632,3.3940999999046255,3.413400000095365,3.4287000002860992,3.4445999999046393,3.4607000002860957,3.477400000095372,3.4939999999999998,3.5112000002860952,3.5275999999046377,3.544700000286099,3.5644999999999953,3.5822000002861074,3.5999999999999943,3.6145999999046268,3.6293000001907387,3.644200000286105,3.6607000002860985,3.6777000002861087,3.696800000190734,3.711200000286098,3.727400000095372,3.7442000002860993,3.760700000286107,3.7794000000953645,3.793999999999997,3.8107000002861042,3.827300000190732,3.843999999999994,3.8607000002861014,3.877599999904632,3.8940000000000055,3.910900000095367,3.9274000000953606,3.944099999904637,3.9620999999046376,3.9788000001907307,3.994400000095368,4.014900000095366,4.029800000190733,4.044099999904631,4.060700000286104,4.077400000095366,4.093999999999994,4.110700000286101,4.127800000190732,4.1440999999046255,4.1607000002860985,4.177499999999995,4.194099999904637,4.210700000286096,4.227400000095372,4.244,4.260700000286107,4.277500000000003,4.293999999999997,4.310900000095373,4.327400000095366,4.344099999904628,4.360700000286101,4.3774000000953635,4.3940000000000055,4.4107000002860985,4.427400000095361,4.444500000000005,4.46080000019073,4.477599999904626,4.494099999904634,4.510800000190741,4.5279000000953715,4.548200000286101,4.5608000001907385,4.577599999904635,4.598400000095367,4.614000000000004,4.627800000190732,4.6440000000000055,4.660800000190733,4.677400000095361,4.694099999904637,4.711200000286098,4.727700000286106,4.744099999904634,4.761400000095364,4.780700000286103,4.7968000001907285,4.812200000286097,4.827300000190732,4.843999999999994,4.860599999904636,4.881300000190734,4.894900000095362,4.917300000190735,4.927400000095361,4.944000000000003,4.96080000019073,4.977400000095372,4.994,5.0113000001907295,5.02830000019074,5.04540000009537,5.060599999904639,5.0789000000953735,5.093999999999994,5.110599999904636,5.127499999999998,5.1440000000000055,5.1607000002860985,5.180300000190741,5.194099999904637,5.210700000286096,5.227300000190738,5.244,5.260700000286107,5.278800000190728,5.2953000001907355,5.310700000286104,5.327300000190732,5.343999999999994,5.360700000286101,5.378700000286102,5.39809999990463,5.4133000001907305,5.4273000001907405,5.448400000095361,5.462000000000003,5.478900000095365,5.494099999904634,5.510599999904628,5.528700000286108,5.543999999999997,5.5608000001907385,5.579200000286107,5.594099999904628,5.612099999904629,5.627300000190729,5.6440000000000055,5.661000000000001,5.680300000190741,5.694099999904637,5.710700000286096,5.727400000095372,5.744099999904634,5.760599999904628,5.778099999904626,5.793999999999997,5.810700000286104,5.827800000190734,5.843999999999994,5.860599999904636,5.8810999999046345,5.896700000286103,5.916499999999999,5.931300000190731]","[1731905045182,1731905045221,1731905045232,1731905045249,1731905045266,1731905045288,1731905045302,1731905045319,1731905045332,1731905045349,1731905045366,1731905045382,1731905045406,1731905045416,1731905045433,1731905045449,1731905045466,1731905045492,1731905045499,1731905045516,1731905045533,1731905045555,1731905045566,1731905045582,1731905045606,1731905045616,1731905045632,1731905045649,1731905045669,1731905045685,1731905045699,1731905045720,1731905045733,1731905045750,1731905045770,1731905045787,1731905045803,1731905045821,1731905045837,1731905045856,1731905045866,1731905045882,1731905045904,1731905045919,1731905045932,1731905045952,1731905045966,1731905045982,1731905045999,1731905046018,1731905046032,1731905046049,1731905046069,1731905046084,1731905046100,1731905046116,1731905046134,1731905046151,1731905046166,1731905046185,1731905046199,1731905046216,1731905046234,1731905046249,1731905046266,1731905046286,1731905046301,1731905046316,1731905046335,1731905046349,1731905046366,1731905046382,1731905046401,1731905046418,1731905046432,1731905046452,1731905046467,1731905046482,1731905046499,1731905046519,1731905046533,1731905046554,1731905046571,1731905046586,1731905046602,1731905046617,1731905046635,1731905046649,1731905046666,1731905046687,1731905046703,1731905046719,1731905046738,1731905046749,1731905046766,1731905046782,1731905046802,1731905046816,1731905046832,1731905046853,1731905046866,1731905046883,1731905046899,1731905046918,1731905046932,1731905046952,1731905046969,1731905046985,1731905047000,1731905047020,1731905047036,1731905047054,1731905047076,1731905047083,1731905047099,1731905047118,1731905047136,1731905047152,1731905047168,1731905047185,1731905047201,1731905047217,1731905047232,1731905047252,1731905047267,1731905047282,1731905047299,1731905047319,1731905047332,1731905047349,1731905047372,1731905047382,1731905047399,1731905047424,1731905047432,1731905047449,1731905047466,1731905047487,1731905047503,1731905047519,1731905047540,1731905047556,1731905047566,1731905047593,1731905047600,1731905047616,1731905047632,1731905047653,1731905047666,1731905047684,1731905047700,1731905047719,1731905047734,1731905047749,1731905047766,1731905047785,1731905047799,1731905047817,1731905047832,1731905047854,1731905047869,1731905047883,1731905047899,1731905047918,1731905047932,1731905047952,1731905047966,1731905047984,1731905047999,1731905048017,1731905048032,1731905048052,1731905048066,1731905048085,1731905048099,1731905048118,1731905048132,1731905048149,1731905048166,1731905048185,1731905048199,1731905048217,1731905048232,1731905048254,1731905048266,1731905048283,1731905048299,1731905048317,1731905048334,1731905048350,1731905048366,1731905048386,1731905048401,1731905048416,1731905048432,1731905048451,1731905048467,1731905048485,1731905048499,1731905048518,1731905048532,1731905048549,1731905048566,1731905048585,1731905048600,1731905048616,1731905048632,1731905048649,1731905048666,1731905048683,1731905048699,1731905048716,1731905048736,1731905048754,1731905048772,1731905048786,1731905048801,1731905048816,1731905048832,1731905048849,1731905048868,1731905048883,1731905048899,1731905048916,1731905048932,1731905048951,1731905048966,1731905048982,1731905048999,1731905049016,1731905049032,1731905049049,1731905049066,1731905049082,1731905049099,1731905049116,1731905049134,1731905049150,1731905049166,1731905049186,1731905049201,1731905049216,1731905049232,1731905049249,1731905049266,1731905049282,1731905049299,1731905049316,1731905049332,1731905049349,1731905049366,1731905049382,1731905049399,1731905049416,1731905049432,1731905049449,1731905049466,1731905049482,1731905049499,1731905049516,1731905049532,1731905049549,1731905049566,1731905049582,1731905049599,1731905049616,1731905049632,1731905049649,1731905049666,1731905049682,1731905049699,1731905049720,1731905049732,1731905049749,1731905049770,1731905049786,1731905049799,1731905049816,1731905049832,1731905049849,1731905049866,1731905049883,1731905049899,1731905049916,1731905049933,1731905049952,1731905049968,1731905049984,1731905049999,1731905050016,1731905050032,1731905050053,1731905050066,1731905050089,1731905050099,1731905050116,1731905050132,1731905050149,1731905050166,1731905050183,1731905050200,1731905050217,1731905050232,1731905050250,1731905050266,1731905050282,1731905050299,1731905050316,1731905050332,1731905050352,1731905050366,1731905050382,1731905050399,1731905050416,1731905050432,1731905050450,1731905050467,1731905050482,1731905050499,1731905050516,1731905050532,1731905050550,1731905050570,1731905050585,1731905050599,1731905050620,1731905050634,1731905050650,1731905050666,1731905050682,1731905050700,1731905050716,1731905050732,1731905050751,1731905050766,1731905050784,1731905050799,1731905050816,1731905050833,1731905050852,1731905050866,1731905050882,1731905050899,1731905050916,1731905050932,1731905050950,1731905050966,1731905050982,1731905050999,1731905051016,1731905051032,1731905051053,1731905051068,1731905051088,1731905051103]","[[1007.8,794.2],[1007.8,794.2],[994,791.2],[994,791.2],[989.6,778.8],[973.8,767.5],[964,756.2],[954.6,755.9],[954.6,755.9],[951.3,753.9],[951.3,753.9],[942.5,752.7],[930.4,767.7],[930.4,767.7],[935.2,774.5],[935.2,774.5],[944.7,770.9],[949.9,779.1],[949.9,779.1],[924.6,776.7],[879.6,776.5],[831,773],[831,773],[810.8,736.9],[786.4,710.9],[786.4,710.9],[777.5,689.6],[777.5,689.6],[762.1,673.6],[738.4,669.5],[738.4,669.5],[751.5,684.9],[751.5,684.9],[755.5,667.6],[734.5,669.8],[781,669.6],[821.6,666.6],[833.8,696.2],[835.5,699.2],[827.2,696.7],[827.2,696.7],[852.1,711.9],[842.8,708.1],[842.8,708.1],[800.8,694.3],[761.9,693.1],[800.2,677.5],[796.7,666.1],[763.1,677.3],[762,669.5],[732.1,696],[733.2,715],[700.9,706.6],[708.4,704.6],[708.7,722],[721.7,747.4],[698.2,778.4],[711.6,776.5],[761,754.8],[760.7,756.5],[791.6,741],[798.9,721.8],[818.5,698],[818.5,698],[805.1,701.8],[802,670.8],[806.4,654.9],[810.8,639],[810.8,639],[750.3,643.3],[754.7,641.3],[776.3,634.9],[801.6,635.2],[792.7,656],[818.8,685.4],[857.7,689.6],[881.7,696.8],[874.6,680.1],[890.1,674.9],[935.8,677.6],[892.7,680.5],[850.4,683.1],[816.7,678.4],[814.9,672.6],[760.5,653.9],[719.4,633.7],[682.8,633.9],[682.8,633.9],[678.9,650.7],[635,656.5],[628.2,668.2],[645.3,686],[657,711.8],[657,711.8],[655.2,712.8],[663.8,704.4],[676.2,696.2],[679.6,702.2],[707.4,715.1],[726.1,720.2],[770.3,718],[777.4,709.9],[799.2,697.2],[823.7,670.1],[856.9,674.9],[866.2,680.4],[873.3,688.5],[906.1,696.7],[891,695.7],[899.9,690.8],[892.6,688.1],[885.3,685.4],[885.3,685.4],[864.2,682.3],[841.8,685.9],[812.1,673.8],[794.3,666.9],[807,660.4],[803.5,657.6],[803.4,644.8],[809.3,628.8],[825.5,607.2],[837.4,582.5],[848.4,562.8],[867.5,583],[901.6,606.7],[911.5,607.4],[911.5,607.4],[913.3,614.9],[913.3,614.9],[906.1,612.7],[906.1,612.7],[955.2,603.9],[956.9,607.7],[956.9,607.7],[973,622.6],[973,622.6],[988.8,629.6],[1019,643.3],[1044.3,617.1],[1044.5,598.7],[1044.5,598.7],[1082,577.6],[1043.3,597.5],[1043.3,597.5],[1011.1,584.7],[961.6,591.2],[929.5,592.2],[910.1,583.1],[895.3,585],[871.6,575.2],[847.9,565.4],[861.5,543.5],[861.5,543.5],[869.5,534],[928.9,484.7],[1001.8,457.1],[1071,421.5],[1140.2,385.9],[1135.6,365.8],[1157.5,349.3],[1173.9,337.8],[1182.9,333.4],[1176.8,338.4],[1169.7,354],[1181,362.7],[1154.1,378.7],[1119.3,394.3],[1107.1,401.7],[1139.4,402.8],[1129.7,408.2],[1120,413.6],[1127.5,403.3],[1135,393],[1149.3,376.1],[1163.6,359.2],[1172.4,352.4],[1172.4,352.4],[1177.6,372.2],[1194.7,383.9],[1181,383.6],[1196.8,377.6],[1212.6,371.6],[1212.6,371.6],[1214.1,365.7],[1222.7,372.5],[1215.5,388.9],[1213.3,394.7],[1243.9,398.9],[1248.6,369.1],[1199.4,373],[1181,388.9],[1156.7,383.6],[1127.7,382],[1127.9,390.2],[1121,378.4],[1102.3,380.1],[1078.6,392.4],[1061.6,391.2],[1074.1,397.4],[1094,379.7],[1094,379.7],[1119.9,366],[1144.5,358.2],[1179.6,354.1],[1153.2,360.3],[1178.2,360.3],[1178.2,360.3],[1153.9,349],[1188.2,345.7],[1184.8,357.1],[1179.2,372.9],[1186.1,397.9],[1187,418.9],[1166.3,447.9],[1147.9,449.6],[1162.1,473.2],[1128.4,506.7],[1166.4,527.3],[1145.8,539.9],[1130.2,543.5],[1123.9,521.6],[1119.6,519.2],[1116.7,507],[1128.6,499.9],[1146.9,510.5],[1169.4,487.6],[1180.2,468.5],[1179.4,455.1],[1181.4,439.2],[1201.5,426],[1201.5,426],[1195.3,421.1],[1191.4,399.4],[1200.1,409.2],[1208.8,419],[1198.2,415.7],[1187.6,412.4],[1179.2,424.5],[1178,417.6],[1178,417.6],[1172.5,436.2],[1148.5,431.4],[1143.7,439.4],[1146.8,447.8],[1135.9,434.5],[1121.2,432.1],[1121.2,432.1],[1111.3,445],[1111.3,445],[1096.4,465.7],[1096.4,465.7],[1096.3,462.4],[1096.3,462.4],[1106.8,484.7],[1106.8,484.7],[1098.9,476],[1098.9,476],[1114.2,495.7],[1114.2,495.7],[1135.6,527.8],[1135.6,527.8],[1132.7,544.6],[1132.7,544.6],[1139,571.1],[1139,571.1],[1145.9,573.7],[1145.9,573.7],[1156.8,574.8],[1156.8,574.8],[1169.6,564.5],[1177.3,560.4],[1177.3,560.4],[1167.2,549.7],[1182.3,549],[1177.7,561.4],[1167,561.4],[1147.5,575.4],[1118.8,579.7],[1118.8,579.7],[1080.9,587.6],[1043.2,603.2],[1043.2,603.2],[997.4,621.1],[913.1,628.6],[829.8,632.7],[734.3,632.3],[653.8,613.8],[563.9,596.1],[494.4,573.9],[448.6,550.6],[415.2,536.7],[364,518.4],[339.2,495.7],[339.2,495.7],[339.7,488.6],[339.2,484.9],[339.2,484.9],[394.8,506.1],[473.9,496.6],[564.1,479.1],[646.9,468.8],[706,459.6],[762.4,447],[836.7,425.4],[895.8,409.5],[957.6,402.1],[1013.9,404.7],[1045.6,367.6],[1053.8,361.2],[1054.4,363.7],[1062.4,359],[1059.4,354.9],[1058.7,373.2],[1055.7,374.9],[1052.7,376.6],[1056.9,378.7],[1066.6,370.8],[1056,372.3],[1033.5,383.4],[1016.9,392.8],[1012.3,412.9],[1018.7,432.4],[1034.9,435.6],[1059.9,460],[1071.1,484.3],[1064.7,494.3],[1074.1,503.7],[996.1,518],[930,522.7],[882.6,519.4],[823.2,505.4],[766.7,500],[700.8,491.9],[601.1,484.2],[540,479],[487.1,467.5],[415.6,469.3],[440,474.6],[464.4,479.9],[445,480.6],[444.6,486.5],[485.6,481.9],[526.6,477.3],[590.6,474.9],[649.2,456.6],[716.8,447],[782.4,428.6],[835.2,409.7],[889.5,385.6],[968.9,374.1],[1021.1,366.9],[1027.8,370.2],[1034.5,373.5],[1034.5,373.5]]","[-0.132282,0.39684600000000003]","[0.132282,0.39684600000000003]","[0.39684600000000003,0.39684600000000003]","[-0.39684600000000003,0.132282]","[-0.39684600000000003,-0.132282]","[-0.39684600000000003,-0.39684600000000003]","[-0.132282,0.132282]","[0.132282,0.132282]","[0.39684600000000003,0.132282]","[-0.132282,-0.132282]","[0.132282,-0.132282]","[0.39684600000000003,-0.132282]","[-0.132282,-0.39684600000000003]","[0.132282,-0.39684600000000003]","[0.39684600000000003,-0.39684600000000003]",0,0,0,0,1,3,Tablet,25,40,9,1,50,4,1,60,5
