inst1_resp.keys,inst1_resp.rt,calibrationMouse.x,calibrationMouse.y,calibrationMouse.leftButton,calibrationMouse.midButton,calibrationMouse.rightButton,calibrationClick.x,calibrationClick.y,calibrationClick.leftButton,calibrationClick.midButton,calibrationClick.rightButton,calibrationClick.clicked_name,trialsc.thisRepN,trialsc.thisTrialN,trialsc.thisN,trialsc.thisIndex,trialsc.ran,calibration_x,calibration_y,participant,session,date,expName,psychopyVersion,OS,frameRate,ScreenRes_pixels,Camera_pixels,mouse_2.x,mouse_2.y,mouse_2.leftButton,mouse_2.midButton,mouse_2.rightButton,mouse_2.time,mouse_2.clicked_name,mouse.x,mouse.y,mouse.leftButton,mouse.midButton,mouse.rightButton,mouse.time,mouse.clicked_name,Choice,Trial,TrialDuration,MOUSE_GAZE,ET_GAZE,ET_GAZE_x_T,time,unixTime,ET_GAZE_NF,Loc_Bus_label,Loc_Metro_label,Loc_RH_label,Loc_Cost_label,Loc_Travel_label,Loc_Comfort_label,Loc_Bus_cost,Loc_Metro_cost,Loc_RH_cost,Loc_Bus_travel,Loc_Metro_travel,Loc_RH_travel,Loc_Bus_comfort,Loc_Metro_comfort,Loc_RH_comfort,trials.thisRepN,trials.thisTrialN,trials.thisN,trials.thisIndex,trials.ran,Block,Device,RH_cost,RH_travel_time,RH_Comfort,metro_cost,metro_travel_time,metro_Comfort,Bus_cost,Bus_travel_time,Bus_Comfort
space,1.5979,0.761458333,0.355555556,1,0,0,-0.679166667,-0.666666667,1,0,0,calibration_square,0,0,0,0,1,-0.67,-0.67,39,001,2024-11-30_11h22.24.681,Attention_exp_legacy,2023.1.0,Win32,59.88023952,,,,,,,,,,,,,,,,,,,,,,,,,,,,,,,,,,,,,,,,,,,,,,,,,,,,,,,,
,,,,,,,0.316666667,0.677777778,1,0,0,,0,1,1,18,1,0.33,0.67,39,001,2024-11-30_11h22.24.681,Attention_exp_legacy,2023.1.0,Win32,59.88023952,,,,,,,,,,,,,,,,,,,,,,,,,,,,,,,,,,,,,,,,,,,,,,,,,,,,,,,,
,,,,,,,-0.334375,-0.337037037,1,0,0,calibration_square,0,2,2,5,1,-0.33,-0.33,39,001,2024-11-30_11h22.24.681,Attention_exp_legacy,2023.1.0,Win32,59.88023952,,,,,,,,,,,,,,,,,,,,,,,,,,,,,,,,,,,,,,,,,,,,,,,,,,,,,,,,
,,,,,,,0.336458333,-0.672222222,1,0,0,calibration_square,0,3,3,14,1,0.33,-0.67,39,001,2024-11-30_11h22.24.681,Attention_exp_legacy,2023.1.0,Win32,59.88023952,,,,,,,,,,,,,,,,,,,,,,,,,,,,,,,,,,,,,,,,,,,,,,,,,,,,,,,,
,,,,,,,0.338541667,0.338888889,1,0,0,calibration_square,0,4,4,17,1,0.33,0.33,39,001,2024-11-30_11h22.24.681,Attention_exp_legacy,2023.1.0,Win32,59.88023952,,,,,,,,,,,,,,,,,,,,,,,,,,,,,,,,,,,,,,,,,,,,,,,,,,,,,,,,
,,,,,,,0.661458333,-0.674074074,1,0,0,calibration_square,0,5,5,20,1,0.67,-0.67,39,001,2024-11-30_11h22.24.681,Attention_exp_legacy,2023.1.0,Win32,59.88023952,,,,,,,,,,,,,,,,,,,,,,,,,,,,,,,,,,,,,,,,,,,,,,,,,,,,,,,,
,,,,,,,0.334375,-0.32962963,1,0,0,calibration_square,0,6,6,15,1,0.33,-0.33,39,001,2024-11-30_11h22.24.681,Attention_exp_legacy,2023.1.0,Win32,59.88023952,,,,,,,,,,,,,,,,,,,,,,,,,,,,,,,,,,,,,,,,,,,,,,,,,,,,,,,,
,,,,,,,-0.005208333,0.003703704,1,0,0,calibration_square,0,7,7,11,1,0,0,39,001,2024-11-30_11h22.24.681,Attention_exp_legacy,2023.1.0,Win32,59.88023952,,,,,,,,,,,,,,,,,,,,,,,,,,,,,,,,,,,,,,,,,,,,,,,,,,,,,,,,
,,,,,,,-0.678125,0.338888889,1,0,0,calibration_square,0,8,8,3,1,-0.67,0.33,39,001,2024-11-30_11h22.24.681,Attention_exp_legacy,2023.1.0,Win32,59.88023952,,,,,,,,,,,,,,,,,,,,,,,,,,,,,,,,,,,,,,,,,,,,,,,,,,,,,,,,
,,,,,,,0.340625,-0.014814815,1,0,0,,0,9,9,16,1,0.33,0,39,001,2024-11-30_11h22.24.681,Attention_exp_legacy,2023.1.0,Win32,59.88023952,,,,,,,,,,,,,,,,,,,,,,,,,,,,,,,,,,,,,,,,,,,,,,,,,,,,,,,,
,,,,,,,-0.675,0.02037037,1,0,0,,0,10,10,2,1,-0.67,0,39,001,2024-11-30_11h22.24.681,Attention_exp_legacy,2023.1.0,Win32,59.88023952,,,,,,,,,,,,,,,,,,,,,,,,,,,,,,,,,,,,,,,,,,,,,,,,,,,,,,,,
,,,,,,,-0.338541667,0.351851852,1,0,0,,0,11,11,7,1,-0.33,0.33,39,001,2024-11-30_11h22.24.681,Attention_exp_legacy,2023.1.0,Win32,59.88023952,,,,,,,,,,,,,,,,,,,,,,,,,,,,,,,,,,,,,,,,,,,,,,,,,,,,,,,,
,,,,,,,-0.690625,-0.312962963,1,0,0,,0,12,12,1,1,-0.67,-0.33,39,001,2024-11-30_11h22.24.681,Attention_exp_legacy,2023.1.0,Win32,59.88023952,,,,,,,,,,,,,,,,,,,,,,,,,,,,,,,,,,,,,,,,,,,,,,,,,,,,,,,,
,,,,,,,-0.335416667,0.681481481,1,0,0,,0,13,13,8,1,-0.33,0.67,39,001,2024-11-30_11h22.24.681,Attention_exp_legacy,2023.1.0,Win32,59.88023952,,,,,,,,,,,,,,,,,,,,,,,,,,,,,,,,,,,,,,,,,,,,,,,,,,,,,,,,
,,,,,,,-0.329166667,-0.677777778,1,0,0,calibration_square,0,14,14,4,1,-0.33,-0.67,39,001,2024-11-30_11h22.24.681,Attention_exp_legacy,2023.1.0,Win32,59.88023952,,,,,,,,,,,,,,,,,,,,,,,,,,,,,,,,,,,,,,,,,,,,,,,,,,,,,,,,
,,,,,,,-0.004166667,-0.309259259,1,0,0,,0,15,15,10,1,0,-0.33,39,001,2024-11-30_11h22.24.681,Attention_exp_legacy,2023.1.0,Win32,59.88023952,,,,,,,,,,,,,,,,,,,,,,,,,,,,,,,,,,,,,,,,,,,,,,,,,,,,,,,,
,,,,,,,0.00625,0.340740741,1,0,0,,0,16,16,12,1,0,0.33,39,001,2024-11-30_11h22.24.681,Attention_exp_legacy,2023.1.0,Win32,59.88023952,,,,,,,,,,,,,,,,,,,,,,,,,,,,,,,,,,,,,,,,,,,,,,,,,,,,,,,,
,,,,,,,-0.334375,-0.001851852,1,0,0,calibration_square,0,17,17,6,1,-0.33,0,39,001,2024-11-30_11h22.24.681,Attention_exp_legacy,2023.1.0,Win32,59.88023952,,,,,,,,,,,,,,,,,,,,,,,,,,,,,,,,,,,,,,,,,,,,,,,,,,,,,,,,
,,,,,,,0.004166667,0.672222222,1,0,0,calibration_square,0,18,18,13,1,0,0.67,39,001,2024-11-30_11h22.24.681,Attention_exp_legacy,2023.1.0,Win32,59.88023952,,,,,,,,,,,,,,,,,,,,,,,,,,,,,,,,,,,,,,,,,,,,,,,,,,,,,,,,
,,,,,,,0.665625,0.661111111,1,0,0,calibration_square,0,19,19,19,1,0.67,0.67,39,001,2024-11-30_11h22.24.681,Attention_exp_legacy,2023.1.0,Win32,59.88023952,,,,,,,,,,,,,,,,,,,,,,,,,,,,,,,,,,,,,,,,,,,,,,,,,,,,,,,,
,,,,,,,0.003125,-0.666666667,1,0,0,calibration_square,0,20,20,9,1,0,-0.67,39,001,2024-11-30_11h22.24.681,Attention_exp_legacy,2023.1.0,Win32,59.88023952,,,,,,,,,,,,,,,,,,,,,,,,,,,,,,,,,,,,,,,,,,,,,,,,,,,,,,,,
,,,,,,,,,,,,,,,,,,,,39,001,2024-11-30_11h22.24.681,Attention_exp_legacy,2023.1.0,Win32,59.88023952,"[1920,1080]","[640,480]",[0.025],[-0.49444444444444446],[1],[0],[0],[2.3801000000238446],"[""StartButton""]",[0.059375],[0.17222222222222222],[1],[0],[0],[10.01869999998808],"[""Metro_label""]",Metro_label,1,11.0418,"[[0.028125,-0.49074074074074076],[0.029166666666666667,-0.4888888888888889],[0.029166666666666667,-0.4888888888888889],[0.030208333333333334,-0.48333333333333334],[0.03125,-0.48333333333333334],[0.03125,-0.48333333333333334],[0.03125,-0.48148148148148145],[0.03125,-0.47962962962962963],[0.03125,-0.47962962962962963],[0.03125,-0.47962962962962963],[0.03125,-0.47962962962962963],[0.03125,-0.47962962962962963],[0.03125,-0.47962962962962963],[0.03229166666666667,-0.4759259259259259],[0.03229166666666667,-0.4740740740740741],[0.03333333333333333,-0.4703703703703704],[0.034375,-0.4666666666666667],[0.0375,-0.45925925925925926],[0.03854166666666667,-0.4537037037037037],[0.042708333333333334,-0.44074074074074077],[0.04791666666666667,-0.42777777777777776],[0.053125,-0.4074074074074074],[0.058333333333333334,-0.3907407407407407],[0.06354166666666666,-0.37592592592592594],[0.06770833333333333,-0.3648148148148148],[0.075,-0.3425925925925926],[0.07604166666666666,-0.3333333333333333],[0.07916666666666666,-0.32592592592592595],[0.08020833333333334,-0.31666666666666665],[0.08229166666666667,-0.3074074074074074],[0.08229166666666667,-0.3055555555555556],[0.084375,-0.3],[0.084375,-0.29259259259259257],[0.08541666666666667,-0.29259259259259257],[0.08541666666666667,-0.29259259259259257],[0.08541666666666667,-0.29259259259259257],[0.08541666666666667,-0.29259259259259257],[0.08541666666666667,-0.29259259259259257],[0.08541666666666667,-0.29259259259259257],[0.08541666666666667,-0.29259259259259257],[0.08541666666666667,-0.29259259259259257],[0.08541666666666667,-0.29259259259259257],[0.08541666666666667,-0.29259259259259257],[0.08541666666666667,-0.29259259259259257],[0.08541666666666667,-0.29259259259259257],[0.08541666666666667,-0.29259259259259257],[0.08541666666666667,-0.29259259259259257],[0.08541666666666667,-0.29259259259259257],[0.08541666666666667,-0.29259259259259257],[0.08541666666666667,-0.29259259259259257],[0.08541666666666667,-0.29259259259259257],[0.08541666666666667,-0.29259259259259257],[0.08541666666666667,-0.29259259259259257],[0.08541666666666667,-0.29259259259259257],[0.08541666666666667,-0.29259259259259257],[0.08541666666666667,-0.29259259259259257],[0.08541666666666667,-0.29259259259259257],[0.08541666666666667,-0.29259259259259257],[0.08541666666666667,-0.29259259259259257],[0.08541666666666667,-0.29259259259259257],[0.08541666666666667,-0.29259259259259257],[0.08541666666666667,-0.2962962962962963],[0.08125,-0.31296296296296294],[0.07604166666666666,-0.3425925925925926],[0.06875,-0.3851851851851852],[0.059375,-0.45185185185185184],[0.058333333333333334,-0.4759259259259259],[0.057291666666666664,-0.5185185185185185],[0.06145833333333333,-0.5740740740740741],[0.06458333333333334,-0.5907407407407408],[0.07708333333333334,-0.6166666666666667],[0.08854166666666667,-0.6314814814814815],[0.096875,-0.6370370370370371],[0.10833333333333334,-0.6370370370370371],[0.11666666666666667,-0.6333333333333333],[0.12395833333333334,-0.6222222222222222],[0.12916666666666668,-0.6092592592592593],[0.13645833333333332,-0.587037037037037],[0.14270833333333333,-0.5537037037037037],[0.14791666666666667,-0.512962962962963],[0.15,-0.4722222222222222],[0.15,-0.4111111111111111],[0.15,-0.3925925925925926],[0.15,-0.362962962962963],[0.15,-0.34814814814814815],[0.146875,-0.337037037037037],[0.146875,-0.337037037037037],[0.146875,-0.337037037037037],[0.146875,-0.337037037037037],[0.146875,-0.337037037037037],[0.146875,-0.337037037037037],[0.146875,-0.337037037037037],[0.146875,-0.337037037037037],[0.146875,-0.337037037037037],[0.146875,-0.34444444444444444],[0.14895833333333333,-0.362962962962963],[0.15520833333333334,-0.387037037037037],[0.16875,-0.42777777777777776],[0.17708333333333334,-0.44814814814814813],[0.184375,-0.4648148148148148],[0.18958333333333333,-0.4759259259259259],[0.19166666666666668,-0.47962962962962963],[0.19270833333333334,-0.48148148148148145],[0.19270833333333334,-0.48333333333333334],[0.19270833333333334,-0.48333333333333334],[0.19270833333333334,-0.48333333333333334],[0.19270833333333334,-0.48333333333333334],[0.19270833333333334,-0.48333333333333334],[0.19270833333333334,-0.48333333333333334],[0.19270833333333334,-0.48333333333333334],[0.19270833333333334,-0.48333333333333334],[0.19270833333333334,-0.48333333333333334],[0.19270833333333334,-0.48333333333333334],[0.19270833333333334,-0.48333333333333334],[0.19270833333333334,-0.48333333333333334],[0.19270833333333334,-0.48333333333333334],[0.19270833333333334,-0.48333333333333334],[0.19270833333333334,-0.48333333333333334],[0.19270833333333334,-0.48333333333333334],[0.19270833333333334,-0.48333333333333334],[0.19270833333333334,-0.48333333333333334],[0.19270833333333334,-0.48333333333333334],[0.19270833333333334,-0.48333333333333334],[0.19270833333333334,-0.48333333333333334],[0.19270833333333334,-0.48333333333333334],[0.19270833333333334,-0.48333333333333334],[0.19270833333333334,-0.48333333333333334],[0.19270833333333334,-0.48333333333333334],[0.19270833333333334,-0.48333333333333334],[0.19270833333333334,-0.48333333333333334],[0.19270833333333334,-0.48333333333333334],[0.19270833333333334,-0.48333333333333334],[0.19270833333333334,-0.48333333333333334],[0.19270833333333334,-0.48333333333333334],[0.19270833333333334,-0.48333333333333334],[0.19270833333333334,-0.48333333333333334],[0.19270833333333334,-0.48333333333333334],[0.19270833333333334,-0.48333333333333334],[0.19270833333333334,-0.48333333333333334],[0.19270833333333334,-0.48333333333333334],[0.19270833333333334,-0.48333333333333334],[0.19270833333333334,-0.48333333333333334],[0.19270833333333334,-0.48333333333333334],[0.19270833333333334,-0.48333333333333334],[0.19270833333333334,-0.48333333333333334],[0.19270833333333334,-0.48333333333333334],[0.19270833333333334,-0.48333333333333334],[0.19270833333333334,-0.48518518518518516],[0.18854166666666666,-0.48518518518518516],[0.18229166666666666,-0.48518518518518516],[0.178125,-0.48518518518518516],[0.17291666666666666,-0.48518518518518516],[0.16354166666666667,-0.48333333333333334],[0.153125,-0.4722222222222222],[0.1375,-0.45740740740740743],[0.11458333333333333,-0.4166666666666667],[0.09791666666666667,-0.37962962962962965],[0.0875,-0.3388888888888889],[0.07604166666666666,-0.2833333333333333],[0.052083333333333336,-0.16111111111111112],[0.0125,0.003703703703703704],[-0.025,0.1259259259259259],[-0.052083333333333336,0.2111111111111111],[-0.06458333333333334,0.2537037037037037],[-0.06979166666666667,0.2759259259259259],[-0.07083333333333333,0.2796296296296296],[-0.07083333333333333,0.2796296296296296],[-0.07083333333333333,0.2796296296296296],[-0.07083333333333333,0.2796296296296296],[-0.07083333333333333,0.2796296296296296],[-0.07083333333333333,0.2796296296296296],[-0.071875,0.2796296296296296],[-0.07291666666666667,0.2722222222222222],[-0.07291666666666667,0.24259259259259258],[-0.07291666666666667,0.2222222222222222],[-0.07083333333333333,0.20185185185185187],[-0.06666666666666667,0.18518518518518517],[-0.06145833333333333,0.1685185185185185],[-0.058333333333333334,0.15925925925925927],[-0.05625,0.1537037037037037],[-0.05625,0.1537037037037037],[-0.05625,0.1537037037037037],[-0.05625,0.1537037037037037],[-0.05625,0.1537037037037037],[-0.05625,0.1537037037037037],[-0.05625,0.1537037037037037],[-0.05625,0.1537037037037037],[-0.05625,0.16296296296296298],[-0.057291666666666664,0.1648148148148148],[-0.059375,0.17222222222222222],[-0.06041666666666667,0.17407407407407408],[-0.06041666666666667,0.17407407407407408],[-0.06041666666666667,0.17407407407407408],[-0.06041666666666667,0.17407407407407408],[-0.06041666666666667,0.17407407407407408],[-0.06041666666666667,0.17407407407407408],[-0.06041666666666667,0.17407407407407408],[-0.06041666666666667,0.17407407407407408],[-0.06041666666666667,0.17407407407407408],[-0.06041666666666667,0.17222222222222222],[-0.06041666666666667,0.17222222222222222],[-0.06041666666666667,0.17037037037037037],[-0.06041666666666667,0.17037037037037037],[-0.06041666666666667,0.17037037037037037],[-0.06041666666666667,0.17037037037037037],[-0.06041666666666667,0.17037037037037037],[-0.06041666666666667,0.17037037037037037],[-0.06041666666666667,0.17037037037037037],[-0.06041666666666667,0.17037037037037037],[-0.06041666666666667,0.17037037037037037],[-0.06041666666666667,0.17037037037037037],[-0.06041666666666667,0.17037037037037037],[-0.06041666666666667,0.17037037037037037],[-0.06041666666666667,0.17037037037037037],[-0.06041666666666667,0.17037037037037037],[-0.06041666666666667,0.17037037037037037],[-0.06041666666666667,0.17037037037037037],[-0.06041666666666667,0.17037037037037037],[-0.06041666666666667,0.17037037037037037],[-0.06041666666666667,0.17037037037037037],[-0.06041666666666667,0.17037037037037037],[-0.06041666666666667,0.17037037037037037],[-0.06041666666666667,0.17037037037037037],[-0.06041666666666667,0.17037037037037037],[-0.06041666666666667,0.17037037037037037],[-0.06041666666666667,0.17037037037037037],[-0.06041666666666667,0.17037037037037037],[-0.06041666666666667,0.17037037037037037],[-0.06041666666666667,0.17037037037037037],[-0.06041666666666667,0.17037037037037037],[-0.06041666666666667,0.17037037037037037],[-0.06041666666666667,0.17037037037037037],[-0.06041666666666667,0.17037037037037037],[-0.06041666666666667,0.17037037037037037],[-0.06041666666666667,0.17037037037037037],[-0.06041666666666667,0.17037037037037037],[-0.06041666666666667,0.17037037037037037],[-0.06041666666666667,0.17037037037037037],[-0.06041666666666667,0.17037037037037037],[-0.06041666666666667,0.17037037037037037],[-0.06041666666666667,0.17037037037037037],[-0.06041666666666667,0.17037037037037037],[-0.06041666666666667,0.17037037037037037],[-0.06041666666666667,0.17037037037037037],[-0.06041666666666667,0.17037037037037037],[-0.06041666666666667,0.17037037037037037],[-0.06041666666666667,0.17037037037037037],[-0.06041666666666667,0.17037037037037037],[-0.06041666666666667,0.17037037037037037],[-0.06041666666666667,0.17037037037037037],[-0.06041666666666667,0.17037037037037037],[-0.06041666666666667,0.17037037037037037],[-0.06041666666666667,0.17037037037037037],[-0.06041666666666667,0.17037037037037037],[-0.06041666666666667,0.17037037037037037],[-0.06041666666666667,0.17037037037037037],[-0.06041666666666667,0.17037037037037037],[-0.06041666666666667,0.17037037037037037],[-0.06041666666666667,0.17037037037037037],[-0.06041666666666667,0.17037037037037037],[-0.06041666666666667,0.17037037037037037],[-0.06041666666666667,0.17037037037037037],[-0.06041666666666667,0.17037037037037037],[-0.057291666666666664,0.17037037037037037],[-0.04479166666666667,0.17037037037037037],[-0.007291666666666667,0.1925925925925926],[0.022916666666666665,0.2],[0.046875,0.20925925925925926],[0.06145833333333333,0.21296296296296297],[0.065625,0.21481481481481482],[0.06666666666666667,0.21481481481481482],[0.06770833333333333,0.21481481481481482],[0.06770833333333333,0.21481481481481482],[0.06979166666666667,0.21481481481481482],[0.07083333333333333,0.21481481481481482],[0.07291666666666667,0.21296296296296297],[0.075,0.20925925925925926],[0.07708333333333334,0.2037037037037037],[0.078125,0.20185185185185187],[0.078125,0.20185185185185187],[0.07916666666666666,0.19814814814814816],[0.07916666666666666,0.19814814814814816],[0.07916666666666666,0.19814814814814816],[0.07916666666666666,0.19814814814814816],[0.07916666666666666,0.19814814814814816],[0.07916666666666666,0.19814814814814816],[0.07916666666666666,0.19814814814814816],[0.07916666666666666,0.19814814814814816],[0.07916666666666666,0.19814814814814816],[0.07916666666666666,0.19814814814814816],[0.07916666666666666,0.19814814814814816],[0.07916666666666666,0.19814814814814816],[0.07916666666666666,0.19814814814814816],[0.07916666666666666,0.19814814814814816],[0.07916666666666666,0.2037037037037037],[0.07916666666666666,0.2074074074074074],[0.07916666666666666,0.21296296296296297],[0.07916666666666666,0.21481481481481482],[0.07916666666666666,0.21666666666666667],[0.07916666666666666,0.21851851851851853],[0.07916666666666666,0.21851851851851853],[0.07916666666666666,0.21851851851851853],[0.07916666666666666,0.21851851851851853],[0.07916666666666666,0.21851851851851853],[0.07916666666666666,0.21851851851851853],[0.07916666666666666,0.21851851851851853],[0.07916666666666666,0.21851851851851853],[0.07916666666666666,0.21851851851851853],[0.07916666666666666,0.21851851851851853],[0.07916666666666666,0.21851851851851853],[0.07916666666666666,0.21851851851851853],[0.07916666666666666,0.21851851851851853],[0.07916666666666666,0.21851851851851853],[0.07916666666666666,0.21851851851851853],[0.07916666666666666,0.21851851851851853],[0.07916666666666666,0.21851851851851853],[0.07916666666666666,0.21851851851851853],[0.07916666666666666,0.21851851851851853],[0.07916666666666666,0.21851851851851853],[0.07916666666666666,0.21851851851851853],[0.07916666666666666,0.21851851851851853],[0.07916666666666666,0.21851851851851853],[0.07916666666666666,0.21851851851851853],[0.07916666666666666,0.21851851851851853],[0.07916666666666666,0.21851851851851853],[0.07916666666666666,0.21851851851851853],[0.07916666666666666,0.21851851851851853],[0.07916666666666666,0.21851851851851853],[0.07916666666666666,0.21851851851851853],[0.07916666666666666,0.21851851851851853],[0.07916666666666666,0.21851851851851853],[0.07916666666666666,0.21851851851851853],[0.07916666666666666,0.21851851851851853],[0.07916666666666666,0.21851851851851853],[0.07916666666666666,0.21851851851851853],[0.07916666666666666,0.21851851851851853],[0.07916666666666666,0.21851851851851853],[0.07916666666666666,0.21851851851851853],[0.07916666666666666,0.21851851851851853],[0.07916666666666666,0.21851851851851853],[0.07916666666666666,0.21851851851851853],[0.07916666666666666,0.21851851851851853],[0.07916666666666666,0.21851851851851853],[0.07916666666666666,0.21851851851851853],[0.07916666666666666,0.22037037037037038],[0.07916666666666666,0.22407407407407406],[0.07916666666666666,0.22777777777777777],[0.07916666666666666,0.22962962962962963],[0.07916666666666666,0.22962962962962963],[0.07916666666666666,0.23148148148148148],[0.08020833333333334,0.2351851851851852],[0.08020833333333334,0.23703703703703705],[0.08020833333333334,0.2388888888888889],[0.08020833333333334,0.24074074074074073],[0.08229166666666667,0.24259259259259258],[0.08229166666666667,0.24444444444444444],[0.08229166666666667,0.2462962962962963],[0.08333333333333333,0.24814814814814815],[0.08333333333333333,0.2518518518518518],[0.08541666666666667,0.2537037037037037],[0.08541666666666667,0.2537037037037037],[0.08541666666666667,0.2537037037037037],[0.08541666666666667,0.25555555555555554],[0.08541666666666667,0.2574074074074074],[0.08541666666666667,0.2574074074074074],[0.08645833333333333,0.25925925925925924],[0.08645833333333333,0.25925925925925924],[0.08645833333333333,0.25925925925925924],[0.08645833333333333,0.25925925925925924],[0.08645833333333333,0.25925925925925924],[0.08645833333333333,0.25925925925925924],[0.08645833333333333,0.25925925925925924],[0.08645833333333333,0.25925925925925924],[0.08645833333333333,0.25925925925925924],[0.08645833333333333,0.25925925925925924],[0.08645833333333333,0.25925925925925924],[0.08645833333333333,0.25925925925925924],[0.08645833333333333,0.25925925925925924],[0.08645833333333333,0.25925925925925924],[0.08645833333333333,0.25925925925925924],[0.08645833333333333,0.25925925925925924],[0.08645833333333333,0.25925925925925924],[0.08645833333333333,0.25925925925925924],[0.08645833333333333,0.25925925925925924],[0.08645833333333333,0.25925925925925924],[0.08645833333333333,0.25925925925925924],[0.08645833333333333,0.25925925925925924],[0.08645833333333333,0.25925925925925924],[0.08645833333333333,0.25925925925925924],[0.08645833333333333,0.25925925925925924],[0.08645833333333333,0.25925925925925924],[0.08645833333333333,0.25925925925925924],[0.08645833333333333,0.25925925925925924],[0.08645833333333333,0.25925925925925924],[0.08645833333333333,0.25925925925925924],[0.08645833333333333,0.25925925925925924],[0.08645833333333333,0.25925925925925924],[0.08541666666666667,0.2537037037037037],[0.084375,0.25],[0.08333333333333333,0.24814814814814815],[0.08229166666666667,0.24444444444444444],[0.08229166666666667,0.24259259259259258],[0.08229166666666667,0.24259259259259258],[0.08229166666666667,0.24074074074074073],[0.08229166666666667,0.24074074074074073],[0.08229166666666667,0.24074074074074073],[0.08125,0.2388888888888889],[0.07916666666666666,0.23333333333333334],[0.07708333333333334,0.22592592592592592],[0.07291666666666667,0.21666666666666667],[0.06979166666666667,0.20925925925925926],[0.06875,0.2074074074074074],[0.06770833333333333,0.20555555555555555],[0.06770833333333333,0.20555555555555555],[0.06770833333333333,0.20555555555555555],[0.065625,0.2037037037037037],[0.06458333333333334,0.20185185185185187],[0.0625,0.20185185185185187],[0.06145833333333333,0.20185185185185187],[0.059375,0.20185185185185187],[0.058333333333333334,0.2],[0.058333333333333334,0.2],[0.05625,0.19814814814814816],[0.05520833333333333,0.1962962962962963],[0.053125,0.19444444444444445],[0.051041666666666666,0.1925925925925926],[0.051041666666666666,0.1925925925925926],[0.051041666666666666,0.1925925925925926],[0.051041666666666666,0.1925925925925926],[0.051041666666666666,0.1925925925925926],[0.051041666666666666,0.1925925925925926],[0.051041666666666666,0.19074074074074074],[0.051041666666666666,0.18888888888888888],[0.05,0.18703703703703703],[0.05,0.18703703703703703],[0.05,0.18518518518518517],[0.05,0.17962962962962964],[0.05,0.17962962962962964],[0.051041666666666666,0.17592592592592593],[0.052083333333333336,0.17407407407407408],[0.053125,0.17407407407407408],[0.05416666666666667,0.17407407407407408],[0.05520833333333333,0.17407407407407408],[0.05625,0.17407407407407408],[0.057291666666666664,0.17222222222222222],[0.057291666666666664,0.17222222222222222],[0.058333333333333334,0.17222222222222222],[0.058333333333333334,0.17222222222222222],[0.058333333333333334,0.17222222222222222],[0.058333333333333334,0.17222222222222222],[0.058333333333333334,0.17222222222222222],[0.058333333333333334,0.17222222222222222],[0.058333333333333334,0.17222222222222222],[0.058333333333333334,0.17222222222222222],[0.058333333333333334,0.17222222222222222],[0.058333333333333334,0.17222222222222222],[0.058333333333333334,0.17222222222222222],[0.058333333333333334,0.17222222222222222],[0.058333333333333334,0.17222222222222222],[0.058333333333333334,0.17222222222222222],[0.058333333333333334,0.17222222222222222],[0.058333333333333334,0.17222222222222222],[0.058333333333333334,0.17222222222222222],[0.058333333333333334,0.17222222222222222],[0.058333333333333334,0.17222222222222222],[0.058333333333333334,0.17222222222222222],[0.058333333333333334,0.17222222222222222],[0.058333333333333334,0.17222222222222222],[0.058333333333333334,0.17222222222222222],[0.058333333333333334,0.17222222222222222],[0.058333333333333334,0.17222222222222222],[0.058333333333333334,0.17222222222222222],[0.058333333333333334,0.17222222222222222],[0.058333333333333334,0.17222222222222222],[0.058333333333333334,0.17222222222222222],[0.059375,0.17222222222222222],[0.059375,0.17222222222222222],[0.059375,0.17222222222222222],[0.059375,0.17222222222222222],[0.059375,0.17222222222222222],[0.059375,0.17222222222222222],[0.059375,0.17222222222222222],[0.059375,0.17222222222222222],[0.059375,0.17222222222222222],[0.059375,0.17222222222222222],[0.059375,0.17222222222222222],[0.059375,0.17222222222222222],[0.059375,0.17222222222222222],[0.059375,0.17222222222222222],[0.059375,0.17222222222222222],[0.059375,0.17222222222222222],[0.059375,0.17222222222222222],[0.059375,0.17222222222222222],[0.059375,0.17222222222222222],[0.059375,0.17222222222222222],[0.059375,0.17222222222222222],[0.059375,0.17222222222222222],[0.059375,0.17222222222222222],[0.059375,0.17222222222222222],[0.059375,0.17222222222222222],[0.059375,0.17222222222222222],[0.059375,0.17222222222222222],[0.059375,0.17222222222222222],[0.059375,0.17222222222222222],[0.059375,0.17222222222222222],[0.059375,0.17222222222222222],[0.059375,0.17222222222222222],[0.059375,0.17222222222222222],[0.059375,0.17222222222222222],[0.059375,0.17222222222222222],[0.059375,0.17222222222222222],[0.059375,0.17222222222222222],[0.059375,0.17222222222222222],[0.059375,0.17222222222222222],[0.059375,0.17222222222222222],[0.059375,0.17222222222222222],[0.059375,0.17222222222222222],[0.059375,0.17222222222222222],[0.059375,0.17222222222222222],[0.059375,0.17222222222222222],[0.059375,0.17222222222222222],[0.059375,0.17222222222222222],[0.059375,0.17222222222222222],[0.059375,0.17222222222222222],[0.059375,0.17222222222222222],[0.059375,0.17222222222222222],[0.059375,0.17222222222222222],[0.059375,0.17222222222222222],[0.059375,0.17222222222222222],[0.059375,0.17222222222222222],[0.059375,0.17222222222222222],[0.059375,0.17222222222222222],[0.059375,0.17222222222222222],[0.059375,0.17222222222222222],[0.059375,0.17222222222222222],[0.059375,0.17222222222222222],[0.059375,0.17222222222222222],[0.059375,0.17222222222222222],[0.059375,0.17222222222222222],[0.059375,0.17222222222222222],[0.059375,0.17222222222222222],[0.059375,0.17222222222222222],[0.059375,0.17222222222222222],[0.059375,0.17222222222222222],[0.059375,0.17222222222222222],[0.059375,0.17222222222222222],[0.059375,0.17222222222222222],[0.059375,0.17222222222222222],[0.059375,0.17222222222222222],[0.059375,0.17222222222222222],[0.059375,0.17222222222222222],[0.059375,0.17222222222222222],[0.059375,0.17222222222222222],[0.059375,0.17222222222222222],[0.059375,0.17222222222222222],[0.059375,0.17222222222222222],[0.059375,0.17222222222222222],[0.059375,0.17222222222222222],[0.059375,0.17222222222222222],[0.059375,0.17222222222222222],[0.059375,0.17222222222222222],[0.059375,0.17222222222222222],[0.059375,0.17222222222222222],[0.059375,0.17222222222222222],[0.059375,0.17222222222222222],[0.059375,0.17222222222222222],[0.059375,0.17222222222222222],[0.059375,0.17222222222222222],[0.059375,0.17222222222222222],[0.059375,0.17222222222222222],[0.059375,0.17222222222222222],[0.059375,0.17222222222222222],[0.059375,0.17222222222222222],[0.059375,0.17222222222222222],[0.059375,0.17222222222222222],[0.059375,0.17222222222222222],[0.059375,0.17222222222222222],[0.059375,0.17222222222222222],[0.059375,0.17222222222222222],[0.059375,0.17222222222222222],[0.059375,0.17222222222222222],[0.059375,0.17222222222222222],[0.059375,0.17222222222222222],[0.059375,0.17222222222222222],[0.059375,0.17222222222222222],[0.059375,0.17222222222222222],[0.059375,0.17222222222222222],[0.059375,0.17222222222222222],[0.059375,0.17222222222222222],[0.059375,0.17222222222222222],[0.059375,0.17222222222222222],[0.059375,0.17222222222222222],[0.059375,0.17222222222222222],[0.059375,0.17222222222222222],[0.059375,0.17222222222222222],[0.059375,0.17222222222222222],[0.059375,0.17222222222222222],[0.059375,0.17222222222222222],[0.059375,0.17222222222222222],[0.059375,0.17222222222222222],[0.059375,0.17222222222222222],[0.059375,0.17222222222222222],[0.059375,0.17222222222222222],[0.059375,0.17222222222222222],[0.059375,0.17222222222222222],[0.059375,0.17222222222222222],[0.059375,0.17222222222222222],[0.059375,0.17222222222222222],[0.059375,0.17222222222222222],[0.059375,0.17222222222222222],[0.059375,0.17222222222222222],[0.059375,0.17222222222222222],[0.059375,0.17222222222222222],[0.059375,0.17222222222222222],[0.059375,0.17222222222222222],[0.059375,0.17222222222222222],[0.059375,0.17222222222222222],[0.059375,0.17222222222222222],[0.059375,0.17222222222222222],[0.059375,0.17222222222222222],[0.059375,0.17222222222222222],[0.059375,0.17222222222222222],[0.059375,0.17222222222222222],[0.059375,0.17222222222222222],[0.059375,0.17222222222222222],[0.059375,0.17222222222222222],[0.059375,0.17222222222222222],[0.059375,0.17222222222222222],[0.059375,0.17222222222222222],[0.059375,0.17222222222222222],[0.059375,0.17222222222222222],[0.059375,0.17222222222222222],[0.059375,0.17222222222222222],[0.059375,0.17222222222222222],[0.059375,0.17222222222222222],[0.059375,0.17222222222222222],[0.059375,0.17222222222222222],[0.059375,0.17222222222222222],[0.059375,0.17222222222222222],[0.059375,0.17222222222222222],[0.059375,0.17222222222222222],[0.059375,0.17222222222222222],[0.059375,0.17222222222222222],[0.059375,0.17222222222222222],[0.059375,0.17222222222222222],[0.059375,0.17222222222222222],[0.059375,0.17222222222222222],[0.059375,0.17222222222222222],[0.059375,0.17222222222222222],[0.059375,0.17222222222222222],[0.059375,0.17222222222222222],[0.059375,0.17222222222222222],[0.059375,0.17222222222222222],[0.059375,0.17222222222222222],[0.059375,0.17222222222222222],[0.059375,0.17222222222222222],[0.059375,0.17222222222222222],[0.059375,0.17222222222222222],[0.059375,0.17222222222222222],[0.059375,0.17222222222222222],[0.059375,0.17222222222222222],[0.059375,0.17222222222222222]]","[[0.13677083333333329,0.280925925925926],[0.13677083333333329,0.280925925925926],[0.09114583333333333,0.25685185185185194],[0.09114583333333333,0.25685185185185194],[0.05489583333333338,0.2168518518518519],[0.05489583333333338,0.2168518518518519],[0.021249999999999977,0.13907407407407413],[0.021249999999999977,0.13907407407407413],[0.013229166666666714,0.16055555555555565],[0.019687499999999976,0.12018518518518514],[0.0375,0.037037037037037035],[0.08197916666666671,-0.06962962962962967],[0.09802083333333324,0.032777777777777864],[0.16395833333333343,0.005555555555555556],[0.1609375,0.08425925925925926],[0.1681250000000001,0.13129629629629624],[0.1806250000000001,0.18703703703703703],[0.1806250000000001,0.18703703703703703],[0.17604166666666668,0.20388888888888893],[0.16270833333333337,0.24222222222222214],[0.16270833333333337,0.24222222222222214],[0.15833333333333333,0.29740740740740745],[0.13395833333333323,0.36666666666666664],[0.1271874999999999,0.32259259259259265],[0.12041666666666657,0.2785185185185185],[0.12041666666666657,0.2785185185185185],[0.058854166666666666,0.37481481481481477],[0.033854166666666664,0.36870370370370376],[0.008854166666666666,0.3625925925925925],[0.008854166666666666,0.3625925925925925],[0,0.3175925925925926],[-0.005208333333333333,0.2735185185185186],[-0.00302083333333331,0.2322222222222222],[-0.04104166666666664,0.19462962962962968],[-0.07281249999999997,0.10018518518518522],[-0.05520833333333333,0.0625925925925925],[-0.03843749999999998,0.06074074074074066],[0.006458333333333381,-0.08518518518518518],[0.03718750000000005,-0.17462962962962966],[0.060000000000000026,-0.2616666666666667],[0.06593749999999995,-0.36203703703703705],[0.08979166666666671,-0.4646296296296296],[0.1021874999999999,-0.5625925925925926],[0.1412499999999999,-0.6561111111111111],[0.19406249999999994,-0.7068518518518518],[0.19406249999999994,-0.7068518518518518],[0.18135416666666657,-0.7061111111111111],[0.1772916666666667,-0.7248148148148148],[0.18177083333333333,-0.6855555555555556],[0.18177083333333333,-0.6855555555555556],[0.17218749999999997,-0.6794444444444444],[0.18291666666666656,-0.6994444444444444],[0.18864583333333323,-0.6107407407407408],[0.18864583333333323,-0.6107407407407408],[0.16864583333333344,-0.5248148148148147],[0.15166666666666656,-0.45185185185185184],[0.12479166666666662,-0.34203703703703703],[0.12479166666666662,-0.34203703703703703],[0.10010416666666658,-0.28203703703703703],[0.096875,-0.1648148148148148],[0.08583333333333343,-0.06388888888888888],[0.08583333333333343,-0.06388888888888888],[0.0678124999999999,-0.012962962962962963],[0.07854166666666676,0.04296296296296305],[0.06937499999999991,0.1764814814814814],[0.0834374999999999,0.18129629629629626],[0.10020833333333339,0.16833333333333328],[0.10260416666666666,0.15333333333333324],[0.09812500000000005,0.16425925925925935],[0.09812500000000005,0.16425925925925935],[0.09770833333333329,0.2270370370370371],[0.084375,0.1875925925925925],[0.08093750000000005,0.18629629629629635],[0.09302083333333329,0.2735185185185186],[0.09302083333333329,0.2735185185185186],[0.07822916666666657,0.34],[0.07822916666666657,0.34],[0.05416666666666667,0.3148148148148148],[0.050833333333333286,0.39574074074074084],[0.050833333333333286,0.39574074074074084],[0.06697916666666662,0.4300000000000001],[0.11802083333333328,0.5103703703703704],[0.11802083333333328,0.5103703703703704],[0.1553124999999999,0.44888888888888884],[0.18635416666666677,0.3853703703703704],[0.1896874999999999,0.3846296296296297],[0.1896874999999999,0.3846296296296297],[0.1955208333333334,0.3551851851851851],[0.184375,0.2911111111111112],[0.1959374999999999,0.24722222222222223],[0.2125,0.2572222222222222],[0.18718750000000003,0.2338888888888888],[0.15510416666666677,0.2729629629629629],[0.10625,0.18981481481481483],[0.10625,0.18981481481481483],[0.08427083333333343,0.2698148148148149],[0.06479166666666672,0.36999999999999994],[0.058645833333333286,0.42296296296296293],[0.058645833333333286,0.42296296296296293],[0.06166666666666672,0.43425925925925923],[0.0740624999999999,0.4225925925925927],[0.08781249999999995,0.3883333333333334],[0.08781249999999995,0.3883333333333334],[0.1118750000000001,0.38351851851851854],[0.1319791666666667,0.31296296296296294],[0.13947916666666677,0.287962962962963],[0.13947916666666677,0.287962962962963],[0.15177083333333338,0.3461111111111111],[0.11947916666666672,0.40018518518518525],[0.08541666666666667,0.43074074074074076],[0.08541666666666667,0.43074074074074076],[0.08447916666666658,0.43407407407407406],[0.05666666666666664,0.4601851851851852],[0.04583333333333333,0.44666666666666677],[0.04583333333333333,0.44666666666666677],[0.03093750000000005,0.46055555555555566],[0.023958333333333335,0.42407407407407405],[0.01416666666666669,0.4420370370370371],[0.021249999999999977,0.46166666666666656],[0.021249999999999977,0.46166666666666656],[0.020833333333333332,0.4244444444444445],[0.06739583333333338,0.34018518518518526],[0.10885416666666667,0.2640740740740741],[0.12708333333333333,0.21870370370370373],[0.1506249999999999,0.18277777777777787],[0.1712500000000001,0.21574074074074073],[0.19781250000000009,0.23166666666666672],[0.2118750000000001,0.2772222222222223],[0.2118750000000001,0.2772222222222223],[0.21197916666666666,0.337037037037037],[0.21281249999999996,0.3411111111111112],[0.21666666666666667,0.35481481481481486],[0.18937499999999996,0.3792592592592592],[0.19031250000000005,0.42240740740740745],[0.19562499999999997,0.4427777777777778],[0.19562499999999997,0.4427777777777778],[0.23687500000000009,0.46351851851851844],[0.22552083333333334,0.4742592592592593],[0.22552083333333334,0.4742592592592593],[0.24166666666666667,0.4846296296296297],[0.2520833333333333,0.4677777777777778],[0.2520833333333333,0.4677777777777778],[0.2805208333333333,0.42685185185185187],[0.3138541666666666,0.40555555555555556],[0.3397916666666667,0.4081481481481481],[0.3865624999999999,0.4162962962962962],[0.39739583333333334,0.3755555555555555],[0.42218749999999994,0.37166666666666676],[0.42218749999999994,0.37166666666666676],[0.3868750000000001,0.36444444444444435],[0.3788541666666667,0.3477777777777777],[0.3788541666666667,0.3477777777777777],[0.37302083333333325,0.3290740740740742],[0.3811458333333334,0.29907407407407405],[0.3884375000000001,0.2794444444444444],[0.33791666666666675,0.3014814814814814],[0.2873958333333334,0.3235185185185186],[0.2482291666666666,0.34333333333333327],[0.2482291666666666,0.34333333333333327],[0.22062499999999996,0.365925925925926],[0.17895833333333327,0.3794444444444444],[0.17895833333333327,0.3794444444444444],[0.1571875000000001,0.3183333333333333],[0.1571875000000001,0.3183333333333333],[0.15572916666666667,0.3096296296296297],[0.11958333333333329,0.28055555555555556],[0.08125,0.26518518518518525],[0.08125,0.26518518518518525],[0.019270833333333334,0.23129629629629625],[0.03114583333333331,0.20407407407407416],[0.043020833333333286,0.17685185185185184],[0.036562500000000026,0.10777777777777786],[0.036562500000000026,0.10777777777777786],[0.020729166666666642,0.04592592592592584],[0.019270833333333334,-0.0294444444444444],[0.018437500000000048,-0.04000000000000004],[0.018437500000000048,-0.04000000000000004],[-0.005416666666666714,-0.0868518518518518],[-0.02822916666666669,-0.0977777777777778],[-0.06177083333333329,-0.10925925925925926],[-0.06177083333333329,-0.10925925925925926],[-0.06677083333333336,-0.1051851851851852],[-0.0921875,-0.1081481481481481],[-0.12572916666666673,-0.147037037037037],[-0.14937499999999998,-0.1294444444444444],[-0.15874999999999997,-0.14240740740740737],[-0.1586458333333333,-0.12907407407407406],[-0.18468749999999995,-0.0705555555555556],[-0.18468749999999995,-0.0705555555555556],[-0.159375,-0.060370370370370414],[-0.15958333333333338,-0.052037037037037076],[-0.13541666666666666,-0.102962962962963],[-0.11614583333333334,-0.15092592592592594],[-0.11468750000000003,-0.20259259259259255],[-0.10510416666666664,-0.2183333333333333],[-0.07687499999999996,-0.2661111111111111],[-0.07687499999999996,-0.2661111111111111],[-0.05302083333333331,-0.26796296296296296],[-0.05302083333333331,-0.26796296296296296],[-0.05135416666666662,-0.38555555555555554],[-0.05135416666666662,-0.38555555555555554],[-0.020937500000000022,-0.4696296296296297],[-0.04677083333333331,-0.4696296296296297],[-0.018124999999999978,-0.4777777777777778],[-0.018124999999999978,-0.4777777777777778],[-0.003125,-0.42611111111111116],[0.006979166666666714,-0.3512962962962963],[0.016562499999999977,-0.3087037037037037],[0.016562499999999977,-0.3087037037037037],[0.041562499999999974,-0.2844444444444445],[0.025,-0.19740740740740745],[0.034687499999999954,-0.14074074074074075],[0.034687499999999954,-0.14074074074074075],[0.029166666666666667,0.013888888888888888],[0.04635416666666667,0.02296296296296292],[0.07354166666666657,0.07092592592592584],[0.07354166666666657,0.07092592592592584],[0.08635416666666676,0.14203703703703713],[0.07781250000000005,0.17814814814814822],[0.08791666666666677,0.20500000000000007],[0.08958333333333333,0.22814814814814824],[0.08229166666666667,0.28425925925925927],[0.10447916666666662,0.2975925925925927],[0.09406249999999995,0.29444444444444445],[0.10458333333333343,0.280925925925926],[0.10458333333333343,0.280925925925926],[0.1165625000000001,0.35648148148148145],[0.1252083333333334,0.3398148148148148],[0.11927083333333334,0.30999999999999994],[0.1397916666666667,0.33851851851851844],[0.1397916666666667,0.33851851851851844],[0.14656250000000004,0.3531481481481482],[0.14656250000000004,0.3531481481481482],[0.14718749999999994,0.3685185185185185],[0.13958333333333334,0.3731481481481482],[0.13958333333333334,0.3731481481481482],[0.12458333333333324,0.3646296296296296],[0.12458333333333324,0.3646296296296296],[0.12062499999999995,0.3668518518518519],[0.11218750000000005,0.3683333333333333],[0.08145833333333338,0.3566666666666667],[0.08145833333333338,0.3566666666666667],[0.11083333333333342,0.3761111111111112],[0.11083333333333342,0.3761111111111112],[0.1349999999999999,0.38685185185185184],[0.13354166666666673,0.37296296296296294],[0.16604166666666675,0.3307407407407408],[0.20791666666666658,0.30407407407407416],[0.24364583333333342,0.3170370370370371],[0.24364583333333342,0.3170370370370371],[0.2724999999999999,0.32259259259259265],[0.31135416666666677,0.37240740740740746],[0.3454166666666666,0.3998148148148148],[0.3454166666666666,0.3998148148148148],[0.38520833333333326,0.4503703703703705],[0.3837500000000001,0.4612962962962963],[0.3811458333333334,0.4583333333333333],[0.3811458333333334,0.4583333333333333],[0.39906249999999993,0.4566666666666667],[0.3710416666666667,0.4883333333333334],[0.3710416666666667,0.4883333333333334],[0.3529166666666666,0.5112962962962964],[0.36843750000000003,0.5125925925925925],[0.36864583333333345,0.48259259259259263],[0.34520833333333345,0.40629629629629627],[0.34520833333333345,0.40629629629629627],[0.35572916666666665,0.37703703703703706],[0.3460416666666667,0.319074074074074],[0.3460416666666667,0.319074074074074],[0.32874999999999993,0.2803703703703703],[0.27489583333333345,0.2455555555555556],[0.2491666666666667,0.22259259259259268],[0.2140625,0.1838888888888888],[0.20187499999999994,0.10555555555555556],[0.1460416666666667,0.026111111111111154],[0.12854166666666675,-0.012407407407407492],[0.12000000000000005,-0.012777777777777735],[0.12000000000000005,-0.012777777777777735],[0.06364583333333336,-0.07592592592592592],[0.020937500000000022,-0.12981481481481486],[-0.001145833333333357,-0.14296296296296293],[0.019687499999999976,-0.1374074074074074],[-0.000833333333333286,-0.17962962962962964],[0.0003124999999999526,-0.167037037037037],[-0.01593749999999995,-0.11870370370370374],[0.011562500000000024,-0.06722222222222224],[0.022500000000000023,-0.017592592592592594],[0.003854166666666714,0.018148148148148063],[0.02312500000000005,0.07962962962962963],[0.03447916666666669,0.12092592592592584],[0.04229166666666669,0.09129629629629621],[0.010416666666666666,0.16277777777777774],[-0.013437499999999976,0.306111111111111],[-0.028125,0.369074074074074],[-0.028125,0.369074074074074],[-0.01072916666666662,0.38722222222222225],[-0.022187499999999954,0.3905555555555555],[-0.013541666666666667,0.31592592592592594],[-0.013541666666666667,0.31592592592592594],[0.00625,0.28703703703703703],[0.005729166666666666,0.20703703703703696],[-0.015104166666666667,0.14351851851851852],[-0.015104166666666667,0.14351851851851852],[-0.033958333333333354,0.13296296296296287],[-0.060104166666666715,-0.01648148148148144],[-0.057291666666666664,-0.1685185185185185],[-0.057291666666666664,-0.1685185185185185],[-0.04822916666666662,-0.2511111111111112],[-0.05593750000000005,-0.37296296296296294],[-0.06572916666666669,-0.44111111111111106],[-0.08406250000000005,-0.47314814814814815],[-0.10625,-0.5396296296296296],[-0.10958333333333338,-0.5501851851851852],[-0.08177083333333333,-0.5031481481481481],[-0.08177083333333333,-0.5031481481481481],[-0.09114583333333333,-0.5185185185185185],[-0.04239583333333338,-0.42851851851851847],[-0.04239583333333338,-0.42851851851851847],[0.004791666666666691,-0.36259259259259263],[0.004791666666666691,-0.36259259259259263],[0.013020833333333334,-0.34592592592592597],[0.03156249999999995,-0.19462962962962968],[0.03156249999999995,-0.19462962962962968],[0.029270833333333357,-0.1609259259259259],[0.01895833333333338,-0.07148148148148152],[0.04229166666666669,0.11018518518518519],[0.07697916666666677,0.1977777777777777],[0.10697916666666671,0.3012962962962964],[0.1400000000000001,0.40925925925925927],[0.16864583333333344,0.4444444444444444],[0.15812499999999996,0.49796296296296294],[0.21552083333333344,0.5501851851851852],[0.22406249999999991,0.6096296296296297],[0.2491666666666667,0.702962962962963],[0.27802083333333344,0.7070370370370369],[0.27802083333333344,0.7070370370370369],[0.2920833333333334,0.6425925925925926],[0.30572916666666666,0.6964814814814815],[0.3026041666666667,0.64],[0.31010416666666674,0.6185185185185185],[0.31239583333333343,0.687962962962963],[0.3559375000000001,0.6396296296296295],[0.34093749999999995,0.606111111111111],[0.32791666666666663,0.5120370370370371],[0.32791666666666663,0.5120370370370371],[0.3164583333333333,0.4583333333333333],[0.3242708333333333,0.4644444444444444],[0.30479166666666657,0.46870370370370373],[0.30479166666666657,0.46870370370370373],[0.27218749999999997,0.42314814814814816],[0.2669791666666666,0.42018518518518516],[0.25333333333333335,0.42296296296296293],[0.2321875000000001,0.2788888888888889],[0.18302083333333338,0.1992592592592593],[0.1478125000000001,0.12333333333333338],[0.1478125000000001,0.12333333333333338],[0.14718749999999994,0.10240740740740732],[0.16218750000000004,0.01777777777777782],[0.15572916666666667,-0.04666666666666675],[0.15572916666666667,-0.04666666666666675],[0.1631249999999999,-0.13925925925925925],[0.16260416666666658,-0.19240740740740736],[0.15322916666666658,-0.24759259259259256],[0.15322916666666658,-0.24759259259259256],[0.14072916666666657,-0.28722222222222227],[0.14552083333333338,-0.28722222222222227],[0.14812500000000003,-0.2942592592592592],[0.14812500000000003,-0.2942592592592592],[0.1814583333333334,-0.23037037037037034],[0.18093750000000006,-0.2455555555555556],[0.18093750000000006,-0.2455555555555556],[0.17156250000000003,-0.26370370370370366],[0.15135416666666662,-0.27870370370370373],[0.1570833333333333,-0.17462962962962966],[0.13333333333333333,-0.17462962962962966],[0.13708333333333325,-0.1787037037037037],[0.1476041666666667,-0.19944444444444442],[0.15031249999999996,-0.2518518518518518],[0.15031249999999996,-0.2518518518518518],[0.15499999999999994,-0.2574074074074074],[0.15499999999999994,-0.2574074074074074],[0.1326041666666666,-0.3042592592592593],[0.13677083333333329,-0.39388888888888884],[0.1256249999999999,-0.3446296296296297],[0.1256249999999999,-0.3446296296296297],[0.11677083333333324,-0.3296296296296296],[0.09406249999999995,-0.4264814814814815],[0.10718750000000009,-0.4418518518518519],[0.10968749999999995,-0.4244444444444444],[0.15656249999999997,-0.4083333333333333],[0.19572916666666676,-0.38925925925925925],[0.21447916666666675,-0.3894444444444445],[0.21437499999999995,-0.4257407407407407],[0.22520833333333337,-0.4016666666666666],[0.2423958333333334,-0.46148148148148144],[0.26510416666666664,-0.5024074074074074],[0.28062500000000007,-0.5418518518518519],[0.28156249999999994,-0.5801851851851852],[0.28156249999999994,-0.5801851851851852],[0.2695833333333333,-0.6248148148148148],[0.19322916666666667,-0.7342592592592593],[0.19322916666666667,-0.7342592592592593],[0.12708333333333333,-0.7444444444444445],[0.1068749999999999,-0.637962962962963],[0.09083333333333338,-0.6205555555555556],[0.052187500000000026,-0.5609259259259259],[0.052187500000000026,-0.5609259259259259],[0.016458333333333287,-0.5011111111111112],[0.016458333333333287,-0.5011111111111112],[0.0034374999999999527,-0.5087037037037037],[0.0034374999999999527,-0.5087037037037037],[-0.02781250000000005,-0.4425925925925926],[-0.02781250000000005,-0.4425925925925926],[-0.07197916666666669,-0.395],[-0.12072916666666664,-0.30351851851851847],[-0.12406250000000002,-0.1764814814814815],[-0.12406250000000002,-0.1764814814814815],[-0.11395833333333331,-0.13277777777777774],[-0.12156250000000005,-0.202962962962963],[-0.11552083333333331,-0.13185185185185183],[-0.10322916666666669,-0.13481481481481483],[-0.09458333333333328,-0.15203703703703708],[-0.09458333333333328,-0.15203703703703708],[-0.09624999999999997,-0.06833333333333329],[-0.09624999999999997,-0.06833333333333329],[-0.0782291666666667,-0.05814814814814811],[-0.027083333333333334,0.01574074074074074],[0.04375,-0.020185185185185143],[0.04375,-0.020185185185185143],[0.10427083333333324,-0.022037037037036994],[0.13031249999999991,0.02759259259259255],[0.15489583333333337,0.0012962962962963806],[0.15479166666666658,-0.03888888888888889],[0.18260416666666662,-0.052222222222222205],[0.21749999999999994,-0.05018518518518523],[0.2273958333333333,-0.037037037037037035],[0.23333333333333334,-0.05499999999999998],[0.23333333333333334,-0.05499999999999998],[0.25062499999999993,0.000925925925925926],[0.24291666666666673,0.06111111111111111],[0.24291666666666673,0.06111111111111111],[0.23427083333333343,0.061666666666666585],[0.22395833333333334,0.03851851851851843],[0.21583333333333338,0.08666666666666659],[0.22822916666666657,0.07981481481481485],[0.19427083333333334,0.15203703703703708],[0.19427083333333334,0.15203703703703708],[0.18822916666666673,0.12092592592592584],[0.19458333333333327,0.08407407407407404],[0.19458333333333327,0.08407407407407404],[0.21354166666666666,0.047037037037036995],[0.2165625000000001,-0.12685185185185185],[0.20614583333333342,-0.26222222222222225],[0.20614583333333342,-0.26222222222222225],[0.20458333333333342,-0.2959259259259259],[0.20458333333333342,-0.2959259259259259],[0.23187499999999991,-0.3242592592592593],[0.23187499999999991,-0.3242592592592593],[0.2397916666666667,-0.32999999999999996],[0.24177083333333324,-0.35962962962962963],[0.2713541666666667,-0.47240740740740744],[0.2713541666666667,-0.47240740740740744],[0.2561458333333334,-0.44166666666666665],[0.25770833333333343,-0.45796296296296296],[0.26114583333333335,-0.44296296296296295],[0.26114583333333335,-0.44296296296296295],[0.253125,-0.4057407407407408],[0.24604166666666671,-0.3616666666666667],[0.22520833333333337,-0.3675925925925926],[0.22520833333333337,-0.3675925925925926],[0.2029166666666666,-0.45611111111111113],[0.16802083333333329,-0.5146296296296295],[0.17958333333333343,-0.5320370370370371],[0.17958333333333343,-0.5320370370370371],[0.18135416666666657,-0.5311111111111111],[0.18135416666666657,-0.5311111111111111],[0.17604166666666668,-0.6042592592592593],[0.16895833333333338,-0.6464814814814815],[0.15187499999999995,-0.6851851851851852],[0.15187499999999995,-0.6851851851851852],[0.13895833333333343,-0.7275925925925926],[0.13895833333333343,-0.7275925925925926],[0.15010416666666657,-0.7896296296296296],[0.16291666666666677,-0.8046296296296296],[0.16604166666666675,-0.7398148148148148],[0.17572916666666671,-0.7403703703703703],[0.13802083333333334,-0.6853703703703704],[0.13427083333333342,-0.6309259259259259],[0.13427083333333342,-0.6309259259259259],[0.15760416666666663,-0.5583333333333333],[0.15760416666666663,-0.5583333333333333],[0.1525000000000001,-0.4742592592592593],[0.15791666666666657,-0.375],[0.1408333333333334,-0.31962962962962965],[0.1408333333333334,-0.31962962962962965],[0.1203125,-0.19037037037037038],[0.09458333333333328,-0.08259259259259263],[0.07260416666666672,0.010740740740740657],[0.07260416666666672,0.010740740740740657],[0.08624999999999995,0.07962962962962963],[0.10572916666666667,0.1624074074074075],[0.10572916666666667,0.1624074074074075],[0.08677083333333328,0.2074074074074074],[0.04208333333333331,0.30037037037037045],[-0.0014583333333333095,0.3446296296296297],[-0.01114583333333338,0.35055555555555545],[-0.01114583333333338,0.35055555555555545],[-0.010520833333333358,0.37222222222222223],[-0.019687499999999976,0.31740740740740736],[0.000416666666666643,0.2655555555555555],[-0.00916666666666662,0.2205555555555556],[-0.03333333333333333,0.24314814814814806],[-0.05239583333333329,0.22629629629629638],[-0.07302083333333335,0.21870370370370373],[-0.06739583333333338,0.1698148148148149],[-0.035208333333333286,0.10777777777777786],[-0.03677083333333329,0.10722222222222218],[-0.028854166666666715,0.08296296296296288],[-0.013333333333333286,0.07481481481481478],[-0.013333333333333286,0.07481481481481478],[-0.036145833333333384,0.0020370370370370794],[-0.034062500000000044,-0.05925925925925926],[-0.021249999999999977,-0.13555555555555554],[-0.026145833333333358,-0.1935185185185185],[-0.025,-0.22240740740740744],[-0.03708333333333336,-0.16148148148148145],[-0.03708333333333336,-0.16148148148148145],[-0.04864583333333338,-0.08111111111111113],[-0.06291666666666665,0.013518518518518435],[-0.06291666666666665,0.013518518518518435],[-0.05166666666666669,0.09166666666666666],[-0.057083333333333285,0.17333333333333337],[-0.05677083333333333,0.30574074074074076],[-0.06604166666666664,0.38555555555555565],[-0.08624999999999995,0.45703703703703696],[-0.07687499999999996,0.4866666666666666],[-0.07895833333333328,0.5083333333333333],[-0.042812500000000024,0.41148148148148156],[-0.01552083333333331,0.33851851851851844],[0.003125,0.14944444444444452],[-0.011562500000000024,0.02092592592592584],[-0.00614583333333331,-0.08148148148148149],[0.0109375,-0.21666666666666667],[0.05166666666666669,-0.24018518518518517],[0.09291666666666672,-0.3059259259259259],[0.13697916666666668,-0.3611111111111111],[0.1484375,-0.3757407407407407],[0.1400000000000001,-0.38981481481481484],[0.1400000000000001,-0.38981481481481484],[0.1046875,-0.4351851851851852],[0.08812499999999991,-0.36740740740740735],[0.07718749999999991,-0.2833333333333333],[0.06281249999999995,-0.22888888888888892],[0.05572916666666667,-0.2338888888888889],[0.03458333333333338,-0.29796296296296293],[0.03458333333333338,-0.29796296296296293],[0.04541666666666669,-0.27388888888888885],[-0.018333333333333358,-0.2494444444444444],[-0.029062499999999977,-0.24055555555555552],[-0.029062499999999977,-0.24055555555555552],[-0.04750000000000002,-0.26481481481481484],[-0.042499999999999954,-0.2807407407407408],[-0.04552083333333338,-0.34981481481481475],[-0.04552083333333338,-0.34981481481481475],[-0.03760416666666669,-0.3768518518518518],[-0.007187499999999976,-0.4183333333333333],[0.01114583333333338,-0.3822222222222222],[0.01114583333333338,-0.3822222222222222],[0.034791666666666644,-0.3581481481481481],[0.025937499999999978,-0.38],[0.06489583333333329,-0.40055555555555555],[0.09489583333333323,-0.4381481481481482],[0.12020833333333343,-0.44648148148148153],[0.14385416666666656,-0.4196296296296297],[0.1556250000000001,-0.39962962962962967],[0.1556250000000001,-0.39962962962962967],[0.16895833333333338,-0.3698148148148148],[0.1756249999999999,-0.3894444444444445],[0.18229166666666666,-0.40907407407407403],[0.15104166666666666,-0.38],[0.10166666666666657,-0.3320370370370371],[0.0865624999999999,-0.29962962962962963],[0.059687499999999956,-0.2772222222222222],[0.06156250000000003,-0.21425925925925923],[0.04385416666666669,-0.17407407407407408],[0.0453125,-0.14388888888888887],[0.035312499999999976,-0.17462962962962966],[0.012083333333333357,-0.15092592592592594],[0.012083333333333357,-0.15092592592592594],[-0.002708333333333357,-0.12907407407407406],[0.016666666666666666,-0.11500000000000005],[0.04624999999999998,-0.15166666666666662],[0.051041666666666666,-0.18666666666666668],[0.06791666666666671,-0.2007407407407407],[0.07062499999999995,-0.20333333333333337],[0.08822916666666672,-0.22333333333333338],[0.12145833333333324,-0.21703703703703703],[0.1484375,-0.22111111111111106],[0.14072916666666657,-0.26481481481481484],[0.14812500000000003,-0.24351851851851852],[0.140625,-0.26648148148148143],[0.140625,-0.26648148148148143],[0.16770833333333332,-0.29814814814814816],[0.16656250000000009,-0.29444444444444445],[0.16656250000000009,-0.29444444444444445],[0.1865624999999999,-0.28703703703703703],[0.1946875000000001,-0.3427777777777778],[0.22000000000000006,-0.3757407407407407],[0.22000000000000006,-0.3757407407407407],[0.19020833333333323,-0.3792592592592593],[0.16989583333333325,-0.4101851851851852],[0.17218749999999997,-0.3242592592592593],[0.17218749999999997,-0.3242592592592593],[0.15093750000000009,-0.3014814814814815],[0.1728125000000001,-0.3124074074074074],[0.13541666666666666,-0.2627777777777777],[0.1273958333333333,-0.29148148148148145],[0.10864583333333329,-0.3501851851851852],[0.10864583333333329,-0.3501851851851852],[0.09156250000000009,-0.3314814814814815],[0.09156250000000009,-0.3314814814814815],[0.052291666666666715,-0.28888888888888886],[0.06124999999999995,-0.31925925925925924],[0.04624999999999998,-0.26370370370370366],[0.04072916666666669,-0.2759259259259259],[0.024062500000000025,-0.31425925925925924],[-0.022395833333333334,-0.30351851851851847],[-0.024895833333333308,-0.2757407407407407],[-0.024895833333333308,-0.2757407407407407],[-0.028541666666666642,-0.205],[-0.044375000000000026,-0.11481481481481481],[-0.06708333333333331,-0.07407407407407407],[-0.0828125,-0.06018518518518518],[-0.11104166666666669,0.02296296296296292],[-0.11697916666666662,0.03129629629629625],[-0.1313541666666667,0.0294444444444444],[-0.13895833333333332,0.018148148148148063],[-0.1544791666666666,0.018148148148148063],[-0.1544791666666666,0.018148148148148063],[-0.19135416666666671,-0.014814814814814815],[-0.21124999999999997,-0.06611111111111109],[-0.24666666666666662,-0.10314814814814813],[-0.2397916666666667,-0.1255555555555556],[-0.2560416666666666,-0.14518518518518514],[-0.26968749999999997,-0.21296296296296297],[-0.2955208333333334,-0.23074074074074077],[-0.30052083333333335,-0.21944444444444444],[-0.30281250000000004,-0.19648148148148153],[-0.3054166666666667,-0.16203703703703703],[-0.3054166666666667,-0.16203703703703703],[-0.2919791666666666,-0.15981481481481483],[-0.2856250000000001,-0.15129629629629626],[-0.2591666666666666,-0.2051851851851852],[-0.2621875000000001,-0.16944444444444445],[-0.24208333333333332,-0.13648148148148145],[-0.2195833333333333,-0.12444444444444443],[-0.18645833333333334,-0.13574074074074077],[-0.18645833333333334,-0.13574074074074077],[-0.14468749999999997,-0.14814814814814814],[-0.12729166666666672,-0.17685185185185184],[-0.1016666666666667,-0.22833333333333336],[-0.06875,-0.2518518518518518]]","[[0.13677083333333329,0.280925925925926,0.00030000001192576065],[0.13677083333333329,0.280925925925926,0.056300000011923146],[0.09114583333333333,0.25685185185185194,0.0625],[0.09114583333333333,0.25685185185185194,0.08139999997615632],[0.05489583333333338,0.2168518518518519,0.10150000000000148],[0.05489583333333338,0.2168518518518519,0.11010000002384146],[0.021249999999999977,0.13907407407407413,0.12339999997615791],[0.021249999999999977,0.13907407407407413,0.1401000000238426],[0.013229166666666714,0.16055555555555565,0.15660000002384322],[0.019687499999999976,0.12018518518518514,0.17339999997616218],[0.0375,0.037037037037037035,0.1898999999761628],[0.08197916666666671,-0.06962962962962967,0.20660000002384038],[0.09802083333333324,0.032777777777777864,0.2231999999880827],[0.16395833333333343,0.005555555555555556,0.2418000000119207],[0.1609375,0.08425925925925926,0.25680000001192127],[0.1681250000000001,0.13129629629629624,0.2734999999999985],[0.1806250000000001,0.18703703703703703,0.2978000000119252],[0.1806250000000001,0.18703703703703703,0.30700000000000216],[0.17604166666666668,0.20388888888888893,0.3235000000000028],[0.16270833333333337,0.24222222222222214,0.34319999998808015],[0.16270833333333337,0.24222222222222214,0.36299999999999955],[0.15833333333333333,0.29740740740740745,0.3733999999761579],[0.13395833333333323,0.36666666666666664,0.3901000000238426],[0.1271874999999999,0.32259259259259265,0.4066999999880778],[0.12041666666666657,0.2785185185185185,0.42889999997616],[0.12041666666666657,0.2785185185185185,0.44010000002384686],[0.058854166666666666,0.37481481481481477,0.4568000000119241],[0.033854166666666664,0.36870370370370376,0.47339999997615934],[0.008854166666666666,0.3625925925925925,0.4946999999880788],[0.008854166666666666,0.3625925925925925,0.5068000000119213],[0,0.3175925925925926,0.5234999999999985],[-0.005208333333333333,0.2735185185185186,0.5426999999880806],[-0.00302083333333331,0.2322222222222222,0.5606999999880813],[-0.04104166666666664,0.19462962962962968,0.5768999999761562],[-0.07281249999999997,0.10018518518518522,0.59019999998808],[-0.05520833333333333,0.0625925925925925,0.6066000000238461],[-0.03843749999999998,0.06074074074074066,0.6233000000119233],[0.006458333333333381,-0.08518518518518518,0.641899999976161],[0.03718750000000005,-0.17462962962962966,0.6586000000238457],[0.060000000000000026,-0.2616666666666667,0.6733000000119205],[0.06593749999999995,-0.36203703703703705,0.6900000000000048],[0.08979166666666671,-0.4646296296296296,0.7068999999761587],[0.1021874999999999,-0.5625925925925926,0.7231999999880827],[0.1412499999999999,-0.6561111111111111,0.73989999997616],[0.19406249999999994,-0.7068518518518518,0.757000000000005],[0.19406249999999994,-0.7068518518518518,0.7731999999880799],[0.18135416666666657,-0.7061111111111111,0.7898999999761571],[0.1772916666666667,-0.7248148148148148,0.8066999999880835],[0.18177083333333333,-0.6855555555555556,0.828000000000003],[0.18177083333333333,-0.6855555555555556,0.8398000000119197],[0.17218749999999997,-0.6794444444444444,0.8566000000238461],[0.18291666666666656,-0.6994444444444444,0.8733000000119233],[0.18864583333333323,-0.6107407407407408,0.8900000000000006],[0.18864583333333323,-0.6107407407407408,0.9065000000000012],[0.16864583333333344,-0.5248148148148147,0.9231999999880784],[0.15166666666666656,-0.45185185185185184,0.9398999999761628],[0.12479166666666662,-0.34203703703703703,0.9564999999999984],[0.12479166666666662,-0.34203703703703703,0.9733000000119247],[0.10010416666666658,-0.28203703703703703,0.990000000000002],[0.096875,-0.1648148148148148,1.0066999999880792],[0.08583333333333343,-0.06388888888888888,1.0231999999880799],[0.08583333333333343,-0.06388888888888888,1.0433999999761596],[0.0678124999999999,-0.012962962962962963,1.0568000000119255],[0.07854166666666676,0.04296296296296305,1.0738999999761631],[0.06937499999999991,0.1764814814814814,1.0938000000119246],[0.0834374999999999,0.18129629629629626,1.1116000000238415],[0.10020833333333339,0.16833333333333328,1.1261999999880814],[0.10260416666666666,0.15333333333333324,1.1456999999880821],[0.09812500000000005,0.16425925925925935,1.161199999988078],[0.09812500000000005,0.16425925925925935,1.1733999999761622],[0.09770833333333329,0.2270370370370371,1.1901999999880815],[0.084375,0.1875925925925925,1.2100000000000009],[0.08093750000000005,0.18629629629629635,1.2233999999761593],[0.09302083333333329,0.2735185185185186,1.2433000000119208],[0.09302083333333329,0.2735185185185186,1.2566999999880792],[0.07822916666666657,0.34,1.2766999999880824],[0.07822916666666657,0.34,1.2901999999880829],[0.05416666666666667,0.3148148148148148,1.3068999999761601],[0.050833333333333286,0.39574074074074084,1.3290000000000006],[0.050833333333333286,0.39574074074074084,1.3401000000238454],[0.06697916666666662,0.4300000000000001,1.3569999999999993],[0.11802083333333328,0.5103703703703704,1.3801000000238446],[0.11802083333333328,0.5103703703703704,1.3901000000238426],[0.1553124999999999,0.44888888888888884,1.4068000000119198],[0.18635416666666677,0.3853703703703704,1.4233999999761622],[0.1896874999999999,0.3846296296296297,1.4471000000238448],[0.1896874999999999,0.3846296296296297,1.4564999999999984],[0.1955208333333334,0.3551851851851851,1.4731999999880827],[0.184375,0.2911111111111112,1.4901999999880786],[0.1959374999999999,0.24722222222222223,1.5071999999880816],[0.2125,0.2572222222222222,1.5231999999880799],[0.18718750000000003,0.2338888888888888,1.541000000000004],[0.15510416666666677,0.2729629629629629,1.5576000000238466],[0.10625,0.18981481481481483,1.5731999999880841],[0.10625,0.18981481481481483,1.5930000000000035],[0.08427083333333343,0.2698148148148149,1.6068000000119227],[0.06479166666666672,0.36999999999999994,1.6238000000119257],[0.058645833333333286,0.42296296296296293,1.6400000000000006],[0.058645833333333286,0.42296296296296293,1.6601999999880803],[0.06166666666666672,0.43425925925925923,1.6733999999761622],[0.0740624999999999,0.4225925925925927,1.6901000000238469],[0.08781249999999995,0.3883333333333334,1.7100000000000009],[0.08781249999999995,0.3883333333333334,1.7233999999761593],[0.1118750000000001,0.38351851851851854,1.740100000023844],[0.1319791666666667,0.31296296296296294,1.759300000011919],[0.13947916666666677,0.287962962962963,1.7738000000119243],[0.13947916666666677,0.287962962962963,1.7898999999761571],[0.15177083333333338,0.3461111111111111,1.8066000000238418],[0.11947916666666672,0.40018518518518525,1.823300000011919],[0.08541666666666667,0.43074074074074076,1.8398999999761614],[0.08541666666666667,0.43074074074074076,1.856600000023846],[0.08447916666666658,0.43407407407407406,1.8731999999880813],[0.05666666666666664,0.4601851851851852,1.8898999999761585],[0.04583333333333333,0.44666666666666677,1.9066000000238432],[0.04583333333333333,0.44666666666666677,1.9231999999880784],[0.03093750000000005,0.46055555555555566,1.9400000000000048],[0.023958333333333335,0.42407407407407405,1.9606000000238453],[0.01416666666666669,0.4420370370370371,1.9781000000238436],[0.021249999999999977,0.46166666666666656,1.9948999999761625],[0.021249999999999977,0.46166666666666656,2.0066000000238446],[0.020833333333333332,0.4244444444444445,2.02319999998808],[0.06739583333333338,0.34018518518518526,2.040300000011925],[0.10885416666666667,0.2640740740740741,2.0588999999761626],[0.12708333333333333,0.21870370370370373,2.0766999999880795],[0.1506249999999999,0.18277777777777787,2.091800000011922],[0.1712500000000001,0.21574074074074073,2.108000000000004],[0.19781250000000009,0.23166666666666672,2.1283999999761605],[0.2118750000000001,0.2772222222222223,2.1456000000238404],[0.2118750000000001,0.2772222222222223,2.1566000000238432],[0.21197916666666666,0.337037037037037,2.1733000000119205],[0.21281249999999996,0.3411111111111112,2.191600000023847],[0.21666666666666667,0.35481481481481486,2.2111999999880823],[0.18937499999999996,0.3792592592592592,2.2273000000119225],[0.19031250000000005,0.42240740740740745,2.24439999997616],[0.19562499999999997,0.4427777777777778,2.263800000011919],[0.19562499999999997,0.4427777777777778,2.27319999998808],[0.23687500000000009,0.46351851851851844,2.289899999976157],[0.22552083333333334,0.4742592592592593,2.3075000000000045],[0.22552083333333334,0.4742592592592593,2.323300000011919],[0.24166666666666667,0.4846296296296297,2.3400000000000034],[0.2520833333333333,0.4677777777777778,2.3618000000119252],[0.2520833333333333,0.4677777777777778,2.3731999999880813],[0.2805208333333333,0.42685185185185187,2.389800000011924],[0.3138541666666666,0.40555555555555556,2.407600000023841],[0.3397916666666667,0.4081481481481481,2.4231999999880784],[0.3865624999999999,0.4162962962962962,2.439899999976163],[0.39739583333333334,0.3755555555555555,2.4566000000238404],[0.42218749999999994,0.37166666666666676,2.4823999999761597],[0.42218749999999994,0.37166666666666676,2.490000000000002],[0.3868750000000001,0.36444444444444435,2.506899999976163],[0.3788541666666667,0.3477777777777777,2.5233999999761565],[0.3788541666666667,0.3477777777777777,2.5438000000119203],[0.37302083333333325,0.3290740740740742,2.5568000000119255],[0.3811458333333334,0.29907407407407405,2.57410000002384],[0.3884375000000001,0.2794444444444444,2.594199999988078],[0.33791666666666675,0.3014814814814814,2.6106999999880784],[0.2873958333333334,0.3235185185185186,2.627500000000005],[0.2482291666666666,0.34333333333333327,2.6488000000119243],[0.2482291666666666,0.34333333333333327,2.656699999988078],[0.22062499999999996,0.365925925925926,2.673500000000004],[0.17895833333333327,0.3794444444444444,2.690399999976158],[0.17895833333333327,0.3794444444444444,2.710399999976161],[0.1571875000000001,0.3183333333333333,2.7233000000119247],[0.1571875000000001,0.3183333333333333,2.740100000023844],[0.15572916666666667,0.3096296296296297,2.761100000023845],[0.11958333333333329,0.28055555555555556,2.7760000000000034],[0.08125,0.26518518518518525,2.7916000000238412],[0.08125,0.26518518518518525,2.806600000023842],[0.019270833333333334,0.23129629629629625,2.823199999988084],[0.03114583333333331,0.20407407407407416,2.8398999999761614],[0.043020833333333286,0.17685185185185184,2.8593000000119204],[0.036562500000000026,0.10777777777777786,2.880199999988079],[0.036562500000000026,0.10777777777777786,2.8901000000238426],[0.020729166666666642,0.04592592592592584,2.90680000001192],[0.019270833333333334,-0.0294444444444444,2.923399999976162],[0.018437500000000048,-0.04000000000000004,2.949800000011919],[0.018437500000000048,-0.04000000000000004,2.9571999999880774],[-0.005416666666666714,-0.0868518518518518,2.9735000000000014],[-0.02822916666666669,-0.0977777777777778,2.9903000000119206],[-0.06177083333333329,-0.10925925925925926,3.014399999976156],[-0.06177083333333329,-0.10925925925925926,3.0231000000238453],[-0.06677083333333336,-0.1051851851851852,3.039899999976157],[-0.0921875,-0.1081481481481481,3.0573999999761625],[-0.12572916666666673,-0.147037037037037,3.073500000000003],[-0.14937499999999998,-0.1294444444444444,3.091800000011922],[-0.15874999999999997,-0.14240740740740737,3.1096999999880808],[-0.1586458333333333,-0.12907407407407406,3.1255000000000024],[-0.18468749999999995,-0.0705555555555556,3.149100000023843],[-0.18468749999999995,-0.0705555555555556,3.15680000001192],[-0.159375,-0.060370370370370414,3.1733000000119205],[-0.15958333333333338,-0.052037037037037076,3.1901999999880815],[-0.13541666666666666,-0.102962962962963,3.206800000011924],[-0.11614583333333334,-0.15092592592592594,3.225199999988078],[-0.11468750000000003,-0.20259259259259255,3.23989999997616],[-0.10510416666666664,-0.2183333333333333,3.2566000000238446],[-0.07687499999999996,-0.2661111111111111,3.2788000000119197],[-0.07687499999999996,-0.2661111111111111,3.2898000000119225],[-0.05302083333333331,-0.26796296296296296,3.3066999999880835],[-0.05302083333333331,-0.26796296296296296,3.323300000011919],[-0.05135416666666662,-0.38555555555555554,3.3461000000238457],[-0.05135416666666662,-0.38555555555555554,3.356500000000004],[-0.020937500000000022,-0.4696296296296297,3.3735],[-0.04677083333333331,-0.4696296296296297,3.389800000011924],[-0.018124999999999978,-0.4777777777777778,3.4066000000238432],[-0.018124999999999978,-0.4777777777777778,3.4231999999880784],[-0.003125,-0.42611111111111116,3.439899999976163],[0.006979166666666714,-0.3512962962962963,3.460100000023843],[0.016562499999999977,-0.3087037037037037,3.477800000011925],[0.016562499999999977,-0.3087037037037037,3.48989999997616],[0.041562499999999974,-0.2844444444444445,3.5065000000000026],[0.025,-0.19740740740740745,3.5238000000119243],[0.034687499999999954,-0.14074074074074075,3.540300000011925],[0.034687499999999954,-0.14074074074074075,3.5566999999880835],[0.029166666666666667,0.013888888888888888,3.573199999988084],[0.04635416666666667,0.02296296296296292,3.5918999999761567],[0.07354166666666657,0.07092592592592584,3.6090000000000018],[0.07354166666666657,0.07092592592592584,3.6233000000119233],[0.08635416666666676,0.14203703703703713,3.6398999999761585],[0.07781250000000005,0.17814814814814822,3.658199999988078],[0.08791666666666677,0.20500000000000007,3.6763000000119206],[0.08958333333333333,0.22814814814814824,3.6940000000000026],[0.08229166666666667,0.28425925925925927,3.710800000011922],[0.10447916666666662,0.2975925925925927,3.727399999976157],[0.09406249999999995,0.29444444444444445,3.74439999997616],[0.10458333333333343,0.280925925925926,3.7618999999761584],[0.10458333333333343,0.280925925925926,3.77319999998808],[0.1165625000000001,0.35648148148148145,3.789899999976157],[0.1252083333333334,0.3398148148148148,3.8098000000119256],[0.11927083333333334,0.30999999999999994,3.826999999999998],[0.1397916666666667,0.33851851851851844,3.84430000001192],[0.1397916666666667,0.33851851851851844,3.856500000000004],[0.14656250000000004,0.3531481481481482,3.8731999999880813],[0.14656250000000004,0.3531481481481482,3.8898999999761585],[0.14718749999999994,0.3685185185185185,3.9066000000238432],[0.13958333333333334,0.3731481481481482,3.924199999988083],[0.13958333333333334,0.3731481481481482,3.948199999988084],[0.12458333333333324,0.3646296296296296,3.9663999999761614],[0.12458333333333324,0.3646296296296296,3.9731999999880827],[0.12062499999999995,0.3668518518518519,3.9898000000119254],[0.11218750000000005,0.3683333333333333,4.006800000011921],[0.08145833333333338,0.3566666666666667,4.023300000011922],[0.08145833333333338,0.3566666666666667,4.039899999976157],[0.11083333333333342,0.3761111111111112,4.0566999999880835],[0.11083333333333342,0.3761111111111112,4.073199999988084],[0.1349999999999999,0.38685185185185184,4.090000000000003],[0.13354166666666673,0.37296296296296294,4.108399999976157],[0.16604166666666675,0.3307407407407408,4.123199999988081],[0.20791666666666658,0.30407407407407416,4.1398999999761585],[0.24364583333333342,0.3170370370370371,4.156600000023843],[0.24364583333333342,0.3170370370370371,4.1731999999880784],[0.2724999999999999,0.32259259259259265,4.189899999976163],[0.31135416666666677,0.37240740740740746,4.206699999988082],[0.3454166666666666,0.3998148148148148,4.223199999988083],[0.3454166666666666,0.3998148148148148,4.23989999997616],[0.38520833333333326,0.4503703703703705,4.256500000000003],[0.3837500000000001,0.4612962962962963,4.273300000011922],[0.3811458333333334,0.4583333333333333,4.290100000023841],[0.3811458333333334,0.4583333333333333,4.3066999999880835],[0.39906249999999993,0.4566666666666667,4.323300000011919],[0.3710416666666667,0.4883333333333334,4.343399999976157],[0.3710416666666667,0.4883333333333334,4.356600000023846],[0.3529166666666666,0.5112962962962964,4.373199999988081],[0.36843750000000003,0.5125925925925925,4.389800000011924],[0.36864583333333345,0.48259259259259263,4.409500000000001],[0.34520833333333345,0.40629629629629627,4.423399999976162],[0.34520833333333345,0.40629629629629627,4.440100000023847],[0.35572916666666665,0.37703703703703706,4.4608999999761565],[0.3460416666666667,0.319074074074074,4.476199999988083],[0.3460416666666667,0.319074074074074,4.490000000000002],[0.32874999999999993,0.2803703703703703,4.51010000002384],[0.27489583333333345,0.2455555555555556,4.526399999976157],[0.2491666666666667,0.22259259259259268,4.541800000011925],[0.2140625,0.1838888888888888,4.5565],[0.20187499999999994,0.10555555555555556,4.576999999999998],[0.1460416666666667,0.026111111111111154,4.591399999976161],[0.12854166666666675,-0.012407407407407492,4.607500000000002],[0.12000000000000005,-0.012777777777777735,4.623399999976158],[0.12000000000000005,-0.012777777777777735,4.643399999976161],[0.06364583333333336,-0.07592592592592592,4.656699999988078],[0.020937500000000022,-0.12981481481481486,4.673399999976162],[-0.001145833333333357,-0.14296296296296293,4.690000000000005],[0.019687499999999976,-0.1374074074074074,4.706499999999998],[-0.000833333333333286,-0.17962962962962964,4.725999999999999],[0.0003124999999999526,-0.167037037037037,4.740100000023844],[-0.01593749999999995,-0.11870370370370374,4.756600000023845],[0.011562500000000024,-0.06722222222222224,4.77319999998808],[0.022500000000000023,-0.017592592592592594,4.790699999988078],[0.003854166666666714,0.018148148148148063,4.8065],[0.02312500000000005,0.07962962962962963,4.823199999988084],[0.03447916666666669,0.12092592592592584,4.839899999976161],[0.04229166666666669,0.09129629629629621,4.857699999988078],[0.010416666666666666,0.16277777777777774,4.873300000011923],[-0.013437499999999976,0.306111111111111,4.890000000000001],[-0.028125,0.369074074074074,4.906600000023843],[-0.028125,0.369074074074074,4.926500000000004],[-0.01072916666666662,0.38722222222222225,4.940100000023847],[-0.022187499999999954,0.3905555555555555,4.957199999988077],[-0.013541666666666667,0.31592592592592594,4.977399999976157],[-0.013541666666666667,0.31592592592592594,4.98989999997616],[0.00625,0.28703703703703703,5.006800000011921],[0.005729166666666666,0.20703703703703696,5.023300000011922],[-0.015104166666666667,0.14351851851851852,5.0398000000119225],[-0.015104166666666667,0.14351851851851852,5.0565],[-0.033958333333333354,0.13296296296296287,5.073199999988084],[-0.060104166666666715,-0.01648148148148144,5.090000000000003],[-0.057291666666666664,-0.1685185185185185,5.106600000023846],[-0.057291666666666664,-0.1685185185185185,5.123399999976158],[-0.04822916666666662,-0.2511111111111112,5.139800000011924],[-0.05593750000000005,-0.37296296296296294,5.158999999999999],[-0.06572916666666669,-0.44111111111111106,5.173600000023846],[-0.08406250000000005,-0.47314814814814815,5.194399999976163],[-0.10625,-0.5396296296296296,5.2094999999999985],[-0.10958333333333338,-0.5501851851851852,5.224000000000004],[-0.08177083333333333,-0.5031481481481481,5.240199999988079],[-0.08177083333333333,-0.5031481481481481,5.256500000000003],[-0.09114583333333333,-0.5185185185185185,5.27319999998808],[-0.04239583333333338,-0.42851851851851847,5.290600000023844],[-0.04239583333333338,-0.42851851851851847,5.3066999999880835],[0.004791666666666691,-0.36259259259259263,5.323199999988084],[0.004791666666666691,-0.36259259259259263,5.339899999976161],[0.013020833333333334,-0.34592592592592597,5.356699999988081],[0.03156249999999995,-0.19462962962962968,5.376699999988084],[0.03156249999999995,-0.19462962962962968,5.3898999999761585],[0.029270833333333357,-0.1609259259259259,5.406500000000001],[0.01895833333333338,-0.07148148148148152,5.4233000000119205],[0.04229166666666669,0.11018518518518519,5.439899999976163],[0.07697916666666677,0.1977777777777777,5.457300000011919],[0.10697916666666671,0.3012962962962964,5.474399999976157],[0.1400000000000001,0.40925925925925927,5.489800000011925],[0.16864583333333344,0.4444444444444444,5.506500000000003],[0.15812499999999996,0.49796296296296294,5.523800000011924],[0.21552083333333344,0.5501851851851852,5.539899999976157],[0.22406249999999991,0.6096296296296297,5.560100000023844],[0.2491666666666667,0.702962962962963,5.5761000000238425],[0.27802083333333344,0.7070370370370369,5.596300000011922],[0.27802083333333344,0.7070370370370369,5.606600000023846],[0.2920833333333334,0.6425925925925926,5.623199999988081],[0.30572916666666666,0.6964814814814815,5.6398999999761585],[0.3026041666666667,0.64,5.656699999988078],[0.31010416666666674,0.6185185185185185,5.675600000023842],[0.31239583333333343,0.687962962962963,5.690000000000005],[0.3559375000000001,0.6396296296296295,5.70660000002384],[0.34093749999999995,0.606111111111111,5.723300000011925],[0.32791666666666663,0.5120370370370371,5.7421000000238465],[0.32791666666666663,0.5120370370370371,5.759800000011921],[0.3164583333333333,0.4583333333333333,5.773300000011922],[0.3242708333333333,0.4644444444444444,5.792100000023844],[0.30479166666666657,0.46870370370370373,5.813300000011921],[0.30479166666666657,0.46870370370370373,5.823199999988084],[0.27218749999999997,0.42314814814814816,5.840000000000003],[0.2669791666666666,0.42018518518518516,5.857199999988083],[0.25333333333333335,0.42296296296296293,5.879000000000005],[0.2321875000000001,0.2788888888888889,5.893800000011922],[0.18302083333333338,0.1992592592592593,5.910899999976159],[0.1478125000000001,0.12333333333333338,5.933800000011921],[0.1478125000000001,0.12333333333333338,5.940800000011926],[0.14718749999999994,0.10240740740740732,5.956800000011924],[0.16218750000000004,0.01777777777777782,5.973300000011925],[0.15572916666666667,-0.04666666666666675,5.9933999999761625],[0.15572916666666667,-0.04666666666666675,6.006800000011921],[0.1631249999999999,-0.13925925925925925,6.02319999998808],[0.16260416666666658,-0.19240740740740736,6.04189999997616],[0.15322916666666658,-0.24759259259259256,6.062699999988084],[0.15322916666666658,-0.24759259259259256,6.073199999988084],[0.14072916666666657,-0.28722222222222227,6.089899999976161],[0.14552083333333338,-0.28722222222222227,6.107100000023841],[0.14812500000000003,-0.2942592592592592,6.123199999988081],[0.14812500000000003,-0.2942592592592592,6.139800000011924],[0.1814583333333334,-0.23037037037037034,6.156500000000001],[0.18093750000000006,-0.2455555555555556,6.1731999999880784],[0.18093750000000006,-0.2455555555555556,6.189800000011921],[0.17156250000000003,-0.26370370370370366,6.20660000002384],[0.15135416666666662,-0.27870370370370373,6.223199999988083],[0.1570833333333333,-0.17462962962962966,6.239800000011925],[0.13333333333333333,-0.17462962962962966,6.258300000011921],[0.13708333333333325,-0.1787037037037037,6.275500000000001],[0.1476041666666667,-0.19944444444444442,6.292199999988078],[0.15031249999999996,-0.2518518518518518,6.311800000011921],[0.15031249999999996,-0.2518518518518518,6.323199999988084],[0.15499999999999994,-0.2574074074074074,6.339899999976161],[0.15499999999999994,-0.2574074074074074,6.356500000000004],[0.1326041666666666,-0.3042592592592593,6.373199999988081],[0.13677083333333329,-0.39388888888888884,6.3898999999761585],[0.1256249999999999,-0.3446296296296297,6.412500000000001],[0.1256249999999999,-0.3446296296296297,6.4233000000119205],[0.11677083333333324,-0.3296296296296296,6.440000000000005],[0.09406249999999995,-0.4264814814814815,6.457000000000001],[0.10718750000000009,-0.4418518518518519,6.4766000000238435],[0.10968749999999995,-0.4244444444444444,6.4933999999761625],[0.15656249999999997,-0.4083333333333333,6.508500000000005],[0.19572916666666676,-0.38925925925925925,6.52319999998808],[0.21447916666666675,-0.3894444444444445,6.54189999997616],[0.21437499999999995,-0.4257407407407407,6.559600000023842],[0.22520833333333337,-0.4016666666666666,6.5753000000119215],[0.2423958333333334,-0.46148148148148144,6.589899999976161],[0.26510416666666664,-0.5024074074074074,6.609699999988081],[0.28062500000000007,-0.5418518518518519,6.625899999976163],[0.28156249999999994,-0.5801851851851852,6.648300000011922],[0.28156249999999994,-0.5801851851851852,6.656600000023843],[0.2695833333333333,-0.6248148148148148,6.673500000000004],[0.19322916666666667,-0.7342592592592593,6.699199999988082],[0.19322916666666667,-0.7342592592592593,6.706699999988082],[0.12708333333333333,-0.7444444444444445,6.723199999988083],[0.1068749999999999,-0.637962962962963,6.740600000023846],[0.09083333333333338,-0.6205555555555556,6.759999999999998],[0.052187500000000026,-0.5609259259259259,6.775100000023841],[0.052187500000000026,-0.5609259259259259,6.794199999988081],[0.016458333333333287,-0.5011111111111112,6.8066999999880835],[0.016458333333333287,-0.5011111111111112,6.823399999976161],[0.0034374999999999527,-0.5087037037037037,6.84580000001192],[0.0034374999999999527,-0.5087037037037037,6.856899999976157],[-0.02781250000000005,-0.4425925925925926,6.873600000023842],[-0.02781250000000005,-0.4425925925925926,6.890000000000001],[-0.07197916666666669,-0.395,6.906500000000001],[-0.12072916666666664,-0.30351851851851847,6.9233000000119205],[-0.12406250000000002,-0.1764814814814815,6.942899999976163],[-0.12406250000000002,-0.1764814814814815,6.956899999976159],[-0.11395833333333331,-0.13277777777777774,6.973399999976159],[-0.12156250000000005,-0.202962962962963,6.990000000000002],[-0.11552083333333331,-0.13185185185185183,7.009899999976163],[-0.10322916666666669,-0.13481481481481483,7.025699999988078],[-0.09458333333333328,-0.15203703703703708,7.045000000000002],[-0.09458333333333328,-0.15203703703703708,7.0566999999880835],[-0.09624999999999997,-0.06833333333333329,7.077699999988077],[-0.09624999999999997,-0.06833333333333329,7.090100000023845],[-0.0782291666666667,-0.05814814814814811,7.106699999988081],[-0.027083333333333334,0.01574074074074074,7.126699999988084],[0.04375,-0.020185185185185143,7.143100000023843],[0.04375,-0.020185185185185143,7.156600000023843],[0.10427083333333324,-0.022037037037036994,7.1731999999880784],[0.13031249999999991,0.02759259259259255,7.193000000000005],[0.15489583333333337,0.0012962962962963806,7.211600000023843],[0.15479166666666658,-0.03888888888888889,7.228199999988078],[0.18260416666666662,-0.052222222222222205,7.2448999999761625],[0.21749999999999994,-0.05018518518518523,7.261100000023845],[0.2273958333333333,-0.037037037037037035,7.279600000023841],[0.23333333333333334,-0.05499999999999998,7.295399999976162],[0.23333333333333334,-0.05499999999999998,7.3066999999880835],[0.25062499999999993,0.000925925925925926,7.323500000000003],[0.24291666666666673,0.06111111111111111,7.3515000000000015],[0.24291666666666673,0.06111111111111111,7.3628999999761575],[0.23427083333333343,0.061666666666666585,7.377500000000005],[0.22395833333333334,0.03851851851851843,7.392800000011924],[0.21583333333333338,0.08666666666666659,7.409899999976162],[0.22822916666666657,0.07981481481481485,7.427899999976162],[0.19427083333333334,0.15203703703703708,7.445699999988079],[0.19427083333333334,0.15203703703703708,7.456699999988082],[0.18822916666666673,0.12092592592592584,7.473300000011925],[0.19458333333333327,0.08407407407407404,7.489800000011925],[0.19458333333333327,0.08407407407407404,7.506500000000003],[0.21354166666666666,0.047037037037036995,7.52319999998808],[0.2165625000000001,-0.12685185185185185,7.540600000023844],[0.20614583333333342,-0.26222222222222225,7.559100000023847],[0.20614583333333342,-0.26222222222222225,7.573100000023842],[0.20458333333333342,-0.2959259259259259,7.58980000001192],[0.20458333333333342,-0.2959259259259259,7.606500000000004],[0.23187499999999991,-0.3242592592592593,7.623199999988081],[0.23187499999999991,-0.3242592592592593,7.639800000011924],[0.2397916666666667,-0.32999999999999996,7.656500000000001],[0.24177083333333324,-0.35962962962962963,7.674199999988083],[0.2713541666666667,-0.47240740740740744,7.690100000023847],[0.2713541666666667,-0.47240740740740744,7.70660000002384],[0.2561458333333334,-0.44166666666666665,7.723100000023841],[0.25770833333333343,-0.45796296296296296,7.741699999988079],[0.26114583333333335,-0.44296296296296295,7.758500000000005],[0.26114583333333335,-0.44296296296296295,7.77319999998808],[0.253125,-0.4057407407407408,7.7898000000119225],[0.24604166666666671,-0.3616666666666667,7.8065],[0.22520833333333337,-0.3675925925925926,7.823199999988084],[0.22520833333333337,-0.3675925925925926,7.839899999976161],[0.2029166666666666,-0.45611111111111113,7.856600000023846],[0.16802083333333329,-0.5146296296296295,7.875199999988084],[0.17958333333333343,-0.5320370370370371,7.891199999988082],[0.17958333333333343,-0.5320370370370371,7.9148000000119225],[0.18135416666666657,-0.5311111111111111,7.93189999997616],[0.18135416666666657,-0.5311111111111111,7.94460000002384],[0.17604166666666668,-0.6042592592592593,7.956499999999998],[0.16895833333333338,-0.6464814814814815,7.9751000000238434],[0.15187499999999995,-0.6851851851851852,7.990899999976158],[0.15187499999999995,-0.6851851851851852,8.006600000023845],[0.13895833333333343,-0.7275925925925926,8.02319999998808],[0.13895833333333343,-0.7275925925925926,8.039800000011923],[0.15010416666666657,-0.7896296296296296,8.0565],[0.16291666666666677,-0.8046296296296296,8.073800000011921],[0.16604166666666675,-0.7398148148148148,8.08980000001192],[0.17572916666666671,-0.7403703703703703,8.106899999976157],[0.13802083333333334,-0.6853703703703704,8.12389999997616],[0.13427083333333342,-0.6309259259259259,8.144300000011924],[0.13427083333333342,-0.6309259259259259,8.156600000023843],[0.15760416666666663,-0.5583333333333333,8.173199999988078],[0.15760416666666663,-0.5583333333333333,8.189899999976163],[0.1525000000000001,-0.4742592592592593,8.20660000002384],[0.15791666666666657,-0.375,8.223100000023841],[0.1408333333333334,-0.31962962962962965,8.246199999988079],[0.1408333333333334,-0.31962962962962965,8.256500000000003],[0.1203125,-0.19037037037037038,8.27319999998808],[0.09458333333333328,-0.08259259259259263,8.289800000011923],[0.07260416666666672,0.010740740740740657,8.3065],[0.07260416666666672,0.010740740740740657,8.323199999988084],[0.08624999999999995,0.07962962962962963,8.339899999976161],[0.10572916666666667,0.1624074074074075,8.361300000011923],[0.10572916666666667,0.1624074074074075,8.373100000023847],[0.08677083333333328,0.2074074074074074,8.389800000011924],[0.04208333333333331,0.30037037037037045,8.406500000000001],[-0.0014583333333333095,0.3446296296296297,8.423100000023844],[-0.01114583333333338,0.35055555555555545,8.439800000011921],[-0.01114583333333338,0.35055555555555545,8.45660000002384],[-0.010520833333333358,0.37222222222222223,8.473199999988083],[-0.019687499999999976,0.31740740740740736,8.489800000011925],[0.000416666666666643,0.2655555555555555,8.506500000000003],[-0.00916666666666662,0.2205555555555556,8.524100000023843],[-0.03333333333333333,0.24314814814814806,8.542500000000004],[-0.05239583333333329,0.22629629629629638,8.558300000011926],[-0.07302083333333335,0.21870370370370373,8.573800000011921],[-0.06739583333333338,0.1698148148148149,8.590100000023845],[-0.035208333333333286,0.10777777777777786,8.607600000023844],[-0.03677083333333329,0.10722222222222218,8.623100000023847],[-0.028854166666666715,0.08296296296296288,8.64219999998808],[-0.013333333333333286,0.07481481481481478,8.66280000001192],[-0.013333333333333286,0.07481481481481478,8.673199999988078],[-0.036145833333333384,0.0020370370370370794,8.689800000011921],[-0.034062500000000044,-0.05925925925925926,8.70660000002384],[-0.021249999999999977,-0.13555555555555554,8.7275],[-0.026145833333333358,-0.1935185185185185,8.74330000001192],[-0.025,-0.22240740740740744,8.759999999999998],[-0.03708333333333336,-0.16148148148148145,8.775899999976161],[-0.03708333333333336,-0.16148148148148145,8.789800000011923],[-0.04864583333333338,-0.08111111111111113,8.806600000023842],[-0.06291666666666665,0.013518518518518435,8.82369999998808],[-0.06291666666666665,0.013518518518518435,8.83980000001192],[-0.05166666666666669,0.09166666666666666,8.856500000000004],[-0.057083333333333285,0.17333333333333337,8.875199999988084],[-0.05677083333333333,0.30574074074074076,8.889699999988082],[-0.06604166666666664,0.38555555555555565,8.908399999976162],[-0.08624999999999995,0.45703703703703696,8.925100000023846],[-0.07687499999999996,0.4866666666666666,8.942899999976163],[-0.07895833333333328,0.5083333333333333,8.96069999998808],[-0.042812500000000024,0.41148148148148156,8.976600000023844],[-0.01552083333333331,0.33851851851851844,8.990500000000004],[0.003125,0.14944444444444452,9.009800000011921],[-0.011562500000000024,0.02092592592592584,9.023100000023845],[-0.00614583333333331,-0.08148148148148149,9.039800000011923],[0.0109375,-0.21666666666666667,9.05730000001192],[0.05166666666666669,-0.24018518518518517,9.076500000000003],[0.09291666666666672,-0.3059259259259259,9.091100000023843],[0.13697916666666668,-0.3611111111111111,9.106600000023846],[0.1484375,-0.3757407407407407,9.123199999988081],[0.1400000000000001,-0.38981481481481484,9.14519999998808],[0.1400000000000001,-0.38981481481481484,9.157000000000004],[0.1046875,-0.4351851851851852,9.173199999988078],[0.08812499999999991,-0.36740740740740735,9.190800000011926],[0.07718749999999991,-0.2833333333333333,9.206399999976156],[0.06281249999999995,-0.22888888888888892,9.223100000023841],[0.05572916666666667,-0.2338888888888889,9.243600000023847],[0.03458333333333338,-0.29796296296296293,9.261399999976163],[0.03458333333333338,-0.29796296296296293,9.27319999998808],[0.04541666666666669,-0.27388888888888885,9.289800000011923],[-0.018333333333333358,-0.2494444444444444,9.307500000000005],[-0.029062499999999977,-0.24055555555555552,9.326],[-0.029062499999999977,-0.24055555555555552,9.33980000001192],[-0.04750000000000002,-0.26481481481481484,9.356600000023846],[-0.042499999999999954,-0.2807407407407408,9.3765],[-0.04552083333333338,-0.34981481481481475,9.390199999988077],[-0.04552083333333338,-0.34981481481481475,9.406500000000001],[-0.03760416666666669,-0.3768518518518518,9.423199999988078],[-0.007187499999999976,-0.4183333333333333,9.439800000011921],[0.01114583333333338,-0.3822222222222222,9.456399999976156],[0.01114583333333338,-0.3822222222222222,9.473100000023841],[0.034791666666666644,-0.3581481481481481,9.489800000011925],[0.025937499999999978,-0.38,9.50639999997616],[0.06489583333333329,-0.40055555555555555,9.523100000023845],[0.09489583333333323,-0.4381481481481482,9.54080000001192],[0.12020833333333343,-0.44648148148148153,9.560300000011921],[0.14385416666666656,-0.4196296296296297,9.575699999988082],[0.1556250000000001,-0.39962962962962967,9.591000000000001],[0.1556250000000001,-0.39962962962962967,9.606600000023846],[0.16895833333333338,-0.3698148148148148,9.623100000023847],[0.1756249999999999,-0.3894444444444445,9.640100000023843],[0.18229166666666666,-0.40907407407407403,9.65639999997616],[0.15104166666666666,-0.38,9.673500000000004],[0.10166666666666657,-0.3320370370370371,9.689800000011921],[0.0865624999999999,-0.29962962962962963,9.706399999976156],[0.059687499999999956,-0.2772222222222222,9.723199999988083],[0.06156250000000003,-0.21425925925925923,9.739699999988083],[0.04385416666666669,-0.17407407407407408,9.75669999998808],[0.0453125,-0.14388888888888887,9.77319999998808],[0.035312499999999976,-0.17462962962962966,9.789899999976157],[0.012083333333333357,-0.15092592592592594,9.806800000011926],[0.012083333333333357,-0.15092592592592594,9.823199999988084],[-0.002708333333333357,-0.12907407407407406,9.83980000001192],[0.016666666666666666,-0.11500000000000005,9.85739999997616],[0.04624999999999998,-0.15166666666666662,9.873199999988081],[0.051041666666666666,-0.18666666666666668,9.89],[0.06791666666666671,-0.2007407407407407,9.906600000023843],[0.07062499999999995,-0.20333333333333337,9.92330000001192],[0.08822916666666672,-0.22333333333333338,9.940699999988084],[0.12145833333333324,-0.21703703703703703,9.95960000002384],[0.1484375,-0.22111111111111106,9.976500000000001],[0.14072916666666657,-0.26481481481481484,9.99330000001192],[0.14812500000000003,-0.24351851851851852,10.010399999976158],[0.140625,-0.26648148148148143,10.028300000011924],[0.140625,-0.26648148148148143,10.039800000011923],[0.16770833333333332,-0.29814814814814816,10.0565],[0.16656250000000009,-0.29444444444444445,10.073300000011919],[0.16656250000000009,-0.29444444444444445,10.08980000001192],[0.1865624999999999,-0.28703703703703703,10.106500000000004],[0.1946875000000001,-0.3427777777777778,10.123199999988081],[0.22000000000000006,-0.3757407407407407,10.140500000000003],[0.22000000000000006,-0.3757407407407407,10.156699999988078],[0.19020833333333323,-0.3792592592592593,10.173100000023844],[0.16989583333333325,-0.4101851851851852,10.189800000011921],[0.17218749999999997,-0.3242592592592593,10.209499999999998],[0.17218749999999997,-0.3242592592592593,10.223100000023841],[0.15093750000000009,-0.3014814814814815,10.239800000011925],[0.1728125000000001,-0.3124074074074074,10.25639999997616],[0.13541666666666666,-0.2627777777777777,10.27360000002384],[0.1273958333333333,-0.29148148148148145,10.294600000023841],[0.10864583333333329,-0.3501851851851852,10.312399999976158],[0.10864583333333329,-0.3501851851851852,10.323199999988084],[0.09156250000000009,-0.3314814814814815,10.33980000001192],[0.09156250000000009,-0.3314814814814815,10.356500000000004],[0.052291666666666715,-0.28888888888888886,10.373199999988081],[0.06124999999999995,-0.31925925925925924,10.391300000011924],[0.04624999999999998,-0.26370370370370366,10.40639999997616],[0.04072916666666669,-0.2759259259259259,10.423899999976157],[0.024062500000000025,-0.31425925925925924,10.445300000011919],[-0.022395833333333334,-0.30351851851851847,10.460500000000003],[-0.024895833333333308,-0.2757407407407407,10.476699999988078],[-0.024895833333333308,-0.2757407407407407,10.490199999988079],[-0.028541666666666642,-0.205,10.506500000000003],[-0.044375000000000026,-0.11481481481481481,10.523100000023845],[-0.06708333333333331,-0.07407407407407407,10.539899999976157],[-0.0828125,-0.06018518518518518,10.559000000000005],[-0.11104166666666669,0.02296296296296292,10.577199999988082],[-0.11697916666666662,0.03129629629629625,10.592699999988078],[-0.1313541666666667,0.0294444444444444,10.60930000001192],[-0.13895833333333332,0.018148148148148063,10.625500000000002],[-0.1544791666666666,0.018148148148148063,10.646100000023843],[-0.1544791666666666,0.018148148148148063,10.656500000000001],[-0.19135416666666671,-0.014814814814814815,10.673199999988078],[-0.21124999999999997,-0.06611111111111109,10.689800000011921],[-0.24666666666666662,-0.10314814814814813,10.707100000023843],[-0.2397916666666667,-0.1255555555555556,10.723100000023841],[-0.2560416666666666,-0.14518518518518514,10.73989999997616],[-0.26968749999999997,-0.21296296296296297,10.757399999976158],[-0.2955208333333334,-0.23074074074074077,10.776899999976159],[-0.30052083333333335,-0.21944444444444444,10.793],[-0.30281250000000004,-0.19648148148148153,10.808600000023844],[-0.3054166666666667,-0.16203703703703703,10.823300000011919],[-0.3054166666666667,-0.16203703703703703,10.83980000001192],[-0.2919791666666666,-0.15981481481481483,10.856500000000004],[-0.2856250000000001,-0.15129629629629626,10.873100000023847],[-0.2591666666666666,-0.2051851851851852,10.89030000001192],[-0.2621875000000001,-0.16944444444444445,10.911000000000001],[-0.24208333333333332,-0.13648148148148145,10.924899999976162],[-0.2195833333333333,-0.12444444444444443,10.942500000000003],[-0.18645833333333334,-0.13574074074074077,10.960100000023843],[-0.18645833333333334,-0.13574074074074077,10.973100000023841],[-0.14468749999999997,-0.14814814814814814,10.989800000011925],[-0.12729166666666672,-0.17685185185185184,11.007199999988082],[-0.1016666666666667,-0.22833333333333336,11.023100000023845],[-0.06875,-0.2518518518518518,11.041800000011925]]","[0.00030000001192576065,0.056300000011923146,0.0625,0.08139999997615632,0.10150000000000148,0.11010000002384146,0.12339999997615791,0.1401000000238426,0.15660000002384322,0.17339999997616218,0.1898999999761628,0.20660000002384038,0.2231999999880827,0.2418000000119207,0.25680000001192127,0.2734999999999985,0.2978000000119252,0.30700000000000216,0.3235000000000028,0.34319999998808015,0.36299999999999955,0.3733999999761579,0.3901000000238426,0.4066999999880778,0.42889999997616,0.44010000002384686,0.4568000000119241,0.47339999997615934,0.4946999999880788,0.5068000000119213,0.5234999999999985,0.5426999999880806,0.5606999999880813,0.5768999999761562,0.59019999998808,0.6066000000238461,0.6233000000119233,0.641899999976161,0.6586000000238457,0.6733000000119205,0.6900000000000048,0.7068999999761587,0.7231999999880827,0.73989999997616,0.757000000000005,0.7731999999880799,0.7898999999761571,0.8066999999880835,0.828000000000003,0.8398000000119197,0.8566000000238461,0.8733000000119233,0.8900000000000006,0.9065000000000012,0.9231999999880784,0.9398999999761628,0.9564999999999984,0.9733000000119247,0.990000000000002,1.0066999999880792,1.0231999999880799,1.0433999999761596,1.0568000000119255,1.0738999999761631,1.0938000000119246,1.1116000000238415,1.1261999999880814,1.1456999999880821,1.161199999988078,1.1733999999761622,1.1901999999880815,1.2100000000000009,1.2233999999761593,1.2433000000119208,1.2566999999880792,1.2766999999880824,1.2901999999880829,1.3068999999761601,1.3290000000000006,1.3401000000238454,1.3569999999999993,1.3801000000238446,1.3901000000238426,1.4068000000119198,1.4233999999761622,1.4471000000238448,1.4564999999999984,1.4731999999880827,1.4901999999880786,1.5071999999880816,1.5231999999880799,1.541000000000004,1.5576000000238466,1.5731999999880841,1.5930000000000035,1.6068000000119227,1.6238000000119257,1.6400000000000006,1.6601999999880803,1.6733999999761622,1.6901000000238469,1.7100000000000009,1.7233999999761593,1.740100000023844,1.759300000011919,1.7738000000119243,1.7898999999761571,1.8066000000238418,1.823300000011919,1.8398999999761614,1.856600000023846,1.8731999999880813,1.8898999999761585,1.9066000000238432,