inst1_resp.keys,inst1_resp.rt,calibrationMouse.x,calibrationMouse.y,calibrationMouse.leftButton,calibrationMouse.midButton,calibrationMouse.rightButton,calibrationClick.x,calibrationClick.y,calibrationClick.leftButton,calibrationClick.midButton,calibrationClick.rightButton,trialsc.thisRepN,trialsc.thisTrialN,trialsc.thisN,trialsc.thisIndex,trialsc.ran,calibration_x,calibration_y,participant,session,date,expName,psychopyVersion,OS,frameRate,calibrationClick.clicked_name,ScreenRes_pixels,mouse_2.x,mouse_2.y,mouse_2.leftButton,mouse_2.midButton,mouse_2.rightButton,mouse_2.time,mouse_2.clicked_name,Camera_pixels,mouse.x,mouse.y,mouse.leftButton,mouse.midButton,mouse.rightButton,mouse.time,mouse.clicked_name,Choice,Trial,TrialDuration,MOUSE_GAZE,ET_GAZE,ET_GAZE_x_T,time,unixTime,ET_GAZE_NF,Loc_Bus_label,Loc_Metro_label,Loc_RH_label,Loc_Cost_label,Loc_Travel_label,Loc_Comfort_label,Loc_Bus_cost,Loc_Metro_cost,Loc_RH_cost,Loc_Bus_travel,Loc_Metro_travel,Loc_RH_travel,Loc_Bus_comfort,Loc_Metro_comfort,Loc_RH_comfort,trials.thisRepN,trials.thisTrialN,trials.thisN,trials.thisIndex,trials.ran,Block,Device,RH_cost,RH_travel_time,RH_Comfort,metro_cost,metro_travel_time,metro_Comfort,Bus_cost,Bus_travel_time,Bus_Comfort
space,1.5137,0.466666667,-0.264814815,1,0,0,-0.333333333,-0.655555556,1,0,0,0,0,0,4,1,-0.33,-0.67,49,001,2024-11-30_11h26.29.356,Attention_exp_legacy,2023.1.0,Win32,60.60606061,,,,,,,,,,,,,,,,,,,,,,,,,,,,,,,,,,,,,,,,,,,,,,,,,,,,,,,,,
,,,,,,,0.683333333,-0.662962963,1,0,0,0,1,1,20,1,0.67,-0.67,49,001,2024-11-30_11h26.29.356,Attention_exp_legacy,2023.1.0,Win32,60.60606061,,,,,,,,,,,,,,,,,,,,,,,,,,,,,,,,,,,,,,,,,,,,,,,,,,,,,,,,,
,,,,,,,0.00625,-0.675925926,1,0,0,0,2,2,9,1,0,-0.67,49,001,2024-11-30_11h26.29.356,Attention_exp_legacy,2023.1.0,Win32,60.60606061,calibration_square,,,,,,,,,,,,,,,,,,,,,,,,,,,,,,,,,,,,,,,,,,,,,,,,,,,,,,,,
,,,,,,,-0.676041667,-0.662962963,1,0,0,0,3,3,0,1,-0.67,-0.67,49,001,2024-11-30_11h26.29.356,Attention_exp_legacy,2023.1.0,Win32,60.60606061,calibration_square,,,,,,,,,,,,,,,,,,,,,,,,,,,,,,,,,,,,,,,,,,,,,,,,,,,,,,,,
,,,,,,,0.325,-0.009259259,1,0,0,0,4,4,16,1,0.33,0,49,001,2024-11-30_11h26.29.356,Attention_exp_legacy,2023.1.0,Win32,60.60606061,calibration_square,,,,,,,,,,,,,,,,,,,,,,,,,,,,,,,,,,,,,,,,,,,,,,,,,,,,,,,,
,,,,,,,-0.682291667,0.32962963,1,0,0,0,5,5,3,1,-0.67,0.33,49,001,2024-11-30_11h26.29.356,Attention_exp_legacy,2023.1.0,Win32,60.60606061,,,,,,,,,,,,,,,,,,,,,,,,,,,,,,,,,,,,,,,,,,,,,,,,,,,,,,,,,
,,,,,,,0.004166667,0.675925926,1,0,0,0,6,6,13,1,0,0.67,49,001,2024-11-30_11h26.29.356,Attention_exp_legacy,2023.1.0,Win32,60.60606061,calibration_square,,,,,,,,,,,,,,,,,,,,,,,,,,,,,,,,,,,,,,,,,,,,,,,,,,,,,,,,
,,,,,,,0.330208333,0.338888889,1,0,0,0,7,7,17,1,0.33,0.33,49,001,2024-11-30_11h26.29.356,Attention_exp_legacy,2023.1.0,Win32,60.60606061,calibration_square,,,,,,,,,,,,,,,,,,,,,,,,,,,,,,,,,,,,,,,,,,,,,,,,,,,,,,,,
,,,,,,,-0.671875,-0.32037037,1,0,0,0,8,8,1,1,-0.67,-0.33,49,001,2024-11-30_11h26.29.356,Attention_exp_legacy,2023.1.0,Win32,60.60606061,calibration_square,,,,,,,,,,,,,,,,,,,,,,,,,,,,,,,,,,,,,,,,,,,,,,,,,,,,,,,,
,,,,,,,-0.013541667,0.324074074,1,0,0,0,9,9,12,1,0,0.33,49,001,2024-11-30_11h26.29.356,Attention_exp_legacy,2023.1.0,Win32,60.60606061,,,,,,,,,,,,,,,,,,,,,,,,,,,,,,,,,,,,,,,,,,,,,,,,,,,,,,,,,
,,,,,,,-0.339583333,0.666666667,1,0,0,0,10,10,8,1,-0.33,0.67,49,001,2024-11-30_11h26.29.356,Attention_exp_legacy,2023.1.0,Win32,60.60606061,calibration_square,,,,,,,,,,,,,,,,,,,,,,,,,,,,,,,,,,,,,,,,,,,,,,,,,,,,,,,,
,,,,,,,0.339583333,-0.655555556,1,0,0,0,11,11,14,1,0.33,-0.67,49,001,2024-11-30_11h26.29.356,Attention_exp_legacy,2023.1.0,Win32,60.60606061,,,,,,,,,,,,,,,,,,,,,,,,,,,,,,,,,,,,,,,,,,,,,,,,,,,,,,,,,
,,,,,,,-0.334375,0,1,0,0,0,12,12,6,1,-0.33,0,49,001,2024-11-30_11h26.29.356,Attention_exp_legacy,2023.1.0,Win32,60.60606061,calibration_square,,,,,,,,,,,,,,,,,,,,,,,,,,,,,,,,,,,,,,,,,,,,,,,,,,,,,,,,
,,,,,,,-0.339583333,0.333333333,1,0,0,0,13,13,7,1,-0.33,0.33,49,001,2024-11-30_11h26.29.356,Attention_exp_legacy,2023.1.0,Win32,60.60606061,calibration_square,,,,,,,,,,,,,,,,,,,,,,,,,,,,,,,,,,,,,,,,,,,,,,,,,,,,,,,,
,,,,,,,-0.669791667,0.011111111,1,0,0,0,14,14,2,1,-0.67,0,49,001,2024-11-30_11h26.29.356,Attention_exp_legacy,2023.1.0,Win32,60.60606061,,,,,,,,,,,,,,,,,,,,,,,,,,,,,,,,,,,,,,,,,,,,,,,,,,,,,,,,,
,,,,,,,0.315625,-0.32962963,1,0,0,0,15,15,15,1,0.33,-0.33,49,001,2024-11-30_11h26.29.356,Attention_exp_legacy,2023.1.0,Win32,60.60606061,,,,,,,,,,,,,,,,,,,,,,,,,,,,,,,,,,,,,,,,,,,,,,,,,,,,,,,,,
,,,,,,,0,0.009259259,1,0,0,0,16,16,11,1,0,0,49,001,2024-11-30_11h26.29.356,Attention_exp_legacy,2023.1.0,Win32,60.60606061,calibration_square,,,,,,,,,,,,,,,,,,,,,,,,,,,,,,,,,,,,,,,,,,,,,,,,,,,,,,,,
,,,,,,,0.661458333,0.674074074,1,0,0,0,17,17,19,1,0.67,0.67,49,001,2024-11-30_11h26.29.356,Attention_exp_legacy,2023.1.0,Win32,60.60606061,calibration_square,,,,,,,,,,,,,,,,,,,,,,,,,,,,,,,,,,,,,,,,,,,,,,,,,,,,,,,,
,,,,,,,-0.009375,-0.333333333,1,0,0,0,18,18,10,1,0,-0.33,49,001,2024-11-30_11h26.29.356,Attention_exp_legacy,2023.1.0,Win32,60.60606061,calibration_square,,,,,,,,,,,,,,,,,,,,,,,,,,,,,,,,,,,,,,,,,,,,,,,,,,,,,,,,
,,,,,,,0.3375,0.694444444,1,0,0,0,19,19,18,1,0.33,0.67,49,001,2024-11-30_11h26.29.356,Attention_exp_legacy,2023.1.0,Win32,60.60606061,,,,,,,,,,,,,,,,,,,,,,,,,,,,,,,,,,,,,,,,,,,,,,,,,,,,,,,,,
,,,,,,,-0.308333333,-0.285185185,1,0,0,0,20,20,5,1,-0.33,-0.33,49,001,2024-11-30_11h26.29.356,Attention_exp_legacy,2023.1.0,Win32,60.60606061,,,,,,,,,,,,,,,,,,,,,,,,,,,,,,,,,,,,,,,,,,,,,,,,,,,,,,,,,
,,,,,,,,,,,,,,,,,,,49,001,2024-11-30_11h26.29.356,Attention_exp_legacy,2023.1.0,Win32,60.60606061,,"[1920,1080]",[-0.016666666666666666],[-0.48703703703703705],[1],[0],[0],[0.9781000000238436],"[""StartButton""]","[640,480]",[0.27291666666666664],[0.6055555555555555],[1],[0],[0],[4.786100000023843],"[""Metro_label""]",Metro_label,1,5.812,"[[0.49166666666666664,0.6481481481481481],[0.49166666666666664,0.6481481481481481],[0.49166666666666664,0.6481481481481481],[0.49166666666666664,0.6481481481481481],[0.49166666666666664,0.6481481481481481],[0.49166666666666664,0.6481481481481481],[0.49166666666666664,0.6481481481481481],[0.49166666666666664,0.6481481481481481],[0.49166666666666664,0.6481481481481481],[0.49166666666666664,0.6481481481481481],[0.49166666666666664,0.6481481481481481],[0.49166666666666664,0.6481481481481481],[0.49166666666666664,0.6481481481481481],[0.49166666666666664,0.6481481481481481],[0.49166666666666664,0.6481481481481481],[0.49166666666666664,0.6481481481481481],[0.49166666666666664,0.6481481481481481],[0.49166666666666664,0.6481481481481481],[0.49166666666666664,0.6481481481481481],[0.49166666666666664,0.6481481481481481],[0.49166666666666664,0.6481481481481481],[0.49166666666666664,0.6481481481481481],[0.49166666666666664,0.6481481481481481],[0.49166666666666664,0.6481481481481481],[0.49166666666666664,0.6481481481481481],[0.49166666666666664,0.6481481481481481],[0.49166666666666664,0.6481481481481481],[0.49166666666666664,0.6481481481481481],[0.49166666666666664,0.6481481481481481],[0.49166666666666664,0.6481481481481481],[0.49166666666666664,0.6481481481481481],[0.49166666666666664,0.6481481481481481],[0.49166666666666664,0.6481481481481481],[0.49166666666666664,0.6481481481481481],[0.49166666666666664,0.6481481481481481],[0.49166666666666664,0.6481481481481481],[0.49166666666666664,0.6481481481481481],[0.49166666666666664,0.6481481481481481],[0.49166666666666664,0.6481481481481481],[0.49166666666666664,0.6481481481481481],[0.49166666666666664,0.6481481481481481],[0.49166666666666664,0.6481481481481481],[0.49166666666666664,0.6481481481481481],[0.49166666666666664,0.6481481481481481],[0.49166666666666664,0.6481481481481481],[0.49166666666666664,0.6481481481481481],[0.49166666666666664,0.6481481481481481],[0.49166666666666664,0.6481481481481481],[0.49166666666666664,0.6481481481481481],[0.49166666666666664,0.6481481481481481],[0.49166666666666664,0.6481481481481481],[0.49166666666666664,0.6481481481481481],[0.49166666666666664,0.6481481481481481],[0.49166666666666664,0.6481481481481481],[0.49166666666666664,0.6481481481481481],[0.49166666666666664,0.6481481481481481],[0.49166666666666664,0.6481481481481481],[0.47708333333333336,0.6574074074074074],[0.4666666666666667,0.6648148148148149],[0.4270833333333333,0.6851851851851852],[0.40208333333333335,0.7018518518518518],[0.36666666666666664,0.7111111111111111],[0.3125,0.7277777777777777],[0.25833333333333336,0.7277777777777777],[0.20625,0.7296296296296296],[0.17291666666666666,0.7296296296296296],[0.14479166666666668,0.7296296296296296],[0.12395833333333334,0.7296296296296296],[0.09895833333333333,0.7277777777777777],[0.08020833333333334,0.7185185185185186],[0.07395833333333333,0.7166666666666667],[0.04791666666666667,0.6962962962962963],[0.0375,0.687037037037037],[0.030208333333333334,0.6759259259259259],[0.028125,0.674074074074074],[0.028125,0.6722222222222223],[0.030208333333333334,0.6722222222222223],[0.051041666666666666,0.662962962962963],[0.084375,0.6481481481481481],[0.146875,0.6166666666666667],[0.23125,0.5722222222222222],[0.334375,0.5296296296296297],[0.44375,0.48518518518518516],[0.584375,0.44074074074074077],[0.64375,0.412962962962963],[0.678125,0.39444444444444443],[0.6979166666666666,0.37962962962962965],[0.7072916666666667,0.37222222222222223],[0.7104166666666667,0.36666666666666664],[0.7104166666666667,0.362962962962963],[0.7104166666666667,0.35555555555555557],[0.7114583333333333,0.34444444444444444],[0.7145833333333333,0.32592592592592595],[0.7166666666666667,0.30925925925925923],[0.7197916666666667,0.29074074074074074],[0.7197916666666667,0.2740740740740741],[0.7197916666666667,0.26851851851851855],[0.71875,0.26296296296296295],[0.7166666666666667,0.2611111111111111],[0.715625,0.2574074074074074],[0.715625,0.2574074074074074],[0.715625,0.2574074074074074],[0.715625,0.2574074074074074],[0.715625,0.2574074074074074],[0.715625,0.2574074074074074],[0.715625,0.2574074074074074],[0.715625,0.2574074074074074],[0.715625,0.2574074074074074],[0.7135416666666666,0.25555555555555554],[0.7104166666666667,0.2518518518518518],[0.7052083333333333,0.25],[0.6979166666666666,0.24814814814814815],[0.690625,0.24814814814814815],[0.68125,0.24814814814814815],[0.6708333333333333,0.24814814814814815],[0.6625,0.2537037037037037],[0.653125,0.2611111111111111],[0.64375,0.2722222222222222],[0.6302083333333334,0.28888888888888886],[0.6260416666666667,0.2962962962962963],[0.6177083333333333,0.31666666666666665],[0.6083333333333333,0.337037037037037],[0.5989583333333334,0.3592592592592593],[0.5895833333333333,0.37592592592592594],[0.5760416666666667,0.39444444444444443],[0.5635416666666667,0.40925925925925927],[0.553125,0.42407407407407405],[0.54375,0.43333333333333335],[0.5322916666666667,0.45185185185185184],[0.5114583333333333,0.47962962962962963],[0.47708333333333336,0.5074074074074074],[0.425,0.5462962962962963],[0.396875,0.5666666666666667],[0.371875,0.5777777777777777],[0.35,0.5907407407407408],[0.33541666666666664,0.5944444444444444],[0.3302083333333333,0.5944444444444444],[0.328125,0.5944444444444444],[0.328125,0.5944444444444444],[0.325,0.5944444444444444],[0.31979166666666664,0.5944444444444444],[0.3145833333333333,0.5944444444444444],[0.3125,0.5944444444444444],[0.31145833333333334,0.5944444444444444],[0.31145833333333334,0.5944444444444444],[0.31145833333333334,0.5944444444444444],[0.31145833333333334,0.5944444444444444],[0.31145833333333334,0.5944444444444444],[0.31145833333333334,0.5944444444444444],[0.31145833333333334,0.5944444444444444],[0.31145833333333334,0.5944444444444444],[0.31145833333333334,0.5944444444444444],[0.31145833333333334,0.5944444444444444],[0.31145833333333334,0.5944444444444444],[0.31145833333333334,0.5944444444444444],[0.31145833333333334,0.5944444444444444],[0.31145833333333334,0.5944444444444444],[0.31145833333333334,0.5944444444444444],[0.31145833333333334,0.5944444444444444],[0.31145833333333334,0.5944444444444444],[0.31145833333333334,0.5944444444444444],[0.31145833333333334,0.5944444444444444],[0.31145833333333334,0.5944444444444444],[0.31145833333333334,0.5944444444444444],[0.31145833333333334,0.5944444444444444],[0.31145833333333334,0.5944444444444444],[0.31145833333333334,0.5944444444444444],[0.31145833333333334,0.5944444444444444],[0.31145833333333334,0.5944444444444444],[0.31145833333333334,0.5944444444444444],[0.31145833333333334,0.5944444444444444],[0.31145833333333334,0.5944444444444444],[0.31145833333333334,0.5944444444444444],[0.31145833333333334,0.5944444444444444],[0.31145833333333334,0.5944444444444444],[0.31145833333333334,0.5944444444444444],[0.31145833333333334,0.5944444444444444],[0.31145833333333334,0.5944444444444444],[0.31145833333333334,0.5944444444444444],[0.31145833333333334,0.5944444444444444],[0.31145833333333334,0.5944444444444444],[0.31145833333333334,0.5944444444444444],[0.31145833333333334,0.5944444444444444],[0.31145833333333334,0.5944444444444444],[0.31145833333333334,0.5944444444444444],[0.31145833333333334,0.5944444444444444],[0.31145833333333334,0.5944444444444444],[0.31145833333333334,0.5944444444444444],[0.31145833333333334,0.5944444444444444],[0.31145833333333334,0.5944444444444444],[0.31145833333333334,0.5944444444444444],[0.31145833333333334,0.5944444444444444],[0.31145833333333334,0.5944444444444444],[0.31145833333333334,0.5944444444444444],[0.31145833333333334,0.5944444444444444],[0.31145833333333334,0.5944444444444444],[0.31145833333333334,0.5944444444444444],[0.31145833333333334,0.5944444444444444],[0.31145833333333334,0.5944444444444444],[0.31145833333333334,0.5944444444444444],[0.31145833333333334,0.5944444444444444],[0.31145833333333334,0.5944444444444444],[0.31145833333333334,0.5944444444444444],[0.31145833333333334,0.5944444444444444],[0.31145833333333334,0.5944444444444444],[0.31145833333333334,0.5944444444444444],[0.31145833333333334,0.5944444444444444],[0.31145833333333334,0.5944444444444444],[0.31145833333333334,0.5944444444444444],[0.31145833333333334,0.5944444444444444],[0.31145833333333334,0.5944444444444444],[0.31145833333333334,0.5944444444444444],[0.31145833333333334,0.5944444444444444],[0.31145833333333334,0.5944444444444444],[0.31145833333333334,0.5944444444444444],[0.31145833333333334,0.5944444444444444],[0.31145833333333334,0.5944444444444444],[0.31145833333333334,0.5944444444444444],[0.31145833333333334,0.5944444444444444],[0.31145833333333334,0.5944444444444444],[0.31145833333333334,0.5944444444444444],[0.31145833333333334,0.5944444444444444],[0.31145833333333334,0.5944444444444444],[0.31145833333333334,0.5944444444444444],[0.31145833333333334,0.5944444444444444],[0.31145833333333334,0.5944444444444444],[0.31145833333333334,0.5944444444444444],[0.31145833333333334,0.5944444444444444],[0.31145833333333334,0.5944444444444444],[0.31145833333333334,0.5944444444444444],[0.31145833333333334,0.5944444444444444],[0.31145833333333334,0.5944444444444444],[0.31145833333333334,0.5944444444444444],[0.31145833333333334,0.5944444444444444],[0.31145833333333334,0.5944444444444444],[0.31145833333333334,0.5944444444444444],[0.31145833333333334,0.5944444444444444],[0.31145833333333334,0.5944444444444444],[0.31145833333333334,0.5944444444444444],[0.31145833333333334,0.5944444444444444],[0.31145833333333334,0.5944444444444444],[0.31145833333333334,0.5944444444444444],[0.309375,0.5944444444444444],[0.30625,0.5944444444444444],[0.30104166666666665,0.5925925925925926],[0.29583333333333334,0.5888888888888889],[0.29270833333333335,0.5851851851851851],[0.29270833333333335,0.5851851851851851],[0.2916666666666667,0.5851851851851851],[0.290625,0.5833333333333334],[0.28854166666666664,0.5814814814814815],[0.28854166666666664,0.5814814814814815],[0.28854166666666664,0.5814814814814815],[0.28854166666666664,0.5814814814814815],[0.28854166666666664,0.5814814814814815],[0.28854166666666664,0.5814814814814815],[0.28854166666666664,0.5814814814814815],[0.28854166666666664,0.5814814814814815],[0.28854166666666664,0.5814814814814815],[0.28854166666666664,0.5814814814814815],[0.28854166666666664,0.5814814814814815],[0.28854166666666664,0.5814814814814815],[0.28854166666666664,0.5814814814814815],[0.28854166666666664,0.5814814814814815],[0.28854166666666664,0.5814814814814815],[0.28854166666666664,0.5814814814814815],[0.28854166666666664,0.5814814814814815],[0.28854166666666664,0.5814814814814815],[0.28854166666666664,0.5814814814814815],[0.28854166666666664,0.5814814814814815],[0.2875,0.5814814814814815],[0.2875,0.5814814814814815],[0.2875,0.5814814814814815],[0.2875,0.5814814814814815],[0.2864583333333333,0.5833333333333334],[0.28541666666666665,0.5851851851851851],[0.2833333333333333,0.5925925925925926],[0.28125,0.5944444444444444],[0.2791666666666667,0.5981481481481481],[0.278125,0.5981481481481481],[0.2760416666666667,0.6],[0.27395833333333336,0.6037037037037037],[0.27291666666666664,0.6055555555555555],[0.27291666666666664,0.6055555555555555],[0.27291666666666664,0.6055555555555555],[0.27291666666666664,0.6055555555555555],[0.27291666666666664,0.6055555555555555],[0.27291666666666664,0.6055555555555555],[0.27291666666666664,0.6055555555555555],[0.27291666666666664,0.6055555555555555],[0.27291666666666664,0.6055555555555555],[0.27291666666666664,0.6055555555555555],[0.27291666666666664,0.6055555555555555],[0.27291666666666664,0.6055555555555555],[0.27291666666666664,0.6055555555555555],[0.27291666666666664,0.6055555555555555],[0.27291666666666664,0.6074074074074074],[0.27291666666666664,0.6074074074074074],[0.27291666666666664,0.6074074074074074],[0.27291666666666664,0.6074074074074074],[0.27291666666666664,0.6074074074074074],[0.27291666666666664,0.6074074074074074],[0.27291666666666664,0.6074074074074074],[0.27291666666666664,0.6074074074074074],[0.27291666666666664,0.6074074074074074],[0.27291666666666664,0.6074074074074074],[0.27291666666666664,0.6074074074074074],[0.27291666666666664,0.6074074074074074],[0.27291666666666664,0.6074074074074074],[0.27291666666666664,0.6074074074074074],[0.27291666666666664,0.6074074074074074],[0.27291666666666664,0.6074074074074074],[0.27291666666666664,0.6074074074074074],[0.27291666666666664,0.6074074074074074],[0.27291666666666664,0.6074074074074074],[0.27291666666666664,0.6074074074074074],[0.27291666666666664,0.6074074074074074],[0.27291666666666664,0.6074074074074074],[0.27291666666666664,0.6074074074074074],[0.27291666666666664,0.6074074074074074],[0.27291666666666664,0.6074074074074074],[0.27291666666666664,0.6074074074074074],[0.27291666666666664,0.6074074074074074],[0.27291666666666664,0.6074074074074074],[0.27291666666666664,0.6074074074074074],[0.27291666666666664,0.6074074074074074],[0.27291666666666664,0.6074074074074074],[0.27291666666666664,0.6074074074074074],[0.27291666666666664,0.6074074074074074],[0.27291666666666664,0.6074074074074074],[0.27291666666666664,0.6074074074074074],[0.27291666666666664,0.6074074074074074],[0.27291666666666664,0.6074074074074074],[0.27291666666666664,0.6074074074074074],[0.27291666666666664,0.6074074074074074],[0.27291666666666664,0.6074074074074074],[0.27291666666666664,0.6074074074074074],[0.27291666666666664,0.6074074074074074],[0.27291666666666664,0.6074074074074074],[0.27291666666666664,0.6074074074074074],[0.27291666666666664,0.6074074074074074],[0.27291666666666664,0.6074074074074074],[0.27291666666666664,0.6074074074074074],[0.27291666666666664,0.6074074074074074],[0.27291666666666664,0.6074074074074074],[0.27291666666666664,0.6074074074074074],[0.27291666666666664,0.6074074074074074],[0.27291666666666664,0.6074074074074074]]","[[0.12572916666666673,0.3212962962962963],[0.12572916666666673,0.3212962962962963],[0.11572916666666658,0.27240740740740743],[0.10656249999999995,0.27462962962962956],[0.09239583333333339,0.294074074074074],[0.09239583333333339,0.294074074074074],[0.08552083333333324,0.2959259259259258],[0.07822916666666657,0.30277777777777776],[0.07510416666666657,0.31055555555555564],[0.07927083333333323,0.30759259259259264],[0.08947916666666676,0.28277777777777785],[0.10291666666666661,0.2757407407407407],[0.10802083333333339,0.25870370370370377],[0.10802083333333339,0.25870370370370377],[0.1265625,0.3007407407407407],[0.14427083333333332,0.2916666666666667],[0.16416666666666657,0.29240740740740734],[0.16416666666666657,0.29240740740740734],[0.17822916666666658,0.3168518518518519],[0.1857291666666666,0.33425925925925926],[0.22208333333333338,0.32981481481481484],[0.22208333333333338,0.32981481481481484],[0.25833333333333336,0.3050000000000001],[0.2484375,0.2861111111111111],[0.25114583333333323,0.2338888888888888],[0.25114583333333323,0.2338888888888888],[0.24552083333333338,0.23740740740740748],[0.22916666666666666,0.21648148148148144],[0.21281249999999996,0.1955555555555556],[0.1953125,0.1705555555555556],[0.19822916666666662,0.13222222222222219],[0.1508333333333333,0.10407407407407415],[0.07458333333333324,0.0977777777777777],[-0.04354166666666662,0.12666666666666662],[-0.12947916666666662,0.15055555555555547],[-0.12947916666666662,0.15055555555555547],[-0.2,0.1985185185185186],[-0.256875,0.18944444444444436],[-0.30843750000000003,0.17018518518518513],[-0.3651041666666667,0.15759259259259265],[-0.4114583333333333,0.13648148148148156],[-0.48020833333333335,0.15851851851851856],[-0.5029166666666667,0.13796296296296295],[-0.525625,0.11740740740740736],[-0.4877083333333333,0.08444444444444449],[-0.4358333333333333,0.05055555555555547],[-0.4358333333333333,0.05055555555555547],[-0.40989583333333335,0.020740740740740823],[-0.40989583333333335,0.020740740740740823],[-0.4048958333333334,0.011666666666666582],[-0.4048958333333334,0.011666666666666582],[-0.4022916666666667,0.010370370370370412],[-0.3932291666666667,0.000925925925925926],[-0.39177083333333335,0.010740740740740657],[-0.39177083333333335,0.010740740740740657],[-0.3883333333333333,-0.009259259259259259],[-0.3727083333333333,0.008888888888888804],[-0.3609375,0.018148148148148063],[-0.3609375,0.018148148148148063],[-0.28718750000000004,-0.04148148148148144],[-0.23552083333333335,-0.05499999999999998],[-0.22166666666666662,-0.04092592592592597],[-0.22166666666666662,-0.04092592592592597],[-0.1486458333333334,-0.13277777777777774],[-0.07552083333333333,-0.16648148148148145],[-0.0037500000000000237,-0.19870370370370372],[-0.0037500000000000237,-0.19870370370370372],[0.041458333333333285,-0.28351851851851856],[0.07385416666666676,-0.3453703703703704],[0.07385416666666676,-0.3453703703703704],[0.11520833333333323,-0.4262962962962963],[0.16260416666666658,-0.49962962962962965],[0.1056250000000001,-0.5455555555555556],[0.1056250000000001,-0.5455555555555556],[0.0818749999999999,-0.55],[0.09364583333333343,-0.5898148148148148],[0.06218750000000005,-0.5366666666666667],[0.0671875,-0.5740740740740741],[0.0671875,-0.5740740740740741],[0.07218749999999995,-0.6114814814814815],[0.10750000000000005,-0.6027777777777777],[0.10750000000000005,-0.6027777777777777],[0.14874999999999997,-0.6342592592592593],[0.19249999999999995,-0.6279629629629631],[0.19249999999999995,-0.6279629629629631],[0.24510416666666662,-0.6037037037037037],[0.34916666666666674,-0.5461111111111111],[0.44208333333333344,-0.5761111111111111],[0.44208333333333344,-0.5761111111111111],[0.5332291666666668,-0.6364814814814814],[0.6489583333333333,-0.6974074074074075],[0.7313541666666665,-0.7127777777777777],[0.7313541666666665,-0.7127777777777777],[0.7461458333333333,-0.6644444444444445],[0.7808333333333333,-0.6833333333333333],[0.8223958333333333,-0.6849999999999999],[0.8276041666666667,-0.6622222222222223],[0.82625,-0.6105555555555555],[0.8033333333333333,-0.5312962962962963],[0.8033333333333333,-0.5312962962962963],[0.7732291666666666,-0.48574074074074075],[0.7732291666666666,-0.48574074074074075],[0.745,-0.3925925925925926],[0.745,-0.3925925925925926],[0.7057291666666666,-0.3427777777777778],[0.6508333333333333,-0.26962962962962966],[0.6635416666666667,-0.2601851851851852],[0.6519791666666668,-0.19796296296296292],[0.6519791666666668,-0.19796296296296292],[0.6467708333333334,-0.13851851851851854],[0.6467708333333334,-0.13851851851851854],[0.6659375,-0.1205555555555556],[0.6820833333333333,-0.17111111111111107],[0.6834374999999999,-0.23944444444444446],[0.6919791666666666,-0.24388888888888888],[0.6919791666666666,-0.24388888888888888],[0.6877083333333334,-0.27907407407407403],[0.6698958333333332,-0.27037037037037037],[0.6632291666666668,-0.24740740740740744],[0.6632291666666668,-0.24740740740740744],[0.6235416666666665,-0.21814814814814817],[0.58,-0.20388888888888893],[0.58,-0.20388888888888893],[0.5578125,-0.20129629629629628],[0.5444791666666667,-0.23111111111111113],[0.5444791666666667,-0.23111111111111113],[0.5283333333333334,-0.23148148148148148],[0.5283333333333334,-0.23148148148148148],[0.5036458333333333,-0.19611111111111107],[0.5036458333333333,-0.19611111111111107],[0.4898958333333333,-0.23407407407407405],[0.4878124999999999,-0.24685185185185188],[0.4847916666666668,-0.2418518518518519],[0.4847916666666668,-0.2418518518518519],[0.45947916666666655,-0.27259259259259255],[0.4671875,-0.3096296296296296],[0.4671875,-0.3096296296296296],[0.4730208333333332,-0.3490740740740741],[0.4453125,-0.36148148148148146],[0.4083333333333333,-0.34685185185185186],[0.4083333333333333,-0.34685185185185186],[0.40302083333333344,-0.38555555555555554],[0.44479166666666664,-0.44611111111111107],[0.4756249999999999,-0.46351851851851855],[0.4756249999999999,-0.46351851851851855],[0.4744791666666667,-0.4794444444444444],[0.4539583333333333,-0.5322222222222222],[0.46239583333333345,-0.5881481481481482],[0.4708333333333333,-0.6440740740740741],[0.4983333333333334,-0.6444444444444445],[0.5316666666666667,-0.6574074074074074],[0.5032291666666666,-0.6433333333333333],[0.5032291666666666,-0.6433333333333333],[0.4571875000000001,-0.5831481481481481],[0.3629166666666668,-0.5496296296296297],[0.2724999999999999,-0.5570370370370371],[0.2724999999999999,-0.5570370370370371],[0.21833333333333324,-0.5851851851851851],[0.15416666666666667,-0.5583333333333333],[0.08781249999999995,-0.5301851851851852],[0.08781249999999995,-0.5301851851851852],[0.06614583333333333,-0.534074074074074],[0.002812500000000047,-0.5388888888888889],[-0.05656249999999995,-0.5520370370370371],[-0.05656249999999995,-0.5520370370370371],[-0.050729166666666714,-0.5766666666666667],[0.029895833333333382,-0.6433333333333333],[0.14572916666666677,-0.7429629629629629],[0.14572916666666677,-0.7429629629629629],[0.24354166666666663,-0.7796296296296297],[0.24354166666666663,-0.7796296296296297],[0.31437499999999996,-0.8231481481481482],[0.378125,-0.8427777777777778],[0.4261458333333332,-0.8285185185185184],[0.42947916666666663,-0.7822222222222222],[0.44500000000000006,-0.7737037037037037],[0.44947916666666665,-0.7568518518518518],[0.44083333333333335,-0.7501851851851852],[0.3377083333333334,-0.6844444444444445],[0.3377083333333334,-0.6844444444444445],[0.2185416666666666,-0.5827777777777777],[0.09447916666666671,-0.5157407407407407],[0.019166666666666644,-0.4035185185185185],[-0.05239583333333329,-0.36944444444444446],[-0.10906250000000005,-0.3701851851851851],[-0.15916666666666662,-0.3638888888888889],[-0.17625000000000005,-0.3705555555555556],[-0.18624999999999994,-0.3772222222222222],[-0.1782291666666667,-0.40629629629629627],[-0.1782291666666667,-0.40629629629629627],[-0.18583333333333332,-0.4537037037037037],[-0.2029166666666666,-0.49129629629629634],[-0.20062500000000003,-0.5194444444444445],[-0.22250000000000003,-0.5718518518518518],[-0.19281250000000003,-0.5838888888888889],[-0.13677083333333329,-0.5700000000000001],[-0.07197916666666669,-0.5701851851851851],[-0.026979166666666644,-0.5918518518518519],[0.022812499999999975,-0.6131481481481482],[0.05531250000000002,-0.6229629629629629],[0.10854166666666672,-0.615],[0.10854166666666672,-0.615],[0.15041666666666675,-0.544074074074074],[0.22312500000000005,-0.4735185185185185],[0.30489583333333337,-0.39388888888888884],[0.3844791666666666,-0.3477777777777778],[0.40812499999999996,-0.3098148148148148],[0.43781249999999994,-0.29555555555555557],[0.45947916666666655,-0.21351851851851855],[0.45947916666666655,-0.21351851851851855],[0.47781250000000003,-0.14944444444444444],[0.47781250000000003,-0.14944444444444444],[0.5146874999999999,-0.0787037037037037],[0.5146874999999999,-0.0787037037037037],[0.5345833333333334,0.002962962962963005],[0.5955208333333334,0.012777777777777735],[0.5900000000000001,0.06537037037037029],[0.5900000000000001,0.06537037037037029],[0.5546875,0.12148148148148152],[0.49979166666666663,0.1883333333333334],[0.48427083333333343,0.22888888888888892],[0.45499999999999996,0.2857407407407407],[0.4335416666666667,0.31425925925925935],[0.396875,0.3955555555555556],[0.34562499999999996,0.469074074074074],[0.32802083333333343,0.4888888888888889],[0.28072916666666664,0.5175925925925926],[0.28072916666666664,0.5175925925925926],[0.2677083333333333,0.5037037037037037],[0.2677083333333333,0.5037037037037037],[0.25583333333333325,0.46277777777777773],[0.2478125000000001,0.4225925925925927],[0.2478125000000001,0.4225925925925927],[0.19697916666666657,0.4094444444444445],[0.15010416666666657,0.4087037037037038],[0.10322916666666657,0.40796296296296286],[0.0806250000000001,0.36425925925925934],[0.06302083333333333,0.3272222222222223],[0.06302083333333333,0.3272222222222223],[0.0002083333333333807,0.3172222222222221],[-0.05270833333333336,0.29314814814814805],[-0.12010416666666662,0.2920370370370371],[-0.16791666666666671,0.30537037037037035],[-0.16791666666666671,0.30537037037037035],[-0.16447916666666665,0.2455555555555556],[-0.1280208333333333,0.15203703703703708],[-0.103125,0.06055555555555564],[-0.103125,0.06055555555555564],[-0.06583333333333338,-0.027037037037037078],[-0.06052083333333336,-0.07148148148148152],[-0.06052083333333336,-0.07148148148148152],[-0.030416666666666713,-0.15870370370370368],[-0.0003124999999999526,-0.18462962962962962],[-0.0012500000000000473,-0.19722222222222222],[0.034687499999999954,-0.25037037037037035],[0.07062499999999995,-0.30351851851851847],[0.03239583333333336,-0.23851851851851855],[-0.004999999999999952,-0.1574074074074074],[-0.05,-0.06851851851851852],[-0.10739583333333336,0.01648148148148144],[-0.13895833333333332,0.0698148148148149],[-0.17093750000000002,0.20314814814814824],[-0.17093750000000002,0.20314814814814824],[-0.17250000000000001,0.27518518518518525],[-0.1282291666666667,0.34148148148148144],[-0.09697916666666669,0.4281481481481482],[-0.09697916666666669,0.4281481481481482],[-0.06572916666666669,0.5148148148148148],[-0.02374999999999995,0.5746296296296295],[0.0375,0.5827777777777778],[0.0375,0.5827777777777778],[0.08875000000000005,0.5281481481481483],[0.14489583333333325,0.4946296296296297],[0.20729166666666668,0.4335185185185186],[0.20729166666666668,0.4335185185185186],[0.23916666666666658,0.3],[0.2755208333333333,0.1824074074074074],[0.2828125,0.056666666666666705],[0.2828125,0.056666666666666705],[0.28114583333333343,-0.07092592592592595],[0.27218749999999997,-0.13518518518518519],[0.2775000000000001,-0.21240740740740738],[0.27760416666666665,-0.290925925925926],[0.27760416666666665,-0.290925925925926],[0.3009375000000001,-0.3396296296296296],[0.33395833333333325,-0.40851851851851856],[0.37395833333333334,-0.4542592592592593],[0.37395833333333334,-0.4542592592592593],[0.36843750000000003,-0.46111111111111114],[0.3478125000000001,-0.49000000000000005],[0.3478125000000001,-0.49000000000000005],[0.3462500000000001,-0.49370370370370376],[0.37739583333333326,-0.5098148148148148],[0.4183333333333332,-0.5857407407407408],[0.46145833333333336,-0.6703703703703704],[0.4879166666666668,-0.6998148148148148],[0.5087500000000001,-0.7040740740740741],[0.5087500000000001,-0.7040740740740741],[0.5111458333333334,-0.6983333333333334],[0.5111458333333334,-0.6983333333333334],[0.4890625,-0.6994444444444444],[0.5344791666666666,-0.7035185185185184],[0.5905208333333334,-0.7014814814814815],[0.5905208333333334,-0.7014814814814815],[0.6414583333333332,-0.7053703703703703],[0.6420833333333335,-0.7072222222222222],[0.6626041666666665,-0.7414814814814814],[0.6626041666666665,-0.7414814814814814],[0.6721874999999999,-0.7698148148148148],[0.6461458333333333,-0.7755555555555556],[0.5756249999999999,-0.7524074074074074],[0.5102083333333333,-0.7570370370370371],[0.45166666666666655,-0.754074074074074],[0.3650000000000001,-0.7298148148148148],[0.2783333333333334,-0.7055555555555556],[0.2783333333333334,-0.7055555555555556],[0.1851041666666667,-0.6729629629629629],[0.11124999999999995,-0.6383333333333333],[0.014999999999999977,-0.5748148148148148],[0.014999999999999977,-0.5748148148148148],[-0.06791666666666671,-0.5485185185185185],[-0.11124999999999995,-0.4837037037037037],[-0.11010416666666671,-0.4477777777777778],[-0.11010416666666671,-0.4477777777777778],[-0.11010416666666671,-0.41444444444444445],[-0.10322916666666669,-0.40777777777777774],[-0.08406250000000005,-0.42314814814814816],[-0.06489583333333329,-0.43851851851851853],[-0.0515625,-0.49444444444444446],[-0.025416666666666643,-0.5431481481481482],[-0.008437500000000023,-0.5512962962962963],[-0.008437500000000023,-0.5512962962962963],[-0.00604166666666662,-0.5242592592592593],[-0.004166666666666667,-0.5561111111111111],[-0.014999999999999977,-0.5346296296296296],[-0.014999999999999977,-0.5346296296296296],[-0.03145833333333338,-0.48574074074074075],[-0.023958333333333335,-0.4455555555555556],[-0.023958333333333335,-0.4455555555555556],[-0.025312499999999953,-0.4022222222222222],[-0.015104166666666667,-0.4124074074074074],[-0.011249999999999953,-0.3520370370370371],[-0.02052083333333338,-0.26944444444444443],[-0.01260416666666669,-0.2131481481481482],[-0.01260416666666669,-0.2131481481481482],[0.005624999999999976,-0.16314814814814818],[0.0421875,-0.09444444444444444],[0.10499999999999995,-0.07703703703703708]]","[[0.12572916666666673,0.3212962962962963,0.00039999997615325356],[0.12572916666666673,0.3212962962962963,0.05360000002384169],[0.11572916666666658,0.27240740740740743,0.061499999999995225],[0.10656249999999995,0.27462962962962956,0.07949999999999591],[0.09239583333333339,0.294074074074074,0.09910000002383867],[0.09239583333333339,0.294074074074074,0.11039999997615979],[0.08552083333333324,0.2959259259259258,0.1268000000119187],[0.07822916666666657,0.30277777777777776,0.1443999999761587],[0.07510416666666657,0.31055555555555564,0.16019999998808032],[0.07927083333333323,0.30759259259259264,0.17780000001192064],[0.08947916666666676,0.28277777777777785,0.19350000000000023],[0.10291666666666661,0.2757407407407407,0.21049999999999613],[0.10802083333333339,0.25870370370370377,0.22680000001192013],[0.10802083333333339,0.25870370370370377,0.2436000000238394],[0.1265625,0.3007407407407407,0.26019999998807464],[0.14427083333333332,0.2916666666666667,0.276899999976159],[0.16416666666666657,0.29240740740740734,0.29350000000000165],[0.16416666666666657,0.29240740740740734,0.3101999999880789],[0.17822916666666658,0.3168518518518519,0.32689999997615615],[0.1857291666666666,0.33425925925925926,0.3434999999999988],[0.22208333333333338,0.32981481481481484,0.36019999998807606],[0.22208333333333338,0.32981481481481484,0.3768000000119187],[0.25833333333333336,0.3050000000000001,0.39349999999999596],[0.2484375,0.2861111111111111,0.4101999999880803],[0.25114583333333323,0.2338888888888888,0.42710000002384163],[0.25114583333333323,0.2338888888888888,0.44360000002384226],[0.24552083333333338,0.23740740740740748,0.4603000000119195],[0.22916666666666666,0.21648148148148144,0.4773000000119225],[0.21281249999999996,0.1955555555555556,0.4934999999999974],[0.1953125,0.1705555555555556,0.5118000000119167],[0.19822916666666662,0.13222222222222219,0.5273000000119197],[0.1508333333333333,0.10407407407407415,0.5435000000000016],[0.07458333333333324,0.0977777777777777,0.5603999999761555],[-0.04354166666666662,0.12666666666666662,0.5794999999999959],[-0.12947916666666662,0.15055555555555547,0.5958999999761545],[-0.12947916666666662,0.15055555555555547,0.6101999999880761],[-0.2,0.1985185185185186,0.6268000000119187],[-0.256875,0.18944444444444436,0.6456000000238404],[-0.30843750000000003,0.17018518518518513,0.6636000000238411],[-0.3651041666666667,0.15759259259259265,0.6794999999999973],[-0.4114583333333333,0.13648148148148156,0.6939999999999955],[-0.48020833333333335,0.15851851851851856,0.7101999999880775],[-0.5029166666666667,0.13796296296296295,0.7268000000119201],[-0.525625,0.11740740740740736,0.7434999999999974],[-0.4877083333333333,0.08444444444444449,0.7621000000238425],[-0.4358333333333333,0.05055555555555547,0.7794999999999987],[-0.4358333333333333,0.05055555555555547,0.7936000000238366],[-0.40989583333333335,0.020740740740740823,0.8101000000238372],[-0.40989583333333335,0.020740740740740823,0.8268999999761562],[-0.4048958333333334,0.011666666666666582,0.8436999999880754],[-0.4048958333333334,0.011666666666666582,0.8603000000119181],[-0.4022916666666667,0.010370370370370412,0.8768999999761533],[-0.3932291666666667,0.000925925925925926,0.893499999999996],[-0.39177083333333335,0.010740740740740657,0.9101999999880803],[-0.39177083333333335,0.010740740740740657,0.9268000000119159],[-0.3883333333333333,-0.009259259259259259,0.9436000000238423],[-0.3727083333333333,0.008888888888888804,0.9621999999880799],[-0.3609375,0.018148148148148063,0.9839999999999947],[-0.3609375,0.018148148148148063,0.9936000000238394],[-0.28718750000000004,-0.04148148148148144,1.010699999988077],[-0.23552083333333335,-0.05499999999999998,1.027000000000001],[-0.22166666666666662,-0.04092592592592597,1.0486000000238391],[-0.22166666666666662,-0.04092592592592597,1.0603999999761555],[-0.1486458333333334,-0.13277777777777774,1.0771999999880748],[-0.07552083333333333,-0.16648148148148145,1.0941999999880778],[-0.0037500000000000237,-0.19870370370370372,1.1138000000119206],[-0.0037500000000000237,-0.19870370370370372,1.1271000000238374],[0.041458333333333285,-0.28351851851851856,1.1438000000119217],[0.07385416666666676,-0.3453703703703704,1.170499999999997],[0.07385416666666676,-0.3453703703703704,1.1799999999999997],[0.11520833333333323,-0.4262962962962963,1.1938000000119189],[0.16260416666666658,-0.49962962962962965,1.21519999998808],[0.1056250000000001,-0.5455555555555556,1.2361999999880737],[0.1056250000000001,-0.5455555555555556,1.2441999999880764],[0.0818749999999999,-0.55,1.2605000000000004],[0.09364583333333343,-0.5898148148148148,1.2788000000119197],[0.06218750000000005,-0.5366666666666667,1.298399999976155],[0.0671875,-0.5740740740740741,1.3144999999999953],[0.0671875,-0.5740740740740741,1.3269999999999982],[0.07218749999999995,-0.6114814814814815,1.3438000000119175],[0.10750000000000005,-0.6027777777777777,1.3658999999761576],[0.10750000000000005,-0.6027777777777777,1.3769999999999953],[0.14874999999999997,-0.6342592592592593,1.3938999999761563],[0.19249999999999995,-0.6279629629629631,1.4173000000119202],[0.19249999999999995,-0.6279629629629631,1.4269999999999996],[0.24510416666666662,-0.6037037037037037,1.4438999999761535],[0.34916666666666674,-0.5461111111111111,1.464399999976159],[0.44208333333333344,-0.5761111111111111,1.4841000000238367],[0.44208333333333344,-0.5761111111111111,1.493800000011916],[0.5332291666666668,-0.6364814814814814,1.5105000000000004],[0.6489583333333333,-0.6974074074074075,1.52919999998808],[0.7313541666666665,-0.7127777777777777,1.5489999999999995],[0.7313541666666665,-0.7127777777777777,1.560300000011921],[0.7461458333333333,-0.6644444444444445,1.5771000000238402],[0.7808333333333333,-0.6833333333333333,1.5936999999880754],[0.8223958333333333,-0.6849999999999999,1.6158999999761576],[0.8276041666666667,-0.6622222222222223,1.63210000002384],[0.82625,-0.6105555555555555,1.647899999976154],[0.8033333333333333,-0.5312962962962963,1.6706999999880807],[0.8033333333333333,-0.5312962962962963,1.6793999999761553],[0.7732291666666666,-0.48574074074074075,1.6935000000000002],[0.7732291666666666,-0.48574074074074075,1.7101999999880775],[0.745,-0.3925925925925926,1.7268000000119201],[0.745,-0.3925925925925926,1.7434999999999974],[0.7057291666666666,-0.3427777777777778,1.76010000002384],[0.6508333333333333,-0.26962962962962966,1.7791000000238384],[0.6635416666666667,-0.2601851851851852,1.793899999976155],[0.6519791666666668,-0.19796296296296292,1.8156999999880767],[0.6519791666666668,-0.19796296296296292,1.8318999999761587],[0.6467708333333334,-0.13851851851851854,1.8438000000119175],[0.6467708333333334,-0.13851851851851854,1.8604999999999947],[0.6659375,-0.1205555555555556,1.8808999999761582],[0.6820833333333333,-0.17111111111111107,1.8969999999999985],[0.6834374999999999,-0.23944444444444446,1.9125000000000014],[0.6919791666666666,-0.24388888888888888,1.9323000000119208],[0.6919791666666666,-0.24388888888888888,1.9436999999880769],[0.6877083333333334,-0.27907407407407403,1.9604999999999961],[0.6698958333333332,-0.27037037037037037,1.9771000000238388],[0.6632291666666668,-0.24740740740740744,1.999199999988079],[0.6632291666666668,-0.24740740740740744,2.0109999999999957],[0.6235416666666665,-0.21814814814814817,2.027100000023843],[0.58,-0.20388888888888893,2.050199999988074],[0.58,-0.20388888888888893,2.0603999999761555],[0.5578125,-0.20129629629629628,2.07710000002384],[0.5444791666666667,-0.23111111111111113,2.1030000000000015],[0.5444791666666667,-0.23111111111111113,2.120199999988074],[0.5283333333333334,-0.23148148148148148,2.1328999999761535],[0.5283333333333334,-0.23148148148148148,2.1438000000119217],[0.5036458333333333,-0.19611111111111107,2.163399999976157],[0.5036458333333333,-0.19611111111111107,2.1768999999761576],[0.4898958333333333,-0.23407407407407405,2.193699999988077],[0.4878124999999999,-0.24685185185185188,2.2146999999880776],[0.4847916666666668,-0.2418518518518519,2.229999999999997],[0.4847916666666668,-0.2418518518518519,2.243699999988074],[0.45947916666666655,-0.27259259259259255,2.2605000000000004],[0.4671875,-0.3096296296296296,2.28219999998808],[0.4671875,-0.3096296296296296,2.2936000000238366],[0.4730208333333332,-0.3490740740740741,2.310300000011921],[0.4453125,-0.36148148148148146,2.3268000000119216],[0.4083333333333333,-0.34685185185185186,2.349499999999999],[0.4083333333333333,-0.34685185185185186,2.36039999997616],[0.40302083333333344,-0.38555555555555554,2.377199999988079],[0.44479166666666664,-0.44611111111111107,2.3936999999880797],[0.4756249999999999,-0.46351851851851855,2.414899999976157],[0.4756249999999999,-0.46351851851851855,2.426800000011916],[0.4744791666666667,-0.4794444444444444,2.4435000000000002],[0.4539583333333333,-0.5322222222222222,2.462100000023838],[0.46239583333333345,-0.5881481481481482,2.480100000023839],[0.4708333333333333,-0.6440740740740741,2.4941999999880764],[0.4983333333333334,-0.6444444444444445,2.5101999999880746],[0.5316666666666667,-0.6574074074074074,2.5301999999880778],[0.5032291666666666,-0.6433333333333333,2.545399999976155],[0.5032291666666666,-0.6433333333333333,2.560199999988079],[0.4571875000000001,-0.5831481481481481,2.57710000002384],[0.3629166666666668,-0.5496296296296297,2.5933999999761568],[0.2724999999999999,-0.5570370370370371,2.6101000000238415],[0.2724999999999999,-0.5570370370370371,2.6268999999761533],[0.21833333333333324,-0.5851851851851851,2.643600000023838],[0.15416666666666667,-0.5583333333333333,2.6601000000238386],[0.08781249999999995,-0.5301851851851852,2.676800000011916],[0.08781249999999995,-0.5301851851851852,2.6935000000000002],[0.06614583333333333,-0.534074074074074,2.7101999999880775],[0.002812500000000047,-0.5388888888888889,2.72680000001192],[-0.05656249999999995,-0.5520370370370371,2.7434999999999974],[-0.05656249999999995,-0.5520370370370371,2.7601999999880746],[-0.050729166666666714,-0.5766666666666667,2.7768000000119173],[0.029895833333333382,-0.6433333333333333,2.794699999988076],[0.14572916666666677,-0.7429629629629629,2.811100000023842],[0.14572916666666677,-0.7429629629629629,2.826899999976156],[0.24354166666666663,-0.7796296296296297,2.843499999999999],[0.24354166666666663,-0.7796296296296297,2.860199999988076],[0.31437499999999996,-0.8231481481481482,2.8768999999761533],[0.378125,-0.8427777777777778,2.894199999988075],[0.4261458333333332,-0.8285185185185184,2.9133000000119225],[0.42947916666666663,-0.7822222222222222,2.9278000000119206],[0.44500000000000006,-0.7737037037037037,2.9439999999999955],[0.44947916666666665,-0.7568518518518518,2.9653999999761567],[0.44083333333333335,-0.7501851851851852,2.980699999988076],[0.3377083333333334,-0.6844444444444445,2.997499999999995],[0.3377083333333334,-0.6844444444444445,3.01010000002384],[0.2185416666666666,-0.5827777777777777,3.027100000023843],[0.09447916666666671,-0.5157407407407407,3.043999999999997],[0.019166666666666644,-0.4035185185185185,3.0606000000238396],[-0.05239583333333329,-0.36944444444444446,3.076899999976156],[-0.10906250000000005,-0.3701851851851851,3.095699999988078],[-0.15916666666666662,-0.3638888888888889,3.113999999999997],[-0.17625000000000005,-0.3705555555555556,3.130399999976156],[-0.18624999999999994,-0.3772222222222222,3.148100000023838],[-0.1782291666666667,-0.40629629629629627,3.166800000011918],[-0.1782291666666667,-0.40629629629629627,3.176800000011916],[-0.18583333333333332,-0.4537037037037037,3.193399999976158],[-0.2029166666666666,-0.49129629629629634,3.210100000023843],[-0.20062500000000003,-0.5194444444444445,3.22680000001192],[-0.22250000000000003,-0.5718518518518518,3.2478999999761555],[-0.19281250000000003,-0.5838888888888889,3.263800000011919],[-0.13677083333333329,-0.5700000000000001,3.28030000001192],[-0.07197916666666669,-0.5701851851851851,3.2951000000238366],[-0.026979166666666644,-0.5918518518518519,3.314699999988079],[0.022812499999999975,-0.6131481481481482,3.3305000000000007],[0.05531250000000002,-0.6229629629629629,3.346600000023841],[0.10854166666666672,-0.615,3.3631000000238416],[0.10854166666666672,-0.615,3.3768000000119187],[0.15041666666666675,-0.544074074074074,3.393499999999996],[0.22312500000000005,-0.4735185185185185,3.4101999999880803],[0.30489583333333337,-0.39388888888888884,3.426800000011916],[0.3844791666666666,-0.3477777777777778,3.444399999976156],[0.40812499999999996,-0.3098148148148148,3.461199999988075],[0.43781249999999994,-0.29555555555555557,3.47680000001192],[0.45947916666666655,-0.21351851851851855,3.4934999999999974],[0.45947916666666655,-0.21351851851851855,3.5101999999880746],[0.47781250000000003,-0.14944444444444444,3.526899999976159],[0.47781250000000003,-0.14944444444444444,3.5435000000000016],[0.5146874999999999,-0.0787037037037037,3.560300000011921],[0.5146874999999999,-0.0787037037037037,3.5768000000119216],[0.5345833333333334,0.002962962962963005,3.593499999999999],[0.5955208333333334,0.012777777777777735,3.6128999999761575],[0.5900000000000001,0.06537037037037029,3.627199999988079],[0.5900000000000001,0.06537037037037029,3.643499999999996],[0.5546875,0.12148148148148152,3.6601999999880803],[0.49979166666666663,0.1883333333333334,3.6794999999999973],[0.48427083333333343,0.22888888888888892,3.6939999999999955],[0.45499999999999996,0.2857407407407407,3.7123999999761566],[0.4335416666666667,0.31425925925925935,3.7276999999880758],[0.396875,0.3955555555555556,3.744399999976153],[0.34562499999999996,0.469074074074074,3.762300000011919],[0.32802083333333343,0.4888888888888889,3.7816000000238432],[0.28072916666666664,0.5175925925925926,3.798499999999997],[0.28072916666666664,0.5175925925925926,3.810199999988079],[0.2677083333333333,0.5037037037037037,3.826899999976156],[0.2677083333333333,0.5037037037037037,3.843499999999999],[0.25583333333333325,0.46277777777777773,3.860300000011918],[0.2478125000000001,0.4225925925925927,3.880399999976156],[0.2478125000000001,0.4225925925925927,3.893499999999996],[0.19697916666666657,0.4094444444444445,3.9101999999880803],[0.15010416666666657,0.4087037037037038,3.929800000011916],[0.10322916666666657,0.40796296296296286,3.947499999999998],[0.0806250000000001,0.36425925925925934,3.9634999999999962],[0.06302083333333333,0.3272222222222223,3.9818999999761573],[0.06302083333333333,0.3272222222222223,3.9934999999999974],[0.0002083333333333807,0.3172222222222221,4.010199999988075],[-0.05270833333333336,0.29314814814814805,4.027199999988078],[-0.12010416666666662,0.2920370370370371,4.043500000000002],[-0.16791666666666671,0.30537037037037035,4.067399999976153],[-0.16791666666666671,0.30537037037037035,4.076899999976156],[-0.16447916666666665,0.2455555555555556,4.0938000000119175],[-0.1280208333333333,0.15203703703703708,4.1145],[-0.103125,0.06055555555555564,4.134],[-0.103125,0.06055555555555564,4.143499999999996],[-0.06583333333333338,-0.027037037037037078,4.160399999976157],[-0.06052083333333336,-0.07148148148148152,4.177899999976155],[-0.06052083333333336,-0.07148148148148152,4.197699999988075],[-0.030416666666666713,-0.15870370370370368,4.2101999999880775],[-0.0003124999999999526,-0.18462962962962962,4.229100000023841],[-0.0012500000000000473,-0.19722222222222222,4.244100000023842],[0.034687499999999954,-0.25037037037037035,4.265000000000001],[0.07062499999999995,-0.30351851851851847,4.281500000000001],[0.03239583333333336,-0.23851851851851855,4.2976000000238415],[-0.004999999999999952,-0.1574074074074074,4.314800000011921],[-0.05,-0.06851851851851852,4.33119999998808],[-0.10739583333333336,0.01648148148148144,4.348199999988076],[-0.13895833333333332,0.0698148148148149,4.364999999999995],[-0.17093750000000002,0.20314814814814824,4.3814999999999955],[-0.17093750000000002,0.20314814814814824,4.393499999999996],[-0.17250000000000001,0.27518518518518525,4.41019999998808],[-0.1282291666666667,0.34148148148148144,4.427999999999997],[-0.09697916666666669,0.4281481481481482,4.4453999999761535],[-0.09697916666666669,0.4281481481481482,4.4603000000119195],[-0.06572916666666669,0.5148148148148148,4.47680000001192],[-0.02374999999999995,0.5746296296296295,4.493499999999997],[0.0375,0.5827777777777778,4.511699999988075],[0.0375,0.5827777777777778,4.5313000000119175],[0.08875000000000005,0.5281481481481483,4.543500000000002],[0.14489583333333325,0.4946296296296297,4.562600000023842],[0.20729166666666668,0.4335185185185186,4.581100000023838],[0.20729166666666668,0.4335185185185186,4.59880000001192],[0.23916666666666658,0.3,4.610300000011918],[0.2755208333333333,0.1824074074074074,4.629600000023842],[0.2828125,0.056666666666666705,4.6498999999761566],[0.2828125,0.056666666666666705,4.660399999976157],[0.28114583333333343,-0.07092592592592595,4.676899999976158],[0.27218749999999997,-0.13518518518518519,4.695800000011921],[0.2775000000000001,-0.21240740740740738,4.714899999976154],[0.27760416666666665,-0.290925925925926,4.733199999988081],[0.27760416666666665,-0.290925925925926,4.743399999976155],[0.3009375000000001,-0.3396296296296296,4.76010000002384],[0.33395833333333325,-0.40851851851851856,4.777000000000001],[0.37395833333333334,-0.4542592592592593,4.796899999976155],[0.37395833333333334,-0.4542592592592593,4.810199999988079],[0.36843750000000003,-0.46111111111111114,4.8268000000119216],[0.3478125000000001,-0.49000000000000005,4.84919999998808],[0.3478125000000001,-0.49000000000000005,4.860199999988076],[0.3462500000000001,-0.49370370370370376,4.876800000011919],[0.37739583333333326,-0.5098148148148148,4.894199999988075],[0.4183333333333332,-0.5857407407407408,4.910699999988076],[0.46145833333333336,-0.6703703703703704,4.927],[0.4879166666666668,-0.6998148148148148,4.948199999988077],[0.5087500000000001,-0.7040740740740741,4.966800000011922],[0.5087500000000001,-0.7040740740740741,4.97680000001192],[0.5111458333333334,-0.6983333333333334,4.993499999999997],[0.5111458333333334,-0.6983333333333334,5.01010000002384],[0.4890625,-0.6994444444444444,5.026800000011917],[0.5344791666666666,-0.7035185185185184,5.043899999976155],[0.5905208333333334,-0.7014814814814815,5.063300000011921],[0.5905208333333334,-0.7014814814814815,5.0766999999880795],[0.6414583333333332,-0.7053703703703703,5.093399999976157],[0.6420833333333335,-0.7072222222222222,5.110300000011918],[0.6626041666666665,-0.7414814814814814,5.126800000011919],[0.6626041666666665,-0.7414814814814814,5.143499999999996],[0.6721874999999999,-0.7698148148148148,5.16019999998808],[0.6461458333333333,-0.7755555555555556,5.179499999999997],[0.5756249999999999,-0.7524074074074074,5.195999999999998],[0.5102083333333333,-0.7570370370370371,5.214300000011917],[0.45166666666666655,-0.754074074074074,5.230199999988081],[0.3650000000000001,-0.7298148148148148,5.246699999988074],[0.2783333333333334,-0.7055555555555556,5.2643000000119216],[0.2783333333333334,-0.7055555555555556,5.276800000011917],[0.1851041666666667,-0.6729629629629629,5.29339999997616],[0.11124999999999995,-0.6383333333333333,5.314],[0.014999999999999977,-0.5748148148148148,5.330699999988077],[0.014999999999999977,-0.5748148148148148,5.343899999976159],[-0.06791666666666671,-0.5485185185185185,5.3601000000238415],[-0.11124999999999995,-0.4837037037037037,5.37910000002384],[-0.11010416666666671,-0.4477777777777778,5.397500000000001],[-0.11010416666666671,-0.4477777777777778,5.410100000023839],[-0.11010416666666671,-0.41444444444444445,5.426800000011916],[-0.10322916666666669,-0.40777777777777774,5.4453999999761535],[-0.08406250000000005,-0.42314814814814816,5.4609999999999985],[-0.06489583333333329,-0.43851851851851853,5.481600000023839],[-0.0515625,-0.49444444444444446,5.497699999988079],[-0.025416666666666643,-0.5431481481481482,5.5148999999761585],[-0.008437500000000023,-0.5512962962962963,5.530499999999996],[-0.008437500000000023,-0.5512962962962963,5.543500000000002],[-0.00604166666666662,-0.5242592592592593,5.5603999999761555],[-0.004166666666666667,-0.5561111111111111,5.579000000000001],[-0.014999999999999977,-0.5346296296296296,5.595600000023843],[-0.014999999999999977,-0.5346296296296296,5.6101000000238415],[-0.03145833333333338,-0.48574074074074075,5.626899999976153],[-0.023958333333333335,-0.4455555555555556,5.647199999988075],[-0.023958333333333335,-0.4455555555555556,5.660100000023839],[-0.025312499999999953,-0.4022222222222222,5.676800000011916],[-0.015104166666666667,-0.4124074074074074,5.69760000002384],[-0.011249999999999953,-0.3520370370370371,5.71480000001192],[-0.02052083333333338,-0.26944444444444443,5.730800000011918],[-0.01260416666666669,-0.2131481481481482,5.750100000023842],[-0.01260416666666669,-0.2131481481481482,5.76010000002384],[0.005624999999999976,-0.16314814814814818,5.776800000011917],[0.0421875,-0.09444444444444444,5.794300000011916],[0.10499999999999995,-0.07703703703703708,5.811999999999998]]","[0.00039999997615325356,0.05360000002384169,0.061499999999995225,0.07949999999999591,0.09910000002383867,0.11039999997615979,0.1268000000119187,0.1443999999761587,0.16019999998808032,0.17780000001192064,0.19350000000000023,0.21049999999999613,0.22680000001192013,0.2436000000238394,0.26019999998807464,0.276899999976159,0.29350000000000165,0.3101999999880789,0.32689999997615615,0.3434999999999988,0.36019999998807606,0.3768000000119187,0.39349999999999596,0.4101999999880803,0.42710000002384163,0.44360000002384226,0.4603000000119195,0.4773000000119225,0.4934999999999974,0.5118000000119167,0.5273000000119197,0.5435000000000016,0.5603999999761555,0.5794999999999959,0.5958999999761545,0.6101999999880761,0.6268000000119187,0.6456000000238404,0.6636000000238411,0.6794999999999973,0.6939999999999955,0.7101999999880775,0.7268000000119201,0.7434999999999974,0.7621000000238425,0.7794999999999987,0.7936000000238366,0.8101000000238372,0.8268999999761562,0.8436999999880754,0.8603000000119181,0.8768999999761533,0.893499999999996,0.9101999999880803,0.9268000000119159,0.9436000000238423,0.9621999999880799,0.9839999999999947,0.9936000000238394,1.010699999988077,1.027000000000001,1.0486000000238391,1.0603999999761555,1.0771999999880748,1.0941999999880778,1.1138000000119206,1.1271000000238374,1.1438000000119217,1.170499999999997,1.1799999999999997,1.1938000000119189,1.21519999998808,1.2361999999880737,1.2441999999880764,1.2605000000000004,1.2788000000119197,1.298399999976155,1.3144999999999953,1.3269999999999982,1.3438000000119175,1.3658999999761576,1.3769999999999953,1.3938999999761563,1.4173000000119202,1.4269999999999996,1.4438999999761535,1.464399999976159,1.4841000000238367,1.493800000011916,1.5105000000000004,1.52919999998808,1.5489999999999995,1.560300000011921,1.5771000000238402,1.5936999999880754,1.6158999999761576,1.63210000002384,1.647899999976154,1.6706999999880807,1.6793999999761553,1.6935000000000002,1.7101999999880775,1.7268000000119201,1.7434999999999974,1.76010000002384,1.7791000000238384,1.793899999976155,1.8156999999880767,1.8318999999761587,1.8438000000119175,1.8604999999999947,1.8808999999761582,1.8969999999999985,1.9125000000000014,1.9323000000119208,1.9436999999880769,1.9604999999999961,1.9771000000238388,1.999199999988079,2.0109999999999957,2.027100000023843,2.050199999988074,2.0603999999761555,2.07710000002384,2.1030000000000015,2.120199999988074,2.1328999999761535,2.1438000000119217,2.163399999976157,2.1768999999761576,2.193699999988077,2.2146999999880776,2.229999999999997,2.243699999988074,2.2605000000000004,2.28219999998808,2.2936000000238366,2.310300000011921,2.3268000000119216,2.349499999999999,2.36039999997616,2.377199999988079,2.3936999999880797,2.414899999976157,2.426800000011916,2.4435000000000002,2.462100000023838,2.480100000023839,2.4941999999880764,2.5101999999880746,2.5301999999880778,2.545399999976155,2.560199999988079,2.57710000002384,2.5933999999761568,2.6101000000238415,2.6268999999761533,2.643600000023838,2.6601000000238386,2.676800000011916,2.6935000000000002,2.7101999999880775,2.72680000001192,2.7434999999999974,2.7601999999880746,2.7768000000119173,2.794699999988076,2.811100000023842,2.826899999976156,2.843499999999999,2.860199999988076,2.8768999999761533,2.894199999988075,2.9133000000119225,2.9278000000119206,2.9439999999999955,2.9653999999761567,2.980699999988076,2.997499999999995,3.01010000002384,3.027100000023843,3.043999999999997,3.0606000000238396,3.076899999976156,3.095699999988078,3.113999999999997,3.130399999976156,3.148100000023838,3.166800000011918,3.176800000011916,3.193399999976158,3.210100000023843,3.22680000001192,3.2478999999761555,3.263800000011919,3.28030000001192,3.2951000000238366,3.314699999988079,3.3305000000000007,3.346600000023841,3.3631000000238416,3.3768000000119187,3.393499999999996,3.4101999999880803,3.426800000011916,3.444399999976156,3.461199999988075,3.47680000001192,3.4934999999999974,3.5101999999880746,3.526899999976159,3.5435000000000016,3.560300000011921,3.5768000000119216,3.593499999999999,3.6128999999761575,3.627199999988079,3.643499999999996,3.6601999999880803,3.6794999999999973,3.6939999999999955,3.7123999999761566,3.7276999999880758,3.744399999976153,3.762300000011919,3.7816000000238432,3.798499999999997,3.810199999988079,3.826899999976156,3.843499999999999,3.860300000011918,3.880399999976156,3.893499999999996,3.9101999999880803,3.929800000011916,3.947499999999998,3.9634999999999962,3.9818999999761573,3.9934999999999974,4.010199999988075,4.027199999988078,4.043500000000002,4.067399999976153,4.076899999976156,4.0938000000119175,4.1145,4.134,4.143499999999996,4.160399999976157,4.177899999976155,4.197699999988075,4.2101999999880775,4.229100000023841,4.244100000023842,4.265000000000001,4.281500000000001,4.2976000000238415,4.314800000011921,4.33119999998808,4.348199999988076,4.364999999999995,4.3814999999999955,4.393499999999996,4.41019999998808,4.427999999999997,4.4453999999761535,4.4603000000119195,4.47680000001192,4.493499999999997,4.511699999988075,4.5313000000119175,4.543500000000002,4.562600000023842,4.581100000023838,4.59880000001192,4.610300000011918,4.629600000023842,4.6498999999761566,4.660399999976157,4.676899999976158,4.695800000011921,4.714899999976154,4.733199999988081,4.743399999976155,4.76010000002384,4.777000000000001,4.796899999976155,4.810199999988079,4.8268000000119216,4.84919999998808,4.860199999988076,4.876800000011919,4.894199999988075,4.910699999988076,4.927,4.948199999988077,4.966800000011922,4.97680000001192,4.993499999999997,5.01010000002384,5.026800000011917,5.043899999976155,5.063300000011921,5.0766999999880795,5.093399999976157,5.110300000011918,5.126800000011919,5.143499999999996,5.16019999998808,5.179499999999997,5.195999999999998,5.214300000011917,5.230199999988081,5.246699999988074,5.2643000000119216,5.276800000011917,5.29339999997616,5.314,5.330699999988077,5.343899999976159,5.3601000000238415,5.37910000002384,5.397500000000001,5.410100000023839,5.426800000011916,5.4453999999761535,5.4609999999999985,5.481600000023839,5.497699999988079,5.5148999999761585,5.530499999999996,5.543500000000002,5.5603999999761555,5.579000000000001,5.595600000023843,5.6101000000238415,5.626899999976153,5.647199999988075,5.660100000023839,5.676800000011916,5.69760000002384,5.71480000001192,5.730800000011918,5.750100000023842,5.76010000002384,5.776800000011917,5.794300000011916,5.811999999999998]","[1732937227473,1732937227516,1732937227524,1732937227542,1732937227561,1732937227572,1732937227589,1732937227606,1732937227622,1732937227640,1732937227655,1732937227673,1732937227689,1732937227706,1732937227722,1732937227739,1732937227756,1732937227772,1732937227789,1732937227805,1732937227822,1732937227839,1732937227855,1732937227872,1732937227889,1732937227906,1732937227922,1732937227939,1732937227955,1732937227974,1732937227989,1732937228006,1732937228022,1732937228041,1732937228058,1732937228072,1732937228089,1732937228108,1732937228126,1732937228141,1732937228156,1732937228172,1732937228189,1732937228206,1732937228224,1732937228241,1732937228256,1732937228272,1732937228289,1732937228306,1732937228322,1732937228339,1732937228355,1732937228372,1732937228389,1732937228406,1732937228424,1732937228446,1732937228456,1732937228473,1732937228489,1732937228511,1732937228522,1732937228539,1732937228556,1732937228576,1732937228589,1732937228606,1732937228632,1732937228642,1732937228656,1732937228677,1732937228698,1732937228706,1732937228722,1732937228741,1732937228760,1732937228777,1732937228789,1732937228806,1732937228828,1732937228839,1732937228856,1732937228879,1732937228889,1732937228906,1732937228926,1732937228946,1732937228956,1732937228972,1732937228991,1732937229011,1732937229022,1732937229039,1732937229056,1732937229078,1732937229094,1732937229110,1732937229133,1732937229141,1732937229155,1732937229172,1732937229189,1732937229205,1732937229222,1732937229241,1732937229256,1732937229278,1732937229294,1732937229306,1732937229323,1732937229343,1732937229359,1732937229375,1732937229394,1732937229406,1732937229423,1732937229439,1732937229461,1732937229473,1732937229489,1732937229512,1732937229522,1732937229539,1732937229565,1732937229582,1732937229595,1732937229606,1732937229625,1732937229639,1732937229656,1732937229677,1732937229692,1732937229706,1732937229722,1732937229744,1732937229756,1732937229772,1732937229789,1732937229811,1732937229822,1732937229839,1732937229856,1732937229877,1732937229889,1732937229905,1732937229924,1732937229942,1732937229956,1732937229972,1732937229992,1732937230007,1732937230022,1732937230039,1732937230055,1732937230072,1732937230089,1732937230106,1732937230122,1732937230139,1732937230155,1732937230172,1732937230189,1732937230206,1732937230222,1732937230239,1732937230257,1732937230273,1732937230289,1732937230306,1732937230322,1732937230339,1732937230356,1732937230375,1732937230390,1732937230406,1732937230427,1732937230443,1732937230459,1732937230472,1732937230489,1732937230506,1732937230523,1732937230539,1732937230558,1732937230576,1732937230592,1732937230610,1732937230629,1732937230639,1732937230655,1732937230672,1732937230689,1732937230710,1732937230726,1732937230742,1732937230757,1732937230777,1732937230792,1732937230809,1732937230825,1732937230839,1732937230855,1732937230872,1732937230889,1732937230906,1732937230923,1732937230939,1732937230955,1732937230972,1732937230989,1732937231005,1732937231022,1732937231039,1732937231055,1732937231075,1732937231089,1732937231105,1732937231122,1732937231141,1732937231156,1732937231174,1732937231190,1732937231206,1732937231224,1732937231244,1732937231260,1732937231272,1732937231289,1732937231306,1732937231322,1732937231342,1732937231355,1732937231372,1732937231392,1732937231410,1732937231425,1732937231444,1732937231456,1732937231472,1732937231489,1732937231506,1732937231529,1732937231539,1732937231556,1732937231577,1732937231596,1732937231606,1732937231622,1732937231640,1732937231660,1732937231672,1732937231691,1732937231706,1732937231727,1732937231743,1732937231760,1732937231777,1732937231793,1732937231810,1732937231827,1732937231843,1732937231855,1732937231872,1732937231890,1732937231907,1732937231922,1732937231939,1732937231955,1732937231974,1732937231993,1732937232005,1732937232025,1732937232043,1732937232061,1732937232072,1732937232092,1732937232112,1732937232122,1732937232139,1732937232158,1732937232177,1732937232195,1732937232205,1732937232222,1732937232239,1732937232259,1732937232272,1732937232289,1732937232311,1732937232322,1732937232339,1732937232356,1732937232373,1732937232389,1732937232410,1732937232429,1732937232439,1732937232455,1732937232472,1732937232489,1732937232506,1732937232525,1732937232539,1732937232555,1732937232572,1732937232589,1732937232605,1732937232622,1732937232641,1732937232658,1732937232676,1732937232692,1732937232709,1732937232726,1732937232739,1732937232755,1732937232776,1732937232793,1732937232806,1732937232822,1732937232841,1732937232859,1732937232872,1732937232889,1732937232907,1732937232923,1732937232944,1732937232960,1732937232977,1732937232993,1732937233005,1732937233022,1732937233041,1732937233058,1732937233072,1732937233089,1732937233109,1732937233122,1732937233139,1732937233160,1732937233177,1732937233196,1732937233215,1732937233225,1732937233242,1732937233259,1732937233277]","[[1080.7,713.5],[1080.7,713.5],[1071.1,687.1],[1062.3,688.3],[1048.7,698.8],[1048.7,698.8],[1042.1,699.8],[1035.1,703.5],[1032.1,707.7],[1036.1,706.1],[1045.9,692.7],[1058.8,688.9],[1063.7,679.7],[1063.7,679.7],[1081.5,702.4],[1098.5,697.5],[1117.6,697.9],[1117.6,697.9],[1131.1,711.1],[1138.3,720.5],[1173.2,718.1],[1173.2,718.1],[1208,704.7],[1198.5,694.5],[1201.1,666.3],[1201.1,666.3],[1195.7,668.2],[1180,656.9],[1164.3,645.6],[1147.5,632.1],[1150.3,611.4],[1104.8,596.2],[1031.6,592.8],[918.2,608.4],[835.7,621.3],[835.7,621.3],[768,647.2],[713.4,642.3],[663.9,631.9],[609.5,625.1],[565,613.7],[499,625.6],[477.2,614.5],[455.4,603.4],[491.8,585.6],[541.6,567.3],[541.6,567.3],[566.5,551.2],[566.5,551.2],[571.3,546.3],[571.3,546.3],[573.8,545.6],[582.5,540.5],[583.9,545.8],[583.9,545.8],[587.2,535],[602.2,544.8],[613.5,549.8],[613.5,549.8],[684.3,517.6],[733.9,510.3],[747.2,517.9],[747.2,517.9],[817.3,468.3],[887.5,450.1],[956.4,432.7],[956.4,432.7],[999.8,386.9],[1030.9,353.5],[1030.9,353.5],[1070.6,309.8],[1116.1,270.2],[1061.4,245.4],[1061.4,245.4],[1038.6,243],[1049.9,221.5],[1019.7,250.2],[1024.5,230],[1024.5,230],[1029.3,209.8],[1063.2,214.5],[1063.2,214.5],[1102.8,197.5],[1144.8,200.9],[1144.8,200.9],[1195.3,214],[1295.2,245.1],[1384.4,228.9],[1384.4,228.9],[1471.9,196.3],[1583,163.4],[1662.1,155.1],[1662.1,155.1],[1676.3,181.2],[1709.6,171],[1749.5,170.1],[1754.5,182.4],[1753.2,210.3],[1731.2,253.1],[1731.2,253.1],[1702.3,277.7],[1702.3,277.7],[1675.2,328],[1675.2,328],[1637.5,354.9],[1584.8,394.4],[1597,399.5],[1585.9,433.1],[1585.9,433.1],[1580.9,465.2],[1580.9,465.2],[1599.3,474.9],[1614.8,447.6],[1616.1,410.7],[1624.3,408.3],[1624.3,408.3],[1620.2,389.3],[1603.1,394],[1596.7,406.4],[1596.7,406.4],[1558.6,422.2],[1516.8,429.9],[1516.8,429.9],[1495.5,431.3],[1482.7,415.2],[1482.7,415.2],[1467.2,415],[1467.2,415],[1443.5,434.1],[1443.5,434.1],[1430.3,413.6],[1428.3,406.7],[1425.4,409.4],[1425.4,409.4],[1401.1,392.8],[1408.5,372.8],[1408.5,372.8],[1414.1,351.5],[1387.5,344.8],[1352,352.7],[1352,352.7],[1346.9,331.8],[1387,299.1],[1416.6,289.7],[1416.6,289.7],[1415.5,281.1],[1395.8,252.6],[1403.9,222.4],[1412,192.2],[1438.4,192],[1470.4,185],[1443.1,192.6],[1443.1,192.6],[1398.9,225.1],[1308.4,243.2],[1221.6,239.2],[1221.6,239.2],[1169.6,224],[1108,238.5],[1044.3,253.7],[1044.3,253.7],[1023.5,251.6],[962.7,249],[905.7,241.9],[905.7,241.9],[911.3,228.6],[988.7,192.6],[1099.9,138.8],[1099.9,138.8],[1193.8,119],[1193.8,119],[1261.8,95.5],[1323,84.9],[1369.1,92.6],[1372.3,117.6],[1387.2,122.2],[1391.5,131.3],[1383.2,134.9],[1284.2,170.4],[1284.2,170.4],[1169.8,225.3],[1050.7,261.5],[978.4,322.1],[909.7,340.5],[855.3,340.1],[807.2,343.5],[790.8,339.9],[781.2,336.3],[788.9,320.6],[788.9,320.6],[781.6,295],[765.2,274.7],[767.4,259.5],[746.4,231.2],[774.9,224.7],[828.7,232.2],[890.9,232.1],[934.1,220.4],[981.9,208.9],[1013.1,203.6],[1064.2,207.9],[1064.2,207.9],[1104.4,246.2],[1174.2,284.3],[1252.7,327.3],[1329.1,352.2],[1351.8,372.7],[1380.3,380.4],[1401.1,424.7],[1401.1,424.7],[1418.7,459.3],[1418.7,459.3],[1454.1,497.5],[1454.1,497.5],[1473.2,541.6],[1531.7,546.9],[1526.4,575.3],[1526.4,575.3],[1492.5,605.6],[1439.8,641.7],[1424.9,663.6],[1396.8,694.3],[1376.2,709.7],[1341,753.6],[1291.8,793.3],[1274.9,804],[1229.5,819.5],[1229.5,819.5],[1217,812],[1217,812],[1205.6,789.9],[1197.9,768.2],[1197.9,768.2],[1149.1,761.1],[1104.1,760.7],[1059.1,760.3],[1037.4,736.7],[1020.5,716.7],[1020.5,716.7],[960.2,711.3],[909.4,698.3],[844.7,697.7],[798.8,704.9],[798.8,704.9],[802.1,672.6],[837.1,622.1],[861,572.7],[861,572.7],[896.8,525.4],[901.9,501.4],[901.9,501.4],[930.8,454.3],[959.7,440.3],[958.8,433.5],[993.3,404.8],[1027.8,376.1],[991.1,411.2],[955.2,455],[912,503],[856.9,548.9],[826.6,577.7],[795.9,649.7],[795.9,649.7],[794.4,688.6],[836.9,724.4],[866.9,771.2],[866.9,771.2],[896.9,818],[937.2,850.3],[996,854.7],[996,854.7],[1045.2,825.2],[1099.1,807.1],[1159,774.1],[1159,774.1],[1189.6,702],[1224.5,638.5],[1231.5,570.6],[1231.5,570.6],[1229.9,501.7],[1221.3,467],[1226.4,425.3],[1226.5,382.9],[1226.5,382.9],[1248.9,356.6],[1280.6,319.4],[1319,294.7],[1319,294.7],[1313.7,291],[1293.9,275.4],[1293.9,275.4],[1292.4,273.4],[1322.3,264.7],[1361.6,223.7],[1403,178],[1428.4,162.1],[1448.4,159.8],[1448.4,159.8],[1450.7,162.9],[1450.7,162.9],[1429.5,162.3],[1473.1,160.1],[1526.9,161.2],[1526.9,161.2],[1575.8,159.1],[1576.4,158.1],[1596.1,139.6],[1596.1,139.6],[1605.3,124.3],[1580.3,121.2],[1512.6,133.7],[1449.8,131.2],[1393.6,132.8],[1310.4,145.9],[1227.2,159],[1227.2,159],[1137.7,176.6],[1066.8,195.3],[974.4,229.6],[974.4,229.6],[894.8,243.8],[853.2,278.8],[854.3,298.2],[854.3,298.2],[854.3,316.2],[860.9,319.8],[879.3,311.5],[897.7,303.2],[910.5,273],[935.6,246.7],[951.9,242.3],[951.9,242.3],[954.2,256.9],[956,239.7],[945.6,251.3],[945.6,251.3],[929.8,277.7],[937,299.4],[937,299.4],[935.7,322.8],[945.5,317.3],[949.2,349.9],[940.3,394.5],[947.9,424.9],[947.9,424.9],[965.4,451.9],[1000.5,489],[1060.8,498.4]]","[-0.2,0.6000000000000001]","[0.2,0.6000000000000001]","[0.6000000000000001,0.6000000000000001]","[-0.6000000000000001,0.2]","[-0.6000000000000001,-0.6000000000000001]","[-0.6000000000000001,-0.2]","[-0.2,0.2]","[0.2,0.2]","[0.6000000000000001,0.2]","[-0.2,-0.6000000000000001]","[0.2,-0.6000000000000001]","[0.6000000000000001,-0.6000000000000001]","[-0.2,-0.2]","[0.2,-0.2]","[0.6000000000000001,-0.2]",0,0,0,0,1,1,Monitor,20,20,7,2,70,4,2,70,4
