inst1_resp.keys,inst1_resp.rt,calibrationMouse.x,calibrationMouse.y,calibrationMouse.leftButton,calibrationMouse.midButton,calibrationMouse.rightButton,calibrationClick.x,calibrationClick.y,calibrationClick.leftButton,calibrationClick.midButton,calibrationClick.rightButton,trialsc.thisRepN,trialsc.thisTrialN,trialsc.thisN,trialsc.thisIndex,trialsc.ran,calibration_x,calibration_y,participant,session,date,expName,psychopyVersion,OS,frameRate,calibrationClick.clicked_name,ScreenRes_pixels,Camera_pixels,mouse_2.x,mouse_2.y,mouse_2.leftButton,mouse_2.midButton,mouse_2.rightButton,mouse_2.time,mouse_2.clicked_name,mouse.x,mouse.y,mouse.leftButton,mouse.midButton,mouse.rightButton,mouse.time,mouse.clicked_name,Choice,Trial,TrialDuration,MOUSE_GAZE,ET_GAZE,ET_GAZE_x_T,time,unixTime,ET_GAZE_NF,Loc_Bus_label,Loc_Metro_label,Loc_RH_label,Loc_Cost_label,Loc_Travel_label,Loc_Comfort_label,Loc_Bus_cost,Loc_Metro_cost,Loc_RH_cost,Loc_Bus_travel,Loc_Metro_travel,Loc_RH_travel,Loc_Bus_comfort,Loc_Metro_comfort,Loc_RH_comfort,trials.thisRepN,trials.thisTrialN,trials.thisN,trials.thisIndex,trials.ran,Block,Device,RH_cost,RH_travel_time,RH_Comfort,metro_cost,metro_travel_time,metro_Comfort,Bus_cost,Bus_travel_time,Bus_Comfort
space,3.2768,-0.253125,0.175925926,1,0,0,0.00625,0.685185185,1,0,0,0,0,0,13,1,0,0.67,01,001,2024-11-18_14h29.04.545,Attention_exp_legacy,2023.1.0,Win32,60.24096386,,,,,,,,,,,,,,,,,,,,,,,,,,,,,,,,,,,,,,,,,,,,,,,,,,,,,,,,,
,,,,,,,-0.010416667,0.346296296,1,0,0,0,1,1,12,1,0,0.33,01,001,2024-11-18_14h29.04.545,Attention_exp_legacy,2023.1.0,Win32,60.24096386,,,,,,,,,,,,,,,,,,,,,,,,,,,,,,,,,,,,,,,,,,,,,,,,,,,,,,,,,
,,,,,,,-0.678125,0.346296296,1,0,0,0,2,2,3,1,-0.67,0.33,01,001,2024-11-18_14h29.04.545,Attention_exp_legacy,2023.1.0,Win32,60.24096386,,,,,,,,,,,,,,,,,,,,,,,,,,,,,,,,,,,,,,,,,,,,,,,,,,,,,,,,,
,,,,,,,-0.33125,-0.32037037,1,0,0,0,3,3,5,1,-0.33,-0.33,01,001,2024-11-18_14h29.04.545,Attention_exp_legacy,2023.1.0,Win32,60.24096386,calibration_square,,,,,,,,,,,,,,,,,,,,,,,,,,,,,,,,,,,,,,,,,,,,,,,,,,,,,,,,
,,,,,,,0.33125,0.657407407,1,0,0,0,4,4,18,1,0.33,0.67,01,001,2024-11-18_14h29.04.545,Attention_exp_legacy,2023.1.0,Win32,60.24096386,,,,,,,,,,,,,,,,,,,,,,,,,,,,,,,,,,,,,,,,,,,,,,,,,,,,,,,,,
,,,,,,,0.671875,-0.674074074,1,0,0,0,5,5,20,1,0.67,-0.67,01,001,2024-11-18_14h29.04.545,Attention_exp_legacy,2023.1.0,Win32,60.24096386,calibration_square,,,,,,,,,,,,,,,,,,,,,,,,,,,,,,,,,,,,,,,,,,,,,,,,,,,,,,,,
,,,,,,,-0.669791667,0.003703704,1,0,0,0,6,6,2,1,-0.67,0,01,001,2024-11-18_14h29.04.545,Attention_exp_legacy,2023.1.0,Win32,60.24096386,calibration_square,,,,,,,,,,,,,,,,,,,,,,,,,,,,,,,,,,,,,,,,,,,,,,,,,,,,,,,,
,,,,,,,-0.65625,-0.675925926,1,0,0,0,7,7,0,1,-0.67,-0.67,01,001,2024-11-18_14h29.04.545,Attention_exp_legacy,2023.1.0,Win32,60.24096386,,,,,,,,,,,,,,,,,,,,,,,,,,,,,,,,,,,,,,,,,,,,,,,,,,,,,,,,,
,,,,,,,-0.007291667,-0.672222222,1,0,0,0,8,8,9,1,0,-0.67,01,001,2024-11-18_14h29.04.545,Attention_exp_legacy,2023.1.0,Win32,60.24096386,calibration_square,,,,,,,,,,,,,,,,,,,,,,,,,,,,,,,,,,,,,,,,,,,,,,,,,,,,,,,,
,,,,,,,-0.322916667,0.659259259,1,0,0,0,9,9,8,1,-0.33,0.67,01,001,2024-11-18_14h29.04.545,Attention_exp_legacy,2023.1.0,Win32,60.24096386,,,,,,,,,,,,,,,,,,,,,,,,,,,,,,,,,,,,,,,,,,,,,,,,,,,,,,,,,
,,,,,,,0.004166667,-0.340740741,1,0,0,0,10,10,10,1,0,-0.33,01,001,2024-11-18_14h29.04.545,Attention_exp_legacy,2023.1.0,Win32,60.24096386,,,,,,,,,,,,,,,,,,,,,,,,,,,,,,,,,,,,,,,,,,,,,,,,,,,,,,,,,
,,,,,,,-0.334375,0.003703704,1,0,0,0,11,11,6,1,-0.33,0,01,001,2024-11-18_14h29.04.545,Attention_exp_legacy,2023.1.0,Win32,60.24096386,calibration_square,,,,,,,,,,,,,,,,,,,,,,,,,,,,,,,,,,,,,,,,,,,,,,,,,,,,,,,,
,,,,,,,-0.330208333,0.331481481,1,0,0,0,12,12,7,1,-0.33,0.33,01,001,2024-11-18_14h29.04.545,Attention_exp_legacy,2023.1.0,Win32,60.24096386,calibration_square,,,,,,,,,,,,,,,,,,,,,,,,,,,,,,,,,,,,,,,,,,,,,,,,,,,,,,,,
,,,,,,,0.665625,0.67037037,1,0,0,0,13,13,19,1,0.67,0.67,01,001,2024-11-18_14h29.04.545,Attention_exp_legacy,2023.1.0,Win32,60.24096386,calibration_square,,,,,,,,,,,,,,,,,,,,,,,,,,,,,,,,,,,,,,,,,,,,,,,,,,,,,,,,
,,,,,,,-0.333333333,-0.668518519,1,0,0,0,14,14,4,1,-0.33,-0.67,01,001,2024-11-18_14h29.04.545,Attention_exp_legacy,2023.1.0,Win32,60.24096386,calibration_square,,,,,,,,,,,,,,,,,,,,,,,,,,,,,,,,,,,,,,,,,,,,,,,,,,,,,,,,
,,,,,,,-0.010416667,0.011111111,1,0,0,0,15,15,11,1,0,0,01,001,2024-11-18_14h29.04.545,Attention_exp_legacy,2023.1.0,Win32,60.24096386,,,,,,,,,,,,,,,,,,,,,,,,,,,,,,,,,,,,,,,,,,,,,,,,,,,,,,,,,
,,,,,,,0.34375,0.016666667,1,0,0,0,16,16,16,1,0.33,0,01,001,2024-11-18_14h29.04.545,Attention_exp_legacy,2023.1.0,Win32,60.24096386,,,,,,,,,,,,,,,,,,,,,,,,,,,,,,,,,,,,,,,,,,,,,,,,,,,,,,,,,
,,,,,,,0.325,0.325925926,1,0,0,0,17,17,17,1,0.33,0.33,01,001,2024-11-18_14h29.04.545,Attention_exp_legacy,2023.1.0,Win32,60.24096386,calibration_square,,,,,,,,,,,,,,,,,,,,,,,,,,,,,,,,,,,,,,,,,,,,,,,,,,,,,,,,
,,,,,,,0.332291667,-0.333333333,1,0,0,0,18,18,15,1,0.33,-0.33,01,001,2024-11-18_14h29.04.545,Attention_exp_legacy,2023.1.0,Win32,60.24096386,calibration_square,,,,,,,,,,,,,,,,,,,,,,,,,,,,,,,,,,,,,,,,,,,,,,,,,,,,,,,,
,,,,,,,-0.6625,-0.32962963,1,0,0,0,19,19,1,1,-0.67,-0.33,01,001,2024-11-18_14h29.04.545,Attention_exp_legacy,2023.1.0,Win32,60.24096386,calibration_square,,,,,,,,,,,,,,,,,,,,,,,,,,,,,,,,,,,,,,,,,,,,,,,,,,,,,,,,
,,,,,,,0.336458333,-0.67037037,1,0,0,0,20,20,14,1,0.33,-0.67,01,001,2024-11-18_14h29.04.545,Attention_exp_legacy,2023.1.0,Win32,60.24096386,calibration_square,,,,,,,,,,,,,,,,,,,,,,,,,,,,,,,,,,,,,,,,,,,,,,,,,,,,,,,,
,,,,,,,,,,,,,,,,,,,01,001,2024-11-18_14h29.04.545,Attention_exp_legacy,2023.1.0,Win32,60.24096386,,"[1920,1080]","[640,480]",[0.07291666666666667],[-0.5166666666666667],[1],[0],[0],[1.5874999999999986],"[""StartButton""]",[0.24479166666666666],[0.5944444444444444],[1],[0],[0],[4.917000000000002],"[""Metro_label""]",Metro_label,1,5.927,"[[-0.17083333333333334,-0.22962962962962963],[-0.17083333333333334,-0.22962962962962963],[-0.17083333333333334,-0.22962962962962963],[-0.17083333333333334,-0.22962962962962963],[-0.17083333333333334,-0.22962962962962963],[-0.17083333333333334,-0.22962962962962963],[-0.17083333333333334,-0.22962962962962963],[-0.17083333333333334,-0.22962962962962963],[-0.17083333333333334,-0.22962962962962963],[-0.17083333333333334,-0.22962962962962963],[-0.17083333333333334,-0.22962962962962963],[-0.17083333333333334,-0.22962962962962963],[-0.17083333333333334,-0.22962962962962963],[-0.17083333333333334,-0.22962962962962963],[-0.17083333333333334,-0.22962962962962963],[-0.17083333333333334,-0.22962962962962963],[-0.17083333333333334,-0.22962962962962963],[-0.17083333333333334,-0.22962962962962963],[-0.17083333333333334,-0.22962962962962963],[-0.17083333333333334,-0.22962962962962963],[-0.17083333333333334,-0.22962962962962963],[-0.17083333333333334,-0.22962962962962963],[-0.17083333333333334,-0.22962962962962963],[-0.17083333333333334,-0.22962962962962963],[-0.17083333333333334,-0.22962962962962963],[-0.17083333333333334,-0.22962962962962963],[-0.17083333333333334,-0.22962962962962963],[-0.17083333333333334,-0.22962962962962963],[-0.17083333333333334,-0.22962962962962963],[-0.17083333333333334,-0.22962962962962963],[-0.17083333333333334,-0.22962962962962963],[-0.17083333333333334,-0.22962962962962963],[-0.17083333333333334,-0.22962962962962963],[-0.17083333333333334,-0.22962962962962963],[-0.17083333333333334,-0.22962962962962963],[-0.17083333333333334,-0.22962962962962963],[-0.17083333333333334,-0.22962962962962963],[-0.17083333333333334,-0.22962962962962963],[-0.17083333333333334,-0.22962962962962963],[-0.17083333333333334,-0.22962962962962963],[-0.17083333333333334,-0.22962962962962963],[-0.17083333333333334,-0.22962962962962963],[-0.17083333333333334,-0.22962962962962963],[-0.17083333333333334,-0.22962962962962963],[-0.17083333333333334,-0.22962962962962963],[-0.17083333333333334,-0.22962962962962963],[-0.17083333333333334,-0.22962962962962963],[-0.17083333333333334,-0.22962962962962963],[-0.17083333333333334,-0.22962962962962963],[-0.17083333333333334,-0.22962962962962963],[-0.17083333333333334,-0.22962962962962963],[-0.17083333333333334,-0.22962962962962963],[-0.17083333333333334,-0.22962962962962963],[-0.17083333333333334,-0.22962962962962963],[-0.17083333333333334,-0.22962962962962963],[-0.17083333333333334,-0.22962962962962963],[-0.17083333333333334,-0.22962962962962963],[-0.17083333333333334,-0.22962962962962963],[-0.17083333333333334,-0.22962962962962963],[-0.17083333333333334,-0.22962962962962963],[-0.17083333333333334,-0.22962962962962963],[-0.17083333333333334,-0.22962962962962963],[-0.17083333333333334,-0.22962962962962963],[-0.17083333333333334,-0.22962962962962963],[-0.17083333333333334,-0.22962962962962963],[-0.17083333333333334,-0.22962962962962963],[-0.17083333333333334,-0.22962962962962963],[-0.17083333333333334,-0.22962962962962963],[-0.17083333333333334,-0.22962962962962963],[-0.17083333333333334,-0.22962962962962963],[-0.17083333333333334,-0.22962962962962963],[-0.17083333333333334,-0.22962962962962963],[-0.17083333333333334,-0.22962962962962963],[-0.17083333333333334,-0.22962962962962963],[-0.17083333333333334,-0.22962962962962963],[-0.17083333333333334,-0.22962962962962963],[-0.17083333333333334,-0.22962962962962963],[-0.17083333333333334,-0.22962962962962963],[-0.17083333333333334,-0.22962962962962963],[-0.17083333333333334,-0.22962962962962963],[-0.17083333333333334,-0.22962962962962963],[-0.17083333333333334,-0.22962962962962963],[-0.17083333333333334,-0.22962962962962963],[-0.17083333333333334,-0.22962962962962963],[-0.17083333333333334,-0.22962962962962963],[-0.17083333333333334,-0.22962962962962963],[-0.17083333333333334,-0.22962962962962963],[-0.17083333333333334,-0.22962962962962963],[-0.17083333333333334,-0.22962962962962963],[-0.17083333333333334,-0.22962962962962963],[-0.17083333333333334,-0.22962962962962963],[-0.17083333333333334,-0.22962962962962963],[-0.17083333333333334,-0.22962962962962963],[-0.17083333333333334,-0.22962962962962963],[-0.17083333333333334,-0.22962962962962963],[-0.17083333333333334,-0.22962962962962963],[-0.17083333333333334,-0.22962962962962963],[-0.17083333333333334,-0.22962962962962963],[-0.17083333333333334,-0.22962962962962963],[-0.17083333333333334,-0.22962962962962963],[-0.17083333333333334,-0.22962962962962963],[-0.17083333333333334,-0.22962962962962963],[-0.17083333333333334,-0.22962962962962963],[-0.17083333333333334,-0.22962962962962963],[-0.17083333333333334,-0.22962962962962963],[-0.17083333333333334,-0.22962962962962963],[-0.17083333333333334,-0.22962962962962963],[-0.17083333333333334,-0.22962962962962963],[-0.17083333333333334,-0.22962962962962963],[-0.17083333333333334,-0.22962962962962963],[-0.17083333333333334,-0.22962962962962963],[-0.17083333333333334,-0.22962962962962963],[-0.17083333333333334,-0.22962962962962963],[-0.17083333333333334,-0.22962962962962963],[-0.17083333333333334,-0.22962962962962963],[-0.17083333333333334,-0.22962962962962963],[-0.17083333333333334,-0.22962962962962963],[-0.17083333333333334,-0.22962962962962963],[-0.17083333333333334,-0.22962962962962963],[-0.17083333333333334,-0.22962962962962963],[-0.17083333333333334,-0.22962962962962963],[-0.17083333333333334,-0.22962962962962963],[-0.17083333333333334,-0.22962962962962963],[-0.17083333333333334,-0.22962962962962963],[-0.17083333333333334,-0.22962962962962963],[-0.17083333333333334,-0.22962962962962963],[-0.17083333333333334,-0.22962962962962963],[-0.17083333333333334,-0.22962962962962963],[-0.17083333333333334,-0.22962962962962963],[-0.17083333333333334,-0.22962962962962963],[-0.17083333333333334,-0.22962962962962963],[-0.17083333333333334,-0.22962962962962963],[-0.17083333333333334,-0.22962962962962963],[-0.17083333333333334,-0.22962962962962963],[-0.17083333333333334,-0.22962962962962963],[-0.17083333333333334,-0.22962962962962963],[-0.17083333333333334,-0.22962962962962963],[-0.17083333333333334,-0.22962962962962963],[-0.17083333333333334,-0.22962962962962963],[-0.17083333333333334,-0.22962962962962963],[-0.17083333333333334,-0.22962962962962963],[-0.17083333333333334,-0.22962962962962963],[-0.17083333333333334,-0.22962962962962963],[-0.17083333333333334,-0.22962962962962963],[-0.17083333333333334,-0.22962962962962963],[-0.17083333333333334,-0.22962962962962963],[-0.17083333333333334,-0.22962962962962963],[-0.17083333333333334,-0.22962962962962963],[-0.17083333333333334,-0.22962962962962963],[-0.17083333333333334,-0.22962962962962963],[-0.17083333333333334,-0.22962962962962963],[-0.17083333333333334,-0.22962962962962963],[-0.17083333333333334,-0.22962962962962963],[-0.17083333333333334,-0.22962962962962963],[-0.17083333333333334,-0.22962962962962963],[-0.17083333333333334,-0.22962962962962963],[-0.17083333333333334,-0.22962962962962963],[-0.17083333333333334,-0.22962962962962963],[-0.17083333333333334,-0.22962962962962963],[-0.17083333333333334,-0.22962962962962963],[-0.17083333333333334,-0.22962962962962963],[-0.17083333333333334,-0.22962962962962963],[-0.17083333333333334,-0.22962962962962963],[-0.17083333333333334,-0.22962962962962963],[-0.17083333333333334,-0.22962962962962963],[-0.17083333333333334,-0.22962962962962963],[-0.17083333333333334,-0.22962962962962963],[-0.17083333333333334,-0.22962962962962963],[-0.17083333333333334,-0.22962962962962963],[-0.17083333333333334,-0.22962962962962963],[-0.17083333333333334,-0.22962962962962963],[-0.17083333333333334,-0.22962962962962963],[-0.17083333333333334,-0.22962962962962963],[-0.17083333333333334,-0.22962962962962963],[-0.17083333333333334,-0.22962962962962963],[-0.17083333333333334,-0.22962962962962963],[-0.17083333333333334,-0.22962962962962963],[-0.17083333333333334,-0.22962962962962963],[-0.17083333333333334,-0.22962962962962963],[-0.17083333333333334,-0.22962962962962963],[-0.17083333333333334,-0.22962962962962963],[-0.17083333333333334,-0.22962962962962963],[-0.17083333333333334,-0.22962962962962963],[-0.17083333333333334,-0.22962962962962963],[-0.17083333333333334,-0.22962962962962963],[-0.17083333333333334,-0.22962962962962963],[-0.17083333333333334,-0.22962962962962963],[-0.17083333333333334,-0.22962962962962963],[-0.17083333333333334,-0.22962962962962963],[-0.17083333333333334,-0.22962962962962963],[-0.17083333333333334,-0.22962962962962963],[-0.17083333333333334,-0.22962962962962963],[-0.17083333333333334,-0.22962962962962963],[-0.17083333333333334,-0.22962962962962963],[-0.17083333333333334,-0.22962962962962963],[-0.17083333333333334,-0.22962962962962963],[-0.17083333333333334,-0.22962962962962963],[-0.17083333333333334,-0.22962962962962963],[-0.17083333333333334,-0.22962962962962963],[-0.17083333333333334,-0.22962962962962963],[-0.17083333333333334,-0.22962962962962963],[-0.17083333333333334,-0.22962962962962963],[-0.17083333333333334,-0.22962962962962963],[-0.17083333333333334,-0.22962962962962963],[-0.17083333333333334,-0.22962962962962963],[-0.17083333333333334,-0.22962962962962963],[-0.17083333333333334,-0.22962962962962963],[-0.17083333333333334,-0.22962962962962963],[-0.17083333333333334,-0.22962962962962963],[-0.17083333333333334,-0.22962962962962963],[-0.17083333333333334,-0.22962962962962963],[-0.17083333333333334,-0.22962962962962963],[-0.17083333333333334,-0.22962962962962963],[-0.17083333333333334,-0.22962962962962963],[-0.17083333333333334,-0.22962962962962963],[-0.17083333333333334,-0.22962962962962963],[-0.17083333333333334,-0.22962962962962963],[-0.17083333333333334,-0.22962962962962963],[-0.17083333333333334,-0.22962962962962963],[-0.17083333333333334,-0.22962962962962963],[-0.17083333333333334,-0.22962962962962963],[-0.17083333333333334,-0.22962962962962963],[-0.17083333333333334,-0.22962962962962963],[-0.17083333333333334,-0.22962962962962963],[-0.17083333333333334,-0.22962962962962963],[-0.17083333333333334,-0.22962962962962963],[-0.17083333333333334,-0.22962962962962963],[-0.17083333333333334,-0.22962962962962963],[-0.17083333333333334,-0.22962962962962963],[-0.17083333333333334,-0.22962962962962963],[-0.17083333333333334,-0.22962962962962963],[-0.17083333333333334,-0.22962962962962963],[-0.17083333333333334,-0.22962962962962963],[-0.17083333333333334,-0.22962962962962963],[-0.17083333333333334,-0.23148148148148148],[-0.16666666666666666,-0.25],[-0.159375,-0.2814814814814815],[-0.14895833333333333,-0.32222222222222224],[-0.13645833333333332,-0.3574074074074074],[-0.12604166666666666,-0.3907407407407407],[-0.10729166666666666,-0.4388888888888889],[-0.09270833333333334,-0.4722222222222222],[-0.084375,-0.48518518518518516],[-0.06666666666666667,-0.512962962962963],[-0.03958333333333333,-0.55],[-0.025,-0.5740740740740741],[-0.0125,-0.5925925925925926],[-0.0010416666666666667,-0.6092592592592593],[0.013541666666666667,-0.6296296296296297],[0.027083333333333334,-0.6481481481481481],[0.04895833333333333,-0.6685185185185185],[0.075,-0.6833333333333333],[0.115625,-0.7037037037037037],[0.12916666666666668,-0.7092592592592593],[0.16145833333333334,-0.7148148148148148],[0.19583333333333333,-0.7203703703703703],[0.24375,-0.7203703703703703],[0.26666666666666666,-0.7074074074074074],[0.290625,-0.6888888888888889],[0.32395833333333335,-0.6537037037037037],[0.375,-0.5944444444444444],[0.428125,-0.512962962962963],[0.471875,-0.43333333333333335],[0.5322916666666667,-0.23703703703703705],[0.5479166666666667,-0.15],[0.5552083333333333,-0.06296296296296296],[0.5614583333333333,0.03333333333333333],[0.5614583333333333,0.09814814814814815],[0.5614583333333333,0.12407407407407407],[0.5395833333333333,0.20185185185185187],[0.5125,0.25],[0.4739583333333333,0.30185185185185187],[0.453125,0.3296296296296296],[0.43645833333333334,0.3611111111111111],[0.4239583333333333,0.39444444444444443],[0.41354166666666664,0.42777777777777776],[0.4010416666666667,0.45925925925925926],[0.3958333333333333,0.4685185185185185],[0.390625,0.4759259259259259],[0.3854166666666667,0.48148148148148145],[0.371875,0.4888888888888889],[0.35,0.5018518518518519],[0.3333333333333333,0.512962962962963],[0.31979166666666664,0.524074074074074],[0.3072916666666667,0.5425925925925926],[0.29791666666666666,0.5518518518518518],[0.2916666666666667,0.5555555555555556],[0.2833333333333333,0.562962962962963],[0.275,0.5703703703703704],[0.2552083333333333,0.5851851851851851],[0.24895833333333334,0.5907407407407408],[0.24479166666666666,0.5944444444444444],[0.24479166666666666,0.5944444444444444],[0.24479166666666666,0.5944444444444444],[0.24479166666666666,0.5944444444444444],[0.24479166666666666,0.5944444444444444],[0.24479166666666666,0.5944444444444444],[0.24479166666666666,0.5944444444444444],[0.24479166666666666,0.5944444444444444],[0.24479166666666666,0.5944444444444444],[0.24479166666666666,0.5944444444444444],[0.24479166666666666,0.5944444444444444],[0.24479166666666666,0.5944444444444444],[0.24479166666666666,0.5944444444444444],[0.24479166666666666,0.5944444444444444],[0.24479166666666666,0.5944444444444444],[0.24479166666666666,0.5944444444444444],[0.24479166666666666,0.5944444444444444],[0.24479166666666666,0.5944444444444444],[0.24375,0.5925925925925926],[0.24375,0.587037037037037],[0.24375,0.575925925925926],[0.24270833333333333,0.5537037037037037],[0.24270833333333333,0.5407407407407407],[0.24270833333333333,0.5259259259259259],[0.24270833333333333,0.5074074074074074],[0.24270833333333333,0.4962962962962963],[0.24479166666666666,0.4740740740740741],[0.246875,0.46111111111111114],[0.24791666666666667,0.4537037037037037],[0.24895833333333334,0.4388888888888889],[0.24895833333333334,0.4351851851851852],[0.25,0.42592592592592593],[0.25,0.4203703703703704],[0.25,0.4166666666666667],[0.25104166666666666,0.412962962962963],[0.25104166666666666,0.412962962962963],[0.25104166666666666,0.4111111111111111],[0.2520833333333333,0.40925925925925927],[0.2520833333333333,0.40925925925925927],[0.2520833333333333,0.40925925925925927],[0.2520833333333333,0.40925925925925927],[0.2520833333333333,0.40925925925925927],[0.2520833333333333,0.40925925925925927],[0.2520833333333333,0.40925925925925927],[0.2520833333333333,0.40925925925925927],[0.2520833333333333,0.40925925925925927],[0.2520833333333333,0.40925925925925927],[0.2520833333333333,0.40925925925925927],[0.2520833333333333,0.40925925925925927],[0.2520833333333333,0.40925925925925927],[0.2520833333333333,0.40925925925925927],[0.2520833333333333,0.40925925925925927],[0.2520833333333333,0.40925925925925927],[0.2520833333333333,0.40925925925925927],[0.2520833333333333,0.40925925925925927],[0.2520833333333333,0.40925925925925927],[0.2520833333333333,0.40925925925925927],[0.2520833333333333,0.40925925925925927],[0.2520833333333333,0.40925925925925927],[0.2520833333333333,0.40925925925925927],[0.2520833333333333,0.40925925925925927],[0.2520833333333333,0.40925925925925927],[0.2520833333333333,0.40925925925925927],[0.2520833333333333,0.40925925925925927]]","[[0.05552083333333328,0.04592592592592584],[0.05552083333333328,0.04592592592592584],[0.05552083333333328,0.04592592592592584],[0.06739583333333338,-0.060370370370370414],[0.07270833333333329,-0.0962962962962963],[0.07270833333333329,-0.0962962962962963],[0.10614583333333343,-0.13944444444444445],[0.10291666666666661,-0.18277777777777776],[0.10291666666666661,-0.18277777777777776],[0.11281249999999995,-0.1388888888888889],[0.11427083333333338,-0.16425925925925924],[0.12916666666666668,-0.2631481481481482],[0.1397916666666667,-0.35722222222222216],[0.14739583333333334,-0.41351851851851856],[0.15677083333333333,-0.402962962962963],[0.14364583333333342,-0.3972222222222222],[0.12604166666666666,-0.4118518518518518],[0.10041666666666677,-0.4535185185185185],[0.09364583333333343,-0.4946296296296297],[0.0775000000000001,-0.5366666666666667],[0.05322916666666669,-0.5625925925925926],[0.049270833333333285,-0.5087037037037037],[0.009895833333333333,-0.42185185185185187],[-0.0265625,-0.37222222222222223],[-0.06645833333333329,-0.3425925925925926],[-0.0967708333333333,-0.32537037037037037],[-0.12041666666666669,-0.32833333333333337],[-0.13145833333333337,-0.3977777777777778],[-0.15437500000000004,-0.3714814814814815],[-0.19624999999999998,-0.2948148148148148],[-0.22270833333333329,-0.27462962962962967],[-0.2711458333333333,-0.2490740740740741],[-0.2841666666666666,-0.2564814814814815],[-0.3061458333333333,-0.30277777777777776],[-0.3246875000000001,-0.3290740740740741],[-0.350625,-0.37518518518518523],[-0.350625,-0.37518518518518523],[-0.3765625,-0.4212962962962963],[-0.4404166666666666,-0.34888888888888886],[-0.4658333333333334,-0.42888888888888893],[-0.4920833333333333,-0.5314814814814814],[-0.5022916666666667,-0.642962962962963],[-0.5142708333333333,-0.7233333333333334],[-0.5213541666666667,-0.7909259259259259],[-0.5276041666666667,-0.7905555555555556],[-0.5015625,-0.8527777777777777],[-0.4841666666666667,-0.837037037037037],[-0.44979166666666665,-0.8688888888888888],[-0.39625,-0.892962962962963],[-0.39625,-0.892962962962963],[-0.34708333333333335,-0.8688888888888888],[-0.34708333333333335,-0.8688888888888888],[-0.30885416666666665,-0.8127777777777777],[-0.27583333333333326,-0.7783333333333333],[-0.24281250000000001,-0.7438888888888888],[-0.19322916666666667,-0.659074074074074],[-0.13552083333333337,-0.6033333333333334],[-0.10812499999999996,-0.5096296296296297],[-0.06468750000000002,-0.4740740740740741],[-0.033749999999999974,-0.41944444444444445],[-0.0015625,-0.4161111111111111],[0.04458333333333329,-0.38370370370370366],[0.10083333333333329,-0.4177777777777778],[0.12395833333333334,-0.3738888888888888],[0.16208333333333325,-0.33648148148148144],[0.18614583333333337,-0.4401851851851852],[0.18614583333333337,-0.4401851851851852],[0.21020833333333327,-0.5438888888888889],[0.2400000000000001,-0.5824074074074074],[0.26197916666666665,-0.6396296296296295],[0.26500000000000007,-0.6414814814814814],[0.26145833333333335,-0.6381481481481482],[0.26531250000000006,-0.6359259259259259],[0.2700000000000001,-0.5992592592592593],[0.29697916666666657,-0.61],[0.29697916666666657,-0.61],[0.30343749999999997,-0.6212962962962963],[0.31375000000000003,-0.5777777777777777],[0.31375000000000003,-0.5777777777777777],[0.3240624999999999,-0.5342592592592592],[0.3240624999999999,-0.5342592592592592],[0.3538541666666667,-0.5035185185185185],[0.3538541666666667,-0.5035185185185185],[0.3663541666666667,-0.4485185185185185],[0.3658333333333334,-0.32999999999999996],[0.3658333333333334,-0.32999999999999996],[0.3775000000000001,-0.29870370370370375],[0.36989583333333326,-0.22962962962962963],[0.3471874999999999,-0.17314814814814813],[0.3471874999999999,-0.17314814814814813],[0.3398958333333333,-0.16129629629629633],[0.3398958333333333,-0.16129629629629633],[0.32479166666666665,-0.0977777777777778],[0.32479166666666665,-0.0977777777777778],[0.3064583333333334,-0.07777777777777778],[0.2517708333333334,-0.024629629629629547],[0.2517708333333334,-0.024629629629629547],[0.16989583333333325,0.03555555555555564],[0.16989583333333325,0.03555555555555564],[0.12937500000000005,0.012777777777777735],[0.09468750000000009,-0.09185185185185189],[0.04572916666666664,-0.17370370370370372],[-0.009687499999999953,-0.3131481481481482],[-0.06677083333333336,-0.39037037037037037],[-0.13927083333333337,-0.42296296296296293],[-0.18343750000000003,-0.4842592592592593],[-0.23562500000000006,-0.4788888888888889],[-0.2555208333333333,-0.5253703703703704],[-0.27541666666666664,-0.6066666666666667],[-0.2953125,-0.5964814814814815],[-0.2953125,-0.5964814814814815],[-0.29812500000000003,-0.5664814814814815],[-0.29812500000000003,-0.5664814814814815],[-0.2679166666666667,-0.5455555555555556],[-0.2263541666666666,-0.5231481481481481],[-0.16208333333333336,-0.4838888888888889],[-0.08406250000000005,-0.46111111111111114],[-0.034062500000000044,-0.4096296296296296],[0.024895833333333308,-0.3661111111111111],[0.024895833333333308,-0.3661111111111111],[0.08791666666666677,-0.30388888888888893],[0.1554166666666667,-0.2875925925925926],[0.20572916666666666,-0.23351851851851857],[0.26979166666666665,-0.30944444444444447],[0.3094791666666666,-0.317037037037037],[0.33572916666666663,-0.3507407407407407],[0.35604166666666665,-0.45092592592592595],[0.3622916666666666,-0.5057407407407408],[0.38937499999999997,-0.5844444444444444],[0.4045833333333334,-0.6375925925925926],[0.4197916666666667,-0.6907407407407408],[0.4273958333333333,-0.7311111111111112],[0.4359375,-0.8233333333333334],[0.4478125000000001,-0.7859259259259259],[0.45968749999999997,-0.7485185185185185],[0.46083333333333343,-0.7007407407407407],[0.4673958333333334,-0.6433333333333333],[0.4583333333333333,-0.5931481481481482],[0.4414583333333333,-0.5637037037037037],[0.4484375,-0.5633333333333334],[0.4505208333333333,-0.5892592592592593],[0.44500000000000006,-0.5937037037037037],[0.47781250000000003,-0.5927777777777778],[0.49812500000000004,-0.6198148148148148],[0.5161458333333333,-0.6359259259259259],[0.5373958333333334,-0.6264814814814815],[0.5492708333333333,-0.6196296296296296],[0.5723958333333333,-0.6411111111111111],[0.5955208333333334,-0.6625925925925926],[0.5877083333333334,-0.620925925925926],[0.5804166666666667,-0.5601851851851852],[0.5407291666666666,-0.49166666666666664],[0.4601041666666667,-0.4390740740740741],[0.39874999999999994,-0.4053703703703703],[0.3396874999999999,-0.38259259259259265],[0.28781249999999997,-0.3346296296296296],[0.23989583333333328,-0.29370370370370374],[0.20062499999999991,-0.23740740740740737],[0.1720833333333334,-0.16740740740740737],[0.15,-0.17111111111111107],[0.1336458333333333,-0.15925925925925927],[0.1560416666666666,-0.15018518518518523],[0.20260416666666667,-0.09296296296296294],[0.23322916666666677,-0.06592592592592597],[0.2540625000000001,-0.020740740740740823],[0.2772916666666667,-0.012037037037037037],[0.3068749999999999,0.019999999999999917],[0.3325000000000001,0.04333333333333329],[0.3414583333333333,-0.0007407407407406986],[0.3633333333333333,0.0198148148148149],[0.3633333333333333,0.0198148148148149],[0.38385416666666666,0.032037037037036954],[0.38385416666666666,0.032037037037036954],[0.3857291666666666,0.03092592592592601],[0.3775000000000001,0.03555555555555564],[0.3532291666666666,0.01185185185185181],[0.34010416666666665,0.05611111111111103],[0.33656249999999993,0.03222222222222218],[0.3189583333333334,-0.05129629629629638],[0.2727083333333333,-0.11574074074074074],[0.22541666666666677,-0.14814814814814814],[0.14114583333333333,-0.102962962962963],[0.05687500000000002,-0.057777777777777754],[-0.018437500000000048,-0.08462962962962961],[-0.10520833333333333,-0.15481481481481485],[-0.1811458333333333,-0.11055555555555553],[-0.25843750000000004,-0.15240740740740744],[-0.35531250000000003,-0.17481481481481478],[-0.4217708333333333,-0.13148148148148148],[-0.4569791666666667,-0.13111111111111112],[-0.5035416666666667,-0.08870370370370366],[-0.5225000000000001,-0.16648148148148145],[-0.5495833333333333,-0.22370370370370374],[-0.5626041666666667,-0.18888888888888888],[-0.575625,-0.15407407407407406],[-0.5792708333333334,-0.07925925925925928],[-0.5703125,-0.08074074074074078],[-0.5513541666666666,0.010185185185185186],[-0.5551041666666666,0.07166666666666675],[-0.5060416666666667,0.17018518518518513],[-0.43864583333333335,0.24833333333333338],[-0.36906249999999996,0.32333333333333336],[-0.2913541666666667,0.37777777777777777],[-0.23166666666666663,0.4012962962962964],[-0.17197916666666668,0.42481481481481476],[-0.10822916666666664,0.3648148148148148],[-0.057083333333333285,0.381111111111111],[-0.00010416666666669035,0.3624074074074075],[-0.00010416666666669035,0.3624074074074075],[0.04895833333333333,0.36277777777777775],[0.04895833333333333,0.36277777777777775],[0.042499999999999954,0.3025925925925925],[0.042499999999999954,0.3025925925925925],[0.03958333333333333,0.27685185185185185],[0.03958333333333333,0.27685185185185185],[0.043124999999999976,0.23777777777777773],[0.043124999999999976,0.23777777777777773],[0.044375000000000026,0.18944444444444436],[0.044375000000000026,0.18944444444444436],[0.06364583333333336,0.172037037037037],[0.09156250000000009,0.16537037037037028],[0.10708333333333328,0.1816666666666667],[0.12708333333333333,0.2598148148148147],[0.15750000000000006,0.2462962962962963],[0.1883333333333333,0.259074074074074],[0.1946875000000001,0.2903703703703703],[0.1974999999999999,0.28722222222222227],[0.2118750000000001,0.28666666666666657],[0.2118750000000001,0.28666666666666657],[0.22854166666666675,0.2953703703703704],[0.22854166666666675,0.2953703703703704],[0.25791666666666657,0.29555555555555557],[0.2690624999999999,0.2905555555555555],[0.26281249999999995,0.26888888888888896],[0.2640625,0.15537037037037033],[0.2640625,0.15537037037037033],[0.20604166666666662,0.16740740740740737],[0.16739583333333338,0.14574074074074084],[0.15895833333333323,0.16592592592592598],[0.13645833333333332,0.1742592592592593],[0.09979166666666663,0.1764814814814814],[0.06312500000000003,0.1787037037037037],[0.06312500000000003,0.1787037037037037],[0.012083333333333357,0.22074074074074082],[-0.01854166666666662,0.2338888888888888],[-0.04760416666666671,0.24314814814814806],[-0.04760416666666671,0.24314814814814806],[-0.07687499999999996,0.28296296296296286],[-0.06312500000000003,0.2801851851851851],[-0.05406249999999998,0.29314814814814805],[-0.05406249999999998,0.29314814814814805],[-0.050625000000000024,0.29314814814814805],[-0.016458333333333287,0.24092592592592596],[-0.016458333333333287,0.24092592592592596],[0.008854166666666666,0.20259259259259255],[0.04083333333333338,0.15611111111111103],[0.07447916666666667,0.07833333333333325],[0.11541666666666663,0.04407407407407399],[0.16708333333333342,0.007777777777777862],[0.20697916666666671,-0.02907407407407416],[0.26583333333333337,-0.020185185185185143],[0.31749999999999995,-0.038703703703703664],[0.3219791666666666,-0.03722222222222227],[0.3485416666666666,0.022592592592592678],[0.3315624999999999,0.005555555555555556],[0.30791666666666656,-0.003333333333333249],[0.2842708333333334,-0.012222222222222264],[0.27395833333333336,-0.06092592592592588],[0.2695833333333333,-0.10351851851851848],[0.2711458333333333,-0.13555555555555554],[0.2537499999999999,-0.21333333333333332],[0.2537499999999999,-0.21333333333333332],[0.28156249999999994,-0.2690740740740741],[0.33354166666666674,-0.4075925925925926],[0.3467708333333334,-0.5403703703703704],[0.39604166666666674,-0.5435185185185185],[0.4453125,-0.5466666666666666],[0.4895833333333333,-0.532962962962963],[0.4895833333333333,-0.532962962962963],[0.5166666666666667,-0.5251851851851852],[0.5166666666666667,-0.5251851851851852],[0.54375,-0.5174074074074073],[0.5398958333333332,-0.48],[0.5360416666666665,-0.4425925925925926],[0.4708333333333333,-0.44648148148148153],[0.4708333333333333,-0.44648148148148153],[0.4258333333333333,-0.41703703703703704],[0.3651041666666667,-0.4168518518518519],[0.32479166666666665,-0.427962962962963],[0.28916666666666657,-0.41277777777777774],[0.28916666666666657,-0.41277777777777774],[0.2585416666666667,-0.41444444444444445],[0.2585416666666667,-0.41444444444444445],[0.22614583333333324,-0.30999999999999994],[0.22614583333333324,-0.30999999999999994],[0.2179166666666667,-0.24222222222222226],[0.2267708333333334,-0.21703703703703703],[0.24072916666666658,-0.18222222222222217],[0.2708333333333333,-0.12814814814814812],[0.2803124999999999,-0.1111111111111111],[0.3055208333333333,-0.06481481481481481],[0.2638541666666666,-0.08333333333333333],[0.21739583333333337,-0.06500000000000004],[0.22708333333333333,-0.1259259259259259],[0.22427083333333328,-0.26740740740740737],[0.1794791666666666,-0.3235185185185185],[0.14260416666666675,-0.3772222222222222],[0.12468750000000005,-0.39462962962962966],[0.08083333333333324,-0.4053703703703703],[0.06041666666666667,-0.3496296296296296],[0.06041666666666667,-0.3496296296296296],[-0.01854166666666662,-0.30833333333333335],[-0.07416666666666671,-0.25407407407407406],[-0.07416666666666671,-0.25407407407407406],[-0.09645833333333335,-0.2918518518518519],[-0.11541666666666663,-0.3124074074074074],[-0.134375,-0.33296296296296296],[-0.15989583333333332,-0.31574074074074077],[-0.17197916666666668,-0.3257407407407407],[-0.16072916666666662,-0.4044444444444444],[-0.19947916666666668,-0.4311111111111111],[-0.19947916666666668,-0.4311111111111111],[-0.21031249999999999,-0.55],[-0.1265625,-0.5801851851851852],[-0.04791666666666667,-0.6138888888888889],[0.016458333333333287,-0.5592592592592592],[-0.016875000000000046,-0.48037037037037034],[-0.05020833333333338,-0.4014814814814815],[-0.05020833333333338,-0.4014814814814815],[-0.0140625,-0.4192592592592592],[-0.0140625,-0.4192592592592592],[-0.050937499999999976,-0.4035185185185185],[-0.050937499999999976,-0.4035185185185185],[-0.13947916666666665,-0.36314814814814816],[-0.13947916666666665,-0.36314814814814816],[-0.1328125,-0.3242592592592593],[-0.1328125,-0.3242592592592593],[-0.15572916666666667,-0.21481481481481482],[-0.15572916666666667,-0.21481481481481482],[-0.21833333333333335,-0.18425925925925926],[-0.21833333333333335,-0.18425925925925926],[-0.2375,-0.09833333333333337],[-0.2375,-0.09833333333333337],[-0.28624999999999995,-0.1455555555555556],[-0.30416666666666664,-0.07240740740740745],[-0.30416666666666664,-0.07240740740740745],[-0.2976041666666667,-0.00722222222222218],[-0.2976041666666667,-0.00722222222222218],[-0.33718750000000003,0.06777777777777783],[-0.33718750000000003,0.06777777777777783],[-0.31052083333333336,0.11407407407407412],[-0.31052083333333336,0.11407407407407412],[-0.26989583333333333,0.15388888888888894],[-0.22427083333333328,0.2125925925925925],[-0.18979166666666672,0.23296296296296287]]","[[0.05552083333333328,0.04592592592592584,0.0003000001907338401],[0.05552083333333328,0.04592592592592584,0.0538000001907335],[0.05552083333333328,0.04592592592592584,0.060300000190736114],[0.06739583333333338,-0.060370370370370414,0.07699999999999818],[0.07270833333333329,-0.0962962962962963,0.09709999990463558],[0.07270833333333329,-0.0962962962962963,0.11030000019073327],[0.10614583333333343,-0.13944444444444445,0.1270999999046296],[0.10291666666666661,-0.18277777777777776,0.1452000002861027],[0.10291666666666661,-0.18277777777777776,0.16030000019073753],[0.11281249999999995,-0.1388888888888889,0.1769999999999996],[0.11427083333333338,-0.16425925925925924,0.1935999999046345],[0.12916666666666668,-0.2631481481481482,0.2103000001907347],[0.1397916666666667,-0.35722222222222216,0.22700000000000387],[0.14739583333333334,-0.41351851851851856,0.24359999990463166],[0.15677083333333333,-0.402962962962963,0.26030000019073185],[0.14364583333333342,-0.3972222222222222,0.277000000000001],[0.12604166666666666,-0.4118518518518518,0.2954000000953698],[0.10041666666666677,-0.4535185185185185,0.3103000001907361],[0.09364583333333343,-0.4946296296296297,0.326900000095371],[0.0775000000000001,-0.5366666666666667,0.3435999999046331],[0.05322916666666669,-0.5625925925925926,0.3602000002861061],[0.049270833333333285,-0.5087037037037037,0.37700000000000244],[0.009895833333333333,-0.42185185185185187,0.39359999990463024],[-0.0265625,-0.37222222222222223,0.41030000019073753],[-0.06645833333333329,-0.3425925925925926,0.4305999999046364],[-0.0967708333333333,-0.32537037037037037,0.4440000000000026],[-0.12041666666666669,-0.32833333333333337,0.4602000002861004],[-0.13145833333333337,-0.3977777777777778,0.4769000000953696],[-0.15437500000000004,-0.3714814814814815,0.49359999990463166],[-0.19624999999999998,-0.2948148148148148,0.5102000002861047],[-0.22270833333333329,-0.27462962962962967,0.527000000000001],[-0.2711458333333333,-0.2490740740740741,0.5438000001907355],[-0.2841666666666666,-0.2564814814814815,0.5603000001907361],[-0.3061458333333333,-0.30277777777777776,0.576900000095371],[-0.3246875000000001,-0.3290740740740741,0.5949999999999989],[-0.350625,-0.37518518518518523,0.6103000001907333],[-0.350625,-0.37518518518518523,0.6270999999046296],[-0.3765625,-0.4212962962962963,0.6435999999046302],[-0.4404166666666666,-0.34888888888888886,0.661999999999999],[-0.4658333333333334,-0.42888888888888893,0.6769000000953653],[-0.4920833333333333,-0.5314814814814814,0.6935999999046345],[-0.5022916666666667,-0.642962962962963,0.7105000000000032],[-0.5142708333333333,-0.7233333333333334,0.7299000000953697],[-0.5213541666666667,-0.7909259259259259,0.7467000002861042],[-0.5276041666666667,-0.7905555555555556,0.7620000000000005],[-0.5015625,-0.8527777777777777,0.777000000000001],[-0.4841666666666667,-0.837037037037037,0.7935999999046359],[-0.44979166666666665,-0.8688888888888888,0.8104999999999976],[-0.39625,-0.892962962962963,0.8280999999046301],[-0.39625,-0.892962962962963,0.8437000002861055],[-0.34708333333333335,-0.8688888888888888,0.8603000001907333],[-0.34708333333333335,-0.8688888888888888,0.8770000000000024],[-0.30885416666666665,-0.8127777777777777,0.8937000002861026],[-0.27583333333333326,-0.7783333333333333,0.9103000001907375],[-0.24281250000000001,-0.7438888888888888,0.9274000000953677],[-0.19322916666666667,-0.659074074074074,0.9435999999046345],[-0.13552083333333337,-0.6033333333333334,0.9603000001907347],[-0.10812499999999996,-0.5096296296296297,0.9769000000953696],[-0.06468750000000002,-0.4740740740740741,0.9934999999999974],[-0.033749999999999974,-0.41944444444444445,1.0102000002861047],[-0.0015625,-0.4161111111111111,1.0298000001907326],[0.04458333333333329,-0.38370370370370366,1.0472000002861037],[0.10083333333333329,-0.4177777777777778,1.0629000000953681],[0.12395833333333334,-0.3738888888888888,1.079500000000003],[0.16208333333333325,-0.33648148148148144,1.0964000000953646],[0.18614583333333337,-0.4401851851851852,1.1103000001907333],[0.18614583333333337,-0.4401851851851852,1.1270999999046296],[0.21020833333333327,-0.5438888888888889,1.1435999999046302],[0.2400000000000001,-0.5824074074074074,1.1602000002861033],[0.26197916666666665,-0.6396296296296295,1.1769999999999996],[0.26500000000000007,-0.6414814814814814,1.1955000000000027],[0.26145833333333335,-0.6381481481481482,1.2109999999999985],[0.26531250000000006,-0.6359259259259259,1.230000000000004],[0.2700000000000001,-0.5992592592592593,1.243700000286104],[0.29697916666666657,-0.61,1.2615999999046323],[0.29697916666666657,-0.61,1.2769000000953667],[0.30343749999999997,-0.6212962962962963,1.293599999904636],[0.31375000000000003,-0.5777777777777777,1.315800000190734],[0.31375000000000003,-0.5777777777777777,1.3269999999999982],[0.3240624999999999,-0.5342592592592592,1.343599999904633],[0.3240624999999999,-0.5342592592592592,1.3603000001907333],[0.3538541666666667,-0.5035185185185185,1.3769000000953682],[0.3538541666666667,-0.5035185185185185,1.3935999999046302],[0.3663541666666667,-0.4485185185185185,1.4103000001907375],[0.3658333333333334,-0.32999999999999996,1.4337000002861018],[0.3658333333333334,-0.32999999999999996,1.4435999999046345],[0.3775000000000001,-0.29870370370370375,1.4603000001907347],[0.36989583333333326,-0.22962962962962963,1.4812000002861012],[0.3471874999999999,-0.17314814814814813,1.499200000286102],[0.3471874999999999,-0.17314814814814813,1.5102000002861047],[0.3398958333333333,-0.16129629629629633,1.527000000000001],[0.3398958333333333,-0.16129629629629633,1.543599999904636],[0.32479166666666665,-0.0977777777777778,1.5603000001907361],[0.32479166666666665,-0.0977777777777778,1.5769999999999982],[0.3064583333333334,-0.07777777777777778,1.5938000001907326],[0.2517708333333334,-0.024629629629629547,1.616500000000002],[0.2517708333333334,-0.024629629629629547,1.6270000000000024],[0.16989583333333325,0.03555555555555564,1.6437000002861026],[0.16989583333333325,0.03555555555555564,1.6603000001907375],[0.12937500000000005,0.012777777777777735,1.6769999999999996],[0.09468750000000009,-0.09185185185185189,1.6935999999046345],[0.04572916666666664,-0.17370370370370372,1.7120000000000033],[-0.009687499999999953,-0.3131481481481482,1.7304999999999993],[-0.06677083333333336,-0.39037037037037037,1.7464999999999975],[-0.13927083333333337,-0.42296296296296293,1.7605999999046347],[-0.18343750000000003,-0.4842592592592593,1.7769000000953667],[-0.23562500000000006,-0.4788888888888889,1.7960999999046336],[-0.2555208333333333,-0.5253703703703704,1.8115000000000023],[-0.27541666666666664,-0.6066666666666667,1.8315999999046326],[-0.2953125,-0.5964814814814815,1.8477000002861033],[-0.2953125,-0.5964814814814815,1.8603000001907333],[-0.29812500000000003,-0.5664814814814815,1.8769000000953682],[-0.29812500000000003,-0.5664814814814815,1.8935999999046302],[-0.2679166666666667,-0.5455555555555556,1.9103000001907375],[-0.2263541666666666,-0.5231481481481481,1.9269000000953653],[-0.16208333333333336,-0.4838888888888889,1.9435000000000002],[-0.08406250000000005,-0.46111111111111114,1.9602000002861004],[-0.034062500000000044,-0.4096296296296296,1.9770000000000039],[0.024895833333333308,-0.3661111111111111,1.9969999999999999],[0.024895833333333308,-0.3661111111111111,2.0130999999046324],[0.08791666666666677,-0.30388888888888893,2.0270999999046353],[0.1554166666666667,-0.2875925925925926,2.043599999904636],[0.20572916666666666,-0.23351851851851857,2.060300000190736],[0.26979166666666665,-0.30944444444444447,2.076900000095371],[0.3094791666666666,-0.317037037037037,2.093499999999999],[0.33572916666666663,-0.3507407407407407,2.1103000001907333],[0.35604166666666665,-0.45092592592592595,2.126900000095368],[0.3622916666666666,-0.5057407407407408,2.1435999999046302],[0.38937499999999997,-0.5844444444444444,2.1632000002861034],[0.4045833333333334,-0.6375925925925926,2.1769000000953653],[0.4197916666666667,-0.6907407407407408,2.1935999999046345],[0.4273958333333333,-0.7311111111111112,2.2102000002861004],[0.4359375,-0.8233333333333334,2.227099999904631],[0.4478125000000001,-0.7859259259259259,2.2435999999046317],[0.45968749999999997,-0.7485185185185185,2.260300000190732],[0.46083333333333343,-0.7007407407407407,2.2769000000953667],[0.4673958333333334,-0.6433333333333333,2.293599999904636],[0.4583333333333333,-0.5931481481481482,2.310200000286102],[0.4414583333333333,-0.5637037037037037,2.326999999999998],[0.4484375,-0.5633333333333334,2.343599999904633],[0.4505208333333333,-0.5892592592592593,2.3603000001907333],[0.44500000000000006,-0.5937037037037037,2.3770000000000024],[0.47781250000000003,-0.5927777777777778,2.3935999999046302],[0.49812500000000004,-0.6198148148148148,2.4103000001907375],[0.5161458333333333,-0.6359259259259259,2.4303000001907336],[0.5373958333333334,-0.6264814814814815,2.4440000000000026],[0.5492708333333333,-0.6196296296296296,2.4602000002861004],[0.5723958333333333,-0.6411111111111111,2.4769000000953696],[0.5955208333333334,-0.6625925925925926,2.4938000001907383],[0.5877083333333334,-0.620925925925926,2.510300000190732],[0.5804166666666667,-0.5601851851851852,2.5269000000953667],[0.5407291666666666,-0.49166666666666664,2.543700000286101],[0.4601041666666667,-0.4390740740740741,2.560300000190736],[0.39874999999999994,-0.4053703703703703,2.576900000095371],[0.3396874999999999,-0.38259259259259265,2.593599999904633],[0.28781249999999997,-0.3346296296296296,2.6103000001907333],[0.23989583333333328,-0.29370370370370374,2.6285000000000025],[0.20062499999999991,-0.23740740740740737,2.6450999999046303],[0.1720833333333334,-0.16740740740740737,2.6602000002861033],[0.15,-0.17111111111111107,2.6769000000953653],[0.1336458333333333,-0.15925925925925927,2.6935999999046345],[0.1560416666666666,-0.15018518518518523,2.7102000002861004],[0.20260416666666667,-0.09296296296296294,2.730099999904631],[0.23322916666666677,-0.06592592592592597,2.746700000286104],[0.2540625000000001,-0.020740740740740823,2.7635000000000005],[0.2772916666666667,-0.012037037037037037,2.7783000001907325],[0.3068749999999999,0.019999999999999917,2.793599999904636],[0.3325000000000001,0.04333333333333329,2.810300000190736],[0.3414583333333333,-0.0007407407407406986,2.82959999990463],[0.3633333333333333,0.0198148148148149,2.843599999904633],[0.3633333333333333,0.0198148148148149,2.8603000001907333],[0.38385416666666666,0.032037037037036954,2.8770999999046296],[0.38385416666666666,0.032037037037036954,2.8935999999046302],[0.3857291666666666,0.03092592592592601,2.9103000001907375],[0.3775000000000001,0.03555555555555564,2.9269000000953653],[0.3532291666666666,0.01185185185185181,2.9435999999046345],[0.34010416666666665,0.05611111111111103,2.9602000002861004],[0.33656249999999993,0.03222222222222218,2.9768000001907353],[0.3189583333333334,-0.05129629629629638,2.9935999999046317],[0.2727083333333333,-0.11574074074074074,3.0102000002861047],[0.22541666666666677,-0.14814814814814814,3.0297000002861054],[0.14114583333333333,-0.102962962962963,3.046300000190733],[0.05687500000000002,-0.057777777777777754,3.060200000286102],[-0.018437500000000048,-0.08462962962962961,3.076999999999998],[-0.10520833333333333,-0.15481481481481485,3.093599999904633],[-0.1811458333333333,-0.11055555555555553,3.1103000001907333],[-0.25843750000000004,-0.15240740740740744,3.127200000286102],[-0.35531250000000003,-0.17481481481481478,3.1437000002861026],[-0.4217708333333333,-0.13148148148148148,3.1619000000953648],[-0.4569791666666667,-0.13111111111111112,3.1772000002861063],[-0.5035416666666667,-0.08870370370370366,3.1955000000000027],[-0.5225000000000001,-0.16648148148148145,3.2102000002861004],[-0.5495833333333333,-0.22370370370370374,3.2298000001907354],[-0.5626041666666667,-0.18888888888888888,3.2454000000953656],[-0.575625,-0.15407407407407406,3.2602000002861047],[-0.5792708333333334,-0.07925925925925928,3.2768000001907325],[-0.5703125,-0.08074074074074078,3.293599999904636],[-0.5513541666666666,0.010185185185185186,3.310200000286102],[-0.5551041666666666,0.07166666666666675,3.327300000190732],[-0.5060416666666667,0.17018518518518513,3.343499999999999],[-0.43864583333333335,0.24833333333333338,3.3608000001907357],[-0.36906249999999996,0.32333333333333336,3.376900000095368],[-0.2913541666666667,0.37777777777777777,3.3935999999046302],[-0.23166666666666663,0.4012962962962964,3.4102000002861033],[-0.17197916666666668,0.42481481481481476,3.4288000001907335],[-0.10822916666666664,0.3648148148148148,3.444900000095366],[-0.057083333333333285,0.381111111111111,3.460800000190737],[-0.00010416666666669035,0.3624074074074075,3.4769000000953696],[-0.00010416666666669035,0.3624074074074075,3.4934999999999974],[0.04895833333333333,0.36277777777777775,3.5102000002861047],[0.04895833333333333,0.36277777777777775,3.5269000000953667],[0.042499999999999954,0.3025925925925925,3.543599999904636],[0.042499999999999954,0.3025925925925925,3.560200000286102],[0.03958333333333333,0.27685185185185185,3.576999999999998],[0.03958333333333333,0.27685185185185185,3.593499999999999],[0.043124999999999976,0.23777777777777773,3.6154999999999973],[0.043124999999999976,0.23777777777777773,3.6270000000000024],[0.044375000000000026,0.18944444444444436,3.6435999999046302],[0.044375000000000026,0.18944444444444436,3.6602000002861033],[0.06364583333333336,0.172037037037037,3.6769999999999996],[0.09156250000000009,0.16537037037037028,3.6935999999046345],[0.10708333333333328,0.1816666666666667,3.7103000001907347],[0.12708333333333333,0.2598148148148147,3.7298000001907354],[0.15750000000000006,0.2462962962962963,3.7454000000953656],[0.1883333333333333,0.259074074074074,3.7615999999046323],[0.1946875000000001,0.2903703703703703,3.7769000000953667],[0.1974999999999999,0.28722222222222227,3.796599999904636],[0.2118750000000001,0.28666666666666657,3.810300000190736],[0.2118750000000001,0.28666666666666657,3.826999999999998],[0.22854166666666675,0.2953703703703704,3.843599999904633],[0.22854166666666675,0.2953703703703704,3.8603000001907333],[0.25791666666666657,0.29555555555555557,3.8770000000000024],[0.2690624999999999,0.2905555555555555,3.898599999904633],[0.26281249999999995,0.26888888888888896,3.9129000000953695],[0.2640625,0.15537037037037033,3.933400000095368],[0.2640625,0.15537037037037033,3.9435999999046345],[0.20604166666666662,0.16740740740740737,3.9605000000000032],[0.16739583333333338,0.14574074074074084,3.977700000286106],[0.15895833333333323,0.16592592592592598,3.997099999904634],[0.13645833333333332,0.1742592592592593,4.013300000190732],[0.09979166666666663,0.1764814814814814,4.0309000000953645],[0.06312500000000003,0.1787037037037037,4.049500000000002],[0.06312500000000003,0.1787037037037037,4.06040000009537],[0.012083333333333357,0.22074074074074082,4.077200000286105],[-0.01854166666666662,0.2338888888888888,4.095800000190735],[-0.04760416666666671,0.24314814814814806,4.1237000002860995],[-0.04760416666666671,0.24314814814814806,4.132800000190734],[-0.07687499999999996,0.28296296296296286,4.143900000095371],[-0.06312500000000003,0.2801851851851851,4.164300000190735],[-0.05406249999999998,0.29314814814814805,4.180800000190736],[-0.05406249999999998,0.29314814814814805,4.193800000190734],[-0.050625000000000024,0.29314814814814805,4.210500000000003],[-0.016458333333333287,0.24092592592592596,4.235300000190733],[-0.016458333333333287,0.24092592592592596,4.243800000190738],[0.008854166666666666,0.20259259259259255,4.2607000002861],[0.04083333333333338,0.15611111111111103,4.277300000190735],[0.07447916666666667,0.07833333333333325,4.297599999904634],[0.11541666666666663,0.04407407407407399,4.3130999999046296],[0.16708333333333342,0.007777777777777862,4.331000000000003],[0.20697916666666671,-0.02907407407407416,4.349000000000004],[0.26583333333333337,-0.020185185185185143,4.3629999999999995],[0.31749999999999995,-0.038703703703703664,4.379300000190739],[0.3219791666666666,-0.03722222222222227,4.399300000190735],[0.3485416666666666,0.022592592592592678,4.414099999904636],[0.3315624999999999,0.005555555555555556,4.430599999904636],[0.30791666666666656,-0.003333333333333249,4.446599999904635],[0.2842708333333334,-0.012222222222222264,4.464700000286101],[0.27395833333333336,-0.06092592592592588,4.479599999904636],[0.2695833333333333,-0.10351851851851848,4.493800000190738],[0.2711458333333333,-0.13555555555555554,4.510400000095366],[0.2537499999999999,-0.21333333333333332,4.534800000190735],[0.2537499999999999,-0.21333333333333332,4.543599999904636],[0.28156249999999994,-0.2690740740740741,4.5604999999999976],[0.33354166666666674,-0.4075925925925926,4.5770999999046325],[0.3467708333333334,-0.5403703703703704,4.597700000286103],[0.39604166666666674,-0.5435185185185185,4.613099999904634],[0.4453125,-0.5466666666666666,4.630400000095371],[0.4895833333333333,-0.532962962962963,4.650300000190732],[0.4895833333333333,-0.532962962962963,4.660700000286106],[0.5166666666666667,-0.5251851851851852,4.677099999904634],[0.5166666666666667,-0.5251851851851852,4.6937000002861],[0.54375,-0.5174074074074073,4.7143000001907325],[0.5398958333333332,-0.48,4.731000000000002],[0.5360416666666665,-0.4425925925925926,4.7479999999999976],[0.4708333333333333,-0.44648148148148153,4.7668000001907345],[0.4708333333333333,-0.44648148148148153,4.777099999904635],[0.4258333333333333,-0.41703703703703704,4.79390000009537],[0.3651041666666667,-0.4168518518518519,4.812099999904632],[0.32479166666666665,-0.427962962962963,4.832900000095371],[0.28916666666666657,-0.41277777777777774,4.848700000286101],[0.28916666666666657,-0.41277777777777774,4.860599999904636],[0.2585416666666667,-0.41444444444444445,4.877400000095371],[0.2585416666666667,-0.41444444444444445,4.893700000286103],[0.22614583333333324,-0.30999999999999994,4.910200000286103],[0.22614583333333324,-0.30999999999999994,4.926900000095365],[0.2179166666666667,-0.24222222222222226,4.9435999999046345],[0.2267708333333334,-0.21703703703703703,4.962000000000003],[0.24072916666666658,-0.18222222222222217,4.977300000190738],[0.2708333333333333,-0.12814814814814812,4.99490000009537],[0.2803124999999999,-0.1111111111111111,5.010200000286105],[0.3055208333333333,-0.06481481481481481,5.027599999904631],[0.2638541666666666,-0.08333333333333333,5.043999999999997],[0.21739583333333337,-0.06500000000000004,5.062300000190739],[0.22708333333333333,-0.1259259259259259,5.077200000286105],[0.22427083333333328,-0.26740740740740737,5.0952000002861055],[0.1794791666666666,-0.3235185185185185,5.110200000286106],[0.14260416666666675,-0.3772222222222222,5.130200000286102],[0.12468750000000005,-0.39462962962962966,5.148200000286103],[0.08083333333333324,-0.4053703703703703,5.163400000095365],[0.06041666666666667,-0.3496296296296296,5.186],[0.06041666666666667,-0.3496296296296296,5.1935999999046345],[-0.01854166666666662,-0.30833333333333335,5.210500000000003],[-0.07416666666666671,-0.25407407407407406,5.233700000286106],[-0.07416666666666671,-0.25407407407407406,5.2439000000953655],[-0.09645833333333335,-0.2918518518518519,5.260400000095366],[-0.11541666666666663,-0.3124074074074074,5.277099999904635],[-0.134375,-0.33296296296296296,5.297599999904634],[-0.15989583333333332,-0.31574074074074077,5.312800000190734],[-0.17197916666666668,-0.3257407407407407,5.329700000286103],[-0.16072916666666662,-0.4044444444444444,5.3478000001907375],[-0.19947916666666668,-0.4311111111111111,5.367200000286104],[-0.19947916666666668,-0.4311111111111111,5.37709999990463],[-0.21031249999999999,-0.55,5.393800000190737],[-0.1265625,-0.5801851851851852,5.413400000095365],[-0.04791666666666667,-0.6138888888888889,5.43090000009537],[0.016458333333333287,-0.5592592592592592,5.448700000286102],[-0.016875000000000046,-0.48037037037037034,5.464500000000001],[-0.05020833333333338,-0.4014814814814815,5.488599999904636],[-0.05020833333333338,-0.4014814814814815,5.508000000000003],[-0.0140625,-0.4192592592592592,5.523400000095371],[-0.0140625,-0.4192592592592592,5.538700000286106],[-0.050937499999999976,-0.4035185185185185,5.550800000190733],[-0.050937499999999976,-0.4035185185185185,5.560200000286102],[-0.13947916666666665,-0.36314814814814816,5.576900000095371],[-0.13947916666666665,-0.36314814814814816,5.593599999904633],[-0.1328125,-0.3242592592592593,5.610200000286106],[-0.1328125,-0.3242592592592593,5.626900000095368],[-0.15572916666666667,-0.21481481481481482,5.64359999990463],[-0.15572916666666667,-0.21481481481481482,5.660200000286103],[-0.21833333333333335,-0.18425925925925926,5.676800000190738],[-0.21833333333333335,-0.18425925925925926,5.6935999999046345],[-0.2375,-0.09833333333333337,5.7102000002861],[-0.2375,-0.09833333333333337,5.72690000009537],[-0.28624999999999995,-0.1455555555555556,5.743700000286104],[-0.30416666666666664,-0.07240740740740745,5.766500000000001],[-0.30416666666666664,-0.07240740740740745,5.7768000001907325],[-0.2976041666666667,-0.00722222222222218,5.793599999904636],[-0.2976041666666667,-0.00722222222222218,5.810200000286102],[-0.33718750000000003,0.06777777777777783,5.826999999999998],[-0.33718750000000003,0.06777777777777783,5.843599999904633],[-0.31052083333333336,0.11407407407407412,5.860800000190736],[-0.31052083333333336,0.11407407407407412,5.876900000095368],[-0.26989583333333333,0.15388888888888894,5.89359999990463],[-0.22427083333333328,0.2125925925925925,5.910200000286103],[-0.18979166666666672,0.23296296296296287,5.927]]","[0.0003000001907338401,0.0538000001907335,0.060300000190736114,0.07699999999999818,0.09709999990463558,0.11030000019073327,0.1270999999046296,0.1452000002861027,0.16030000019073753,0.1769999999999996,0.1935999999046345,0.2103000001907347,0.22700000000000387,0.24359999990463166,0.26030000019073185,0.277000000000001,0.2954000000953698,0.3103000001907361,0.326900000095371,0.3435999999046331,0.3602000002861061,0.37700000000000244,0.39359999990463024,0.41030000019073753,0.4305999999046364,0.4440000000000026,0.4602000002861004,0.4769000000953696,0.49359999990463166,0.5102000002861047,0.527000000000001,0.5438000001907355,0.5603000001907361,0.576900000095371,0.5949999999999989,0.6103000001907333,0.6270999999046296,0.6435999999046302,0.661999999999999,0.6769000000953653,0.6935999999046345,0.7105000000000032,0.7299000000953697,0.7467000002861042,0.7620000000000005,0.777000000000001,0.7935999999046359,0.8104999999999976,0.8280999999046301,0.8437000002861055,0.8603000001907333,0.8770000000000024,0.8937000002861026,0.9103000001907375,0.9274000000953677,0.9435999999046345,0.9603000001907347,0.9769000000953696,0.9934999999999974,1.0102000002861047,1.0298000001907326,1.0472000002861037,1.0629000000953681,1.079500000000003,1.0964000000953646,1.1103000001907333,1.1270999999046296,1.1435999999046302,1.1602000002861033,1.1769999999999996,1.1955000000000027,1.2109999999999985,1.230000000000004,1.243700000286104,1.2615999999046323,1.2769000000953667,1.293599999904636,1.315800000190734,1.3269999999999982,1.343599999904633,1.3603000001907333,1.3769000000953682,1.3935999999046302,1.4103000001907375,1.4337000002861018,1.4435999999046345,1.4603000001907347,1.4812000002861012,1.499200000286102,1.5102000002861047,1.527000000000001,1.543599999904636,1.5603000001907361,1.5769999999999982,1.5938000001907326,1.616500000000002,1.6270000000000024,1.6437000002861026,1.6603000001907375,1.6769999999999996,1.6935999999046345,1.7120000000000033,1.7304999999999993,1.7464999999999975,1.7605999999046347,1.7769000000953667,1.7960999999046336,1.8115000000000023,1.8315999999046326,1.8477000002861033,1.8603000001907333,1.8769000000953682,1.8935999999046302,1.9103000001907375,1.9269000000953653,1.9435000000000002,1.9602000002861004,1.9770000000000039,1.9969999999999999,2.0130999999046324,2.0270999999046353,2.043599999904636,2.060300000190736,2.076900000095371,2.093499999999999,2.1103000001907333,2.126900000095368,2.1435999999046302,2.1632000002861034,2.1769000000953653,2.1935999999046345,2.2102000002861004,2.227099999904631,2.2435999999046317,2.260300000190732,2.2769000000953667,2.293599999904636,2.310200000286102,2.326999999999998,2.343599999904633,2.3603000001907333,2.3770000000000024,2.3935999999046302,2.4103000001907375,2.4303000001907336,2.4440000000000026,2.4602000002861004,2.4769000000953696,2.4938000001907383,2.510300000190732,2.5269000000953667,2.543700000286101,2.560300000190736,2.576900000095371,2.593599999904633,2.6103000001907333,2.6285000000000025,2.6450999999046303,2.6602000002861033,2.6769000000953653,2.6935999999046345,2.7102000002861004,2.730099999904631,2.746700000286104,2.7635000000000005,2.7783000001907325,2.793599999904636,2.810300000190736,2.82959999990463,2.843599999904633,2.8603000001907333,2.8770999999046296,2.8935999999046302,2.9103000001907375,2.9269000000953653,2.9435999999046345,2.9602000002861004,2.9768000001907353,2.9935999999046317,3.0102000002861047,3.0297000002861054,3.046300000190733,3.060200000286102,3.076999999999998,3.093599999904633,3.1103000001907333,3.127200000286102,3.1437000002861026,3.1619000000953648,3.1772000002861063,3.1955000000000027,3.2102000002861004,3.2298000001907354,3.2454000000953656,3.2602000002861047,3.2768000001907325,3.293599999904636,3.310200000286102,3.327300000190732,3.343499999999999,3.3608000001907357,3.376900000095368,3.3935999999046302,3.4102000002861033,3.4288000001907335,3.444900000095366,3.460800000190737,3.4769000000953696,3.4934999999999974,3.5102000002861047,3.5269000000953667,3.543599999904636,3.560200000286102,3.576999999999998,3.593499999999999,3.6154999999999973,3.6270000000000024,3.6435999999046302,3.6602000002861033,3.6769999999999996,3.6935999999046345,3.7103000001907347,3.7298000001907354,3.7454000000953656,3.7615999999046323,3.7769000000953667,3.796599999904636,3.810300000190736,3.826999999999998,3.843599999904633,3.8603000001907333,3.8770000000000024,3.898599999904633,3.9129000000953695,3.933400000095368,3.9435999999046345,3.9605000000000032,3.977700000286106,3.997099999904634,4.013300000190732,4.0309000000953645,4.049500000000002,4.06040000009537,4.077200000286105,4.095800000190735,4.1237000002860995,4.132800000190734,4.143900000095371,4.164300000190735,4.180800000190736,4.193800000190734,4.210500000000003,4.235300000190733,4.243800000190738,4.2607000002861,4.277300000190735,4.297599999904634,4.3130999999046296,4.331000000000003,4.349000000000004,4.3629999999999995,4.379300000190739,4.399300000190735,4.414099999904636,4.430599999904636,4.446599999904635,4.464700000286101,4.479599999904636,4.493800000190738,4.510400000095366,4.534800000190735,4.543599999904636,4.5604999999999976,4.5770999999046325,4.597700000286103,4.613099999904634,4.630400000095371,4.650300000190732,4.660700000286106,4.677099999904634,4.6937000002861,4.7143000001907325,4.731000000000002,4.7479999999999976,4.7668000001907345,4.777099999904635,4.79390000009537,4.812099999904632,4.832900000095371,4.848700000286101,4.860599999904636,4.877400000095371,4.893700000286103,4.910200000286103,4.926900000095365,4.9435999999046345,4.962000000000003,4.977300000190738,4.99490000009537,5.010200000286105,5.027599999904631,5.043999999999997,5.062300000190739,5.077200000286105,5.0952000002861055,5.110200000286106,5.130200000286102,5.148200000286103,5.163400000095365,5.186,5.1935999999046345,5.210500000000003,5.233700000286106,5.2439000000953655,5.260400000095366,5.277099999904635,5.297599999904634,5.312800000190734,5.329700000286103,5.3478000001907375,5.367200000286104,5.37709999990463,5.393800000190737,5.413400000095365,5.43090000009537,5.448700000286102,5.464500000000001,5.488599999904636,5.508000000000003,5.523400000095371,5.538700000286106,5.550800000190733,5.560200000286102,5.576900000095371,5.593599999904633,5.610200000286106,5.626900000095368,5.64359999990463,5.660200000286103,5.676800000190738,5.6935999999046345,5.7102000002861,5.72690000009537,5.743700000286104,5.766500000000001,5.7768000001907325,5.793599999904636,5.810200000286102,5.826999999999998,5.843599999904633,5.860800000190736,5.876900000095368,5.89359999990463,5.910200000286103,5.927]","[1731911386427,1731911386470,1731911386477,1731911386494,1731911386514,1731911386527,1731911386544,1731911386562,1731911386577,1731911386594,1731911386610,1731911386627,1731911386644,1731911386660,1731911386677,1731911386694,1731911386712,1731911386727,1731911386744,1731911386760,1731911386777,1731911386794,1731911386810,1731911386827,1731911386847,1731911386861,1731911386877,1731911386894,1731911386910,1731911386927,1731911386944,1731911386960,1731911386977,1731911386994,1731911387012,1731911387027,1731911387044,1731911387060,1731911387079,1731911387094,1731911387110,1731911387127,1731911387146,1731911387163,1731911387179,1731911387194,1731911387210,1731911387227,1731911387245,1731911387260,1731911387277,1731911387294,1731911387310,1731911387327,1731911387344,1731911387360,1731911387377,1731911387393,1731911387410,1731911387427,1731911387446,1731911387464,1731911387479,1731911387496,1731911387513,1731911387527,1731911387544,1731911387560,1731911387577,1731911387594,1731911387612,1731911387628,1731911387647,1731911387660,1731911387678,1731911387694,1731911387710,1731911387732,1731911387744,1731911387760,1731911387777,1731911387794,1731911387810,1731911387827,1731911387850,1731911387860,1731911387877,1731911387898,1731911387916,1731911387927,1731911387944,1731911387960,1731911387977,1731911387994,1731911388010,1731911388033,1731911388044,1731911388060,1731911388077,1731911388093,1731911388111,1731911388129,1731911388148,1731911388164,1731911388178,1731911388194,1731911388213,1731911388229,1731911388249,1731911388265,1731911388278,1731911388294,1731911388311,1731911388328,1731911388344,1731911388361,1731911388378,1731911388394,1731911388414,1731911388430,1731911388444,1731911388461,1731911388478,1731911388494,1731911388511,1731911388528,1731911388544,1731911388561,1731911388581,1731911388594,1731911388611,1731911388628,1731911388644,1731911388661,1731911388678,1731911388694,1731911388711,1731911388728,1731911388744,1731911388761,1731911388778,1731911388794,1731911388811,1731911388828,1731911388848,1731911388861,1731911388878,1731911388894,1731911388911,1731911388928,1731911388944,1731911388961,1731911388978,1731911388994,1731911389011,1731911389028,1731911389046,1731911389062,1731911389078,1731911389094,1731911389111,1731911389128,1731911389147,1731911389164,1731911389181,1731911389196,1731911389211,1731911389228,1731911389247,1731911389261,1731911389278,1731911389294,1731911389311,1731911389328,1731911389344,1731911389361,1731911389378,1731911389394,1731911389411,1731911389428,1731911389447,1731911389464,1731911389478,1731911389494,1731911389511,1731911389528,1731911389545,1731911389561,1731911389579,1731911389595,1731911389613,1731911389628,1731911389647,1731911389663,1731911389678,1731911389694,1731911389711,1731911389728,1731911389745,1731911389761,1731911389778,1731911389794,1731911389811,1731911389828,1731911389846,1731911389862,1731911389878,1731911389894,1731911389911,1731911389928,1731911389944,1731911389961,1731911389978,1731911389994,1731911390011,1731911390033,1731911390044,1731911390061,1731911390078,1731911390094,1731911390111,1731911390128,1731911390147,1731911390163,1731911390179,1731911390194,1731911390214,1731911390228,1731911390244,1731911390261,1731911390278,1731911390294,1731911390316,1731911390330,1731911390351,1731911390361,1731911390378,1731911390395,1731911390414,1731911390431,1731911390448,1731911390467,1731911390478,1731911390494,1731911390513,1731911390541,1731911390550,1731911390561,1731911390582,1731911390598,1731911390611,1731911390628,1731911390653,1731911390661,1731911390678,1731911390695,1731911390715,1731911390730,1731911390748,1731911390766,1731911390780,1731911390797,1731911390817,1731911390831,1731911390848,1731911390864,1731911390882,1731911390897,1731911390911,1731911390928,1731911390952,1731911390961,1731911390978,1731911390994,1731911391015,1731911391030,1731911391048,1731911391068,1731911391078,1731911391094,1731911391111,1731911391132,1731911391148,1731911391165,1731911391184,1731911391194,1731911391211,1731911391229,1731911391250,1731911391266,1731911391278,1731911391295,1731911391311,1731911391328,1731911391344,1731911391361,1731911391379,1731911391395,1731911391412,1731911391428,1731911391445,1731911391461,1731911391480,1731911391495,1731911391513,1731911391528,1731911391548,1731911391565,1731911391581,1731911391603,1731911391611,1731911391628,1731911391651,1731911391661,1731911391678,1731911391694,1731911391715,1731911391730,1731911391747,1731911391765,1731911391784,1731911391794,1731911391811,1731911391831,1731911391848,1731911391866,1731911391882,1731911391906,1731911391925,1731911391941,1731911391956,1731911391968,1731911391978,1731911391994,1731911392011,1731911392028,1731911392044,1731911392061,1731911392078,1731911392094,1731911392111,1731911392127,1731911392144,1731911392161,1731911392184,1731911392194,1731911392211,1731911392228,1731911392244,1731911392261,1731911392278,1731911392294,1731911392311,1731911392328,1731911392344]","[[1013.3,564.8],[1013.3,564.8],[1013.3,564.8],[1024.7,507.4],[1029.8,488],[1029.8,488],[1061.9,464.7],[1058.8,441.3],[1058.8,441.3],[1068.3,465],[1069.7,451.3],[1084,397.9],[1094.2,347.1],[1101.5,316.7],[1110.5,322.4],[1097.9,325.5],[1081,317.6],[1056.4,295.1],[1049.9,272.9],[1034.4,250.2],[1011.1,236.2],[1007.3,265.3],[969.5,312.2],[934.5,339],[896.2,355],[867.1,364.3],[844.4,362.7],[833.8,325.2],[811.8,339.4],[771.6,380.8],[746.2,391.7],[699.7,405.5],[687.2,401.5],[666.1,376.5],[648.3,362.3],[623.4,337.4],[623.4,337.4],[598.5,312.5],[537.2,351.6],[512.8,308.4],[487.6,253],[477.8,192.8],[466.3,149.4],[459.5,112.9],[453.5,113.1],[478.5,79.5],[495.2,88],[528.2,70.8],[579.6,57.8],[579.6,57.8],[626.8,70.8],[626.8,70.8],[663.5,101.1],[695.2,119.7],[726.9,138.3],[774.5,184.1],[829.9,214.2],[856.2,264.8],[897.9,284],[927.6,313.5],[958.5,315.3],[1002.8,332.8],[1056.8,314.4],[1079,338.1],[1115.6,358.3],[1138.7,302.3],[1138.7,302.3],[1161.8,246.3],[1190.4,225.5],[1211.5,194.6],[1214.4,193.6],[1211,195.4],[1214.7,196.6],[1219.2,216.4],[1245.1,210.6],[1245.1,210.6],[1251.3,204.5],[1261.2,228],[1261.2,228],[1271.1,251.5],[1271.1,251.5],[1299.7,268.1],[1299.7,268.1],[1311.7,297.8],[1311.2,361.8],[1311.2,361.8],[1322.4,378.7],[1315.1,416],[1293.3,446.5],[1293.3,446.5],[1286.3,452.9],[1286.3,452.9],[1271.8,487.2],[1271.8,487.2],[1254.2,498],[1201.7,526.7],[1201.7,526.7],[1123.1,559.2],[1123.1,559.2],[1084.2,546.9],[1050.9,490.4],[1003.9,446.2],[950.7,370.9],[895.9,329.2],[826.3,311.6],[783.9,278.5],[733.8,281.4],[714.7,256.3],[695.6,212.4],[676.5,217.9],[676.5,217.9],[673.8,234.1],[673.8,234.1],[702.8,245.4],[742.7,257.5],[804.4,278.7],[879.3,291],[927.3,318.8],[983.9,342.3],[983.9,342.3],[1044.4,375.9],[1109.2,384.7],[1157.5,413.9],[1219,372.9],[1257.1,368.8],[1282.3,350.6],[1301.8,296.5],[1307.8,266.9],[1333.8,224.4],[1348.4,195.7],[1363,167],[1370.3,145.2],[1378.5,95.4],[1389.9,115.6],[1401.3,135.8],[1402.4,161.6],[1408.7,192.6],[1400,219.7],[1383.8,235.6],[1390.5,235.8],[1392.5,221.8],[1387.2,219.4],[1418.7,219.9],[1438.2,205.3],[1455.5,196.6],[1475.9,201.7],[1487.3,205.4],[1509.5,193.8],[1531.7,182.2],[1524.2,204.7],[1517.2,237.5],[1479.1,274.5],[1401.7,302.9],[1342.8,321.1],[1286.1,333.4],[1236.3,359.3],[1190.3,381.4],[1152.6,411.8],[1125.2,449.6],[1104,447.6],[1088.3,454],[1109.8,458.9],[1154.5,489.8],[1183.9,504.4],[1203.9,528.8],[1226.2,533.5],[1254.6,550.8],[1279.2,563.4],[1287.8,539.6],[1308.8,550.7],[1308.8,550.7],[1328.5,557.3],[1328.5,557.3],[1330.3,556.7],[1322.4,559.2],[1299.1,546.4],[1286.5,570.3],[1283.1,557.4],[1266.2,512.3],[1221.8,477.5],[1176.4,460],[1095.5,484.4],[1014.6,508.8],[942.3,494.3],[859,456.4],[786.1,480.3],[711.9,457.7],[618.9,445.6],[555.1,469],[521.3,469.2],[476.6,492.1],[458.4,450.1],[432.4,419.2],[419.9,438],[407.4,456.8],[403.9,497.2],[412.5,496.4],[430.7,545.5],[427.1,578.7],[474.2,631.9],[538.9,674.1],[605.7,714.6],[680.3,744],[737.6,756.7],[794.9,769.4],[856.1,737],[905.2,745.8],[959.9,735.7],[959.9,735.7],[1007,735.9],[1007,735.9],[1000.8,703.4],[1000.8,703.4],[998,689.5],[998,689.5],[1001.4,668.4],[1001.4,668.4],[1002.6,642.3],[1002.6,642.3],[1021.1,632.9],[1047.9,629.3],[1062.8,638.1],[1082,680.3],[1111.2,673],[1140.8,679.9],[1146.9,696.8],[1149.6,695.1],[1163.4,694.8],[1163.4,694.8],[1179.4,699.5],[1179.4,699.5],[1207.6,699.6],[1218.3,696.9],[1212.3,685.2],[1213.5,623.9],[1213.5,623.9],[1157.8,630.4],[1120.7,618.7],[1112.6,629.6],[1091,634.1],[1055.8,635.3],[1020.6,636.5],[1020.6,636.5],[971.6,659.2],[942.2,666.3],[914.3,671.3],[914.3,671.3],[886.2,692.8],[899.4,691.3],[908.1,698.3],[908.1,698.3],[911.4,698.3],[944.2,670.1],[944.2,670.1],[968.5,649.4],[999.2,624.3],[1031.5,582.3],[1070.8,563.8],[1120.4,544.2],[1158.7,524.3],[1215.2,529.1],[1264.8,519.1],[1269.1,519.9],[1294.6,552.2],[1278.3,543],[1255.6,538.2],[1232.9,533.4],[1223,507.1],[1218.8,484.1],[1220.3,466.8],[1203.6,424.8],[1203.6,424.8],[1230.3,394.7],[1280.2,319.9],[1292.9,248.2],[1340.2,246.5],[1387.5,244.8],[1430,252.2],[1430,252.2],[1456,256.4],[1456,256.4],[1482,260.6],[1478.3,280.8],[1474.6,301],[1412,298.9],[1412,298.9],[1368.8,314.8],[1310.5,314.9],[1271.8,308.9],[1237.6,317.1],[1237.6,317.1],[1208.2,316.2],[1208.2,316.2],[1177.1,372.6],[1177.1,372.6],[1169.2,409.2],[1177.7,422.8],[1191.1,441.6],[1220,470.8],[1229.1,480],[1253.3,505],[1213.3,495],[1168.7,504.9],[1178,472],[1175.3,395.6],[1132.3,365.3],[1096.9,336.3],[1079.7,326.9],[1037.6,321.1],[1018,351.2],[1018,351.2],[942.2,373.5],[888.8,402.8],[888.8,402.8],[867.4,382.4],[849.2,371.3],[831,360.2],[806.5,369.5],[794.9,364.1],[805.7,321.6],[768.5,307.2],[768.5,307.2],[758.1,243],[838.5,226.7],[914,208.5],[975.8,238],[943.8,280.6],[911.8,323.2],[911.8,323.2],[946.5,313.6],[946.5,313.6],[911.1,322.1],[911.1,322.1],[826.1,343.9],[826.1,343.9],[832.5,364.9],[832.5,364.9],[810.5,424],[810.5,424],[750.4,440.5],[750.4,440.5],[732,486.9],[732,486.9],[685.2,461.4],[668,500.9],[668,500.9],[674.3,536.1],[674.3,536.1],[636.3,576.6],[636.3,576.6],[661.9,601.6],[661.9,601.6],[700.9,623.1],[744.7,654.8],[777.8,665.8]]","[-0.2,0.6000000000000001]","[0.2,0.6000000000000001]","[0.6000000000000001,0.6000000000000001]","[-0.6000000000000001,0.2]","[-0.6000000000000001,-0.6000000000000001]","[-0.6000000000000001,-0.2]","[-0.2,0.2]","[0.2,0.2]","[0.6000000000000001,0.2]","[-0.2,-0.6000000000000001]","[0.2,-0.6000000000000001]","[0.6000000000000001,-0.6000000000000001]","[-0.2,-0.2]","[0.2,-0.2]","[0.6000000000000001,-0.2]",0,0,0,0,1,4,Monitor,25,20,8,1,60,4,1,60,3
