inst1_resp.keys,inst1_resp.rt,calibrationMouse.x,calibrationMouse.y,calibrationMouse.leftButton,calibrationMouse.midButton,calibrationMouse.rightButton,calibrationClick.x,calibrationClick.y,calibrationClick.leftButton,calibrationClick.midButton,calibrationClick.rightButton,calibrationClick.clicked_name,trialsc.thisRepN,trialsc.thisTrialN,trialsc.thisN,trialsc.thisIndex,trialsc.ran,calibration_x,calibration_y,participant,session,date,expName,psychopyVersion,OS,frameRate,ScreenRes_pixels,Camera_pixels,mouse_2.x,mouse_2.y,mouse_2.leftButton,mouse_2.midButton,mouse_2.rightButton,mouse_2.time,mouse_2.clicked_name,mouse.x,mouse.y,mouse.leftButton,mouse.midButton,mouse.rightButton,mouse.time,mouse.clicked_name,Choice,Trial,TrialDuration,MOUSE_GAZE,ET_GAZE,ET_GAZE_x_T,time,unixTime,ET_GAZE_NF,Loc_Bus_label,Loc_Metro_label,Loc_RH_label,Loc_Cost_label,Loc_Travel_label,Loc_Comfort_label,Loc_Bus_cost,Loc_Metro_cost,Loc_RH_cost,Loc_Bus_travel,Loc_Metro_travel,Loc_RH_travel,Loc_Bus_comfort,Loc_Metro_comfort,Loc_RH_comfort,trials.thisRepN,trials.thisTrialN,trials.thisN,trials.thisIndex,trials.ran,Block,Device,RH_cost,RH_travel_time,RH_Comfort,metro_cost,metro_travel_time,metro_Comfort,Bus_cost,Bus_travel_time,Bus_Comfort
space,2.986,-0.057291667,0.201851852,1,0,0,-0.675,-0.325925926,1,0,0,calibration_square,0,0,0,1,1,-0.67,-0.33,29,001,2024-11-18_14h14.42.144,Attention_exp_legacy,2023.1.0,Win32,59.88023952,,,,,,,,,,,,,,,,,,,,,,,,,,,,,,,,,,,,,,,,,,,,,,,,,,,,,,,,
,,,,,,,0.011458333,0.348148148,1,0,0,,0,1,1,12,1,0,0.33,29,001,2024-11-18_14h14.42.144,Attention_exp_legacy,2023.1.0,Win32,59.88023952,,,,,,,,,,,,,,,,,,,,,,,,,,,,,,,,,,,,,,,,,,,,,,,,,,,,,,,,
,,,,,,,-0.675,0.327777778,1,0,0,calibration_square,0,2,2,3,1,-0.67,0.33,29,001,2024-11-18_14h14.42.144,Attention_exp_legacy,2023.1.0,Win32,59.88023952,,,,,,,,,,,,,,,,,,,,,,,,,,,,,,,,,,,,,,,,,,,,,,,,,,,,,,,,
,,,,,,,0.320833333,-0.001851852,1,0,0,calibration_square,0,3,3,16,1,0.33,0,29,001,2024-11-18_14h14.42.144,Attention_exp_legacy,2023.1.0,Win32,59.88023952,,,,,,,,,,,,,,,,,,,,,,,,,,,,,,,,,,,,,,,,,,,,,,,,,,,,,,,,
,,,,,,,-0.335416667,0.327777778,1,0,0,calibration_square,0,4,4,7,1,-0.33,0.33,29,001,2024-11-18_14h14.42.144,Attention_exp_legacy,2023.1.0,Win32,59.88023952,,,,,,,,,,,,,,,,,,,,,,,,,,,,,,,,,,,,,,,,,,,,,,,,,,,,,,,,
,,,,,,,-0.665625,0.005555556,1,0,0,calibration_square,0,5,5,2,1,-0.67,0,29,001,2024-11-18_14h14.42.144,Attention_exp_legacy,2023.1.0,Win32,59.88023952,,,,,,,,,,,,,,,,,,,,,,,,,,,,,,,,,,,,,,,,,,,,,,,,,,,,,,,,
,,,,,,,0.338541667,-0.67962963,1,0,0,calibration_square,0,6,6,14,1,0.33,-0.67,29,001,2024-11-18_14h14.42.144,Attention_exp_legacy,2023.1.0,Win32,59.88023952,,,,,,,,,,,,,,,,,,,,,,,,,,,,,,,,,,,,,,,,,,,,,,,,,,,,,,,,
,,,,,,,-0.335416667,-0.67037037,1,0,0,calibration_square,0,7,7,4,1,-0.33,-0.67,29,001,2024-11-18_14h14.42.144,Attention_exp_legacy,2023.1.0,Win32,59.88023952,,,,,,,,,,,,,,,,,,,,,,,,,,,,,,,,,,,,,,,,,,,,,,,,,,,,,,,,
,,,,,,,-0.670833333,-0.67037037,1,0,0,calibration_square,0,8,8,0,1,-0.67,-0.67,29,001,2024-11-18_14h14.42.144,Attention_exp_legacy,2023.1.0,Win32,59.88023952,,,,,,,,,,,,,,,,,,,,,,,,,,,,,,,,,,,,,,,,,,,,,,,,,,,,,,,,
,,,,,,,0.665625,-0.661111111,1,0,0,calibration_square,0,9,9,20,1,0.67,-0.67,29,001,2024-11-18_14h14.42.144,Attention_exp_legacy,2023.1.0,Win32,59.88023952,,,,,,,,,,,,,,,,,,,,,,,,,,,,,,,,,,,,,,,,,,,,,,,,,,,,,,,,
,,,,,,,-0.004166667,0.666666667,1,0,0,calibration_square,0,10,10,13,1,0,0.67,29,001,2024-11-18_14h14.42.144,Attention_exp_legacy,2023.1.0,Win32,59.88023952,,,,,,,,,,,,,,,,,,,,,,,,,,,,,,,,,,,,,,,,,,,,,,,,,,,,,,,,
,,,,,,,0.665625,0.661111111,1,0,0,calibration_square,0,11,11,19,1,0.67,0.67,29,001,2024-11-18_14h14.42.144,Attention_exp_legacy,2023.1.0,Win32,59.88023952,,,,,,,,,,,,,,,,,,,,,,,,,,,,,,,,,,,,,,,,,,,,,,,,,,,,,,,,
,,,,,,,0.334375,0.668518519,1,0,0,calibration_square,0,12,12,18,1,0.33,0.67,29,001,2024-11-18_14h14.42.144,Attention_exp_legacy,2023.1.0,Win32,59.88023952,,,,,,,,,,,,,,,,,,,,,,,,,,,,,,,,,,,,,,,,,,,,,,,,,,,,,,,,
,,,,,,,0.327083333,-0.331481481,1,0,0,calibration_square,0,13,13,15,1,0.33,-0.33,29,001,2024-11-18_14h14.42.144,Attention_exp_legacy,2023.1.0,Win32,59.88023952,,,,,,,,,,,,,,,,,,,,,,,,,,,,,,,,,,,,,,,,,,,,,,,,,,,,,,,,
,,,,,,,-0.001041667,-0.681481481,1,0,0,,0,14,14,9,1,0,-0.67,29,001,2024-11-18_14h14.42.144,Attention_exp_legacy,2023.1.0,Win32,59.88023952,,,,,,,,,,,,,,,,,,,,,,,,,,,,,,,,,,,,,,,,,,,,,,,,,,,,,,,,
,,,,,,,-0.33125,0.661111111,1,0,0,calibration_square,0,15,15,8,1,-0.33,0.67,29,001,2024-11-18_14h14.42.144,Attention_exp_legacy,2023.1.0,Win32,59.88023952,,,,,,,,,,,,,,,,,,,,,,,,,,,,,,,,,,,,,,,,,,,,,,,,,,,,,,,,
,,,,,,,-0.334375,-0.316666667,1,0,0,,0,16,16,5,1,-0.33,-0.33,29,001,2024-11-18_14h14.42.144,Attention_exp_legacy,2023.1.0,Win32,59.88023952,,,,,,,,,,,,,,,,,,,,,,,,,,,,,,,,,,,,,,,,,,,,,,,,,,,,,,,,
,,,,,,,0,-0.325925926,1,0,0,calibration_square,0,17,17,10,1,0,-0.33,29,001,2024-11-18_14h14.42.144,Attention_exp_legacy,2023.1.0,Win32,59.88023952,,,,,,,,,,,,,,,,,,,,,,,,,,,,,,,,,,,,,,,,,,,,,,,,,,,,,,,,
,,,,,,,-0.005208333,0.007407407,1,0,0,calibration_square,0,18,18,11,1,0,0,29,001,2024-11-18_14h14.42.144,Attention_exp_legacy,2023.1.0,Win32,59.88023952,,,,,,,,,,,,,,,,,,,,,,,,,,,,,,,,,,,,,,,,,,,,,,,,,,,,,,,,
,,,,,,,0.329166667,0.32962963,1,0,0,calibration_square,0,19,19,17,1,0.33,0.33,29,001,2024-11-18_14h14.42.144,Attention_exp_legacy,2023.1.0,Win32,59.88023952,,,,,,,,,,,,,,,,,,,,,,,,,,,,,,,,,,,,,,,,,,,,,,,,,,,,,,,,
,,,,,,,-0.319791667,-0.014814815,1,0,0,,0,20,20,6,1,-0.33,0,29,001,2024-11-18_14h14.42.144,Attention_exp_legacy,2023.1.0,Win32,59.88023952,,,,,,,,,,,,,,,,,,,,,,,,,,,,,,,,,,,,,,,,,,,,,,,,,,,,,,,,
,,,,,,,,,,,,,,,,,,,,29,001,2024-11-18_14h14.42.144,Attention_exp_legacy,2023.1.0,Win32,59.88023952,"[1920,1080]","[640,480]",[0.023958333333333335],[-0.5],[1],[0],[0],[22.36030000019074],"[""StartButton""]",[0.15104166666666666],[0.40185185185185185],[1],[0],[0],[8.469099999904628],"[""Metro_label""]",Metro_label,1,9.4939,"[[0.027083333333333334,-0.5685185185185185],[0.027083333333333334,-0.5685185185185185],[0.027083333333333334,-0.5685185185185185],[0.027083333333333334,-0.5685185185185185],[0.027083333333333334,-0.5685185185185185],[0.027083333333333334,-0.5685185185185185],[0.027083333333333334,-0.5685185185185185],[0.027083333333333334,-0.5685185185185185],[0.027083333333333334,-0.5685185185185185],[0.027083333333333334,-0.5685185185185185],[0.027083333333333334,-0.5685185185185185],[0.027083333333333334,-0.5685185185185185],[0.027083333333333334,-0.5685185185185185],[0.027083333333333334,-0.5685185185185185],[0.027083333333333334,-0.5685185185185185],[0.027083333333333334,-0.5685185185185185],[0.027083333333333334,-0.5685185185185185],[0.027083333333333334,-0.5685185185185185],[0.027083333333333334,-0.5685185185185185],[0.027083333333333334,-0.5685185185185185],[0.027083333333333334,-0.5685185185185185],[0.027083333333333334,-0.5685185185185185],[0.027083333333333334,-0.5685185185185185],[0.027083333333333334,-0.5685185185185185],[0.027083333333333334,-0.5685185185185185],[0.027083333333333334,-0.5685185185185185],[0.027083333333333334,-0.5685185185185185],[0.027083333333333334,-0.5685185185185185],[0.027083333333333334,-0.5685185185185185],[0.027083333333333334,-0.5685185185185185],[0.027083333333333334,-0.5685185185185185],[0.027083333333333334,-0.5685185185185185],[0.027083333333333334,-0.5685185185185185],[0.027083333333333334,-0.5685185185185185],[0.027083333333333334,-0.5685185185185185],[0.027083333333333334,-0.5685185185185185],[0.027083333333333334,-0.5685185185185185],[0.027083333333333334,-0.5685185185185185],[0.027083333333333334,-0.5685185185185185],[0.027083333333333334,-0.5685185185185185],[0.027083333333333334,-0.5685185185185185],[0.027083333333333334,-0.5685185185185185],[0.027083333333333334,-0.5685185185185185],[0.027083333333333334,-0.5685185185185185],[0.027083333333333334,-0.5685185185185185],[0.027083333333333334,-0.5685185185185185],[0.027083333333333334,-0.5685185185185185],[0.027083333333333334,-0.5685185185185185],[0.027083333333333334,-0.5685185185185185],[0.027083333333333334,-0.5685185185185185],[0.027083333333333334,-0.5685185185185185],[0.027083333333333334,-0.5685185185185185],[0.027083333333333334,-0.5685185185185185],[0.027083333333333334,-0.5685185185185185],[0.027083333333333334,-0.5685185185185185],[0.027083333333333334,-0.5685185185185185],[0.027083333333333334,-0.5685185185185185],[0.027083333333333334,-0.5685185185185185],[0.027083333333333334,-0.5685185185185185],[0.027083333333333334,-0.5685185185185185],[0.027083333333333334,-0.5685185185185185],[0.027083333333333334,-0.5685185185185185],[0.027083333333333334,-0.5685185185185185],[0.027083333333333334,-0.5685185185185185],[0.027083333333333334,-0.5685185185185185],[0.027083333333333334,-0.5685185185185185],[0.027083333333333334,-0.5685185185185185],[0.027083333333333334,-0.5685185185185185],[0.027083333333333334,-0.5685185185185185],[0.027083333333333334,-0.5685185185185185],[0.027083333333333334,-0.5685185185185185],[0.027083333333333334,-0.5685185185185185],[0.027083333333333334,-0.5685185185185185],[0.027083333333333334,-0.5685185185185185],[0.027083333333333334,-0.5685185185185185],[0.027083333333333334,-0.5685185185185185],[0.027083333333333334,-0.5685185185185185],[0.027083333333333334,-0.5685185185185185],[0.027083333333333334,-0.5685185185185185],[0.027083333333333334,-0.5685185185185185],[0.027083333333333334,-0.5685185185185185],[0.027083333333333334,-0.5685185185185185],[0.027083333333333334,-0.5685185185185185],[0.027083333333333334,-0.5685185185185185],[0.027083333333333334,-0.5685185185185185],[0.027083333333333334,-0.5685185185185185],[0.027083333333333334,-0.5685185185185185],[0.027083333333333334,-0.5685185185185185],[0.027083333333333334,-0.5685185185185185],[0.027083333333333334,-0.5685185185185185],[0.027083333333333334,-0.5685185185185185],[0.027083333333333334,-0.5685185185185185],[0.027083333333333334,-0.5685185185185185],[0.027083333333333334,-0.5685185185185185],[0.027083333333333334,-0.5685185185185185],[0.027083333333333334,-0.5685185185185185],[0.027083333333333334,-0.5685185185185185],[0.027083333333333334,-0.5685185185185185],[0.027083333333333334,-0.5685185185185185],[0.027083333333333334,-0.5685185185185185],[0.027083333333333334,-0.5685185185185185],[0.027083333333333334,-0.5685185185185185],[0.027083333333333334,-0.5685185185185185],[0.027083333333333334,-0.5685185185185185],[0.027083333333333334,-0.5685185185185185],[0.025,-0.5685185185185185],[0.021875,-0.5685185185185185],[0.013541666666666667,-0.5703703703703704],[0.008333333333333333,-0.5722222222222222],[0.00625,-0.5722222222222222],[0.004166666666666667,-0.5722222222222222],[0.003125,-0.5722222222222222],[0.0020833333333333333,-0.5740740740740741],[0.0010416666666666667,-0.5740740740740741],[-0.0010416666666666667,-0.5740740740740741],[-0.003125,-0.5740740740740741],[-0.004166666666666667,-0.5740740740740741],[-0.005208333333333333,-0.5740740740740741],[-0.007291666666666667,-0.5740740740740741],[-0.008333333333333333,-0.575925925925926],[-0.008333333333333333,-0.575925925925926],[-0.008333333333333333,-0.575925925925926],[-0.010416666666666666,-0.575925925925926],[-0.010416666666666666,-0.575925925925926],[-0.011458333333333333,-0.575925925925926],[-0.011458333333333333,-0.575925925925926],[-0.011458333333333333,-0.575925925925926],[-0.011458333333333333,-0.575925925925926],[-0.011458333333333333,-0.575925925925926],[-0.011458333333333333,-0.575925925925926],[-0.011458333333333333,-0.575925925925926],[-0.011458333333333333,-0.575925925925926],[-0.011458333333333333,-0.575925925925926],[-0.011458333333333333,-0.575925925925926],[-0.0125,-0.5777777777777777],[-0.013541666666666667,-0.5777777777777777],[-0.014583333333333334,-0.5777777777777777],[-0.016666666666666666,-0.5777777777777777],[-0.017708333333333333,-0.5796296296296296],[-0.020833333333333332,-0.5796296296296296],[-0.021875,-0.5796296296296296],[-0.023958333333333335,-0.5796296296296296],[-0.025,-0.5796296296296296],[-0.026041666666666668,-0.5796296296296296],[-0.028125,-0.5796296296296296],[-0.030208333333333334,-0.5796296296296296],[-0.03229166666666667,-0.5796296296296296],[-0.034375,-0.5796296296296296],[-0.035416666666666666,-0.5796296296296296],[-0.035416666666666666,-0.5796296296296296],[-0.036458333333333336,-0.5796296296296296],[-0.036458333333333336,-0.5796296296296296],[-0.0375,-0.5796296296296296],[-0.0375,-0.5796296296296296],[-0.03854166666666667,-0.5796296296296296],[-0.03854166666666667,-0.5796296296296296],[-0.03854166666666667,-0.5796296296296296],[-0.03854166666666667,-0.5796296296296296],[-0.03854166666666667,-0.5796296296296296],[-0.03854166666666667,-0.5796296296296296],[-0.03854166666666667,-0.5796296296296296],[-0.03854166666666667,-0.5796296296296296],[-0.03854166666666667,-0.5796296296296296],[-0.03854166666666667,-0.5796296296296296],[-0.03854166666666667,-0.5796296296296296],[-0.03854166666666667,-0.5796296296296296],[-0.03854166666666667,-0.5796296296296296],[-0.03854166666666667,-0.5796296296296296],[-0.03854166666666667,-0.5796296296296296],[-0.03854166666666667,-0.5796296296296296],[-0.03854166666666667,-0.5796296296296296],[-0.03854166666666667,-0.5796296296296296],[-0.03854166666666667,-0.5796296296296296],[-0.03854166666666667,-0.5796296296296296],[-0.03854166666666667,-0.5796296296296296],[-0.03854166666666667,-0.5796296296296296],[-0.03854166666666667,-0.5796296296296296],[-0.03854166666666667,-0.5796296296296296],[-0.03854166666666667,-0.5796296296296296],[-0.03854166666666667,-0.5796296296296296],[-0.03854166666666667,-0.5796296296296296],[-0.03854166666666667,-0.5796296296296296],[-0.03854166666666667,-0.5796296296296296],[-0.03854166666666667,-0.5796296296296296],[-0.03854166666666667,-0.5796296296296296],[-0.03854166666666667,-0.5796296296296296],[-0.03854166666666667,-0.5796296296296296],[-0.03854166666666667,-0.5796296296296296],[-0.03854166666666667,-0.5796296296296296],[-0.03854166666666667,-0.5796296296296296],[-0.03854166666666667,-0.5796296296296296],[-0.03854166666666667,-0.5796296296296296],[-0.03854166666666667,-0.5796296296296296],[-0.03854166666666667,-0.5796296296296296],[-0.03854166666666667,-0.5796296296296296],[-0.03854166666666667,-0.5796296296296296],[-0.03854166666666667,-0.5796296296296296],[-0.03854166666666667,-0.5796296296296296],[-0.03854166666666667,-0.5796296296296296],[-0.03854166666666667,-0.5796296296296296],[-0.03854166666666667,-0.5796296296296296],[-0.03854166666666667,-0.5796296296296296],[-0.03854166666666667,-0.5796296296296296],[-0.03854166666666667,-0.5796296296296296],[-0.03854166666666667,-0.5796296296296296],[-0.03854166666666667,-0.5796296296296296],[-0.03854166666666667,-0.5796296296296296],[-0.03854166666666667,-0.5796296296296296],[-0.03854166666666667,-0.5796296296296296],[-0.03854166666666667,-0.5796296296296296],[-0.03854166666666667,-0.5796296296296296],[-0.03854166666666667,-0.5796296296296296],[-0.03854166666666667,-0.5796296296296296],[-0.03854166666666667,-0.5796296296296296],[-0.03854166666666667,-0.5796296296296296],[-0.03854166666666667,-0.5796296296296296],[-0.03854166666666667,-0.5796296296296296],[-0.03854166666666667,-0.5796296296296296],[-0.03854166666666667,-0.5796296296296296],[-0.03854166666666667,-0.5796296296296296],[-0.03854166666666667,-0.5796296296296296],[-0.03854166666666667,-0.5796296296296296],[-0.03854166666666667,-0.5796296296296296],[-0.03854166666666667,-0.5796296296296296],[-0.03854166666666667,-0.5796296296296296],[-0.03854166666666667,-0.5796296296296296],[-0.03854166666666667,-0.5796296296296296],[-0.03854166666666667,-0.5796296296296296],[-0.03854166666666667,-0.5796296296296296],[-0.03854166666666667,-0.5796296296296296],[-0.03854166666666667,-0.5796296296296296],[-0.03854166666666667,-0.5796296296296296],[-0.03854166666666667,-0.5796296296296296],[-0.03854166666666667,-0.5796296296296296],[-0.03854166666666667,-0.5796296296296296],[-0.03854166666666667,-0.5796296296296296],[-0.03854166666666667,-0.5796296296296296],[-0.03854166666666667,-0.5796296296296296],[-0.03854166666666667,-0.5796296296296296],[-0.03854166666666667,-0.5796296296296296],[-0.03854166666666667,-0.5796296296296296],[-0.03854166666666667,-0.5796296296296296],[-0.03854166666666667,-0.5796296296296296],[-0.03854166666666667,-0.5796296296296296],[-0.03854166666666667,-0.5796296296296296],[-0.03854166666666667,-0.5796296296296296],[-0.03854166666666667,-0.5796296296296296],[-0.03854166666666667,-0.5796296296296296],[-0.03854166666666667,-0.5796296296296296],[-0.03854166666666667,-0.5796296296296296],[-0.03854166666666667,-0.5796296296296296],[-0.03854166666666667,-0.5796296296296296],[-0.03854166666666667,-0.5796296296296296],[-0.03854166666666667,-0.5796296296296296],[-0.03854166666666667,-0.5796296296296296],[-0.03854166666666667,-0.5796296296296296],[-0.03854166666666667,-0.5796296296296296],[-0.03854166666666667,-0.5796296296296296],[-0.03854166666666667,-0.5796296296296296],[-0.03854166666666667,-0.5796296296296296],[-0.03854166666666667,-0.5796296296296296],[-0.03854166666666667,-0.5796296296296296],[-0.03854166666666667,-0.5796296296296296],[-0.03854166666666667,-0.5796296296296296],[-0.03854166666666667,-0.5796296296296296],[-0.03854166666666667,-0.5796296296296296],[-0.03854166666666667,-0.5796296296296296],[-0.03854166666666667,-0.5796296296296296],[-0.03854166666666667,-0.5796296296296296],[-0.03854166666666667,-0.5796296296296296],[-0.03854166666666667,-0.5796296296296296],[-0.03854166666666667,-0.5796296296296296],[-0.03854166666666667,-0.5796296296296296],[-0.03854166666666667,-0.5796296296296296],[-0.03854166666666667,-0.5796296296296296],[-0.03854166666666667,-0.5796296296296296],[-0.03854166666666667,-0.5796296296296296],[-0.03854166666666667,-0.5796296296296296],[-0.03854166666666667,-0.5796296296296296],[-0.03854166666666667,-0.5796296296296296],[-0.03854166666666667,-0.5796296296296296],[-0.03854166666666667,-0.5796296296296296],[-0.03854166666666667,-0.5796296296296296],[-0.03854166666666667,-0.5796296296296296],[-0.03854166666666667,-0.5796296296296296],[-0.03854166666666667,-0.5796296296296296],[-0.03854166666666667,-0.5796296296296296],[-0.03854166666666667,-0.5796296296296296],[-0.03854166666666667,-0.5796296296296296],[-0.03854166666666667,-0.5796296296296296],[-0.03854166666666667,-0.5796296296296296],[-0.03854166666666667,-0.5796296296296296],[-0.03854166666666667,-0.5796296296296296],[-0.035416666666666666,-0.5740740740740741],[-0.03229166666666667,-0.5703703703703704],[-0.029166666666666667,-0.5685185185185185],[-0.029166666666666667,-0.5685185185185185],[-0.029166666666666667,-0.5685185185185185],[-0.029166666666666667,-0.5685185185185185],[-0.029166666666666667,-0.5685185185185185],[-0.029166666666666667,-0.5685185185185185],[-0.029166666666666667,-0.5685185185185185],[-0.029166666666666667,-0.5685185185185185],[-0.029166666666666667,-0.5685185185185185],[-0.029166666666666667,-0.5685185185185185],[-0.029166666666666667,-0.5685185185185185],[-0.029166666666666667,-0.5685185185185185],[-0.029166666666666667,-0.5685185185185185],[-0.029166666666666667,-0.5685185185185185],[-0.029166666666666667,-0.5685185185185185],[-0.029166666666666667,-0.5685185185185185],[-0.029166666666666667,-0.5685185185185185],[-0.029166666666666667,-0.5685185185185185],[-0.029166666666666667,-0.5685185185185185],[-0.029166666666666667,-0.5685185185185185],[-0.029166666666666667,-0.5685185185185185],[-0.029166666666666667,-0.5685185185185185],[-0.029166666666666667,-0.5685185185185185],[-0.029166666666666667,-0.5685185185185185],[-0.029166666666666667,-0.5685185185185185],[-0.029166666666666667,-0.5685185185185185],[-0.029166666666666667,-0.5685185185185185],[-0.029166666666666667,-0.5685185185185185],[-0.029166666666666667,-0.5685185185185185],[-0.029166666666666667,-0.5685185185185185],[-0.029166666666666667,-0.5685185185185185],[-0.029166666666666667,-0.5685185185185185],[-0.029166666666666667,-0.5685185185185185],[-0.029166666666666667,-0.5685185185185185],[-0.029166666666666667,-0.5685185185185185],[-0.029166666666666667,-0.5685185185185185],[-0.029166666666666667,-0.5685185185185185],[-0.029166666666666667,-0.5685185185185185],[-0.029166666666666667,-0.5685185185185185],[-0.029166666666666667,-0.5685185185185185],[-0.029166666666666667,-0.5685185185185185],[-0.029166666666666667,-0.5685185185185185],[-0.029166666666666667,-0.5685185185185185],[-0.029166666666666667,-0.5685185185185185],[-0.029166666666666667,-0.5685185185185185],[-0.029166666666666667,-0.5685185185185185],[-0.029166666666666667,-0.5685185185185185],[-0.029166666666666667,-0.5685185185185185],[-0.029166666666666667,-0.5685185185185185],[-0.029166666666666667,-0.5685185185185185],[-0.029166666666666667,-0.5685185185185185],[-0.029166666666666667,-0.5685185185185185],[-0.029166666666666667,-0.5685185185185185],[-0.029166666666666667,-0.5685185185185185],[-0.029166666666666667,-0.5685185185185185],[-0.029166666666666667,-0.5685185185185185],[-0.029166666666666667,-0.5685185185185185],[-0.029166666666666667,-0.5685185185185185],[-0.029166666666666667,-0.5685185185185185],[-0.029166666666666667,-0.5685185185185185],[-0.029166666666666667,-0.5685185185185185],[-0.029166666666666667,-0.5685185185185185],[-0.029166666666666667,-0.5685185185185185],[-0.029166666666666667,-0.5685185185185185],[-0.029166666666666667,-0.5685185185185185],[-0.029166666666666667,-0.5685185185185185],[-0.029166666666666667,-0.5685185185185185],[-0.029166666666666667,-0.5685185185185185],[-0.029166666666666667,-0.5685185185185185],[-0.029166666666666667,-0.5685185185185185],[-0.029166666666666667,-0.5685185185185185],[-0.029166666666666667,-0.5685185185185185],[-0.029166666666666667,-0.5685185185185185],[-0.029166666666666667,-0.5685185185185185],[-0.029166666666666667,-0.5685185185185185],[-0.029166666666666667,-0.5685185185185185],[-0.029166666666666667,-0.5685185185185185],[-0.029166666666666667,-0.5685185185185185],[-0.029166666666666667,-0.5685185185185185],[-0.029166666666666667,-0.5685185185185185],[-0.029166666666666667,-0.5685185185185185],[-0.029166666666666667,-0.5685185185185185],[-0.029166666666666667,-0.5685185185185185],[-0.029166666666666667,-0.5685185185185185],[-0.029166666666666667,-0.5685185185185185],[-0.029166666666666667,-0.5685185185185185],[-0.029166666666666667,-0.5685185185185185],[-0.029166666666666667,-0.5685185185185185],[-0.029166666666666667,-0.5685185185185185],[-0.029166666666666667,-0.5685185185185185],[-0.029166666666666667,-0.5685185185185185],[-0.029166666666666667,-0.5685185185185185],[-0.029166666666666667,-0.5685185185185185],[-0.029166666666666667,-0.5685185185185185],[-0.027083333333333334,-0.5648148148148148],[-0.021875,-0.5611111111111111],[-0.020833333333333332,-0.5611111111111111],[-0.017708333333333333,-0.5574074074074075],[-0.015625,-0.5574074074074075],[-0.010416666666666666,-0.5518518518518518],[0.010416666666666666,-0.5296296296296297],[0.028125,-0.5111111111111111],[0.04895833333333333,-0.48518518518518516],[0.06979166666666667,-0.45925925925925926],[0.09270833333333334,-0.4111111111111111],[0.14166666666666666,-0.30185185185185187],[0.16041666666666668,-0.2518518518518518],[0.20104166666666667,-0.14629629629629629],[0.246875,-0.020370370370370372],[0.26458333333333334,0.037037037037037035],[0.27291666666666664,0.07592592592592592],[0.28229166666666666,0.10925925925925926],[0.2875,0.13703703703703704],[0.2916666666666667,0.15],[0.2916666666666667,0.15555555555555556],[0.2916666666666667,0.1574074074074074],[0.2916666666666667,0.15925925925925927],[0.290625,0.16296296296296298],[0.28854166666666664,0.17037037037037037],[0.284375,0.18703703703703703],[0.278125,0.2111111111111111],[0.26979166666666665,0.23703703703703705],[0.259375,0.26481481481481484],[0.24583333333333332,0.29259259259259257],[0.22395833333333334,0.32222222222222224],[0.221875,0.32592592592592595],[0.22083333333333333,0.3277777777777778],[0.21979166666666666,0.3277777777777778],[0.21979166666666666,0.3277777777777778],[0.21979166666666666,0.3277777777777778],[0.21666666666666667,0.3314814814814815],[0.21354166666666666,0.3333333333333333],[0.209375,0.3351851851851852],[0.20625,0.3388888888888889],[0.20416666666666666,0.34074074074074073],[0.196875,0.35185185185185186],[0.18020833333333333,0.3851851851851852],[0.165625,0.4148148148148148],[0.159375,0.42777777777777776],[0.15625,0.4351851851851852],[0.153125,0.4388888888888889],[0.15208333333333332,0.4425925925925926],[0.15208333333333332,0.4425925925925926],[0.15104166666666666,0.4444444444444444],[0.15104166666666666,0.4444444444444444],[0.15104166666666666,0.4444444444444444],[0.15104166666666666,0.4444444444444444],[0.15104166666666666,0.4444444444444444],[0.15104166666666666,0.4444444444444444],[0.15104166666666666,0.4444444444444444],[0.15104166666666666,0.4444444444444444],[0.15,0.4425925925925926],[0.15,0.4351851851851852],[0.15,0.42592592592592593],[0.15,0.4203703703703704],[0.15,0.4148148148148148],[0.15104166666666666,0.4074074074074074],[0.15104166666666666,0.40370370370370373],[0.15104166666666666,0.40185185185185185],[0.15104166666666666,0.40185185185185185],[0.15104166666666666,0.40185185185185185],[0.15104166666666666,0.40185185185185185],[0.15104166666666666,0.40185185185185185],[0.15104166666666666,0.40185185185185185],[0.15104166666666666,0.40185185185185185],[0.15104166666666666,0.40185185185185185],[0.15104166666666666,0.40185185185185185],[0.15104166666666666,0.40185185185185185],[0.15104166666666666,0.40185185185185185],[0.15104166666666666,0.40185185185185185],[0.15104166666666666,0.40185185185185185],[0.15104166666666666,0.40185185185185185],[0.15104166666666666,0.40185185185185185],[0.15104166666666666,0.40185185185185185],[0.15104166666666666,0.40185185185185185],[0.15104166666666666,0.40185185185185185],[0.15104166666666666,0.40185185185185185],[0.15104166666666666,0.40185185185185185],[0.15104166666666666,0.40185185185185185],[0.15104166666666666,0.40185185185185185],[0.15104166666666666,0.40185185185185185],[0.15104166666666666,0.40185185185185185],[0.15104166666666666,0.40185185185185185],[0.15104166666666666,0.40185185185185185],[0.15104166666666666,0.40185185185185185],[0.15104166666666666,0.40185185185185185],[0.15104166666666666,0.40185185185185185],[0.15104166666666666,0.40185185185185185],[0.15104166666666666,0.40185185185185185],[0.15104166666666666,0.40185185185185185],[0.15104166666666666,0.40185185185185185],[0.15104166666666666,0.40185185185185185],[0.15104166666666666,0.40185185185185185],[0.15104166666666666,0.40185185185185185],[0.15104166666666666,0.40185185185185185],[0.15104166666666666,0.40185185185185185],[0.15104166666666666,0.40185185185185185],[0.15104166666666666,0.40185185185185185],[0.15104166666666666,0.40185185185185185],[0.15104166666666666,0.40185185185185185],[0.15104166666666666,0.40185185185185185],[0.15104166666666666,0.40185185185185185],[0.15104166666666666,0.40185185185185185],[0.15104166666666666,0.40185185185185185],[0.15104166666666666,0.40185185185185185],[0.15104166666666666,0.40185185185185185],[0.15104166666666666,0.40185185185185185],[0.15104166666666666,0.40185185185185185],[0.15104166666666666,0.40185185185185185],[0.15104166666666666,0.40185185185185185],[0.15104166666666666,0.40185185185185185],[0.15104166666666666,0.40185185185185185],[0.15104166666666666,0.40185185185185185],[0.15104166666666666,0.40185185185185185],[0.15104166666666666,0.40185185185185185],[0.15104166666666666,0.40185185185185185],[0.15104166666666666,0.40185185185185185],[0.15104166666666666,0.40185185185185185],[0.15104166666666666,0.40185185185185185],[0.15104166666666666,0.40185185185185185],[0.15104166666666666,0.40185185185185185],[0.15104166666666666,0.40185185185185185],[0.15104166666666666,0.40185185185185185],[0.15104166666666666,0.40185185185185185],[0.15104166666666666,0.40185185185185185],[0.15104166666666666,0.40185185185185185],[0.15104166666666666,0.40185185185185185],[0.15104166666666666,0.40185185185185185],[0.15104166666666666,0.40185185185185185],[0.15104166666666666,0.40185185185185185],[0.15104166666666666,0.40185185185185185],[0.15104166666666666,0.40185185185185185],[0.15104166666666666,0.40185185185185185],[0.15104166666666666,0.40185185185185185],[0.15104166666666666,0.40185185185185185],[0.15104166666666666,0.40185185185185185],[0.15104166666666666,0.40185185185185185],[0.15104166666666666,0.40185185185185185],[0.15104166666666666,0.40185185185185185],[0.15104166666666666,0.40185185185185185],[0.15104166666666666,0.40185185185185185],[0.15104166666666666,0.40185185185185185],[0.15104166666666666,0.40185185185185185],[0.15104166666666666,0.40185185185185185],[0.15104166666666666,0.40185185185185185],[0.15104166666666666,0.40185185185185185],[0.15104166666666666,0.40185185185185185],[0.15104166666666666,0.40185185185185185],[0.15104166666666666,0.40185185185185185],[0.15104166666666666,0.40185185185185185],[0.15104166666666666,0.40185185185185185],[0.15104166666666666,0.40185185185185185],[0.15104166666666666,0.40185185185185185],[0.15104166666666666,0.40185185185185185],[0.15104166666666666,0.40185185185185185],[0.15104166666666666,0.40185185185185185],[0.15104166666666666,0.40185185185185185],[0.15104166666666666,0.40185185185185185],[0.15104166666666666,0.40185185185185185],[0.15104166666666666,0.40185185185185185],[0.15104166666666666,0.40185185185185185],[0.15104166666666666,0.40185185185185185],[0.15104166666666666,0.40185185185185185],[0.15104166666666666,0.40185185185185185],[0.15104166666666666,0.40185185185185185],[0.15104166666666666,0.40185185185185185],[0.15104166666666666,0.40185185185185185],[0.15104166666666666,0.40185185185185185],[0.15104166666666666,0.40185185185185185],[0.15104166666666666,0.40185185185185185],[0.15104166666666666,0.40185185185185185],[0.15104166666666666,0.40185185185185185],[0.15104166666666666,0.40185185185185185],[0.15104166666666666,0.40185185185185185]]","[[0.10104166666666667,-0.4703703703703704],[0.10104166666666667,-0.4703703703703704],[0.09718749999999995,-0.4618518518518518],[0.08614583333333338,-0.43259259259259264],[0.0821875000000001,-0.43129629629629623],[0.0709374999999999,-0.4474074074074075],[0.05343749999999995,-0.46037037037037043],[0.05416666666666667,-0.45611111111111113],[0.103125,-0.4698148148148148],[0.12750000000000009,-0.47370370370370374],[0.12468750000000005,-0.4711111111111111],[0.13604166666666656,-0.46111111111111114],[0.14802083333333324,-0.4418518518518519],[0.15114583333333323,-0.4375925925925926],[0.15427083333333325,-0.43333333333333335],[0.1616666666666667,-0.4053703703703703],[0.16906249999999995,-0.3774074074074074],[0.13208333333333327,-0.37166666666666665],[0.06770833333333333,-0.3479629629629629],[0.022500000000000023,-0.3301851851851852],[-0.01395833333333331,-0.3118518518518518],[-0.04593750000000003,-0.2957407407407407],[-0.08177083333333333,-0.3066666666666667],[-0.10812499999999996,-0.32629629629629625],[-0.13208333333333327,-0.3461111111111111],[-0.14395833333333338,-0.3918518518518519],[-0.15583333333333335,-0.4375925925925926],[-0.1502083333333334,-0.4425925925925926],[-0.14458333333333329,-0.4475925925925926],[-0.14458333333333329,-0.4475925925925926],[-0.12510416666666668,-0.5012962962962962],[-0.14125000000000001,-0.5555555555555556],[-0.16593749999999996,-0.6007407407407407],[-0.22437499999999996,-0.5492592592592593],[-0.22437499999999996,-0.5492592592592593],[-0.27625000000000005,-0.4948148148148148],[-0.33312499999999995,-0.445],[-0.39520833333333333,-0.3705555555555556],[-0.45729166666666665,-0.29611111111111105],[-0.5017708333333333,-0.26592592592592595],[-0.54625,-0.23574074074074075],[-0.6075,-0.16796296296296295],[-0.6331249999999999,-0.09962962962962965],[-0.6688541666666666,-0.04203703703703712],[-0.6669791666666666,-0.05407407407407405],[-0.6666666666666666,-0.08499999999999996],[-0.6735416666666667,-0.08222222222222218],[-0.6657291666666667,-0.09222222222222225],[-0.6579166666666667,-0.1022222222222222],[-0.6567708333333333,-0.1270370370370371],[-0.6533333333333334,-0.1227777777777778],[-0.6527083333333333,-0.11148148148148146],[-0.6520833333333333,-0.10018518518518522],[-0.6644791666666666,-0.09462962962962967],[-0.676875,-0.08907407407407411],[-0.6821875,-0.056666666666666705],[-0.6777083333333334,-0.053148148148148125],[-0.6799999999999999,-0.03092592592592601],[-0.6892708333333334,-0.01722222222222214],[-0.6926041666666667,0.031111111111111027],[-0.6926041666666667,0.031111111111111027],[-0.6982291666666666,0.050370370370370454],[-0.6877083333333334,0.08407407407407404],[-0.6746875,0.10481481481481486],[-0.6452083333333333,0.1198148148148149],[-0.6234375,0.13851851851851843],[-0.6038541666666667,0.13925925925925933],[-0.575,0.15425925925925918],[-0.5579166666666667,0.15833333333333333],[-0.5546875,0.15537037037037033],[-0.5596875,0.1411111111111112],[-0.51375,0.10907407407407403],[-0.47281249999999997,0.06277777777777774],[-0.43697916666666664,0.05537037037037033],[-0.4045833333333333,0.05592592592592601],[-0.3607291666666666,0.04870370370370362],[-0.32312500000000005,0.06999999999999991],[-0.30968749999999995,0.04888888888888885],[-0.29624999999999996,0.027777777777777776],[-0.2157291666666667,0.13851851851851843],[-0.17260416666666673,0.22962962962962963],[-0.17354166666666668,0.33055555555555555],[-0.17354166666666668,0.33055555555555555],[-0.17302083333333335,0.4366666666666666],[-0.17302083333333335,0.4366666666666666],[-0.16114583333333338,0.44351851851851853],[-0.16114583333333338,0.44351851851851853],[-0.15458333333333332,0.49129629629629623],[-0.15458333333333332,0.49129629629629623],[-0.17395833333333333,0.5537037037037037],[-0.17395833333333333,0.5537037037037037],[-0.15458333333333332,0.5537037037037037],[-0.13125,0.5662962962962962],[-0.10135416666666662,0.5774074074074074],[-0.09624999999999997,0.4988888888888888],[-0.07104166666666671,0.44425925925925924],[-0.052187500000000026,0.4027777777777778],[-0.03968750000000002,0.3183333333333333],[-0.0359375,0.3072222222222222],[-0.03708333333333336,0.22018518518518515],[-0.008958333333333356,0.12259259259259268],[-0.014479166666666644,0.06925925925925921],[-0.009062500000000048,0.03148148148148148],[0.006979166666666714,-0.014814814814814815],[0.0015625,-0.08777777777777773],[0.014687500000000023,-0.16370370370370366],[0.022083333333333382,-0.2059259259259259],[0.021458333333333357,-0.2309259259259259],[0.020833333333333332,-0.2559259259259259],[0.05145833333333331,-0.2537037037037037],[0.075,-0.25148148148148153],[0.09281249999999991,-0.27629629629629626],[0.11062500000000004,-0.30111111111111116],[0.09489583333333323,-0.22592592592592592],[0.08572916666666662,-0.14629629629629629],[0.08489583333333334,-0.09833333333333337],[0.07479166666666662,-0.043703703703703745],[0.07854166666666676,0.03944444444444436],[0.08229166666666667,0.12259259259259268],[0.10177083333333338,0.1948148148148149],[0.08302083333333338,0.277962962962963],[0.07645833333333343,0.36018518518518516],[0.06989583333333324,0.44240740740740736],[0.07770833333333324,0.48351851851851857],[0.07895833333333328,0.5201851851851852],[0.07062499999999995,0.5872222222222223],[0.11687500000000005,0.5761111111111111],[0.14427083333333332,0.5612962962962963],[0.1716666666666666,0.5464814814814816],[0.16520833333333323,0.5385185185185184],[0.19697916666666657,0.5196296296296297],[0.23572916666666663,0.5127777777777778],[0.27447916666666666,0.505925925925926],[0.2808333333333332,0.48814814814814816],[0.28718750000000004,0.4703703703703704],[0.28020833333333334,0.42537037037037045],[0.23312499999999994,0.412962962962963],[0.190625,0.41999999999999993],[0.190625,0.41999999999999993],[0.16083333333333344,0.4272222222222223],[0.13666666666666671,0.4337037037037038],[0.11072916666666661,0.44351851851851853],[0.11072916666666661,0.44351851851851853],[0.060104166666666715,0.5014814814814814],[0.060104166666666715,0.5014814814814814],[0.012395833333333309,0.5598148148148148],[-0.0009374999999999763,0.5801851851851851],[-0.021979166666666692,0.5607407407407407],[-0.024374999999999977,0.5848148148148147],[-0.029062499999999977,0.5592592592592592],[-0.029062499999999977,0.5592592592592592],[-0.025312499999999953,0.5599999999999999],[-0.06447916666666664,0.5692592592592592],[-0.08416666666666663,0.5387037037037037],[-0.10208333333333333,0.5048148148148148],[-0.109375,0.5209259259259258],[-0.12260416666666671,0.5138888888888888],[-0.12791666666666662,0.5075925925925926],[-0.12552083333333333,0.5411111111111112],[-0.18343750000000003,0.5635185185185184],[-0.23635416666666664,0.6066666666666667],[-0.26843750000000005,0.6757407407407408],[-0.2703125,0.7361111111111112],[-0.2916666666666667,0.8027777777777778],[-0.31302083333333336,0.8694444444444445],[-0.33406250000000004,0.8787037037037037],[-0.35583333333333333,0.8922222222222221],[-0.38385416666666666,0.8472222222222222],[-0.39625,0.8253703703703704],[-0.35833333333333334,0.7768518518518519],[-0.3207291666666666,0.7755555555555554],[-0.30499999999999994,0.693888888888889],[-0.2905208333333333,0.5972222222222222],[-0.29812500000000003,0.5464814814814816],[-0.3107291666666666,0.5146296296296295],[-0.30885416666666665,0.4420370370370371],[-0.30447916666666663,0.4083333333333333],[-0.30874999999999997,0.42296296296296293],[-0.34343750000000006,0.4425925925925926],[-0.33489583333333334,0.4964814814814815],[-0.3311458333333333,0.5338888888888889],[-0.34697916666666667,0.5324074074074074],[-0.34729166666666667,0.5396296296296296],[-0.33645833333333336,0.5488888888888889],[-0.3134375,0.5396296296296296],[-0.3159374999999999,0.5485185185185186],[-0.31229166666666663,0.5401851851851853],[-0.2985416666666667,0.5738888888888889],[-0.2700000000000001,0.5794444444444444],[-0.2646875,0.5346296296296297],[-0.2569791666666667,0.487962962962963],[-0.2048958333333334,0.512962962962963],[-0.1670833333333333,0.5442592592592592],[-0.12395833333333334,0.5772222222222223],[-0.08802083333333334,0.6098148148148147],[-0.05302083333333331,0.6351851851851852],[-0.022916666666666665,0.6574074074074074],[0.010520833333333358,0.6077777777777779],[0.04645833333333336,0.5577777777777778],[0.04645833333333336,0.5577777777777778],[0.05802083333333338,0.5787037037037037],[0.03833333333333329,0.5829629629629629],[0.03833333333333329,0.5829629629629629],[-0.0002083333333333807,0.5588888888888888],[-0.0002083333333333807,0.5588888888888888],[-0.034166666666666616,0.5338888888888889],[-0.034166666666666616,0.5338888888888889],[-0.06604166666666664,0.4927777777777778],[-0.06604166666666664,0.4927777777777778],[-0.10354166666666664,0.45685185185185195],[-0.12322916666666663,0.43944444444444436],[-0.16531250000000006,0.3907407407407407],[-0.2117708333333333,0.3707407407407408],[-0.29885416666666664,0.37185185185185177],[-0.3376041666666667,0.3296296296296296],[-0.37697916666666664,0.29685185185185176],[-0.4163541666666667,0.2640740740740741],[-0.46281249999999996,0.2524074074074073],[-0.46281249999999996,0.2524074074074073],[-0.4985416666666667,0.24277777777777781],[-0.5286458333333334,0.227962962962963],[-0.5537500000000001,0.17962962962962964],[-0.5744791666666667,0.13703703703703704],[-0.5744791666666667,0.13703703703703704],[-0.5549999999999999,0.12129629629629629],[-0.49885416666666665,0.07148148148148152],[-0.4819791666666667,0.03166666666666671],[-0.43697916666666664,0.013518518518518435],[-0.3919791666666666,-0.004629629629629629],[-0.34135416666666674,-0.05870370370370368],[-0.3064583333333334,-0.1022222222222222],[-0.2813541666666667,-0.16833333333333328],[-0.26895833333333335,-0.21481481481481482],[-0.2289583333333333,-0.18259259259259264],[-0.2289583333333333,-0.18259259259259264],[-0.2413541666666667,-0.2074074074074074],[-0.23468749999999997,-0.20314814814814813],[-0.22218749999999995,-0.21333333333333332],[-0.20593750000000005,-0.23796296296296296],[-0.1672916666666667,-0.27018518518518514],[-0.1672916666666667,-0.27018518518518514],[-0.13177083333333334,-0.2866666666666667],[-0.0859375,-0.2948148148148148],[-0.0859375,-0.2948148148148148],[-0.035000000000000024,-0.29259259259259257],[0.018229166666666668,-0.30777777777777776],[0.06177083333333329,-0.3814814814814815],[0.12229166666666676,-0.4053703703703703],[0.16520833333333323,-0.445],[0.19479166666666667,-0.45759259259259266],[0.2413541666666667,-0.4462962962962963],[0.24791666666666667,-0.44833333333333336],[0.2540625000000001,-0.482962962962963],[0.2515625,-0.5087037037037037],[0.2537499999999999,-0.5222222222222223],[0.2328125,-0.5187037037037038],[0.21197916666666666,-0.5098148148148148],[0.2033333333333334,-0.525],[0.1946875000000001,-0.5401851851851852],[0.1883333333333333,-0.5324074074074074],[0.1650000000000001,-0.5485185185185185],[0.15177083333333338,-0.5698148148148148],[0.13895833333333343,-0.5585185185185185],[0.14593749999999991,-0.5618518518518518],[0.15291666666666662,-0.5651851851851851],[0.16802083333333329,-0.5501851851851852],[0.18406250000000005,-0.5414814814814815],[0.13229166666666667,-0.5174074074074073],[0.08052083333333329,-0.4933333333333333],[0.04750000000000002,-0.5238888888888888],[0.014479166666666644,-0.5544444444444444],[-0.014999999999999977,-0.5522222222222222],[-0.044479166666666715,-0.55],[-0.09927083333333328,-0.5509259259259259],[-0.15406249999999996,-0.5518518518518518],[-0.1944791666666667,-0.5903703703703704],[-0.2358333333333333,-0.6225925925925926],[-0.23791666666666664,-0.6198148148148148],[-0.23406250000000003,-0.612037037037037],[-0.25104166666666666,-0.5924074074074074],[-0.26802083333333326,-0.5727777777777778],[-0.2725,-0.5975925925925926],[-0.27697916666666667,-0.6224074074074074],[-0.29333333333333333,-0.6068518518518519],[-0.30968749999999995,-0.5912962962962963],[-0.33010416666666664,-0.53],[-0.35052083333333334,-0.46870370370370373],[-0.36614583333333334,-0.44814814814814813],[-0.3877083333333334,-0.43259259259259264],[-0.3728125,-0.4287037037037037],[-0.3579166666666667,-0.42481481481481476],[-0.3188541666666667,-0.3933333333333333],[-0.2797916666666667,-0.3618518518518518],[-0.23635416666666664,-0.36203703703703705],[-0.23635416666666664,-0.36203703703703705],[-0.1984375,-0.26055555555555554],[-0.1388541666666666,-0.23703703703703705],[-0.09656250000000005,-0.2007407407407407],[-0.049583333333333354,-0.15907407407407403],[0.002708333333333357,-0.1096296296296296],[0.025833333333333285,-0.04129629629629621],[0.058437500000000024,-0.006111111111111027],[0.058333333333333334,0.03925925925925934],[0.06875,0.08666666666666659],[0.09052083333333343,0.1259259259259259],[0.10770833333333343,0.09611111111111106],[0.1056250000000001,0.11814814814814806],[0.1203125,0.1675925925925926],[0.1203125,0.1675925925925926],[0.1349999999999999,0.2170370370370371],[0.1209374999999999,0.230925925925926],[0.10906250000000005,0.26592592592592595],[0.08854166666666667,0.30166666666666664],[0.013541666666666667,0.33351851851851855],[-0.06447916666666664,0.3574074074074074],[-0.13927083333333337,0.40907407407407403],[-0.21083333333333332,0.38000000000000006],[-0.27999999999999997,0.38074074074074077],[-0.34874999999999995,0.3453703703703704],[-0.41604166666666664,0.3088888888888888],[-0.41604166666666664,0.3088888888888888],[-0.45989583333333334,0.3001851851851852],[-0.45989583333333334,0.3001851851851852],[-0.49562500000000004,0.25703703703703695],[-0.49562500000000004,0.25703703703703695],[-0.5543750000000001,0.24203703703703713],[-0.5543750000000001,0.24203703703703713],[-0.553125,0.25203703703703706],[-0.553125,0.25203703703703706],[-0.5572916666666666,0.26777777777777784],[-0.5693750000000001,0.2111111111111111],[-0.5693750000000001,0.2111111111111111],[-0.5757291666666667,0.22296296296296292],[-0.5783333333333334,0.21444444444444435],[-0.5808333333333333,0.20185185185185187],[-0.5779166666666666,0.22611111111111115],[-0.5779166666666666,0.22611111111111115],[-0.5707291666666666,0.23944444444444435],[-0.5633333333333332,0.282037037037037],[-0.5384375,0.31055555555555564],[-0.5190625,0.31796296296296306],[-0.5140625,0.33499999999999996],[-0.5091666666666667,0.3942592592592592],[-0.49302083333333335,0.43185185185185193],[-0.4859375,0.4601851851851852],[-0.4258333333333333,0.45759259259259266],[-0.37552083333333336,0.4101851851851852],[-0.2873958333333333,0.3653703703703703],[-0.2873958333333333,0.3653703703703703],[-0.21124999999999997,0.3424074074074074],[-0.14135416666666673,0.32333333333333336],[-0.05531250000000002,0.32629629629629636],[0.043020833333333286,0.3198148148148149],[0.1404166666666666,0.33777777777777773],[0.22020833333333342,0.2916666666666667],[0.3099999999999999,0.28166666666666673],[0.3467708333333334,0.3025925925925925],[0.38947916666666677,0.3296296296296296],[0.39010416666666664,0.36500000000000005],[0.3759375000000001,0.3668518518518519],[0.3727083333333333,0.3831481481481481],[0.3667708333333332,0.3292592592592592],[0.36083333333333345,0.27537037037037043],[0.35520833333333335,0.2],[0.3540625000000001,0.1596296296296297],[0.35166666666666657,0.10851851851851856],[0.3492708333333333,0.05740740740740741],[0.3446875000000001,0.01777777777777782],[0.34010416666666665,-0.021851851851851768],[0.36218750000000005,-0.08296296296296299],[0.36218750000000005,-0.08296296296296299],[0.38427083333333345,-0.1440740740740741],[0.38427083333333345,-0.1440740740740741],[0.37864583333333335,-0.1411111111111111],[0.37864583333333335,-0.1411111111111111],[0.3507291666666667,-0.14518518518518514],[0.32927083333333323,-0.1381481481481482],[0.31531250000000005,-0.11351851851851855],[0.31531250000000005,-0.11351851851851855],[0.2945833333333333,-0.13351851851851856],[0.2789583333333333,-0.12888888888888894],[0.25718750000000007,-0.12685185185185185],[0.2375,-0.14500000000000002],[0.19645833333333323,-0.11222222222222226],[0.1609375,-0.07018518518518514],[0.14739583333333334,-0.07444444444444442],[0.15614583333333343,-0.07166666666666664],[0.1560416666666666,-0.04740740740740745],[0.15270833333333325,-0.026481481481481398],[0.15229166666666671,0.012777777777777735],[0.14104166666666676,0.07092592592592584],[0.14541666666666658,0.1257407407407407],[0.14770833333333327,0.2007407407407407],[0.1453125,0.23370370370370377],[0.13166666666666677,0.26907407407407397],[0.1319791666666667,0.35462962962962963],[0.13229166666666667,0.4401851851851853],[0.1400000000000001,0.4572222222222222],[0.14645833333333325,0.4903703703703703],[0.1396874999999999,0.525],[0.13937499999999994,0.5162962962962963],[0.13937499999999994,0.5162962962962963],[0.12760416666666666,0.48518518518518516],[0.13125,0.465],[0.15052083333333333,0.45314814814814824],[0.18947916666666675,0.40407407407407414],[0.20927083333333343,0.3338888888888888],[0.2007291666666667,0.2851851851851852],[0.19260416666666677,0.2718518518518518],[0.19260416666666677,0.2718518518518518],[0.2109375,0.18611111111111112],[0.23562500000000006,0.09592592592592585],[0.26583333333333337,-0.0005555555555554713],[0.2977083333333333,-0.04722222222222222],[0.32218749999999996,-0.11277777777777774],[0.3366666666666667,-0.17740740740740743],[0.3430208333333333,-0.22981481481481486],[0.3242708333333333,-0.23555555555555555],[0.3338541666666667,-0.2627777777777777],[0.32843749999999994,-0.2631481481481482],[0.31270833333333337,-0.24962962962962965],[0.2926041666666668,-0.24759259259259256],[0.28322916666666675,-0.24722222222222223],[0.24739583333333334,-0.2183333333333333],[0.20354166666666676,-0.1814814814814815],[0.18739583333333343,-0.19574074074074072],[0.16531250000000006,-0.18314814814814812],[0.10635416666666657,-0.23777777777777773],[0.04739583333333333,-0.29240740740740734],[0.04739583333333333,-0.29240740740740734],[0.08125,-0.3466666666666666],[0.08125,-0.3466666666666666],[0.08375000000000009,-0.3968518518518519],[0.10458333333333343,-0.38481481481481483],[0.10843749999999991,-0.36500000000000005],[0.1209374999999999,-0.40925925925925927],[0.1334374999999999,-0.4535185185185185],[0.12270833333333328,-0.44833333333333336],[0.11208333333333324,-0.4566666666666667],[0.11208333333333324,-0.4566666666666667],[0.15625,-0.4762962962962963],[0.12989583333333338,-0.4637037037037037],[0.12989583333333338,-0.4637037037037037],[0.025729166666666713,-0.47833333333333333],[0.025729166666666713,-0.47833333333333333],[-0.05249999999999998,-0.42592592592592593],[-0.05249999999999998,-0.42592592592592593],[-0.08666666666666671,-0.4177777777777778],[-0.08666666666666671,-0.4177777777777778],[-0.1452083333333333,-0.3846296296296296],[-0.1452083333333333,-0.3846296296296296],[-0.13562500000000005,-0.40703703703703703],[-0.13624999999999995,-0.44888888888888884],[-0.18968750000000004,-0.39944444444444444],[-0.18968750000000004,-0.39944444444444444],[-0.1610416666666667,-0.39351851851851855],[-0.1610416666666667,-0.39351851851851855],[-0.22729166666666673,-0.3022222222222222],[-0.17843749999999994,-0.3131481481481482],[-0.10645833333333338,-0.3072222222222222],[-0.04520833333333331,-0.3138888888888889],[-0.10354166666666664,-0.29611111111111105],[-0.1375,-0.30333333333333334],[-0.13187500000000002,-0.2933333333333333],[-0.13270833333333332,-0.24833333333333338],[-0.06666666666666667,-0.3175925925925926],[-0.08270833333333331,-0.34333333333333327],[-0.09781249999999998,-0.3698148148148148],[-0.15750000000000006,-0.32629629629629625],[-0.14375,-0.3322222222222222],[-0.12999999999999995,-0.3381481481481482],[-0.0907291666666667,-0.3801851851851852],[-0.03083333333333336,-0.3838888888888889],[-0.07906249999999998,-0.3696296296296297],[-0.11062500000000004,-0.37092592592592594],[-0.1544791666666666,-0.3755555555555556],[-0.1983333333333333,-0.3801851851851852],[-0.15885416666666666,-0.40611111111111114],[-0.07479166666666662,-0.42666666666666664],[-0.10843750000000002,-0.4359259259259259],[-0.14197916666666663,-0.44518518518518513],[-0.14552083333333338,-0.45037037037037037],[-0.18333333333333332,-0.4792592592592593],[-0.19145833333333329,-0.48],[-0.19958333333333336,-0.4807407407407408],[-0.19156249999999997,-0.4624074074074074],[-0.19406249999999994,-0.42777777777777776],[-0.17708333333333334,-0.4179629629629629],[-0.2046875,-0.41351851851851856],[-0.221875,-0.3933333333333333],[-0.2391666666666667,-0.3731481481481482],[-0.21218750000000006,-0.38259259259259265],[-0.17156250000000003,-0.40666666666666673],[-0.11083333333333331,-0.44240740740740736],[-0.05010416666666669,-0.4781481481481481],[-0.027083333333333334,-0.49981481481481477],[0.006458333333333381,-0.5377777777777777],[0.08072916666666667,-0.575925925925926],[0.13406250000000006,-0.632962962962963],[0.2271874999999999,-0.6925925925925925],[0.3203125,-0.7522222222222222],[0.3390625,-0.7518518518518519],[0.3615624999999999,-0.7533333333333333],[0.3321875000000001,-0.7212962962962963],[0.3321875000000001,-0.7212962962962963],[0.3054166666666667,-0.6929629629629629],[0.34437499999999993,-0.6975925925925925],[0.3618750000000001,-0.6824074074074075],[0.32833333333333337,-0.6718518518518519],[0.3304166666666667,-0.6703703703703704],[0.2830208333333334,-0.6520370370370371],[0.23270833333333343,-0.6212962962962963],[0.2234375,-0.616111111111111],[0.20968749999999994,-0.5972222222222222],[0.20656249999999995,-0.5824074074074074],[0.17822916666666658,-0.5814814814814815],[0.09927083333333328,-0.5374074074074073],[0.07635416666666663,-0.5101851851851852],[0.057083333333333285,-0.48703703703703705],[0.015416666666666618,-0.4309259259259259],[0.008958333333333356,-0.39814814814814814],[-0.004999999999999952,-0.38685185185185184],[-0.01895833333333338,-0.3755555555555556],[-0.022500000000000023,-0.36648148148148146],[-0.016875000000000046,-0.3774074074074074],[0.0032291666666666905,-0.35999999999999993],[0.04489583333333336,-0.3514814814814815],[0.008541666666666715,-0.36500000000000005],[-0.025312499999999953,-0.375],[-0.041458333333333285,-0.39000000000000007],[-0.03947916666666664,-0.4270370370370371],[-0.05270833333333336,-0.415925925925926],[-0.04031250000000005,-0.4438888888888889],[-0.08083333333333335,-0.43870370370370365],[-0.12135416666666667,-0.4335185185185186],[-0.12937500000000005,-0.42833333333333334],[-0.12124999999999998,-0.44240740740740736],[-0.09989583333333331,-0.3853703703703704],[-0.07854166666666665,-0.32833333333333337],[-0.050937499999999976,-0.2490740740740741],[-0.05625,-0.1331481481481481],[-0.04562499999999995,-0.012407407407407492],[-0.06062500000000005,0.14740740740740746],[-0.036458333333333336,0.24888888888888885],[-0.01229166666666662,0.35037037037037044],[-0.03322916666666664,0.43407407407407406],[-0.03322916666666664,0.43407407407407406],[-0.08166666666666664,0.5296296296296297],[-0.0875,0.5449999999999999],[-0.04125000000000002,0.5107407407407406],[-0.07489583333333331,0.48648148148148157],[-0.05260416666666667,0.45740740740740743],[-0.020624999999999952,0.3844444444444445],[0,0.29796296296296293],[0.024687500000000046,0.2270370370370371],[0.024687500000000046,0.2270370370370371],[0.05395833333333329,0.1985185185185186],[0.1146874999999999,0.14203703703703713],[0.16114583333333338,0.08648148148148156],[0.16114583333333338,0.08648148148148156],[0.19302083333333328,0.016666666666666666],[0.19302083333333328,0.016666666666666666],[0.17822916666666658,0.04981481481481477],[0.21989583333333323,0.04296296296296305],[0.21989583333333323,0.04296296296296305],[0.21666666666666667,0.034074074074074034],[0.21666666666666667,0.034074074074074034],[0.1820833333333333,0.04351851851851852],[0.1820833333333333,0.04351851851851852]]","[[0.10104166666666667,-0.4703703703703704,0.00020000028609956644],[0.10104166666666667,-0.4703703703703704,0.04999999999999716],[0.09718749999999995,-0.4618518518518518,0.06070000028610423],[0.08614583333333338,-0.43259259259259264,0.0774000000953663],[0.0821875000000001,-0.43129629629629623,0.09399999999999409],[0.0709374999999999,-0.4474074074074075,0.11090000009536993],[0.05343749999999995,-0.46037037037037043,0.12740000009536345],[0.05416666666666667,-0.45611111111111113,0.14410000038147075],[0.103125,-0.4698148148148148,0.16060000038146427],[0.12750000000000009,-0.47370370370370374,0.17730000019072634],[0.12468750000000005,-0.4711111111111111,0.19400000000000261],[0.13604166666666656,-0.46111111111111114,0.21080000019072997],[0.14802083333333324,-0.4418518518518519,0.22740000009535777],[0.15114583333333323,-0.4375925925925926,0.24399999999999977],[0.15427083333333325,-0.43333333333333335,0.2606000003814728],[0.1616666666666667,-0.4053703703703703,0.27730000019073486],[0.16906249999999995,-0.3774074074074074,0.29390000009536266],[0.13208333333333327,-0.37166666666666665,0.3107000002861042],[0.06770833333333333,-0.3479629629629629,0.3274000000953663],[0.022500000000000023,-0.3301851851851852,0.3439999999999941],[-0.01395833333333331,-0.3118518518518518,0.3607000002861014],[-0.04593750000000003,-0.2957407407407407,0.3773000001907292],[-0.08177083333333333,-0.3066666666666667,0.39399999999999125],[-0.10812499999999996,-0.32629629629629625,0.41070000028609854],[-0.13208333333333327,-0.3461111111111111,0.42730000019072634],[-0.14395833333333338,-0.3918518518518519,0.4440000000000026],[-0.15583333333333335,-0.4375925925925926,0.4606000003814614],[-0.1502083333333334,-0.4425925925925926,0.4773000001907377],[-0.14458333333333329,-0.4475925925925926,0.4939999999999998],[-0.14458333333333329,-0.4475925925925926,0.5106000003814728],[-0.12510416666666668,-0.5012962962962962,0.5274000000953691],[-0.14125000000000001,-0.5555555555555556,0.5443000001907308],[-0.16593749999999996,-0.6007407407407407,0.5608000001907243],[-0.22437499999999996,-0.5492592592592593,0.577300000190732],[-0.22437499999999996,-0.5492592592592593,0.5939999999999941],[-0.27625000000000005,-0.4948148148148148,0.6106000003814671],[-0.33312499999999995,-0.445,0.6273000001907292],[-0.39520833333333333,-0.3705555555555556,0.6439999999999912],[-0.45729166666666665,-0.29611111111111105,0.6607000002860985],[-0.5017708333333333,-0.26592592592592595,0.6774000000953606],[-0.54625,-0.23574074074074075,0.6940000000000026],[-0.6075,-0.16796296296296295,0.7107000002860957],[-0.6331249999999999,-0.09962962962962965,0.729300000190733],[-0.6688541666666666,-0.04203703703703712,0.7441000003814651],[-0.6669791666666666,-0.05407407407407405,0.7606000003814728],[-0.6666666666666666,-0.08499999999999996,0.7773000001907349],[-0.6735416666666667,-0.08222222222222218,0.7939999999999969],[-0.6657291666666667,-0.09222222222222225,0.8107000002861042],[-0.6579166666666667,-0.1022222222222222,0.8276000003814659],[-0.6567708333333333,-0.1270370370370371,0.8439000000953598],[-0.6533333333333334,-0.1227777777777778,0.8606000003814671],[-0.6527083333333333,-0.11148148148148146,0.8773000001907292],[-0.6520833333333333,-0.10018518518518522,0.893900000095357],[-0.6644791666666666,-0.09462962962962967,0.9119999999999919],[-0.676875,-0.08907407407407411,0.9281000003814626],[-0.6821875,-0.056666666666666705,0.9440000000000026],[-0.6777083333333334,-0.053148148148148125,0.9606000003814614],[-0.6799999999999999,-0.03092592592592601,0.9773000001907377],[-0.6892708333333334,-0.01722222222222214,0.9939999999999998],[-0.6926041666666667,0.031111111111111027,1.0106000003814728],[-0.6926041666666667,0.031111111111111027,1.0273000001907349],[-0.6982291666666666,0.050370370370370454,1.043999999999997],[-0.6877083333333334,0.08407407407407404,1.0607000002861042],[-0.6746875,0.10481481481481486,1.077300000190732],[-0.6452083333333333,0.1198148148148149,1.0942000002860937],[-0.6234375,0.13851851851851843,1.1106000003814671],[-0.6038541666666667,0.13925925925925933,1.1273000001907292],[-0.575,0.15425925925925918,1.1439999999999912],[-0.5579166666666667,0.15833333333333333,1.1606000003814643],[-0.5546875,0.15537037037037033,1.1773000001907263],[-0.5596875,0.1411111111111112,1.1944999999999908],[-0.51375,0.10907407407407403,1.2107000002860957],[-0.47281249999999997,0.06277777777777774,1.2304999999999922],[-0.43697916666666664,0.05537037037037033,1.2459000000953608],[-0.4045833333333333,0.05592592592592601,1.2607000002860929],[-0.3607291666666666,0.04870370370370362,1.2773000001907349],[-0.32312500000000005,0.06999999999999991,1.293999999999997],[-0.30968749999999995,0.04888888888888885,1.3107000002861042],[-0.29624999999999996,0.027777777777777776,1.3309000000953688],[-0.2157291666666667,0.13851851851851843,1.3481000003814643],[-0.17260416666666673,0.22962962962962963,1.3651000003814602],[-0.17354166666666668,0.33055555555555555,1.3823000001907246],[-0.17354166666666668,0.33055555555555555,1.3939999999999912],[-0.17302083333333335,0.4366666666666666,1.4107000002860985],[-0.17302083333333335,0.4366666666666666,1.4273000001907263],[-0.16114583333333338,0.44351851851851853,1.447100000381468],[-0.16114583333333338,0.44351851851851853,1.4607000002860957],[-0.15458333333333332,0.49129629629629623,1.4773000001907377],[-0.15458333333333332,0.49129629629629623,1.4939999999999998],[-0.17395833333333333,0.5537037037037037,1.5106000003814728],[-0.17395833333333333,0.5537037037037037,1.5274000000953691],[-0.15458333333333332,0.5537037037037037,1.543999999999997],[-0.13125,0.5662962962962962,1.5609000000953586],[-0.10135416666666662,0.5774074074074074,1.578700000286105],[-0.09624999999999997,0.4988888888888888,1.593999999999994],[-0.07104166666666671,0.44425925925925924,1.6106000003814671],[-0.052187500000000026,0.4027777777777778,1.6296000003814726],[-0.03968750000000002,0.3183333333333333,1.6439999999999912],[-0.0359375,0.3072222222222222,1.6606000003814643],[-0.03708333333333336,0.22018518518518515,1.6773000001907263],[-0.008958333333333356,0.12259259259259268,1.6940000000000026],[-0.014479166666666644,0.06925925925925921,1.7107000002860957],[-0.009062500000000048,0.03148148148148148,1.7274000000953578],[0.006979166666666714,-0.014814814814814815,1.7439999999999998],[0.0015625,-0.08777777777777773,1.7607000002860929],[0.014687500000000023,-0.16370370370370366,1.7799000000953669],[0.022083333333333382,-0.2059259259259259,1.7944999999999993],[0.021458333333333357,-0.2309259259259259,1.8122000002860972],[0.020833333333333332,-0.2559259259259259,1.8307000002861002],[0.05145833333333331,-0.2537037037037037,1.8444000000953622],[0.075,-0.25148148148148153,1.86099999999999],[0.09281249999999991,-0.27629629629629626,1.8780000000000001],[0.11062500000000004,-0.30111111111111116,1.8971000003814709],[0.09489583333333323,-0.22592592592592592,1.9123000001907258],[0.08572916666666662,-0.14629629629629629,1.9306000003814603],[0.08489583333333334,-0.09833333333333337,1.9466000003814656],[0.07479166666666662,-0.043703703703703745,1.9616000003814662],[0.07854166666666676,0.03944444444444436,1.977499999999992],[0.08229166666666667,0.12259259259259268,1.9942000002860993],[0.10177083333333338,0.1948148148148149,2.013200000286105],[0.08302083333333338,0.277962962962963,2.0289999999999964],[0.07645833333333343,0.36018518518518516,2.043999999999997],[0.06989583333333324,0.44240740740740736,2.0634000000953705],[0.07770833333333324,0.48351851851851857,2.0794000000953616],[0.07895833333333328,0.5201851851851852,2.094400000095362],[0.07062499999999995,0.5872222222222223,2.110600000381467],[0.11687500000000005,0.5761111111111111,2.130600000381463],[0.14427083333333332,0.5612962962962963,2.1444999999999936],[0.1716666666666666,0.5464814814814816,2.1606000003814643],[0.16520833333333323,0.5385185185185184,2.1773000001907263],[0.19697916666666657,0.5196296296296297,2.194200000286102],[0.23572916666666663,0.5127777777777778,2.2106000003814614],[0.27447916666666666,0.505925925925926,2.2273000001907377],[0.2808333333333332,0.48814814814814816,2.2439999999999998],[0.28718750000000004,0.4703703703703704,2.2631000003814705],[0.28020833333333334,0.42537037037037045,2.277700000286103],[0.23312499999999994,0.412962962962963,2.2942000002860965],[0.190625,0.41999999999999993,2.3141000003814725],[0.190625,0.41999999999999993,2.3275000000000006],[0.16083333333333344,0.4272222222222223,2.3442000002860937],[0.13666666666666671,0.4337037037037038,2.3637000002861015],[0.11072916666666661,0.44351851851851853,2.3834000000953637],[0.11072916666666661,0.44351851851851853,2.4011000003814615],[0.060104166666666715,0.5014814814814814,2.416100000381462],[0.060104166666666715,0.5014814814814814,2.4274000000953606],[0.012395833333333309,0.5598148148148148,2.444200000286102],[-0.0009374999999999763,0.5801851851851851,2.46080000019073],[-0.021979166666666692,0.5607407407407407,2.4794000000953673],[-0.024374999999999977,0.5848148148148147,2.494100000381465],[-0.029062499999999977,0.5592592592592592,2.510700000286093],[-0.029062499999999977,0.5592592592592592,2.5298000001907326],[-0.025312499999999953,0.5599999999999999,2.543999999999997],[-0.06447916666666664,0.5692592592592592,2.5612000002860924],[-0.08416666666666663,0.5387037037037037,2.577300000190732],[-0.10208333333333333,0.5048148148148148,2.5981000003814643],[-0.109375,0.5209259259259258,2.6133000001907334],[-0.12260416666666671,0.5138888888888888,2.627600000381463],[-0.12791666666666662,0.5075925925925926,2.644200000286105],[-0.12552083333333333,0.5411111111111112,2.6606000003814643],[-0.18343750000000003,0.5635185185185184,2.6773000001907263],[-0.23635416666666664,0.6066666666666667,2.694200000286102],[-0.26843750000000005,0.6757407407407408,2.7106000003814614],[-0.2703125,0.7361111111111112,2.7273000001907377],[-0.2916666666666667,0.8027777777777778,2.7439999999999998],[-0.31302083333333336,0.8694444444444445,2.760600000381473],[-0.33406250000000004,0.8787037037037037,2.777300000190735],[-0.35583333333333333,0.8922222222222221,2.79840000009537],[-0.38385416666666666,0.8472222222222222,2.8113000001907267],[-0.39625,0.8253703703703704,2.827300000190732],[-0.35833333333333334,0.7768518518518519,2.843999999999994],[-0.3207291666666666,0.7755555555555554,2.860600000381467],[-0.30499999999999994,0.693888888888889,2.877300000190729],[-0.2905208333333333,0.5972222222222222,2.8939999999999912],[-0.29812500000000003,0.5464814814814816,2.9106000003814643],[-0.3107291666666666,0.5146296296296295,2.9273000001907263],[-0.30885416666666665,0.4420370370370371,2.9440000000000026],[-0.30447916666666663,0.4083333333333333,2.9607000002860957],[-0.30874999999999997,0.42296296296296293,2.9773000001907377],[-0.34343750000000006,0.4425925925925926,2.9939999999999998],[-0.33489583333333334,0.4964814814814815,3.010600000381473],[-0.3311458333333333,0.5338888888888889,3.027300000190735],[-0.34697916666666667,0.5324074074074074,3.043999999999997],[-0.34729166666666667,0.5396296296296296,3.0607000002861042],[-0.33645833333333336,0.5488888888888889,3.077300000190732],[-0.3134375,0.5396296296296296,3.093999999999994],[-0.3159374999999999,0.5485185185185186,3.110600000381467],[-0.31229166666666663,0.5401851851851853,3.1297000002860926],[-0.2985416666666667,0.5738888888888889,3.1439999999999912],[-0.2700000000000001,0.5794444444444444,3.1610000000000014],[-0.2646875,0.5346296296296297,3.1773000001907263],[-0.2569791666666667,0.487962962962963,3.1973000001907366],[-0.2048958333333334,0.512962962962963,3.214100000381464],[-0.1670833333333333,0.5442592592592592,3.229700000286101],[-0.12395833333333334,0.5772222222222223,3.2439999999999998],[-0.08802083333333334,0.6098148148148147,3.260600000381473],[-0.05302083333333331,0.6351851851851852,3.277300000190735],[-0.022916666666666665,0.6574074074074074,3.294400000095365],[0.010520833333333358,0.6077777777777779,3.3107000002861042],[0.04645833333333336,0.5577777777777778,3.329499999999996],[0.04645833333333336,0.5577777777777778,3.343999999999994],[0.05802083333333338,0.5787037037037037,3.3607000002861014],[0.03833333333333329,0.5829629629629629,3.3812000002861],[0.03833333333333329,0.5829629629629629,3.3939999999999912],[-0.0002083333333333807,0.5588888888888888,3.4107000002860985],[-0.0002083333333333807,0.5588888888888888,3.4274000000953606],[-0.034166666666666616,0.5338888888888889,3.4439000000953683],[-0.034166666666666616,0.5338888888888889,3.4606000003814614],[-0.06604166666666664,0.4927777777777778,3.4773000001907377],[-0.06604166666666664,0.4927777777777778,3.4939000000953655],[-0.10354166666666664,0.45685185185185195,3.510600000381473],[-0.12322916666666663,0.43944444444444436,3.533600000381469],[-0.16531250000000006,0.3907407407407407,3.5478000001907333],[-0.2117708333333333,0.3707407407407408,3.5639000000953587],[-0.29885416666666664,0.37185185185185177,3.5778000001907344],[-0.3376041666666667,0.3296296296296296,3.5944999999999965],[-0.37697916666666664,0.29685185185185176,3.61099999999999],[-0.4163541666666667,0.2640740740740741,3.6308000001907317],[-0.46281249999999996,0.2524074074074073,3.6541000003814617],[-0.46281249999999996,0.2524074074074073,3.6606000003814643],[-0.4985416666666667,0.24277777777777781,3.6773000001907263],[-0.5286458333333334,0.227962962962963,3.6958000001907294],[-0.5537500000000001,0.17962962962962964,3.711100000381464],[-0.5744791666666667,0.13703703703703704,3.7279999999999944],[-0.5744791666666667,0.13703703703703704,3.7439000000953655],[-0.5549999999999999,0.12129629629629629,3.760700000286093],[-0.49885416666666665,0.07148148148148152,3.777300000190735],[-0.4819791666666667,0.03166666666666671,3.7953000001907355],[-0.43697916666666664,0.013518518518518435,3.810999999999993],[-0.3919791666666666,-0.004629629629629629,3.8277000002861],[-0.34135416666666674,-0.05870370370370368,3.84390000009536],[-0.3064583333333334,-0.1022222222222222,3.860600000381467],[-0.2813541666666667,-0.16833333333333328,3.877300000190729],[-0.26895833333333335,-0.21481481481481482,3.8944999999999936],[-0.2289583333333333,-0.18259259259259264,3.911300000190735],[-0.2289583333333333,-0.18259259259259264,3.9274000000953606],[-0.2413541666666667,-0.2074074074074074,3.9440000000000026],[-0.23468749999999997,-0.20314814814814813,3.964900000095369],[-0.22218749999999995,-0.21333333333333332,3.9809000000953603],[-0.20593750000000005,-0.23796296296296296,3.9982000002861042],[-0.1672916666666667,-0.27018518518518514,4.014400000095364],[-0.1672916666666667,-0.27018518518518514,4.027300000190735],[-0.13177083333333334,-0.2866666666666667,4.043999999999997],[-0.0859375,-0.2948148148148148,4.0685],[-0.0859375,-0.2948148148148148,4.077400000095366],[-0.035000000000000024,-0.29259259259259257,4.094100000381459],[0.018229166666666668,-0.30777777777777776,4.112499999999997],[0.06177083333333329,-0.3814814814814815,4.129700000286093],[0.12229166666666676,-0.4053703703703703,4.146800000190737],[0.16520833333333323,-0.445,4.1633000001907305],[0.19479166666666667,-0.45759259259259266,4.179800000190724],[0.2413541666666667,-0.4462962962962963,4.195700000286095],[0.24791666666666667,-0.44833333333333336,4.212800000190725],[0.2540625000000001,-0.482962962962963,4.231800000190731],[0.2515625,-0.5087037037037037,4.2472000002860995],[0.2537499999999999,-0.5222222222222223,4.26430000019073],[0.2328125,-0.5187037037037038,4.279700000286098],[0.21197916666666666,-0.5098148148148148,4.295600000381469],[0.2033333333333334,-0.525,4.31060000038147],[0.1946875000000001,-0.5401851851851852,4.327300000190732],[0.1883333333333333,-0.5324074074074074,4.34390000009536],[0.1650000000000001,-0.5485185185185185,4.360700000286101],[0.15177083333333338,-0.5698148148148148,4.377300000190729],[0.13895833333333343,-0.5585185185185185,4.393999999999991],[0.14593749999999991,-0.5618518518518518,4.410600000381464],[0.15291666666666662,-0.5651851851851851,4.430100000381472],[0.16802083333333329,-0.5501851851851852,4.443900000095368],[0.18406250000000005,-0.5414814814814815,4.460600000381461],[0.13229166666666667,-0.5174074074074073,4.477400000095358],[0.08052083333333329,-0.4933333333333333,4.497400000095368],[0.04750000000000002,-0.5238888888888888,4.513700000286093],[0.014479166666666644,-0.5544444444444444,4.530800000190737],[-0.014999999999999977,-0.5522222222222222,4.5468000001907285],[-0.044479166666666715,-0.55,4.5623000001907315],[-0.09927083333333328,-0.5509259259259259,4.577300000190732],[-0.15406249999999996,-0.5518518518518518,4.593999999999994],[-0.1944791666666667,-0.5903703703703704,4.610600000381467],[-0.2358333333333333,-0.6225925925925926,4.628999999999991],[-0.23791666666666664,-0.6198148148148148,4.644200000286105],[-0.23406250000000003,-0.612037037037037,4.662499999999994],[-0.25104166666666666,-0.5924074074074074,4.677300000190726],[-0.26802083333333326,-0.5727777777777778,4.69460000038147],[-0.2725,-0.5975925925925926,4.710600000381461],[-0.27697916666666667,-0.6224074074074074,4.7276000003814715],[-0.29333333333333333,-0.6068518518518519,4.7439000000953655],[-0.30968749999999995,-0.5912962962962963,4.760900000095361],[-0.33010416666666664,-0.53,4.777300000190735],[-0.35052083333333334,-0.46870370370370373,4.793900000095363],[-0.36614583333333334,-0.44814814814814813,4.81060000038147],[-0.3877083333333334,-0.43259259259259264,4.830600000381466],[-0.3728125,-0.4287037037037037,4.846100000381469],[-0.3579166666666667,-0.42481481481481476,4.860600000381467],[-0.3188541666666667,-0.3933333333333333,4.877300000190729],[-0.2797916666666667,-0.3618518518518518,4.894100000381471],[-0.23635416666666664,-0.36203703703703705,4.913700000286099],[-0.23635416666666664,-0.36203703703703705,4.92760000038146],[-0.1984375,-0.26055555555555554,4.9462000002860975],[-0.1388541666666666,-0.23703703703703705,4.960600000381461],[-0.09656250000000005,-0.2007407407407407,4.977300000190738],[-0.049583333333333354,-0.15907407407407403,4.9939000000953655],[0.002708333333333357,-0.1096296296296296,5.010600000381473],[0.025833333333333285,-0.04129629629629621,5.027600000381469],[0.058437500000000024,-0.006111111111111027,5.043999999999997],[0.058333333333333334,0.03925925925925934,5.06060000038147],[0.06875,0.08666666666666659,5.077300000190732],[0.09052083333333343,0.1259259259259259,5.093999999999994],[0.10770833333333343,0.09611111111111106,5.110600000381467],[0.1056250000000001,0.11814814814814806,5.130300000190729],[0.1203125,0.1675925925925926,5.14530000019073],[0.1203125,0.1675925925925926,5.1607000002860985],[0.1349999999999999,0.2170370370370371,5.177300000190726],[0.1209374999999999,0.230925925925926,5.194200000286102],[0.10906250000000005,0.26592592592592595,5.210700000286096],[0.08854166666666667,0.30166666666666664,5.229800000190735],[0.013541666666666667,0.33351851851851855,5.245700000286092],[-0.06447916666666664,0.3574074074074074,5.262300000190734],[-0.13927083333333337,0.40907407407407403,5.277300000190735],[-0.21083333333333332,0.38000000000000006,5.294300000190731],[-0.27999999999999997,0.38074074074074077,5.313000000000002],[-0.34874999999999995,0.3453703703703704,5.332900000095364],[-0.41604166666666664,0.3088888888888888,5.353300000190728],[-0.41604166666666664,0.3088888888888888,5.360700000286101],[-0.45989583333333334,0.3001851851851852,5.377300000190729],[-0.45989583333333334,0.3001851851851852,5.393999999999991],[-0.49562500000000004,0.25703703703703695,5.410600000381464],[-0.49562500000000004,0.25703703703703695,5.427300000190726],[-0.5543750000000001,0.24203703703703713,5.444000000000003],[-0.5543750000000001,0.24203703703703713,5.460600000381461],[-0.553125,0.25203703703703706,5.477300000190738],[-0.553125,0.25203703703703706,5.494],[-0.5572916666666666,0.26777777777777784,5.510700000286093],[-0.5693750000000001,0.2111111111111111,5.533700000286103],[-0.5693750000000001,0.2111111111111111,5.543999999999997],[-0.5757291666666667,0.22296296296296292,5.560700000286104],[-0.5783333333333334,0.21444444444444435,5.578900000095359],[-0.5808333333333333,0.20185185185185187,5.594100000381459],[-0.5779166666666666,0.22611111111111115,5.610600000381467],[-0.5779166666666666,0.22611111111111115,5.627300000190729],[-0.5707291666666666,0.23944444444444435,5.643900000095357],[-0.5633333333333332,0.282037037037037,5.662300000190726],[-0.5384375,0.31055555555555564,5.678700000286099],[-0.5190625,0.31796296296296306,5.693900000095368],[-0.5140625,0.33499999999999996,5.710900000095364],[-0.5091666666666667,0.3942592592592592,5.730100000381469],[-0.49302083333333335,0.43185185185185193,5.744400000095368],[-0.4859375,0.4601851851851852,5.760700000286093],[-0.4258333333333333,0.45759259259259266,5.777300000190735],[-0.37552083333333336,0.4101851851851852,5.795200000286101],[-0.2873958333333333,0.3653703703703703,5.8104999999999905],[-0.2873958333333333,0.3653703703703703,5.827300000190732],[-0.21124999999999997,0.3424074074074074,5.843999999999994],[-0.14135416666666673,0.32333333333333336,5.860700000286101],[-0.05531250000000002,0.32629629629629636,5.877200000286095],[0.043020833333333286,0.3198148148148149,5.893900000095357],[0.1404166666666666,0.33777777777777773,5.910600000381464],[0.22020833333333342,0.2916666666666667,5.9303000001907265],[0.3099999999999999,0.28166666666666673,5.945300000190727],[0.3467708333333334,0.3025925925925925,5.960600000381461],[0.38947916666666677,0.3296296296296296,5.9776000003814715],[0.39010416666666664,0.36500000000000005,5.997],[0.3759375000000001,0.3668518518518519,6.010800000190727],[0.3727083333333333,0.3831481481481481,6.027400000095369],[0.3667708333333332,0.3292592592592592,6.0442000002860965],[0.36083333333333345,0.27537037037037043,6.06360000038147],[0.35520833333333335,0.2,6.079300000190727],[0.3540625000000001,0.1596296296296297,6.093999999999994],[0.35166666666666657,0.10851851851851856,6.112200000286094],[0.3492708333333333,0.05740740740740741,6.130700000286097],[0.3446875000000001,0.01777777777777782,6.1462000002861],[0.34010416666666665,-0.021851851851851768,6.1607000002860985],[0.36218750000000005,-0.08296296296296299,6.18240000009537],[0.36218750000000005,-0.08296296296296299,6.1997000002861],[0.38427083333333345,-0.1440740740740741,6.217100000381464],[0.38427083333333345,-0.1440740740740741,6.227400000095358],[0.37864583333333335,-0.1411111111111111,6.244],[0.37864583333333335,-0.1411111111111111,6.260600000381473],[0.3507291666666667,-0.14518518518518514,6.277300000190735],[0.32927083333333323,-0.1381481481481482,6.293999999999997],[0.31531250000000005,-0.11351851851851855,6.31060000038147],[0.31531250000000005,-0.11351851851851855,6.327300000190732],[0.2945833333333333,-0.13351851851851856,6.344200000286094],[0.2789583333333333,-0.12888888888888894,6.36210000038146],[0.25718750000000007,-0.12685185185185185,6.377300000190729],[0.2375,-0.14500000000000002,6.394100000381471],[0.19645833333333323,-0.11222222222222226,6.410600000381464],[0.1609375,-0.07018518518518514,6.429900000095358],[0.14739583333333334,-0.07444444444444442,6.4443000001907365],[0.15614583333333343,-0.07166666666666664,6.460600000381461],[0.1560416666666666,-0.04740740740740745,6.477300000190738],[0.15270833333333325,-0.026481481481481398,6.4939000000953655],[0.15229166666666671,0.012777777777777735,6.512400000095369],[0.14104166666666676,0.07092592592592584,6.527600000381469],[0.14541666666666658,0.1257407407407407,6.5442000002860965],[0.14770833333333327,0.2007407407407407,6.560700000286104],[0.1453125,0.23370370370370377,6.579400000095362],[0.13166666666666677,0.26907407407407397,6.594200000286094],[0.1319791666666667,0.35462962962962963,6.610800000190736],[0.13229166666666667,0.4401851851851853,6.630200000286095],[0.1400000000000001,0.4572222222222222,6.644100000381471],[0.14645833333333325,0.4903703703703703,6.661100000381467],[0.1396874999999999,0.525,6.67960000038147],[0.13937499999999994,0.5162962962962963,6.698900000095364],[0.13937499999999994,0.5162962962962963,6.711100000381464],[0.12760416666666666,0.48518518518518516,6.7309999999999945],[0.13125,0.465,6.747500000000002],[0.15052083333333333,0.45314814814814824,6.763700000286093],[0.18947916666666675,0.40407407407407414,6.7812000002861055],[0.20927083333333343,0.3338888888888888,6.795999999999992],[0.2007291666666667,0.2851851851851852,6.810700000286104],[0.19260416666666677,0.2718518518518518,6.827500000000001],[0.19260416666666677,0.2718518518518518,6.8463000001907375],[0.2109375,0.18611111111111112,6.860800000190736],[0.23562500000000006,0.09592592592592585,6.8774000000953635],[0.26583333333333337,-0.0005555555555554713,6.897200000286105],[0.2977083333333333,-0.04722222222222222,6.910800000190733],[0.32218749999999996,-0.11277777777777774,6.927499999999995],[0.3366666666666667,-0.17740740740740743,6.944000000000003],[0.3430208333333333,-0.22981481481481486,6.963499999999996],[0.3242708333333333,-0.23555555555555555,6.9776000003814715],[0.3338541666666667,-0.2627777777777777,6.994100000381465],[0.32843749999999994,-0.2631481481481482,7.012900000095357],[0.31270833333333337,-0.24962962962962965,7.029499999999999],[0.2926041666666668,-0.24759259259259256,7.044100000381462],[0.28322916666666675,-0.24722222222222223,7.063900000095359],[0.24739583333333334,-0.2183333333333333,7.078700000286105],[0.20354166666666676,-0.1814814814814815,7.093999999999994],[0.18739583333333343,-0.19574074074074072,7.112700000286097],[0.16531250000000006,-0.18314814814814812,7.127600000381463],[0.10635416666666657,-0.23777777777777773,7.1448000001907275],[0.04739583333333333,-0.29240740740740734,7.169800000190733],[0.04739583333333333,-0.29240740740740734,7.177400000095361],[0.08125,-0.3466666666666666,7.194100000381468],[0.08125,-0.3466666666666666,7.210700000286096],[0.08375000000000009,-0.3968518518518519,7.230800000190726],[0.10458333333333343,-0.38481481481481483,7.245900000095361],[0.10843749999999991,-0.36500000000000005,7.260700000286093],[0.1209374999999999,-0.40925925925925927,7.277400000095369],[0.1334374999999999,-0.4535185185185185,7.297200000286097],[0.12270833333333328,-0.44833333333333336,7.310900000095359],[0.11208333333333324,-0.4566666666666667,7.327400000095366],[0.11208333333333324,-0.4566666666666667,7.343999999999994],[0.15625,-0.4762962962962963,7.360600000381467],[0.12989583333333338,-0.4637037037037037,7.377600000381463],[0.12989583333333338,-0.4637037037037037,7.393999999999991],[0.025729166666666713,-0.47833333333333333,7.410600000381464],[0.025729166666666713,-0.47833333333333333,7.427300000190726],[-0.05249999999999998,-0.42592592592592593,7.443900000095368],[-0.05249999999999998,-0.42592592592592593,7.463700000286096],[-0.08666666666666671,-0.4177777777777778,7.477400000095358],[-0.08666666666666671,-0.4177777777777778,7.494100000381465],[-0.1452083333333333,-0.3846296296296296,7.515600000381468],[-0.1452083333333333,-0.3846296296296296,7.527499999999989],[-0.13562500000000005,-0.40703703703703703,7.543999999999997],[-0.13624999999999995,-0.44888888888888884,7.5627000002861],[-0.18968750000000004,-0.39944444444444444,7.577400000095366],[-0.18968750000000004,-0.39944444444444444,7.59390000009536],[-0.1610416666666667,-0.39351851851851855,7.610600000381467],[-0.1610416666666667,-0.39351851851851855,7.627300000190729],[-0.22729166666666673,-0.3022222222222222,7.643900000095357],[-0.17843749999999994,-0.3131481481481482,7.662999999999997],[-0.10645833333333338,-0.3072222222222222,7.677300000190726],[-0.04520833333333331,-0.3138888888888889,7.693900000095368],[-0.10354166666666664,-0.29611111111111105,7.7109999999999985],[-0.1375,-0.30333333333333334,7.730300000190738],[-0.13187500000000002,-0.2933333333333333,7.745600000381472],[-0.13270833333333332,-0.24833333333333338,7.760700000286093],[-0.06666666666666667,-0.3175925925925926,7.777300000190735],[-0.08270833333333331,-0.34333333333333327,7.794300000190731],[-0.09781249999999998,-0.3698148148148148,7.810700000286104],[-0.15750000000000006,-0.32629629629629625,7.827600000381466],[-0.14375,-0.3322222222222222,7.844400000095362],[-0.12999999999999995,-0.3381481481481482,7.8629999999999995],[-0.0907291666666667,-0.3801851851851852,7.8785000000000025],[-0.03083333333333336,-0.3838888888888889,7.894400000095359],[-0.07906249999999998,-0.3696296296296297,7.910499999999999],[-0.11062500000000004,-0.37092592592592594,7.931100000381463],[-0.1544791666666666,-0.3755555555555556,7.9465],[-0.1983333333333333,-0.3801851851851852,7.962999999999994],[-0.15885416666666666,-0.40611111111111114,7.9802000002861035],[-0.07479166666666662,-0.42666666666666664,7.996300000190729],[-0.10843750000000002,-0.4359259259259259,8.010600000381473],[-0.14197916666666663,-0.44518518518518513,8.029700000286098],[-0.14552083333333338,-0.45037037037037037,8.044700000286099],[-0.18333333333333332,-0.4792592592592593,8.062200000286097],[-0.19145833333333329,-0.48,8.0777000002861],[-0.19958333333333336,-0.4807407407407408,8.09590000009537],[-0.19156249999999997,-0.4624074074074074,8.112600000381462],[-0.19406249999999994,-0.42777777777777776,8.130700000286097],[-0.17708333333333334,-0.4179629629629629,8.145200000286096],[-0.2046875,-0.41351851851851856,8.161300000190735],[-0.221875,-0.3933333333333333,8.177499999999995],[-0.2391666666666667,-0.3731481481481482,8.194100000381468],[-0.21218750000000006,-0.38259259259259265,8.210499999999996],[-0.17156250000000003,-0.40666666666666673,8.232200000286099],[-0.11083333333333331,-0.44240740740740736,8.24790000009537],[-0.05010416666666669,-0.4781481481481481,8.26310000038147],[-0.027083333333333334,-0.49981481481481477,8.277300000190735],[0.006458333333333381,-0.5377777777777777,8.29540000009537],[0.08072916666666667,-0.575925925925926,8.311900000095363],[0.13406250000000006,-0.632962962962963,8.328700000286105],[0.2271874999999999,-0.6925925925925925,8.346499999999992],[0.3203125,-0.7522222222222222,8.364200000286104],[0.3390625,-0.7518518518518519,8.379999999999995],[0.3615624999999999,-0.7533333333333333,8.396900000095357],[0.3321875000000001,-0.7212962962962963,8.410700000286099],[0.3321875000000001,-0.7212962962962963,8.427300000190726],[0.3054166666666667,-0.6929629629629629,8.443800000190734],[0.34437499999999993,-0.6975925925925925,8.460499999999996],[0.3618750000000001,-0.6824074074074075,8.47810000038146],[0.32833333333333337,-0.6718518518518519,8.494300000190734],[0.3304166666666667,-0.6703703703703704,8.512300000190734],[0.2830208333333334,-0.6520370370370371,8.529499999999999],[0.23270833333333343,-0.6212962962962963,8.543900000095363],[0.2234375,-0.616111111111111,8.56060000038147],[0.20968749999999994,-0.5972222222222222,8.577200000286098],[0.20656249999999995,-0.5824074074074074,8.595500000000001],[0.17822916666666658,-0.5814814814814815,8.613100000381465],[0.09927083333333328,-0.5374074074074073,8.629300000190725],[0.07635416666666663,-0.5101851851851852,8.6462000002861],[0.057083333333333285,-0.48703703703703705,8.662999999999997],[0.015416666666666618,-0.4309259259259259,8.677300000190726],[0.008958333333333356,-0.39814814814814814,8.693800000190734],[-0.004999999999999952,-0.38685185185185184,8.712700000286105],[-0.01895833333333338,-0.3755555555555556,8.727600000381472],[-0.022500000000000023,-0.36648148148148146,8.743900000095365],[-0.016875000000000046,-0.3774074074074074,8.760499999999993],[0.0032291666666666905,-0.35999999999999993,8.7772000002861],[0.04489583333333336,-0.3514814814814815,8.793800000190728],[0.008541666666666715,-0.36500000000000005,8.81049999999999],[-0.025312499999999953,-0.375,8.829499999999996],[-0.041458333333333285,-0.39000000000000007,8.849200000286103],[-0.03947916666666664,-0.4270370370370371,8.863800000190736],[-0.05270833333333336,-0.415925925925926,8.877400000095363],[-0.04031250000000005,-0.4438888888888889,8.893800000190737],[-0.08083333333333335,-0.43870370370370365,8.910499999999999],[-0.12135416666666667,-0.4335185185185186,8.931400000095365],[-0.12937500000000005,-0.42833333333333334,8.946200000286098],[-0.12124999999999998,-0.44240740740740736,8.960499999999996],[-0.09989583333333331,-0.3853703703703704,8.977200000286103],[-0.07854166666666665,-0.32833333333333337,8.993900000095365],[-0.050937499999999976,-0.2490740740740741,9.010499999999993],[-0.05625,-0.1331481481481481,9.02860000038146],[-0.04562499999999995,-0.012407407407407492,9.043999999999997],[-0.06062500000000005,0.14740740740740746,9.06060000038147],[-0.036458333333333336,0.24888888888888885,9.077200000286098],[-0.01229166666666662,0.35037037037037044,9.09390000009536],[-0.03322916666666664,0.43407407407407406,9.110500000000002],[-0.03322916666666664,0.43407407407407406,9.12730000019073],[-0.08166666666666664,0.5296296296296297,9.143900000095357],[-0.0875,0.5449999999999999,9.160499999999999],[-0.04125000000000002,0.5107407407407406,9.177300000190726],[-0.07489583333333331,0.48648148148148157,9.193900000095368],[-0.05260416666666667,0.45740740740740743,9.210600000381461],[-0.020624999999999952,0.3844444444444445,9.228900000095365],[0,0.29796296296296293,9.245400000095358],[0.024687500000000046,0.2270370370370371,9.261100000381461],[0.024687500000000046,0.2270370370370371,9.2772000002861],[0.05395833333333329,0.1985185185185186,9.293900000095363],[0.1146874999999999,0.14203703703703713,9.311999999999998],[0.16114583333333338,0.08648148148148156,9.327600000381466],[0.16114583333333338,0.08648148148148156,9.34390000009536],[0.19302083333333328,0.016666666666666666,9.360800000190736],[0.19302083333333328,0.016666666666666666,9.377200000286095],[0.17822916666666658,0.04981481481481477,9.393900000095357],[0.21989583333333323,0.04296296296296305,9.410900000095367],[0.21989583333333323,0.04296296296296305,9.427200000286092],[0.21666666666666667,0.034074074074074034,9.443900000095368],[0.21666666666666667,0.034074074074074034,9.460499999999996],[0.1820833333333333,0.04351851851851852,9.477300000190738],[0.1820833333333333,0.04351851851851852,9.493900000095365]]","[0.00020000028609956644,0.04999999999999716,0.06070000028610423,0.0774000000953663,0.09399999999999409,0.11090000009536993,0.12740000009536345,0.14410000038147075,0.16060000038146427,0.17730000019072634,0.19400000000000261,0.21080000019072997,0.22740000009535777,0.24399999999999977,0.2606000003814728,0.27730000019073486,0.29390000009536266,0.3107000002861042,0.3274000000953663,0.3439999999999941,0.3607000002861014,0.3773000001907292,0.39399999999999125,0.41070000028609854,0.42730000019072634,0.4440000000000026,0.4606000003814614,0.4773000001907377,0.4939999999999998,0.5106000003814728,0.5274000000953691,0.5443000001907308,0.5608000001907243,0.577300000190732,0.5939999999999941,0.6106000003814671,0.6273000001907292,0.6439999999999912,0.6607000002860985,0.6774000000953606,0.6940000000000026,0.7107000002860957,0.729300000190733,0.7441000003814651,0.7606000003814728,0.7773000001907349,0.7939999999999969,0.8107000002861042,0.8276000003814659,0.8439000000953598,0.8606000003814671,0.8773000001907292,0.893900000095357,0.9119999999999919,0.9281000003814626,0.9440000000000026,0.9606000003814614,0.9773000001907377,0.9939999999999998,1.0106000003814728,1.0273000001907349,1.043999999999997,1.0607000002861042,1.077300000190732,1.0942000002860937,1.1106000003814671,1.1273000001907292,1.1439999999999912,1.1606000003814643,1.1773000001907263,1.1944999999999908,1.2107000002860957,1.2304999999999922,1.2459000000953608,1.2607000002860929,1.2773000001907349,1.293999999999997,1.3107000002861042,1.3309000000953688,1.3481000003814643,1.3651000003814602,1.3823000001907246,1.3939999999999912,1.4107000002860985,1.4273000001907263,1.447100000381468,1.4607000002860957,1.4773000001907377,1.4939999999999998,1.5106000003814728,1.5274000000953691,1.543999999999997,1.5609000000953586,1.578700000286105,1.593999999999994,1.6106000003814671,1.6296000003814726,1.6439999999999912,1.6606000003814643,1.6773000001907263,1.6940000000000026,1.7107000002860957,1.7274000000953578,1.7439999999999998,1.7607000002860929,1.7799000000953669,1.7944999999999993,1.8122000002860972,1.8307000002861002,1.8444000000953622,1.86099999999999,1.8780000000000001,1.8971000003814709,1.9123000001907258,1.9306000003814603,1.9466000003814656,1.9616000003814662,1.977499999999992,1.9942000002860993,2.013200000286105,2.0289999999999964,2.043999999999997,2.0634000000953705,2.0794000000953616,2.094400000095362,2.110600000381467,2.130600000381463,2.1444999999999936,2.1606000003814643,2.1773000001907263,2.194200000286102,2.2106000003814614,2.2273000001907377,2.2439999999999998,2.2631000003814705,2.277700000286103,2.2942000002860965,2.3141000003814725,2.3275000000000006,2.3442000002860937,2.3637000002861015,2.3834000000953637,2.4011000003814615,2.416100000381462,2.4274000000953606,2.444200000286102,2.46080000019073,2.4794000000953673,2.494100000381465,2.510700000286093,2.5298000001907326,2.543999999999997,2.5612000002860924,2.577300000190732,2.5981000003814643,2.6133000001907334,2.627600000381463,2.644200000286105,2.6606000003814643,2.6773000001907263,2.694200000286102,2.7106000003814614,2.7273000001907377,2.7439999999999998,2.760600000381473,2.777300000190735,2.79840000009537,2.8113000001907267,2.827300000190732,2.843999999999994,2.860600000381467,2.877300000190729,2.8939999999999912,2.9106000003814643,2.9273000001907263,2.9440000000000026,2.9607000002860957,2.9773000001907377,2.9939999999999998,3.010600000381473,3.027300000190735,3.043999999999997,3.0607000002861042,3.077300000190732,3.093999999999994,3.110600000381467,3.1297000002860926,3.1439999999999912,3.1610000000000014,3.1773000001907263,3.1973000001907366,3.214100000381464,3.229700000286101,3.2439999999999998,3.260600000381473,3.277300000190735,3.294400000095365,3.3107000002861042,3.329499999999996,3.343999999999994,3.3607000002861014,3.3812000002861,3.3939999999999912,3.4107000002860985,3.4274000000953606,3.4439000000953683,3.4606000003814614,3.4773000001907377,3.4939000000953655,3.510600000381473,3.533600000381469,3.5478000001907333,3.5639000000953587,3.5778000001907344,3.5944999999999965,3.61099999999999,3.6308000001907317,3.6541000003814617,3.6606000003814643,3.6773000001907263,3.6958000001907294,3.711100000381464,3.7279999999999944,3.7439000000953655,3.760700000286093,3.777300000190735,3.7953000001907355,3.810999999999993,3.8277000002861,3.84390000009536,3.860600000381467,3.877300000190729,3.8944999999999936,3.911300000190735,3.9274000000953606,3.9440000000000026,3.964900000095369,3.9809000000953603,3.9982000002861042,4.014400000095364,4.027300000190735,4.043999999999997,4.0685,4.077400000095366,4.094100000381459,4.112499999999997,4.129700000286093,4.146800000190737,4.1633000001907305,4.179800000190724,4.195700000286095,4.212800000190725,4.231800000190731,4.2472000002860995,4.26430000019073,4.279700000286098,4.295600000381469,4.31060000038147,4.327300000190732,4.34390000009536,4.360700000286101,4.377300000190729,4.393999999999991,4.410600000381464,4.430100000381472,4.443900000095368,4.460600000381461,4.477400000095358,4.497400000095368,4.513700000286093,4.530800000190737,4.5468000001907285,4.5623000001907315,4.577300000190732,4.593999999999994,4.610600000381467,4.628999999999991,4.644200000286105,4.662499999999994,4.677300000190726,4.69460000038147,4.710600000381461,4.7276000003814715,4.7439000000953655,4.760900000095361,4.777300000190735,4.793900000095363,4.81060000038147,4.830600000381466,4.846100000381469,4.860600000381467,4.877300000190729,4.894100000381471,4.913700000286099,4.92760000038146,4.9462000002860975,4.960600000381461,4.977300000190738,4.9939000000953655,5.010600000381473,5.027600000381469,5.043999999999997,5.06060000038147,5.077300000190732,5.093999999999994,5.110600000381467,5.130300000190729,5.14530000019073,5.1607000002860985,5.177300000190726,5.194200000286102,5.210700000286096,5.229800000190735,5.245700000286092,5.262300000190734,5.277300000190735,5.294300000190731,5.313000000000002,5.332900000095364,5.353300000190728,5.360700000286101,5.377300000190729,5.393999999999991,5.410600000381464,5.427300000190726,5.444000000000003,5.460600000381461,5.477300000190738,5.494,5.510700000286093,5.533700000286103,5.543999999999997,5.560700000286104,5.578900000095359,5.594100000381459,5.610600000381467,5.627300000190729,5.643900000095357,5.662300000190726,5.678700000286099,5.693900000095368,5.710900000095364,5.730100000381469,5.744400000095368,5.760700000286093,5.777300000190735,5.795200000286101,5.8104999999999905,5.827300000190732,5.843999999999994,5.860700000286101,5.877200000286095,5.893900000095357,5.910600000381464,5.9303000001907265,5.945300000190727,5.960600000381461,5.9776000003814715,5.997,6.010800000190727,6.027400000095369,6.0442000002860965,6.06360000038147,6.079300000190727,6.093999999999994,6.112200000286094,6.130700000286097,6.1462000002861,6.1607000002860985,6.18240000009537,6.1997000002861,6.217100000381464,6.227400000095358,6.244,6.260600000381473,6.277300000190735,6.293999999999997,6.31060000038147,6.327300000190732,6.344200000286094,6.36210000038146,6.377300000190729,6.394100000381471,6.410600000381464,6.429900000095358,6.4443000001907365,6.460600000381461,6.477300000190738,6.4939000000953655,6.512400000095369,6.527600000381469,6.5442000002860965,6.560700000286104,6.579400000095362,6.594200000286094,6.610800000190736,6.630200000286095,6.644100000381471,6.661100000381467,6.67960000038147,6.698900000095364,6.711100000381464,6.7309999999999945,6.747500000000002,6.763700000286093,6.7812000002861055,6.795999999999992,6.810700000286104,6.827500000000001,6.8463000001907375,6.860800000190736,6.8774000000953635,6.897200000286105,6.910800000190733,6.927499999999995,6.944000000000003,6.963499999999996,6.9776000003814715,6.994100000381465,7.012900000095357,7.029499999999999,7.044100000381462,7.063900000095359,7.078700000286105,7.093999999999994,7.112700000286097,7.127600000381463,7.1448000001907275,7.169800000190733,7.177400000095361,7.194100000381468,7.210700000286096,7.230800000190726,7.245900000095361,7.260700000286093,7.277400000095369,7.297200000286097,7.310900000095359,7.327400000095366,7.343999999999994,7.360600000381467,7.377600000381463,7.393999999999991,7.410600000381464,7.427300000190726,7.443900000095368,7.463700000286096,7.477400000095358,7.494100000381465,7.515600000381468,7.527499999999989,7.543999999999997,7.5627000002861,7.577400000095366,7.59390000009536,7.610600000381467,7.627300000190729,7.643900000095357,7.662999999999997,7.677300000190726,7.693900000095368,7.7109999999999985,7.730300000190738,7.745600000381472,7.760700000286093,7.777300000190735,7.794300000190731,7.810700000286104,7.827600000381466,7.844400000095362,7.8629999999999995,7.8785000000000025,7.894400000095359,7.910499999999999,7.931100000381463,7.9465,7.962999999999994,7.9802000002861035,7.996300000190729,8.010600000381473,8.029700000286098,8.044700000286099,8.062200000286097,8.0777000002861,8.09590000009537,8.112600000381462,8.130700000286097,8.145200000286096,8.161300000190735,8.177499999999995,8.194100000381468,8.210499999999996,8.232200000286099,8.24790000009537,8.26310000038147,8.277300000190735,8.29540000009537,8.311900000095363,8.328700000286105,8.346499999999992,8.364200000286104,8.379999999999995,8.396900000095357,8.410700000286099,8.427300000190726,8.443800000190734,8.460499999999996,8.47810000038146,8.494300000190734,8.512300000190734,8.529499999999999,8.543900000095363,8.56060000038147,8.577200000286098,8.595500000000001,8.613100000381465,8.629300000190725,8.6462000002861,8.662999999999997,8.677300000190726,8.693800000190734,8.712700000286105,8.727600000381472,8.743900000095365,8.760499999999993,8.7772000002861,8.793800000190728,8.81049999999999,8.829499999999996,8.849200000286103,8.863800000190736,8.877400000095363,8.893800000190737,8.910499999999999,8.931400000095365,8.946200000286098,8.960499999999996,8.977200000286103,8.993900000095365,9.010499999999993,9.02860000038146,9.043999999999997,9.06060000038147,9.077200000286098,9.09390000009536,9.110500000000002,9.12730000019073,9.143900000095357,9.160499999999999,9.177300000190726,9.193900000095368,9.210600000381461,9.228900000095365,9.245400000095358,9.261100000381461,9.2772000002861,9.293900000095363,9.311999999999998,9.327600000381466,9.34390000009536,9.360800000190736,9.377200000286095,9.393900000095357,9.410900000095367,9.427200000286092,9.443900000095368,9.460499999999996,9.477300000190738,9.493900000095365]","[1731910556825,1731910556866,1731910556877,1731910556894,1731910556910,1731910556927,1731910556944,1731910556960,1731910556977,1731910556994,1731910557010,1731910557027,1731910557044,1731910557060,1731910557077,1731910557094,1731910557110,1731910557127,1731910557144,1731910557160,1731910557177,1731910557193,1731910557210,1731910557227,1731910557244,1731910557260,1731910557277,1731910557294,1731910557310,1731910557327,1731910557344,1731910557361,1731910557377,1731910557394,1731910557410,1731910557427,1731910557444,1731910557460,1731910557477,1731910557494,1731910557510,1731910557527,1731910557545,1731910557560,1731910557577,1731910557594,1731910557610,1731910557627,1731910557644,1731910557660,1731910557677,1731910557693,1731910557710,1731910557728,1731910557744,1731910557760,1731910557777,1731910557793,1731910557810,1731910557827,1731910557844,1731910557860,1731910557877,1731910557894,1731910557910,1731910557927,1731910557944,1731910557960,1731910557977,1731910557994,1731910558011,1731910558027,1731910558047,1731910558062,1731910558077,1731910558094,1731910558110,1731910558127,1731910558147,1731910558164,1731910558181,1731910558199,1731910558210,1731910558227,1731910558244,1731910558263,1731910558277,1731910558294,1731910558310,1731910558327,1731910558344,1731910558360,1731910558377,1731910558395,1731910558410,1731910558427,1731910558446,1731910558460,1731910558477,1731910558493,1731910558510,1731910558527,1731910558544,1731910558560,1731910558577,1731910558596,1731910558611,1731910558628,1731910558647,1731910558661,1731910558677,1731910558694,1731910558713,1731910558728,1731910558747,1731910558763,1731910558778,1731910558794,1731910558810,1731910558829,1731910558845,1731910558860,1731910558880,1731910558896,1731910558911,1731910558927,1731910558947,1731910558961,1731910558977,1731910558993,1731910559010,1731910559027,1731910559043,1731910559060,1731910559079,1731910559094,1731910559110,1731910559130,1731910559144,1731910559160,1731910559180,1731910559200,1731910559217,1731910559232,1731910559244,1731910559260,1731910559277,1731910559296,1731910559310,1731910559327,1731910559346,1731910559360,1731910559377,1731910559394,1731910559414,1731910559430,1731910559444,1731910559460,1731910559477,1731910559493,1731910559510,1731910559527,1731910559544,1731910559560,1731910559577,1731910559593,1731910559615,1731910559627,1731910559644,1731910559660,1731910559677,1731910559693,1731910559710,1731910559727,1731910559744,1731910559760,1731910559777,1731910559793,1731910559810,1731910559827,1731910559843,1731910559860,1731910559877,1731910559893,1731910559910,1731910559927,1