inst1_resp.keys,inst1_resp.rt,calibrationMouse.x,calibrationMouse.y,calibrationMouse.leftButton,calibrationMouse.midButton,calibrationMouse.rightButton,calibrationClick.x,calibrationClick.y,calibrationClick.leftButton,calibrationClick.midButton,calibrationClick.rightButton,trialsc.thisRepN,trialsc.thisTrialN,trialsc.thisN,trialsc.thisIndex,trialsc.ran,calibration_x,calibration_y,participant,session,date,expName,psychopyVersion,OS,frameRate,calibrationClick.clicked_name,ScreenRes_pixels,Camera_pixels,mouse_2.x,mouse_2.y,mouse_2.leftButton,mouse_2.midButton,mouse_2.rightButton,mouse_2.time,mouse_2.clicked_name,mouse.x,mouse.y,mouse.leftButton,mouse.midButton,mouse.rightButton,mouse.time,mouse.clicked_name,Choice,Trial,TrialDuration,MOUSE_GAZE,ET_GAZE,ET_GAZE_x_T,time,unixTime,ET_GAZE_NF,Loc_Bus_label,Loc_Metro_label,Loc_RH_label,Loc_Cost_label,Loc_Travel_label,Loc_Comfort_label,Loc_Bus_cost,Loc_Metro_cost,Loc_RH_cost,Loc_Bus_travel,Loc_Metro_travel,Loc_RH_travel,Loc_Bus_comfort,Loc_Metro_comfort,Loc_RH_comfort,trials.thisRepN,trials.thisTrialN,trials.thisN,trials.thisIndex,trials.ran,Block,Device,RH_cost,RH_travel_time,RH_Comfort,metro_cost,metro_travel_time,metro_Comfort,Bus_cost,Bus_travel_time,Bus_Comfort
space,2.9264,-0.086458333,-0.2,1,0,0,0.33125,-0.309259259,1,0,0,0,0,0,15,1,0.33,-0.33,45,001,2024-11-18_14h24.42.761,Attention_exp_legacy,2023.1.0,Win32,59.88023952,,,,,,,,,,,,,,,,,,,,,,,,,,,,,,,,,,,,,,,,,,,,,,,,,,,,,,,,,
,,,,,,,0.3375,0.666666667,1,0,0,0,1,1,18,1,0.33,0.67,45,001,2024-11-18_14h24.42.761,Attention_exp_legacy,2023.1.0,Win32,59.88023952,calibration_square,,,,,,,,,,,,,,,,,,,,,,,,,,,,,,,,,,,,,,,,,,,,,,,,,,,,,,,,
,,,,,,,-0.342708333,-0.32962963,1,0,0,0,2,2,5,1,-0.33,-0.33,45,001,2024-11-18_14h24.42.761,Attention_exp_legacy,2023.1.0,Win32,59.88023952,,,,,,,,,,,,,,,,,,,,,,,,,,,,,,,,,,,,,,,,,,,,,,,,,,,,,,,,,
,,,,,,,-0.335416667,-0.001851852,1,0,0,0,3,3,6,1,-0.33,0,45,001,2024-11-18_14h24.42.761,Attention_exp_legacy,2023.1.0,Win32,59.88023952,calibration_square,,,,,,,,,,,,,,,,,,,,,,,,,,,,,,,,,,,,,,,,,,,,,,,,,,,,,,,,
,,,,,,,0.004166667,0,1,0,0,0,4,4,11,1,0,0,45,001,2024-11-18_14h24.42.761,Attention_exp_legacy,2023.1.0,Win32,59.88023952,calibration_square,,,,,,,,,,,,,,,,,,,,,,,,,,,,,,,,,,,,,,,,,,,,,,,,,,,,,,,,
,,,,,,,-0.333333333,0.32962963,1,0,0,0,5,5,7,1,-0.33,0.33,45,001,2024-11-18_14h24.42.761,Attention_exp_legacy,2023.1.0,Win32,59.88023952,calibration_square,,,,,,,,,,,,,,,,,,,,,,,,,,,,,,,,,,,,,,,,,,,,,,,,,,,,,,,,
,,,,,,,0.004166667,-0.331481481,1,0,0,0,6,6,10,1,0,-0.33,45,001,2024-11-18_14h24.42.761,Attention_exp_legacy,2023.1.0,Win32,59.88023952,calibration_square,,,,,,,,,,,,,,,,,,,,,,,,,,,,,,,,,,,,,,,,,,,,,,,,,,,,,,,,
,,,,,,,-0.002083333,0.664814815,1,0,0,0,7,7,13,1,0,0.67,45,001,2024-11-18_14h24.42.761,Attention_exp_legacy,2023.1.0,Win32,59.88023952,calibration_square,,,,,,,,,,,,,,,,,,,,,,,,,,,,,,,,,,,,,,,,,,,,,,,,,,,,,,,,
,,,,,,,0.341666667,0.307407407,1,0,0,0,8,8,17,1,0.33,0.33,45,001,2024-11-18_14h24.42.761,Attention_exp_legacy,2023.1.0,Win32,59.88023952,,,,,,,,,,,,,,,,,,,,,,,,,,,,,,,,,,,,,,,,,,,,,,,,,,,,,,,,,
,,,,,,,0.334375,-0.677777778,1,0,0,0,9,9,14,1,0.33,-0.67,45,001,2024-11-18_14h24.42.761,Attention_exp_legacy,2023.1.0,Win32,59.88023952,calibration_square,,,,,,,,,,,,,,,,,,,,,,,,,,,,,,,,,,,,,,,,,,,,,,,,,,,,,,,,
,,,,,,,0.672916667,0.675925926,1,0,0,0,10,10,19,1,0.67,0.67,45,001,2024-11-18_14h24.42.761,Attention_exp_legacy,2023.1.0,Win32,59.88023952,calibration_square,,,,,,,,,,,,,,,,,,,,,,,,,,,,,,,,,,,,,,,,,,,,,,,,,,,,,,,,
,,,,,,,0.325,0.007407407,1,0,0,0,11,11,16,1,0.33,0,45,001,2024-11-18_14h24.42.761,Attention_exp_legacy,2023.1.0,Win32,59.88023952,calibration_square,,,,,,,,,,,,,,,,,,,,,,,,,,,,,,,,,,,,,,,,,,,,,,,,,,,,,,,,
,,,,,,,-0.335416667,-0.672222222,1,0,0,0,12,12,4,1,-0.33,-0.67,45,001,2024-11-18_14h24.42.761,Attention_exp_legacy,2023.1.0,Win32,59.88023952,calibration_square,,,,,,,,,,,,,,,,,,,,,,,,,,,,,,,,,,,,,,,,,,,,,,,,,,,,,,,,
,,,,,,,-0.672916667,0.344444444,1,0,0,0,13,13,3,1,-0.67,0.33,45,001,2024-11-18_14h24.42.761,Attention_exp_legacy,2023.1.0,Win32,59.88023952,,,,,,,,,,,,,,,,,,,,,,,,,,,,,,,,,,,,,,,,,,,,,,,,,,,,,,,,,
,,,,,,,-0.686458333,-0.338888889,1,0,0,0,14,14,1,1,-0.67,-0.33,45,001,2024-11-18_14h24.42.761,Attention_exp_legacy,2023.1.0,Win32,59.88023952,,,,,,,,,,,,,,,,,,,,,,,,,,,,,,,,,,,,,,,,,,,,,,,,,,,,,,,,,
,,,,,,,-0.661458333,0,1,0,0,0,15,15,2,1,-0.67,0,45,001,2024-11-18_14h24.42.761,Attention_exp_legacy,2023.1.0,Win32,59.88023952,calibration_square,,,,,,,,,,,,,,,,,,,,,,,,,,,,,,,,,,,,,,,,,,,,,,,,,,,,,,,,
,,,,,,,0.671875,-0.657407407,1,0,0,0,16,16,20,1,0.67,-0.67,45,001,2024-11-18_14h24.42.761,Attention_exp_legacy,2023.1.0,Win32,59.88023952,,,,,,,,,,,,,,,,,,,,,,,,,,,,,,,,,,,,,,,,,,,,,,,,,,,,,,,,,
,,,,,,,-0.004166667,0.338888889,1,0,0,0,17,17,12,1,0,0.33,45,001,2024-11-18_14h24.42.761,Attention_exp_legacy,2023.1.0,Win32,59.88023952,calibration_square,,,,,,,,,,,,,,,,,,,,,,,,,,,,,,,,,,,,,,,,,,,,,,,,,,,,,,,,
,,,,,,,-0.66875,-0.668518519,1,0,0,0,18,18,0,1,-0.67,-0.67,45,001,2024-11-18_14h24.42.761,Attention_exp_legacy,2023.1.0,Win32,59.88023952,calibration_square,,,,,,,,,,,,,,,,,,,,,,,,,,,,,,,,,,,,,,,,,,,,,,,,,,,,,,,,
,,,,,,,-0.326041667,0.67037037,1,0,0,0,19,19,8,1,-0.33,0.67,45,001,2024-11-18_14h24.42.761,Attention_exp_legacy,2023.1.0,Win32,59.88023952,calibration_square,,,,,,,,,,,,,,,,,,,,,,,,,,,,,,,,,,,,,,,,,,,,,,,,,,,,,,,,
,,,,,,,-0.001041667,-0.675925926,1,0,0,0,20,20,9,1,0,-0.67,45,001,2024-11-18_14h24.42.761,Attention_exp_legacy,2023.1.0,Win32,59.88023952,calibration_square,,,,,,,,,,,,,,,,,,,,,,,,,,,,,,,,,,,,,,,,,,,,,,,,,,,,,,,,
,,,,,,,,,,,,,,,,,,,45,001,2024-11-18_14h24.42.761,Attention_exp_legacy,2023.1.0,Win32,59.88023952,,"[1920,1080]","[640,480]",[0.059375],[-0.5074074074074074],[1],[0],[0],[2.7014000000953615],"[""StartButton""]",[0.15729166666666666],[0.1685185185185185],[1],[0],[0],[5.002199999809264],"[""RH_label""]",RH_label,1,6.0273,"[[0.06041666666666667,-0.5074074074074074],[0.06041666666666667,-0.5074074074074074],[0.06041666666666667,-0.5074074074074074],[0.06041666666666667,-0.5074074074074074],[0.06041666666666667,-0.5074074074074074],[0.06041666666666667,-0.5074074074074074],[0.06041666666666667,-0.5074074074074074],[0.06041666666666667,-0.5074074074074074],[0.06041666666666667,-0.5074074074074074],[0.06041666666666667,-0.5074074074074074],[0.06041666666666667,-0.5074074074074074],[0.06041666666666667,-0.5074074074074074],[0.06041666666666667,-0.5074074074074074],[0.06041666666666667,-0.5074074074074074],[0.06041666666666667,-0.5074074074074074],[0.06041666666666667,-0.5074074074074074],[0.06041666666666667,-0.5074074074074074],[0.06041666666666667,-0.5074074074074074],[0.06041666666666667,-0.5074074074074074],[0.06041666666666667,-0.5074074074074074],[0.06041666666666667,-0.5074074074074074],[0.06041666666666667,-0.5074074074074074],[0.06041666666666667,-0.5074074074074074],[0.06041666666666667,-0.5074074074074074],[0.06041666666666667,-0.5074074074074074],[0.06041666666666667,-0.5074074074074074],[0.06041666666666667,-0.5074074074074074],[0.06041666666666667,-0.5074074074074074],[0.06041666666666667,-0.5074074074074074],[0.06041666666666667,-0.5074074074074074],[0.06041666666666667,-0.5074074074074074],[0.06041666666666667,-0.5074074074074074],[0.06041666666666667,-0.5074074074074074],[0.06041666666666667,-0.5074074074074074],[0.06041666666666667,-0.5074074074074074],[0.06041666666666667,-0.5074074074074074],[0.06041666666666667,-0.5074074074074074],[0.06041666666666667,-0.5074074074074074],[0.06041666666666667,-0.5074074074074074],[0.06041666666666667,-0.5074074074074074],[0.06041666666666667,-0.5074074074074074],[0.06041666666666667,-0.5074074074074074],[0.06041666666666667,-0.5074074074074074],[0.06041666666666667,-0.5074074074074074],[0.06041666666666667,-0.5074074074074074],[0.06041666666666667,-0.5074074074074074],[0.06041666666666667,-0.5074074074074074],[0.06041666666666667,-0.5074074074074074],[0.06041666666666667,-0.5074074074074074],[0.06041666666666667,-0.5074074074074074],[0.06041666666666667,-0.5074074074074074],[0.06041666666666667,-0.5074074074074074],[0.06041666666666667,-0.5074074074074074],[0.06041666666666667,-0.5074074074074074],[0.06041666666666667,-0.5074074074074074],[0.06041666666666667,-0.5074074074074074],[0.06041666666666667,-0.5074074074074074],[0.06041666666666667,-0.5074074074074074],[0.06041666666666667,-0.5074074074074074],[0.06041666666666667,-0.5074074074074074],[0.06041666666666667,-0.5074074074074074],[0.06041666666666667,-0.5074074074074074],[0.06041666666666667,-0.5074074074074074],[0.06041666666666667,-0.5074074074074074],[0.06041666666666667,-0.5074074074074074],[0.06041666666666667,-0.5074074074074074],[0.06041666666666667,-0.5074074074074074],[0.06041666666666667,-0.5074074074074074],[0.06041666666666667,-0.5074074074074074],[0.06041666666666667,-0.5074074074074074],[0.06041666666666667,-0.5074074074074074],[0.06041666666666667,-0.5074074074074074],[0.06041666666666667,-0.5074074074074074],[0.06041666666666667,-0.5074074074074074],[0.06041666666666667,-0.5074074074074074],[0.06041666666666667,-0.5074074074074074],[0.06041666666666667,-0.5074074074074074],[0.06041666666666667,-0.5074074074074074],[0.06041666666666667,-0.5074074074074074],[0.06041666666666667,-0.5074074074074074],[0.06041666666666667,-0.5074074074074074],[0.06041666666666667,-0.5074074074074074],[0.06041666666666667,-0.5074074074074074],[0.06041666666666667,-0.5074074074074074],[0.06041666666666667,-0.5074074074074074],[0.06041666666666667,-0.5074074074074074],[0.06041666666666667,-0.5074074074074074],[0.06041666666666667,-0.5074074074074074],[0.06041666666666667,-0.5074074074074074],[0.06041666666666667,-0.5074074074074074],[0.06041666666666667,-0.5074074074074074],[0.06041666666666667,-0.5074074074074074],[0.06041666666666667,-0.5074074074074074],[0.06041666666666667,-0.5074074074074074],[0.06041666666666667,-0.5074074074074074],[0.06041666666666667,-0.5074074074074074],[0.06041666666666667,-0.5074074074074074],[0.06041666666666667,-0.5074074074074074],[0.06041666666666667,-0.5074074074074074],[0.06041666666666667,-0.5074074074074074],[0.06041666666666667,-0.5074074074074074],[0.06041666666666667,-0.5074074074074074],[0.06041666666666667,-0.5074074074074074],[0.06041666666666667,-0.5074074074074074],[0.06041666666666667,-0.5074074074074074],[0.06041666666666667,-0.5074074074074074],[0.06041666666666667,-0.5074074074074074],[0.06041666666666667,-0.5074074074074074],[0.06041666666666667,-0.5074074074074074],[0.06041666666666667,-0.5074074074074074],[0.06041666666666667,-0.5074074074074074],[0.06041666666666667,-0.5074074074074074],[0.06041666666666667,-0.5074074074074074],[0.06041666666666667,-0.5074074074074074],[0.06041666666666667,-0.5074074074074074],[0.06041666666666667,-0.5074074074074074],[0.06041666666666667,-0.5074074074074074],[0.06041666666666667,-0.5074074074074074],[0.06041666666666667,-0.5074074074074074],[0.06041666666666667,-0.5074074074074074],[0.06041666666666667,-0.5074074074074074],[0.06041666666666667,-0.5074074074074074],[0.06041666666666667,-0.5074074074074074],[0.06041666666666667,-0.5074074074074074],[0.06041666666666667,-0.5074074074074074],[0.06041666666666667,-0.5074074074074074],[0.06041666666666667,-0.5074074074074074],[0.06041666666666667,-0.5074074074074074],[0.06041666666666667,-0.5074074074074074],[0.06041666666666667,-0.5074074074074074],[0.06041666666666667,-0.5074074074074074],[0.06041666666666667,-0.5074074074074074],[0.06041666666666667,-0.5074074074074074],[0.06041666666666667,-0.5074074074074074],[0.06041666666666667,-0.5074074074074074],[0.06041666666666667,-0.5074074074074074],[0.06041666666666667,-0.5074074074074074],[0.06041666666666667,-0.5074074074074074],[0.06041666666666667,-0.5074074074074074],[0.06041666666666667,-0.5074074074074074],[0.06041666666666667,-0.5074074074074074],[0.06041666666666667,-0.5074074074074074],[0.06041666666666667,-0.5074074074074074],[0.06041666666666667,-0.5074074074074074],[0.06041666666666667,-0.5074074074074074],[0.06041666666666667,-0.5074074074074074],[0.06041666666666667,-0.5074074074074074],[0.06041666666666667,-0.5074074074074074],[0.06041666666666667,-0.5074074074074074],[0.06041666666666667,-0.5074074074074074],[0.06041666666666667,-0.5074074074074074],[0.06041666666666667,-0.5074074074074074],[0.06041666666666667,-0.5074074074074074],[0.06041666666666667,-0.5074074074074074],[0.06041666666666667,-0.5074074074074074],[0.06041666666666667,-0.5074074074074074],[0.06041666666666667,-0.5074074074074074],[0.06041666666666667,-0.5074074074074074],[0.06041666666666667,-0.5074074074074074],[0.06041666666666667,-0.5074074074074074],[0.06041666666666667,-0.5074074074074074],[0.06041666666666667,-0.5074074074074074],[0.06041666666666667,-0.5074074074074074],[0.06041666666666667,-0.5074074074074074],[0.06041666666666667,-0.5074074074074074],[0.06041666666666667,-0.5074074074074074],[0.06041666666666667,-0.5074074074074074],[0.06041666666666667,-0.5074074074074074],[0.06041666666666667,-0.5074074074074074],[0.06041666666666667,-0.5074074074074074],[0.06041666666666667,-0.5074074074074074],[0.06041666666666667,-0.5074074074074074],[0.06041666666666667,-0.5074074074074074],[0.06041666666666667,-0.5074074074074074],[0.06041666666666667,-0.5074074074074074],[0.06041666666666667,-0.5074074074074074],[0.06041666666666667,-0.5074074074074074],[0.06041666666666667,-0.5074074074074074],[0.06041666666666667,-0.5074074074074074],[0.06041666666666667,-0.5074074074074074],[0.06041666666666667,-0.5074074074074074],[0.06041666666666667,-0.5074074074074074],[0.06041666666666667,-0.5074074074074074],[0.06041666666666667,-0.5074074074074074],[0.06041666666666667,-0.5074074074074074],[0.06041666666666667,-0.5074074074074074],[0.06041666666666667,-0.5074074074074074],[0.06041666666666667,-0.5074074074074074],[0.06041666666666667,-0.5074074074074074],[0.06041666666666667,-0.5074074074074074],[0.06041666666666667,-0.5074074074074074],[0.06041666666666667,-0.5074074074074074],[0.06041666666666667,-0.5074074074074074],[0.06041666666666667,-0.5074074074074074],[0.06041666666666667,-0.5074074074074074],[0.06041666666666667,-0.5074074074074074],[0.06041666666666667,-0.5074074074074074],[0.06041666666666667,-0.5074074074074074],[0.06041666666666667,-0.5074074074074074],[0.06041666666666667,-0.5074074074074074],[0.06041666666666667,-0.5074074074074074],[0.06041666666666667,-0.5074074074074074],[0.06041666666666667,-0.5074074074074074],[0.06041666666666667,-0.5074074074074074],[0.06041666666666667,-0.5074074074074074],[0.06041666666666667,-0.5074074074074074],[0.06041666666666667,-0.5074074074074074],[0.06041666666666667,-0.5074074074074074],[0.06041666666666667,-0.5074074074074074],[0.06041666666666667,-0.5074074074074074],[0.06041666666666667,-0.5074074074074074],[0.06041666666666667,-0.5092592592592593],[0.06041666666666667,-0.5148148148148148],[0.06041666666666667,-0.5222222222222223],[0.06145833333333333,-0.5370370370370371],[0.0625,-0.5425925925925926],[0.0625,-0.5444444444444444],[0.0625,-0.5462962962962963],[0.0625,-0.5481481481481482],[0.0625,-0.5537037037037037],[0.0625,-0.5537037037037037],[0.0625,-0.5574074074074075],[0.0625,-0.5592592592592592],[0.06354166666666666,-0.5611111111111111],[0.06354166666666666,-0.5611111111111111],[0.06666666666666667,-0.562962962962963],[0.071875,-0.5648148148148148],[0.071875,-0.5648148148148148],[0.07395833333333333,-0.5685185185185185],[0.07604166666666666,-0.5685185185185185],[0.07604166666666666,-0.5685185185185185],[0.07708333333333334,-0.5685185185185185],[0.078125,-0.5703703703703704],[0.078125,-0.5703703703703704],[0.078125,-0.5703703703703704],[0.078125,-0.5703703703703704],[0.078125,-0.5703703703703704],[0.078125,-0.5703703703703704],[0.07916666666666666,-0.5722222222222222],[0.08020833333333334,-0.5722222222222222],[0.084375,-0.5722222222222222],[0.08645833333333333,-0.5722222222222222],[0.08854166666666667,-0.5722222222222222],[0.090625,-0.5722222222222222],[0.09479166666666666,-0.5722222222222222],[0.09583333333333334,-0.5722222222222222],[0.09791666666666667,-0.5722222222222222],[0.10104166666666667,-0.5722222222222222],[0.103125,-0.5722222222222222],[0.10625,-0.5722222222222222],[0.109375,-0.5722222222222222],[0.11875,-0.5722222222222222],[0.12291666666666666,-0.5722222222222222],[0.12708333333333333,-0.5722222222222222],[0.134375,-0.5703703703703704],[0.13958333333333334,-0.5685185185185185],[0.146875,-0.5648148148148148],[0.15729166666666666,-0.5611111111111111],[0.16875,-0.5537037037037037],[0.18125,-0.5425925925925926],[0.19375,-0.5259259259259259],[0.20833333333333334,-0.5037037037037037],[0.22083333333333333,-0.4777777777777778],[0.25,-0.4185185185185185],[0.2677083333333333,-0.3685185185185185],[0.27708333333333335,-0.32592592592592595],[0.29583333333333334,-0.2462962962962963],[0.30833333333333335,-0.14444444444444443],[0.3125,-0.07407407407407407],[0.3125,0.005555555555555556],[0.30520833333333336,0.046296296296296294],[0.30104166666666665,0.06481481481481481],[0.29270833333333335,0.08703703703703704],[0.28854166666666664,0.0962962962962963],[0.28541666666666665,0.10185185185185185],[0.28125,0.1037037037037037],[0.2791666666666667,0.1037037037037037],[0.2677083333333333,0.1037037037037037],[0.25625,0.10740740740740741],[0.246875,0.1111111111111111],[0.2375,0.11851851851851852],[0.23125,0.12222222222222222],[0.221875,0.1259259259259259],[0.21041666666666667,0.12777777777777777],[0.19583333333333333,0.13333333333333333],[0.17916666666666667,0.14444444444444443],[0.16875,0.1537037037037037],[0.1625,0.16111111111111112],[0.159375,0.16666666666666666],[0.159375,0.16666666666666666],[0.15729166666666666,0.1685185185185185],[0.15729166666666666,0.1685185185185185],[0.15729166666666666,0.1685185185185185],[0.15729166666666666,0.1685185185185185],[0.15729166666666666,0.1685185185185185],[0.15729166666666666,0.1685185185185185],[0.15729166666666666,0.1685185185185185],[0.15729166666666666,0.1685185185185185],[0.15729166666666666,0.1685185185185185],[0.15729166666666666,0.1685185185185185],[0.15729166666666666,0.1685185185185185],[0.15729166666666666,0.1685185185185185],[0.15729166666666666,0.1685185185185185],[0.15729166666666666,0.1685185185185185],[0.15729166666666666,0.1685185185185185],[0.15729166666666666,0.1685185185185185],[0.15729166666666666,0.1685185185185185],[0.15729166666666666,0.1685185185185185],[0.15729166666666666,0.1685185185185185],[0.15729166666666666,0.1685185185185185],[0.15729166666666666,0.1685185185185185],[0.15729166666666666,0.1685185185185185],[0.15729166666666666,0.1685185185185185],[0.15729166666666666,0.1685185185185185],[0.15729166666666666,0.1685185185185185],[0.15729166666666666,0.1685185185185185],[0.15729166666666666,0.1685185185185185],[0.15729166666666666,0.1685185185185185],[0.15729166666666666,0.1685185185185185],[0.15729166666666666,0.1685185185185185],[0.15729166666666666,0.1685185185185185],[0.15729166666666666,0.1685185185185185],[0.15729166666666666,0.1685185185185185],[0.15729166666666666,0.1685185185185185],[0.15729166666666666,0.1685185185185185],[0.15729166666666666,0.1685185185185185],[0.15729166666666666,0.1685185185185185],[0.15729166666666666,0.1685185185185185],[0.15729166666666666,0.1685185185185185],[0.15729166666666666,0.1685185185185185],[0.15729166666666666,0.1685185185185185],[0.15729166666666666,0.1685185185185185],[0.15729166666666666,0.1685185185185185],[0.15729166666666666,0.1685185185185185],[0.15729166666666666,0.1685185185185185],[0.15729166666666666,0.1685185185185185],[0.15729166666666666,0.1685185185185185],[0.15729166666666666,0.1685185185185185],[0.15729166666666666,0.1685185185185185],[0.15729166666666666,0.1685185185185185],[0.15729166666666666,0.1685185185185185],[0.15729166666666666,0.1685185185185185],[0.15729166666666666,0.1685185185185185],[0.15729166666666666,0.1685185185185185],[0.15729166666666666,0.1685185185185185],[0.15729166666666666,0.1685185185185185],[0.15729166666666666,0.1685185185185185],[0.15729166666666666,0.1685185185185185],[0.15729166666666666,0.1685185185185185],[0.15729166666666666,0.1685185185185185],[0.15729166666666666,0.1685185185185185],[0.15729166666666666,0.1685185185185185],[0.15729166666666666,0.1685185185185185],[0.15729166666666666,0.1685185185185185],[0.15729166666666666,0.1685185185185185],[0.15729166666666666,0.1685185185185185],[0.15729166666666666,0.1685185185185185],[0.15729166666666666,0.1685185185185185],[0.15729166666666666,0.1685185185185185],[0.15729166666666666,0.1685185185185185],[0.15729166666666666,0.1685185185185185]]","[[-0.005937500000000048,0.14814814814814814],[-0.005937500000000048,0.14814814814814814],[-0.004166666666666667,0.14907407407407408],[-0.004166666666666667,0.14907407407407408],[-0.009375,0.1712962962962963],[-0.009375,0.1712962962962963],[-0.014583333333333334,0.1935185185185185],[-0.03604166666666669,0.2],[-0.03604166666666669,0.2],[-0.04041666666666662,0.21851851851851853],[-0.04729166666666664,0.23833333333333342],[-0.07437499999999998,0.21814814814814806],[-0.07437499999999998,0.21814814814814806],[-0.08020833333333334,0.21796296296296305],[-0.08020833333333334,0.21796296296296305],[-0.04895833333333333,0.21129629629629634],[-0.04895833333333333,0.21129629629629634],[-0.05791666666666669,0.18499999999999997],[-0.05791666666666669,0.18499999999999997],[-0.05135416666666662,0.18277777777777787],[-0.05135416666666662,0.18277777777777787],[-0.021875,0.14518518518518514],[-0.021875,0.14518518518518514],[-0.0140625,0.127962962962963],[-0.025416666666666643,0.13129629629629624],[-0.06427083333333337,0.144074074074074],[-0.07531249999999995,0.1448148148148149],[-0.06208333333333336,0.14240740740740737],[-0.04885416666666664,0.14000000000000004],[-0.07749999999999997,0.12962962962962962],[-0.10364583333333334,0.17185185185185176],[-0.10364583333333334,0.17185185185185176],[-0.10645833333333338,0.15259259259259256],[-0.10645833333333338,0.15259259259259256],[-0.11635416666666672,0.16425925925925935],[-0.11635416666666672,0.16425925925925935],[-0.11489583333333328,0.13481481481481472],[-0.10791666666666669,0.12444444444444452],[-0.08885416666666662,0.0977777777777777],[-0.06302083333333333,0.07481481481481478],[-0.05802083333333338,0.054074074074074156],[-0.06927083333333334,0.024074074074074074],[-0.05531250000000002,0.01055555555555564],[-0.06593749999999995,0.006111111111111027],[-0.09302083333333329,0.03740740740740749],[-0.12427083333333329,0.031111111111111027],[-0.1452083333333333,0.0455555555555556],[-0.16291666666666665,0.07574074074074069],[-0.18062499999999998,0.105925925925926],[-0.18875000000000006,0.11481481481481481],[-0.196875,0.12370370370370362],[-0.20979166666666665,0.15092592592592594],[-0.19718749999999996,0.16500000000000004],[-0.19718749999999996,0.16500000000000004],[-0.17145833333333335,0.1507407407407407],[-0.16020833333333329,0.14388888888888898],[-0.1492708333333333,0.15981481481481474],[-0.1345833333333334,0.1712962962962963],[-0.12406250000000002,0.14148148148148143],[-0.11833333333333336,0.11907407407407399],[-0.12895833333333329,0.11425925925925934],[-0.14187500000000006,0.12888888888888894],[-0.13374999999999998,0.13444444444444448],[-0.14968750000000006,0.13944444444444437],[-0.14968750000000006,0.13944444444444437],[-0.165625,0.14444444444444443],[-0.16520833333333335,0.14370370370370375],[-0.17239583333333333,0.1411111111111112],[-0.19020833333333337,0.14388888888888898],[-0.19906250000000003,0.14722222222222223],[-0.19906250000000003,0.14722222222222223],[-0.20083333333333328,0.14370370370370375],[-0.1805208333333333,0.13296296296296287],[-0.17583333333333329,0.09944444444444453],[-0.17114583333333327,0.06592592592592597],[-0.15697916666666673,0.06611111111111119],[-0.15697916666666673,0.06611111111111119],[-0.14281250000000004,0.06629629629629621],[-0.13833333333333328,0.08722222222222227],[-0.1342708333333333,0.09518518518518514],[-0.11666666666666667,0.10481481481481486],[-0.11281249999999995,0.10999999999999996],[-0.10052083333333334,0.10851851851851856],[-0.10427083333333335,0.10722222222222218],[-0.09010416666666667,0.10925925925925926],[-0.09010416666666667,0.10925925925925926],[-0.06583333333333338,0.11018518518518519],[-0.07281249999999997,0.0911111111111112],[-0.07979166666666669,0.072037037037037],[-0.057291666666666664,0.014259259259259343],[-0.02677083333333338,-0.028703703703703703],[-0.02677083333333338,-0.028703703703703703],[0.014479166666666644,-0.05499999999999998],[0.014479166666666644,-0.05499999999999998],[0.058958333333333356,-0.04018518518518527],[0.09885416666666676,-0.009444444444444486],[0.13270833333333343,0.02833333333333325],[0.15489583333333337,0.012222222222222264],[0.16697916666666662,-0.002777777777777778],[0.2055208333333333,-0.0012962962962963806],[0.25281250000000005,-0.015370370370370286],[0.27843749999999995,-0.01314814814814819],[0.2877083333333334,0.005555555555555556],[0.2795833333333334,0.005000000000000084],[0.28270833333333345,-0.022037037037036994],[0.2796875,-0.05888888888888891],[0.2618750000000001,-0.102962962962963],[0.2620833333333332,-0.09611111111111106],[0.26229166666666665,-0.08925925925925923],[0.26114583333333335,-0.1111111111111111],[0.25125000000000003,-0.11740740740740736],[0.22989583333333338,-0.11222222222222226],[0.22489583333333343,-0.1235185185185185],[0.23322916666666677,-0.15055555555555558],[0.23145833333333338,-0.1772222222222222],[0.22000000000000006,-0.1844444444444445],[0.22333333333333344,-0.1844444444444445],[0.24333333333333323,-0.20722222222222217],[0.2633333333333333,-0.22999999999999998],[0.28125,-0.227962962962963],[0.2991666666666667,-0.22592592592592592],[0.3033333333333334,-0.24314814814814817],[0.30750000000000005,-0.2603703703703704],[0.2900000000000001,-0.23574074074074075],[0.2724999999999999,-0.2111111111111111],[0.2646874999999999,-0.2059259259259259],[0.26239583333333344,-0.21648148148148144],[0.2493750000000001,-0.21351851851851855],[0.2353125000000001,-0.1618518518518518],[0.21375000000000005,-0.14648148148148152],[0.1638541666666666,-0.12851851851851848],[0.1638541666666666,-0.12851851851851848],[0.15479166666666658,-0.08499999999999996],[0.15833333333333333,-0.028518518518518478],[0.15833333333333333,-0.028518518518518478],[0.17312500000000006,-0.01796296296296305],[0.17312500000000006,-0.01796296296296305],[0.17197916666666657,0.00592592592592601],[0.17197916666666657,0.00592592592592601],[0.19177083333333325,0.015370370370370286],[0.19177083333333325,0.015370370370370286],[0.19656250000000006,0.04277777777777782],[0.19656250000000006,0.04277777777777782],[0.1951041666666666,0.09166666666666666],[0.19093749999999995,0.10037037037037046],[0.15343749999999995,0.122037037037037],[0.14427083333333332,0.1411111111111112],[0.14427083333333332,0.1411111111111112],[0.10989583333333333,0.1625925925925925],[0.06291666666666665,0.17111111111111107],[0.024062500000000025,0.19518518518518516],[0.001145833333333357,0.205925925925926],[-0.04718749999999995,0.2222222222222222],[-0.08250000000000005,0.23074074074074077],[-0.12385416666666664,0.2300000000000001],[-0.12385416666666664,0.2300000000000001],[-0.16041666666666668,0.2322222222222222],[-0.14635416666666667,0.2338888888888888],[-0.13229166666666667,0.23555555555555563],[-0.11510416666666666,0.21296296296296297],[-0.09791666666666667,0.19037037037037027],[-0.06604166666666664,0.19296296296296306],[-0.04364583333333331,0.18629629629629635],[-0.016770833333333356,0.152962962962963],[0.006562499999999953,0.12518518518518523],[0.014999999999999977,0.09388888888888898],[0.022395833333333334,0.051111111111111156],[0.019270833333333334,0.03092592592592601],[0.019270833333333334,0.03092592592592601],[0.016145833333333335,0.010740740740740657],[0.00458333333333331,0.004444444444444402],[-0.00614583333333331,-0.009999999999999959],[-0.042604166666666644,-0.04537037037037037],[-0.06958333333333329,-0.07148148148148152],[-0.08770833333333337,-0.0507407407407407],[-0.10583333333333336,-0.030000000000000086],[-0.11645833333333329,0.005000000000000084],[-0.12708333333333333,0.04000000000000004],[-0.12458333333333335,0.069074074074074],[-0.11864583333333331,0.0742592592592593],[-0.09781249999999998,0.06962962962962967],[-0.043020833333333286,0.07907407407407416],[0.005208333333333333,0.09222222222222214],[0.04510416666666662,0.08222222222222218],[0.04510416666666662,0.08222222222222218],[0.07937500000000004,0.09425925925925922],[0.10437500000000005,0.11814814814814806],[0.12427083333333329,0.12537037037037047],[0.14416666666666675,0.13259259259259262],[0.17135416666666667,0.13759259259259252],[0.1951041666666666,0.16648148148148145],[0.20125000000000004,0.17111111111111107],[0.17260416666666673,0.1698148148148149],[0.14791666666666667,0.18777777777777774],[0.13156249999999994,0.22888888888888892],[0.10125000000000005,0.24314814814814806],[0.08020833333333334,0.2455555555555556],[0.07166666666666661,0.25388888888888894],[0.0884375000000001,0.24814814814814815],[0.0828125,0.23925925925925934],[0.06135416666666664,0.23444444444444448],[0.057500000000000044,0.25388888888888894],[0.06062500000000005,0.2755555555555555],[0.04458333333333329,0.2770370370370371],[0.03802083333333333,0.2868518518518518],[0.05354166666666664,0.2992592592592593],[0.06906249999999996,0.3116666666666666],[0.07552083333333333,0.3020370370370371],[0.05666666666666664,0.30648148148148147],[0.03177083333333333,0.3248148148148148],[0.03177083333333333,0.3248148148148148],[0.022708333333333285,0.33907407407407414],[0.022708333333333285,0.33907407407407414],[0.0109375,0.3677777777777778],[-0.022083333333333382,0.3696296296296297],[-0.022083333333333382,0.3696296296296297],[-0.007187499999999976,0.37481481481481477],[-0.01427083333333338,0.36500000000000005],[-0.03270833333333331,0.3461111111111111],[-0.03270833333333331,0.3461111111111111],[-0.04729166666666664,0.35111111111111115],[-0.04697916666666669,0.36055555555555563],[-0.04854166666666669,0.3661111111111112],[-0.044062499999999956,0.35777777777777786],[-0.03322916666666664,0.33907407407407414],[-0.019687499999999976,0.305925925925926],[-0.019687499999999976,0.305925925925926],[-0.00625,0.33185185185185195],[-0.02020833333333331,0.3618518518518518],[-0.019479166666666714,0.4137037037037037],[-0.02010416666666662,0.430925925925926],[-0.02010416666666662,0.430925925925926],[-0.021249999999999977,0.4161111111111112],[-0.050312499999999954,0.4433333333333333],[-0.06614583333333333,0.46574074074074073],[-0.0672916666666667,0.4762962962962964],[-0.07479166666666662,0.49722222222222223],[-0.08781249999999995,0.5038888888888889],[-0.08645833333333333,0.47611111111111115],[-0.05531250000000002,0.4566666666666667],[-0.02635416666666662,0.422037037037037],[-0.002291666666666714,0.41944444444444445],[0.011249999999999953,0.43944444444444436],[0.050937499999999976,0.41870370370370374],[0.09166666666666666,0.3905555555555555],[0.09166666666666666,0.3905555555555555],[0.09760416666666671,0.39888888888888885],[0.10354166666666677,0.4072222222222222],[0.11635416666666672,0.4081481481481481],[0.13645833333333332,0.43499999999999994],[0.12802083333333342,0.4433333333333333],[0.1273958333333333,0.456111111111111],[0.1273958333333333,0.456111111111111],[0.1234375,0.47074074074074085],[0.13510416666666672,0.4777777777777778],[0.13510416666666672,0.4777777777777778],[0.1515625,0.5118518518518518],[0.1515625,0.5118518518518518],[0.11447916666666676,0.5553703703703703],[0.11447916666666676,0.5553703703703703],[0.12000000000000005,0.5775925925925925],[0.12000000000000005,0.5775925925925925],[0.12354166666666658,0.543148148148148],[0.14177083333333323,0.5366666666666666],[0.1359375,0.525],[0.11229166666666662,0.5268518518518519],[0.08083333333333324,0.5242592592592593],[0.09156250000000009,0.5216666666666667],[0.09385416666666657,0.5122222222222222],[0.09385416666666657,0.5122222222222222],[0.08447916666666658,0.4933333333333333],[0.08447916666666658,0.4933333333333333],[0.14541666666666658,0.48555555555555563],[0.18385416666666668,0.4744444444444445],[0.23739583333333342,0.5179629629629631],[0.27489583333333345,0.5551851851851851],[0.31239583333333343,0.562037037037037],[0.37218749999999995,0.5050000000000001],[0.40895833333333326,0.43925925925925935],[0.4021874999999999,0.43759259259259253],[0.3954166666666666,0.4359259259259259],[0.38552083333333326,0.3727777777777777],[0.35958333333333337,0.3001851851851852],[0.3679166666666667,0.23407407407407405],[0.3265625,0.1814814814814815],[0.27291666666666664,0.1574074074074074],[0.23604166666666657,0.14296296296296304],[0.1990624999999999,0.15407407407407417],[0.1851041666666667,0.17388888888888884],[0.20520833333333333,0.11092592592592589],[0.22770833333333323,0.07037037037037037],[0.23447916666666657,0.08092592592592601],[0.228125,0.09648148148148153],[0.1875,0.10555555555555556],[0.1430208333333333,0.08407407407407404],[0.10479166666666657,0.06425925925925935],[0.07354166666666657,0.040740740740740744],[0.07354166666666657,0.040740740740740744],[0.022395833333333334,0.021481481481481525],[-0.01427083333333338,-0.008148148148148106],[-0.07406250000000002,-0.018333333333333292],[-0.12916666666666668,-0.05611111111111113],[-0.1626041666666667,-0.08481481481481483],[-0.17937500000000003,-0.11962962962962967],[-0.1961458333333333,-0.1544444444444444],[-0.14718749999999994,-0.17611111111111116],[-0.1016666666666667,-0.20759259259259263],[-0.1016666666666667,-0.20759259259259263],[-0.08270833333333331,-0.23925925925925923],[-0.0515625,-0.25018518518518523],[-0.034895833333333334,-0.2507407407407407],[0.022395833333333334,-0.2561111111111111],[0.07260416666666672,-0.25629629629629624],[0.0921875,-0.247037037037037],[0.09510416666666661,-0.23166666666666672],[0.1271874999999999,-0.22981481481481486],[0.1337500000000001,-0.21944444444444444],[0.14979166666666663,-0.2294444444444444],[0.1759375000000001,-0.2264814814814815],[0.20541666666666672,-0.22370370370370374],[0.23468749999999997,-0.22462962962962965],[0.22083333333333333,-0.18611111111111112],[0.21885416666666657,-0.1190740740740741],[0.22885416666666672,-0.11703703703703702],[0.23885416666666662,-0.11500000000000005],[0.21875,-0.09981481481481477],[0.19885416666666675,-0.08722222222222227],[0.15291666666666662,-0.07574074074074069],[0.11645833333333329,-0.07333333333333338],[0.0626041666666667,-0.05796296296296299],[0.008958333333333356,-0.03888888888888889],[-0.03708333333333336,-0.03314814814814811],[-0.09500000000000004,-0.05592592592592591],[-0.12541666666666665,-0.04537037037037037],[-0.18333333333333332,-0.010370370370370412],[-0.18333333333333332,-0.010370370370370412],[-0.23624999999999996,0.03296296296296288],[-0.25729166666666664,0.06611111111111119],[-0.23010416666666664,0.09018518518518527],[-0.20270833333333335,0.12981481481481486],[-0.15791666666666668,0.15648148148148147],[-0.11312500000000002,0.18314814814814812],[-0.08656250000000003,0.19666666666666674],[-0.04697916666666669,0.19981481481481478],[-0.03833333333333329,0.22537037037037044],[-0.002708333333333357,0.22518518518518524],[0.05625,0.18777777777777774],[0.08333333333333333,0.1648148148148148],[0.07843749999999995,0.16740740740740737],[0.08375000000000009,0.1477777777777777],[0.08375000000000009,0.1477777777777777],[0.0890625,0.12814814814814823],[0.09895833333333333,0.11425925925925934],[0.12260416666666671,0.08055555555555556],[0.12156250000000005,0.06111111111111111],[0.17510416666666656,0.040370370370370286],[0.17510416666666656,0.040370370370370286],[0.22916666666666666,0.02092592592592584],[0.24812500000000004,0.018148148148148063],[0.27760416666666665,0.02240740740740745],[0.3168750000000001,0.011296296296296339]]","[[-0.005937500000000048,0.14814814814814814,0.0003000001907409455],[-0.005937500000000048,0.14814814814814814,0.049300000190740434],[-0.004166666666666667,0.14907407407407408,0.0650999999046391],[-0.004166666666666667,0.14907407407407408,0.0774000000953734],[-0.009375,0.1712962962962963,0.09459999990463785],[-0.009375,0.1712962962962963,0.11080000019073566],[-0.014583333333333334,0.1935185185185185,0.12740000009537056],[-0.03604166666666669,0.2,0.15009999990463285],[-0.03604166666666669,0.2,0.1609000000953742],[-0.04041666666666662,0.21851851851851853,0.177500000000002],[-0.04729166666666664,0.23833333333333342,0.19959999990463473],[-0.07437499999999998,0.21814814814814806,0.21859999990463308],[-0.07437499999999998,0.21814814814814806,0.22740000009537198],[-0.08020833333333334,0.21796296296296305,0.24409999990463405],[-0.08020833333333334,0.21796296296296305,0.26080000019074134],[-0.04895833333333333,0.21129629629629634,0.2775000000000034],[-0.04895833333333333,0.21129629629629634,0.2940999999046383],[-0.05791666666666669,0.18499999999999997,0.3108000001907385],[-0.05791666666666669,0.18499999999999997,0.32750000000000057],[-0.05135416666666662,0.18277777777777787,0.34409999990463547],[-0.05135416666666662,0.18277777777777787,0.36069999980927037],[-0.021875,0.14518518518518514,0.37750000000000483],[-0.021875,0.14518518518518514,0.3940999999046326],[-0.0140625,0.127962962962963,0.4111999998092699],[-0.025416666666666643,0.13129629629629624,0.4298000001907383],[-0.06427083333333337,0.144074074074074,0.44430000019073645],[-0.07531249999999995,0.1448148148148149,0.4606999998092718],[-0.06208333333333336,0.14240740740740737,0.47930000019074015],[-0.04885416666666664,0.14000000000000004,0.49550000000000693],[-0.07749999999999997,0.12962962962962962,0.5108000001907413],[-0.10364583333333334,0.17185185185185176,0.5326999998092674],[-0.10364583333333334,0.17185185185185176,0.5440999999046383],[-0.10645833333333338,0.15259259259259256,0.5609000000953728],[-0.10645833333333338,0.15259259259259256,0.5775000000000006],[-0.11635416666666672,0.16425925925925935,0.5940999999046355],[-0.11635416666666672,0.16425925925925935,0.6128000001907381],[-0.11489583333333328,0.13481481481481472,0.6275000000000048],[-0.10791666666666669,0.12444444444444452,0.6455000000000055],[-0.08885416666666662,0.0977777777777777,0.6630000000000038],[-0.06302083333333333,0.07481481481481478,0.6804000000953678],[-0.05802083333333338,0.054074074074074156,0.6965999999046346],[-0.06927083333333334,0.024074074074074074,0.7129000000953738],[-0.05531250000000002,0.01055555555555564,0.7286999998092654],[-0.06593749999999995,0.006111111111111027,0.744099999904634],[-0.09302083333333329,0.03740740740740749,0.760699999809269],[-0.12427083333333329,0.031111111111111027,0.7774000000953691],[-0.1452083333333333,0.0455555555555556,0.7945000000000064],[-0.16291666666666665,0.07574074074074069,0.8108000001907385],[-0.18062499999999998,0.105925925925926,0.8285999999046325],[-0.18875000000000006,0.11481481481481481,0.8440999999046355],[-0.196875,0.12370370370370362,0.8608000001907357],[-0.20979166666666665,0.15092592592592594,0.8778000001907387],[-0.19718749999999996,0.16500000000000004,0.8963000001907417],[-0.19718749999999996,0.16500000000000004,0.9191999998092655],[-0.17145833333333335,0.1507407407407407,0.9331999998092684],[-0.16020833333333329,0.14388888888888898,0.9465999999046346],[-0.1492708333333333,0.15981481481481474,0.9608000001907371],[-0.1345833333333334,0.1712962962962963,0.9775000000000063],[-0.12406250000000002,0.14148148148148143,0.9940000000000069],[-0.11833333333333336,0.11907407407407399,1.010699999809269],[-0.12895833333333329,0.11425925925925934,1.0275000000000034],[-0.14187500000000006,0.12888888888888894,1.044000000000004],[-0.13374999999999998,0.13444444444444448,1.0608000001907385],[-0.14968750000000006,0.13944444444444437,1.0775000000000006],[-0.14968750000000006,0.13944444444444437,1.0940999999046355],[-0.165625,0.14444444444444443,1.1108000001907357],[-0.16520833333333335,0.14370370370370375,1.1274000000953706],[-0.17239583333333333,0.1411111111111112,1.1440000000000055],[-0.19020833333333337,0.14388888888888898,1.1606999998092675],[-0.19906250000000003,0.14722222222222223,1.1795999999046387],[-0.19906250000000003,0.14722222222222223,1.1940999999046369],[-0.20083333333333328,0.14370370370370375,1.2106999998092718],[-0.1805208333333333,0.13296296296296287,1.227400000095372],[-0.17583333333333329,0.09944444444444453,1.2440000000000069],[-0.17114583333333327,0.06592592592592597,1.263699999809269],[-0.15697916666666673,0.06611111111111119,1.2790999999046377],[-0.15697916666666673,0.06611111111111119,1.2940999999046383],[-0.14281250000000004,0.06629629629629621,1.3108000001907385],[-0.13833333333333328,0.08722222222222227,1.3274000000953734],[-0.1342708333333333,0.09518518518518514,1.3440000000000012],[-0.11666666666666667,0.10481481481481486,1.3606999998092704],[-0.11281249999999995,0.10999999999999996,1.377599999904639],[-0.10052083333333334,0.10851851851851856,1.3940999999046326],[-0.10427083333333335,0.10722222222222218,1.41119999980927],[-0.09010416666666667,0.10925925925925926,1.4274000000953677],[-0.09010416666666667,0.10925925925925926,1.4440000000000026],[-0.06583333333333338,0.11018518518518519,1.460800000190737],[-0.07281249999999997,0.0911111111111112,1.4775000000000063],[-0.07979166666666669,0.072037037037037,1.494099999904634],[-0.057291666666666664,0.014259259259259343,1.5108000001907413],[-0.02677083333333338,-0.028703703703703703,1.5274000000953691],[-0.02677083333333338,-0.028703703703703703,1.5440999999046383],[0.014479166666666644,-0.05499999999999998,1.5609000000953728],[0.014479166666666644,-0.05499999999999998,1.5774000000953734],[0.058958333333333356,-0.04018518518518527,1.5940999999046355],[0.09885416666666676,-0.009444444444444486,1.6106999998092704],[0.13270833333333343,0.02833333333333325,1.6274000000953706],[0.15489583333333337,0.012222222222222264,1.6440999999046326],[0.16697916666666662,-0.002777777777777778,1.6606999998092675],[0.2055208333333333,-0.0012962962962963806,1.677500000000002],[0.25281250000000005,-0.015370370370370286,1.6940000000000026],[0.27843749999999995,-0.01314814814814819,1.710800000190737],[0.2877083333333334,0.005555555555555556,1.727400000095372],[0.2795833333333334,0.005000000000000084,1.744099999904634],[0.28270833333333345,-0.022037037037036994,1.760699999809269],[0.2796875,-0.05888888888888891,1.7774000000953691],[0.2618750000000001,-0.102962962962963,1.794000000000004],[0.2620833333333332,-0.09611111111111106,1.810599999904639],[0.26229166666666665,-0.08925925925925923,1.8274000000953734],[0.26114583333333335,-0.1111111111111111,1.8440000000000012],[0.25125000000000003,-0.11740740740740736,1.8606999998092704],[0.22989583333333338,-0.11222222222222226,1.8775000000000048],[0.22489583333333343,-0.1235185185185185,1.8940000000000055],[0.23322916666666677,-0.15055555555555558,1.9106999998092675],[0.23145833333333338,-0.1772222222222222,1.927500000000002],[0.22000000000000006,-0.1844444444444445,1.9440000000000026],[0.22333333333333344,-0.1844444444444445,1.9606999998092718],[0.24333333333333323,-0.20722222222222217,1.977400000095372],[0.2633333333333333,-0.22999999999999998,1.9940000000000069],[0.28125,-0.227962962962963,2.010699999809269],[0.2991666666666667,-0.22592592592592592,2.027400000095369],[0.3033333333333334,-0.24314814814814817,2.0470999999046384],[0.30750000000000005,-0.2603703703703704,2.062099999904639],[0.2900000000000001,-0.23574074074074075,2.0775000000000006],[0.2724999999999999,-0.2111111111111111,2.094000000000001],[0.2646874999999999,-0.2059259259259259,2.1106999998092704],[0.26239583333333344,-0.21648148148148144,2.1274000000953706],[0.2493750000000001,-0.21351851851851855,2.1440000000000055],[0.2353125000000001,-0.1618518518518518,2.1606999998092675],[0.21375000000000005,-0.14648148148148152,2.1774000000953677],[0.1638541666666666,-0.12851851851851848,2.194099999904637],[0.1638541666666666,-0.12851851851851848,2.210699999809272],[0.15479166666666658,-0.08499999999999996,2.227400000095372],[0.15833333333333333,-0.028518518518518478,2.250699999809271],[0.15833333333333333,-0.028518518518518478,2.260699999809269],[0.17312500000000006,-0.01796296296296305,2.277400000095369],[0.17312500000000006,-0.01796296296296305,2.2940999999046383],[0.17197916666666657,0.00592592592592601,2.3108000001907385],[0.17197916666666657,0.00592592592592601,2.3274000000953734],[0.19177083333333325,0.015370370370370286,2.344000000000001],[0.19177083333333325,0.015370370370370286,2.3606999998092704],[0.19656250000000006,0.04277777777777782,2.377500000000005],[0.19656250000000006,0.04277777777777782,2.3940000000000055],[0.1951041666666666,0.09166666666666666,2.41080000019074],[0.19093749999999995,0.10037037037037046,2.4301999998092683],[0.15343749999999995,0.122037037037037,2.4476999998092666],[0.14427083333333332,0.1411111111111112,2.4656999998092672],[0.14427083333333332,0.1411111111111112,2.4783000001907354],[0.10989583333333333,0.1625925925925925,2.494099999904634],[0.06291666666666665,0.17111111111111107,2.512500000000003],[0.024062500000000025,0.19518518518518516,2.5290999999046377],[0.001145833333333357,0.205925925925926,2.5455999999046384],[-0.04718749999999995,0.2222222222222222,2.5653000001907387],[-0.08250000000000005,0.23074074074074077,2.5818000001907393],[-0.12385416666666664,0.2300000000000001,2.6051999998092654],[-0.12385416666666664,0.2300000000000001,2.6115000000000066],[-0.16041666666666668,0.2322222222222222,2.6274000000953706],[-0.14635416666666667,0.2338888888888888,2.644199999809267],[-0.13229166666666667,0.23555555555555563,2.6606999998092675],[-0.11510416666666666,0.21296296296296297,2.6776999998092705],[-0.09791666666666667,0.19037037037037027,2.6958000001907365],[-0.06604166666666664,0.19296296296296306,2.710699999809272],[-0.04364583333333331,0.18629629629629635,2.727400000095372],[-0.016770833333333356,0.152962962962963,2.744000000000007],[0.006562499999999953,0.12518518518518523,2.762500000000003],[0.014999999999999977,0.09388888888888898,2.7779000000953715],[0.022395833333333334,0.051111111111111156,2.795500000000004],[0.019270833333333334,0.03092592592592601,2.810699999809266],[0.019270833333333334,0.03092592592592601,2.827300000190739],[0.016145833333333335,0.010740740740740657,2.844000000000001],[0.00458333333333331,0.004444444444444402,2.8606999998092704],[-0.00614583333333331,-0.009999999999999959,2.879099999904639],[-0.042604166666666644,-0.04537037037037037,2.8940000000000055],[-0.06958333333333329,-0.07148148148148152,2.9106999998092675],[-0.08770833333333337,-0.0507407407407407,2.9301999998092683],[-0.10583333333333336,-0.030000000000000086,2.9440000000000026],[-0.11645833333333329,0.005000000000000084,2.960699999809272],[-0.12708333333333333,0.04000000000000004,2.9775000000000063],[-0.12458333333333335,0.069074074074074,2.9965000000000046],[-0.11864583333333331,0.0742592592592593,3.0108000001907413],[-0.09781249999999998,0.06962962962962967,3.0298000001907397],[-0.043020833333333286,0.07907407407407416,3.0468000001907356],[0.005208333333333333,0.09222222222222214,3.063199999809271],[0.04510416666666662,0.08222222222222218,3.0795999999046373],[0.04510416666666662,0.08222222222222218,3.094000000000001],[0.07937500000000004,0.09425925925925922,3.1106999998092704],[0.10437500000000005,0.11814814814814806,3.1299000000953683],[0.12427083333333329,0.12537037037037047,3.147199999809267],[0.14416666666666675,0.13259259259259262,3.1625000000000014],[0.17135416666666667,0.13759259259259252,3.1780000000000044],[0.1951041666666666,0.16648148148148145,3.1968000001907413],[0.20125000000000004,0.17111111111111107,3.2128000001907395],[0.17260416666666673,0.1698148148148149,3.228099999904636],[0.14791666666666667,0.18777777777777774,3.244000000000007],[0.13156249999999994,0.22888888888888892,3.2608000001907413],[0.10125000000000005,0.24314814814814806,3.277400000095369],[0.08020833333333334,0.2455555555555556,3.29690000009537],[0.07166666666666661,0.25388888888888894,3.310699999809266],[0.0884375000000001,0.24814814814814815,3.3279000000953687],[0.0828125,0.23925925925925934,3.3440999999046355],[0.06135416666666664,0.23444444444444448,3.3610999999046385],[0.057500000000000044,0.25388888888888894,3.379099999904639],[0.06062500000000005,0.2755555555555555,3.3940000000000055],[0.04458333333333329,0.2770370370370371,3.4106999998092675],[0.03802083333333333,0.2868518518518518,3.4274000000953677],[0.05354166666666664,0.2992592592592593,3.4440000000000026],[0.06906249999999996,0.3116666666666666,3.464199999809267],[0.07552083333333333,0.3020370370370371,3.481800000190738],[0.05666666666666664,0.30648148148148147,3.498099999904639],[0.03177083333333333,0.3248148148148148,3.5141999998092714],[0.03177083333333333,0.3248148148148148,3.5279000000953715],[0.022708333333333285,0.33907407407407414,3.5481999998092704],[0.022708333333333285,0.33907407407407414,3.561],[0.0109375,0.3677777777777778,3.577699999809269],[-0.022083333333333382,0.3696296296296297,3.6014000000953743],[-0.022083333333333382,0.3696296296296297,3.61090000009537],[-0.007187499999999976,0.37481481481481477,3.6276999998092663],[-0.01427083333333338,0.36500000000000005,3.6444000000953736],[-0.03270833333333331,0.3461111111111111,3.6648000001907377],[-0.03270833333333331,0.3461111111111111,3.6780000000000044],[-0.04729166666666664,0.35111111111111115,3.6940000000000026],[-0.04697916666666669,0.36055555555555563,3.7131999998092695],[-0.04854166666666669,0.3661111111111112,3.730300000190738],[-0.044062499999999956,0.35777777777777786,3.7450000000000045],[-0.03322916666666664,0.33907407407407414,3.760699999809269],[-0.019687499999999976,0.305925925925926,3.7834000000953694],[-0.019687499999999976,0.305925925925926,3.7940999999046383],[-0.00625,0.33185185185185195,3.810699999809266],[-0.02020833333333331,0.3618518518518518,3.8295999999046373],[-0.019479166666666714,0.4137037037037037,3.8474000000953694],[-0.02010416666666662,0.430925925925926,3.863099999904634],[-0.02010416666666662,0.430925925925926,3.877599999904639],[-0.021249999999999977,0.4161111111111112,3.8980000000000032],[-0.050312499999999954,0.4433333333333333,3.9133000001907376],[-0.06614583333333333,0.46574074074074073,3.927500000000002],[-0.0672916666666667,0.4762962962962964,3.9440000000000026],[-0.07479166666666662,0.49722222222222223,3.960699999809272],[-0.08781249999999995,0.5038888888888889,3.9775000000000063],[-0.08645833333333333,0.47611111111111115,3.9971999998092684],[-0.05531250000000002,0.4566666666666667,4.010800000190741],[-0.02635416666666662,0.422037037037037,4.030800000190737],[-0.002291666666666714,0.41944444444444445,4.0485999999046385],[0.011249999999999953,0.43944444444444436,4.063300000190736],[0.050937499999999976,0.41870370370370374,4.081599999904633],[0.09166666666666666,0.3905555555555555,4.099300000190738],[0.09166666666666666,0.3905555555555555,4.110800000190736],[0.09760416666666671,0.39888888888888885,4.127500000000005],[0.10354166666666677,0.4072222222222222,4.144199999809267],[0.11635416666666672,0.4081481481481481,4.163300000190738],[0.13645833333333332,0.43499999999999994,4.180000000000007],[0.12802083333333342,0.4433333333333333,4.195900000095371],[0.1273958333333333,0.456111111111111,4.218099999904638],[0.1273958333333333,0.456111111111111,4.227699999809268],[0.1234375,0.47074074074074085,4.244300000190741],[0.13510416666666672,0.4777777777777778,4.2641999998092714],[0.13510416666666672,0.4777777777777778,4.283500000000004],[0.1515625,0.5118518518518518,4.2941999998092655],[0.1515625,0.5118518518518518,4.310900000095373],[0.11447916666666676,0.5553703703703703,4.327500000000001],[0.11447916666666676,0.5553703703703703,4.34869999980927],[0.12000000000000005,0.5775925925925925,4.36090000009537],[0.12000000000000005,0.5775925925925925,4.377699999809266],[0.12354166666666658,0.543148148148148,4.397800000190742],[0.14177083333333323,0.5366666666666666,4.413699999809268],[0.1359375,0.525,4.429699999809266],[0.11229166666666662,0.5268518518518519,4.444099999904637],[0.08083333333333324,0.5242592592592593,4.463300000190735],[0.09156250000000009,0.5216666666666667,4.480199999809265],[0.09385416666666657,0.5122222222222222,4.498900000095368],[0.09385416666666657,0.5122222222222222,4.530699999809272],[0.08447916666666658,0.4933333333333333,4.5390000000000015],[0.08447916666666658,0.4933333333333333,4.546800000190736],[0.14541666666666658,0.48555555555555563,4.561099999904634],[0.18385416666666668,0.4744444444444445,4.580699999809269],[0.23739583333333342,0.5179629629629631,4.59419999980927],[0.27489583333333345,0.5551851851851851,4.613400000095368],[0.31239583333333343,0.562037037037037,4.627400000095371],[0.37218749999999995,0.5050000000000001,4.647900000095369],[0.40895833333333326,0.43925925925925935,4.662800000190735],[0.4021874999999999,0.43759259259259253,4.6776999998092705],[0.3954166666666666,0.4359259259259259,4.6943000001907365],[0.38552083333333326,0.3727777777777777,4.713599999904638],[0.35958333333333337,0.3001851851851852,4.7290999999046335],[0.3679166666666667,0.23407407407407405,4.744199999809268],[0.3265625,0.1814814814814815,4.764400000095371],[0.27291666666666664,0.1574074074074074,4.77869999980927],[0.23604166666666657,0.14296296296296304,4.795599999904638],[0.1990624999999999,0.15407407407407417,4.8108000001907385],[0.1851041666666667,0.17388888888888884,4.830000000000005],[0.20520833333333333,0.11092592592592589,4.8440999999046355],[0.22770833333333323,0.07037037037037037,4.86090000009537],[0.23447916666666657,0.08092592592592601,4.877500000000005],[0.228125,0.09648148148148153,4.896000000000001],[0.1875,0.10555555555555556,4.910599999904633],[0.1430208333333333,0.08407407407407404,4.9273000001907405],[0.10479166666666657,0.06425925925925935,4.944000000000003],[0.07354166666666657,0.040740740740740744,4.960699999809272],[0.07354166666666657,0.040740740740740744,4.977400000095372],[0.022395833333333334,0.021481481481481525,4.994099999904634],[-0.01427083333333338,-0.008148148148148106,5.011400000095371],[-0.07406250000000002,-0.018333333333333292,5.027300000190735],[-0.12916666666666668,-0.05611111111111113,5.044000000000004],[-0.1626041666666667,-0.08481481481481483,5.060699999809266],[-0.17937500000000003,-0.11962962962962967,5.077500000000001],[-0.1961458333333333,-0.1544444444444444,5.0940999999046355],[-0.14718749999999994,-0.17611111111111116,5.111199999809266],[-0.1016666666666667,-0.20759259259259263,5.127599999904639],[-0.1016666666666667,-0.20759259259259263,5.144099999904633],[-0.08270833333333331,-0.23925925925925923,5.1606999998092675],[-0.0515625,-0.25018518518518523,5.17940000009537],[-0.034895833333333334,-0.2507407407407407,5.194000000000003],[0.022395833333333334,-0.2561111111111111,5.210699999809272],[0.07260416666666672,-0.25629629629629624,5.227300000190738],[0.0921875,-0.247037037037037,5.244099999904634],[0.09510416666666661,-0.23166666666666672,5.260699999809269],[0.1271874999999999,-0.22981481481481486,5.277300000190735],[0.1337500000000001,-0.21944444444444444,5.295599999904638],[0.14979166666666663,-0.2294444444444444,5.310699999809266],[0.1759375000000001,-0.2264814814814815,5.327400000095373],[0.20541666666666672,-0.22370370370370374,5.344000000000001],[0.23468749999999997,-0.22462962962962965,5.360599999904636],[0.22083333333333333,-0.18611111111111112,5.377400000095371],[0.21885416666666657,-0.1190740740740741,5.3940000000000055],[0.22885416666666672,-0.11703703703703702,5.4106999998092675],[0.23885416666666662,-0.11500000000000005,5.427400000095368],[0.21875,-0.09981481481481477,5.444000000000003],[0.19885416666666675,-0.08722222222222227,5.4605999999046375],[0.15291666666666662,-0.07574074074074069,5.477300000190738],[0.11645833333333329,-0.07333333333333338,5.497300000190741],[0.0626041666666667,-0.05796296296296299,5.510699999809269],[0.008958333333333356,-0.03888888888888889,5.527400000095369],[-0.03708333333333336,-0.03314814814814811,5.544400000095372],[-0.09500000000000004,-0.05592592592592591,5.561],[-0.12541666666666665,-0.04537037037037037,5.577400000095373],[-0.18333333333333332,-0.010370370370370412,5.5940999999046355],[-0.18333333333333332,-0.010370370370370412,5.61069999980927],[-0.23624999999999996,0.03296296296296288,5.627400000095371],[-0.25729166666666664,0.06611111111111119,5.6440000000000055],[-0.23010416666666664,0.09018518518518527,5.6606999998092675],[-0.20270833333333335,0.12981481481481486,5.677400000095368],[-0.15791666666666668,0.15648148148148147,5.694199999809271],[-0.11312500000000002,0.18314814814814812,5.7105999999046375],[-0.08656250000000003,0.19666666666666674,5.727400000095372],[-0.04697916666666669,0.19981481481481478,5.744000000000007],[-0.03833333333333329,0.22537037037037044,5.761000000000003],[-0.002708333333333357,0.22518518518518524,5.777500000000003],[0.05625,0.18777777777777774,5.794000000000004],[0.08333333333333333,0.1648148148148148,5.810699999809266],[0.07843749999999995,0.16740740740740737,5.827400000095373],[0.08375000000000009,0.1477777777777777,5.845400000095374],[0.08375000000000009,0.1477777777777777,5.860599999904636],[0.0890625,0.12814814814814823,5.877400000095371],[0.09895833333333333,0.11425925925925934,5.8940000000000055],[0.12260416666666671,0.08055555555555556,5.910599999904633],[0.12156250000000005,0.06111111111111111,5.9273000001907405],[0.17510416666666656,0.040370370370370286,5.944000000000003],[0.17510416666666656,0.040370370370370286,5.960699999809272],[0.22916666666666666,0.02092592592592584,5.977400000095372],[0.24812500000000004,0.018148148148148063,5.994199999809268],[0.27760416666666665,0.02240740740740745,6.010699999809269],[0.3168750000000001,0.011296296296296339,6.027300000190735]]","[0.0003000001907409455,0.049300000190740434,0.0650999999046391,0.0774000000953734,0.09459999990463785,0.11080000019073566,0.12740000009537056,0.15009999990463285,0.1609000000953742,0.177500000000002,0.19959999990463473,0.21859999990463308,0.22740000009537198,0.24409999990463405,0.26080000019074134,0.2775000000000034,0.2940999999046383,0.3108000001907385,0.32750000000000057,0.34409999990463547,0.36069999980927037,0.37750000000000483,0.3940999999046326,0.4111999998092699,0.4298000001907383,0.44430000019073645,0.4606999998092718,0.47930000019074015,0.49550000000000693,0.5108000001907413,0.5326999998092674,0.5440999999046383,0.5609000000953728,0.5775000000000006,0.5940999999046355,0.6128000001907381,0.6275000000000048,0.6455000000000055,0.6630000000000038,0.6804000000953678,0.6965999999046346,0.7129000000953738,0.7286999998092654,0.744099999904634,0.760699999809269,0.7774000000953691,0.7945000000000064,0.8108000001907385,0.8285999999046325,0.8440999999046355,0.8608000001907357,0.8778000001907387,0.8963000001907417,0.9191999998092655,0.9331999998092684,0.9465999999046346,0.9608000001907371,0.9775000000000063,0.9940000000000069,1.010699999809269,1.0275000000000034,1.044000000000004,1.0608000001907385,1.0775000000000006,1.0940999999046355,1.1108000001907357,1.1274000000953706,1.1440000000000055,1.1606999998092675,1.1795999999046387,1.1940999999046369,1.2106999998092718,1.227400000095372,1.2440000000000069,1.263699999809269,1.2790999999046377,1.2940999999046383,1.3108000001907385,1.3274000000953734,1.3440000000000012,1.3606999998092704,1.377599999904639,1.3940999999046326,1.41119999980927,1.4274000000953677,1.4440000000000026,1.460800000190737,1.4775000000000063,1.494099999904634,1.5108000001907413,1.5274000000953691,1.5440999999046383,1.5609000000953728,1.5774000000953734,1.5940999999046355,1.6106999998092704,1.6274000000953706,1.6440999999046326,1.6606999998092675,1.677500000000002,1.6940000000000026,1.710800000190737,1.727400000095372,1.744099999904634,1.760699999809269,1.7774000000953691,1.794000000000004,1.810599999904639,1.8274000000953734,1.8440000000000012,1.8606999998092704,1.8775000000000048,1.8940000000000055,1.9106999998092675,1.927500000000002,1.9440000000000026,1.9606999998092718,1.977400000095372,1.9940000000000069,2.010699999809269,2.027400000095369,2.0470999999046384,2.062099999904639,2.0775000000000006,2.094000000000001,2.1106999998092704,2.1274000000953706,2.1440000000000055,2.1606999998092675,2.1774000000953677,2.194099999904637,2.210699999809272,2.227400000095372,2.250699999809271,2.260699999809269,2.277400000095369,2.2940999999046383,2.3108000001907385,2.3274000000953734,2.344000000000001,2.3606999998092704,2.377500000000005,2.3940000000000055,2.41080000019074,2.4301999998092683,2.4476999998092666,2.4656999998092672,2.4783000001907354,2.494099999904634,2.512500000000003,2.5290999999046377,2.5455999999046384,2.5653000001907387,2.5818000001907393,2.6051999998092654,2.6115000000000066,2.6274000000953706,2.644199999809267,2.6606999998092675,2.6776999998092705,2.6958000001907365,2.710699999809272,2.727400000095372,2.744000000000007,2.762500000000003,2.7779000000953715,2.795500000000004,2.810699999809266,2.827300000190739,2.844000000000001,2.8606999998092704,2.879099999904639,2.8940000000000055,2.9106999998092675,2.9301999998092683,2.9440000000000026,2.960699999809272,2.9775000000000063,2.9965000000000046,3.0108000001907413,3.0298000001907397,3.0468000001907356,3.063199999809271,3.0795999999046373,3.094000000000001,3.1106999998092704,3.1299000000953683,3.147199999809267,3.1625000000000014,3.1780000000000044,3.1968000001907413,3.2128000001907395,3.228099999904636,3.244000000000007,3.2608000001907413,3.277400000095369,3.29690000009537,3.310699999809266,3.3279000000953687,3.3440999999046355,3.3610999999046385,3.379099999904639,3.3940000000000055,3.4106999998092675,3.4274000000953677,3.4440000000000026,3.464199999809267,3.481800000190738,3.498099999904639,3.5141999998092714,3.5279000000953715,3.5481999998092704,3.561,3.577699999809269,3.6014000000953743,3.61090000009537,3.6276999998092663,3.6444000000953736,3.6648000001907377,3.6780000000000044,3.6940000000000026,3.7131999998092695,3.730300000190738,3.7450000000000045,3.760699999809269,3.7834000000953694,3.7940999999046383,3.810699999809266,3.8295999999046373,3.8474000000953694,3.863099999904634,3.877599999904639,3.8980000000000032,3.9133000001907376,3.927500000000002,3.9440000000000026,3.960699999809272,3.9775000000000063,3.9971999998092684,4.010800000190741,4.030800000190737,4.0485999999046385,4.063300000190736,4.081599999904633,4.099300000190738,4.110800000190736,4.127500000000005,4.144199999809267,4.163300000190738,4.180000000000007,4.195900000095371,4.218099999904638,4.227699999809268,4.244300000190741,4.2641999998092714,4.283500000000004,4.2941999998092655,4.310900000095373,4.327500000000001,4.34869999980927,4.36090000009537,4.377699999809266,4.397800000190742,4.413699999809268,4.429699999809266,4.444099999904637,4.463300000190735,4.480199999809265,4.498900000095368,4.530699999809272,4.5390000000000015,4.546800000190736,4.561099999904634,4.580699999809269,4.59419999980927,4.613400000095368,4.627400000095371,4.647900000095369,4.662800000190735,4.6776999998092705,4.6943000001907365,4.713599999904638,4.7290999999046335,4.744199999809268,4.764400000095371,4.77869999980927,4.795599999904638,4.8108000001907385,4.830000000000005,4.8440999999046355,4.86090000009537,4.877500000000005,4.896000000000001,4.910599999904633,4.9273000001907405,4.944000000000003,4.960699999809272,4.977400000095372,4.994099999904634,5.011400000095371,5.027300000190735,5.044000000000004,5.060699999809266,5.077500000000001,5.0940999999046355,5.111199999809266,5.127599999904639,5.144099999904633,5.1606999998092675,5.17940000009537,5.194000000000003,5.210699999809272,5.227300000190738,5.244099999904634,5.260699999809269,5.277300000190735,5.295599999904638,5.310699999809266,5.327400000095373,5.344000000000001,5.360599999904636,5.377400000095371,5.3940000000000055,5.4106999998092675,5.427400000095368,5.444000000000003,5.4605999999046375,5.477300000190738,5.497300000190741,5.510699999809269,5.527400000095369,5.544400000095372,5.561,5.577400000095373,5.5940999999046355,5.61069999980927,5.627400000095371,5.6440000000000055,5.6606999998092675,5.677400000095368,5.694199999809271,5.7105999999046375,5.727400000095372,5.744000000000007,5.761000000000003,5.777500000000003,5.794000000000004,5.810699999809266,5.827400000095373,5.845400000095374,5.860599999904636,5.877400000095371,5.8940000000000055,5.910599999904633,5.9273000001907405,5.944000000000003,5.960699999809272,5.977400000095372,5.994199999809268,6.010699999809269,6.027300000190735]","[1731911127776,1731911127816,1731911127832,1731911127844,1731911127861,1731911127878,1731911127894,1731911127917,1731911127928,1731911127944,1731911127966,1731911127985,1731911127994,1731911128011,1731911128028,1731911128044,1731911128061,1731911128078,1731911128094,1731911128111,1731911128128,1731911128144,1731911128161,1731911128178,1731911128197,1731911128211,1731911128227,1731911128246,1731911128262,1731911128278,1731911128299,1731911128311,1731911128328,1731911128344,1731911128361,1731911128380,1731911128394,1731911128412,1731911128430,1731911128447,1731911128463,1731911128480,1731911128495,1731911128511,1731911128527,1731911128544,1731911128561,1731911128578,1731911128595,1731911128611,1731911128628,1731911128645,1731911128663,1731911128686,1731911128700,1731911128713,1731911128728,1731911128744,1731911128761,1731911128777,1731911128794,1731911128811,1731911128828,1731911128844,1731911128861,1731911128878,1731911128894,1731911128911,1731911128928,1731911128946,1731911128961,1731911128977,1731911128994,1731911129011,1731911129031,1731911129046,1731911129061,1731911129077,1731911129094,1731911129111,1731911129127,1731911129144,1731911129161,1731911129178,1731911129194,1731911129211,1731911129228,1731911129244,1731911129261,1731911129277,1731911129294,1731911129311,1731911129328,1731911129344,1731911129361,1731911129377,1731911129394,1731911129411,1731911129427,1731911129444,1731911129461,1731911129478,1731911129494,1731911129511,1731911129527,1731911129544,1731911129561,1731911129577,1731911129594,1731911129611,1731911129627,1731911129644,1731911129661,1731911129677,1731911129694,1731911129711,1731911129728,1731911129744,1731911129761,1731911129777,1731911129794,1731911129814,1731911129829,1731911129844,1731911129861,1731911129877,1731911129894,1731911129911,1731911129927,1731911129944,1731911129961,1731911129977,1731911129994,1731911130018,1731911130028,1731911130044,1731911130061,1731911130078,1731911130094,1731911130111,1731911130128,1731911130144,1731911130161,1731911130178,1731911130197,1731911130214,1731911130232,1731911130245,1731911130261,1731911130279,1731911130296,1731911130312,1731911130332,1731911130348,1731911130372,1731911130378,1731911130394,1731911130411,1731911130427,1731911130445,1731911130463,1731911130477,1731911130494,1731911130511,1731911130529,1731911130545,1731911130562,1731911130577,1731911130594,1731911130611,1731911130628,1731911130646,1731911130661,1731911130677,1731911130697,1731911130711,1731911130728,1731911130744,1731911130763,1731911130777,1731911130797,1731911130814,1731911130830,1731911130846,1731911130861,1731911130877,1731911130897,1731911130914,1731911130929,1731911130945,1731911130964,1731911130980,1731911130995,1731911131011,1731911131028,1731911131044,1731911131064,1731911131077,1731911131095,1731911131111,1731911131128,1731911131146,1731911131161,1731911131177,1731911131194,1731911131211,1731911131231,1731911131248,1731911131265,1731911131281,1731911131295,1731911131315,1731911131328,1731911131344,1731911131368,1731911131378,1731911131394,1731911131411,1731911131431,1731911131445,1731911131461,1731911131480,1731911131497,1731911131512,1731911131527,1731911131550,1731911131561,1731911131577,1731911131596,1731911131614,1731911131630,1731911131644,1731911131665,1731911131680,1731911131694,1731911131711,1731911131727,1731911131744,1731911131764,1731911131778,1731911131798,1731911131815,1731911131830,1731911131848,1731911131866,1731911131878,1731911131894,1731911131911,1731911131930,1731911131947,1731911131963,1731911131985,1731911131994,1731911132011,1731911132031,1731911132050,1731911132061,1731911132078,1731911132094,1731911132115,1731911132128,1731911132144,1731911132165,1731911132181,1731911132196,1731911132211,1731911132230,1731911132247,1731911132266,1731911132297,1731911132306,1731911132314,1731911132328,1731911132347,1731911132361,1731911132380,1731911132394,1731911132415,1731911132430,1731911132444,1731911132461,1731911132480,1731911132496,1731911132511,1731911132531,1731911132545,1731911132562,1731911132578,1731911132597,1731911132611,1731911132628,1731911132644,1731911132663,1731911132677,1731911132694,1731911132711,1731911132727,1731911132744,1731911132761,1731911132778,1731911132794,1731911132811,1731911132827,1731911132844,1731911132861,1731911132878,1731911132894,1731911132911,1731911132927,1731911132946,1731911132961,1731911132977,1731911132994,1731911133011,1731911133028,1731911133044,1731911133062,1731911133077,1731911133094,1731911133111,1731911133127,1731911133144,1731911133161,1731911133177,1731911133194,1731911133211,1731911133227,1731911133244,1731911133264,1731911133277,1731911133294,1731911133311,1731911133328,1731911133344,1731911133361,1731911133377,1731911133394,1731911133411,1731911133427,1731911133444,1731911133461,1731911133477,1731911133494,1731911133511,1731911133528,1731911133544,1731911133561,1731911133577,1731911133594,1731911133612,1731911133627,1731911133644,1731911133661,1731911133677,1731911133694,1731911133711,1731911133727,1731911133744,1731911133761,1731911133777,1731911133794]","[[954.3,620],[954.3,620],[956,620.5],[956,620.5],[951,632.5],[951,632.5],[946,644.5],[925.4,648],[925.4,648],[921.2,658],[914.6,668.7],[888.6,657.8],[888.6,657.8],[883,657.7],[883,657.7],[913,654.1],[913,654.1],[904.4,639.9],[904.4,639.9],[910.7,638.7],[910.7,638.7],[939,618.4],[939,618.4],[946.5,609.1],[935.6,610.9],[898.3,617.8],[887.7,618.2],[900.4,616.9],[913.1,615.6],[885.6,610],[860.5,632.8],[860.5,632.8],[857.8,622.4],[857.8,622.4],[848.3,628.7],[848.3,628.7],[849.7,612.8],[856.4,607.2],[874.7,592.8],[899.5,580.4],[904.3,569.2],[893.5,553],[906.9,545.7],[896.7,543.3],[870.7,560.2],[840.7,556.8],[820.6,564.6],[803.6,580.9],[786.6,597.2],[778.8,602],[771,606.8],[758.6,621.5],[770.7,629.1],[770.7,629.1],[795.4,621.4],[806.2,617.7],[816.7,626.3],[830.8,632.5],[840.9,616.4],[846.4,604.3],[836.2,601.7],[823.8,609.6],[831.6,612.6],[816.3,615.3],[816.3,615.3],[801,618],[801.4,617.6],[794.5,616.2],[777.4,617.7],[768.9,619.5],[768.9,619.5],[767.2,617.6],[786.7,611.8],[791.2,593.7],[795.7,575.6],[809.3,575.7],[809.3,575.7],[822.9,575.8],[827.2,587.1],[831.1,591.4],[848,596.6],[851.7,599.4],[863.5,598.6],[859.9,597.9],[873.5,599],[873.5,599],[896.8,599.5],[890.1,589.2],[883.4,578.9],[905,547.7],[934.3,524.5],[934.3,524.5],[973.9,510.3],[973.9,510.3],[1016.6,518.3],[1054.9,534.9],[1087.4,555.3],[1108.7,546.6],[1120.3,538.5],[1157.3,539.3],[1202.7,531.7],[1227.3,532.9],[1236.2,543],[1228.4,542.7],[1231.4,528.1],[1228.5,508.2],[1211.4,484.4],[1211.6,488.1],[1211.8,491.8],[1210.7,480],[1201.2,476.6],[1180.7,479.4],[1175.9,473.3],[1183.9,458.7],[1182.2,444.3],[1171.2,440.4],[1174.4,440.4],[1193.6,428.1],[1212.8,415.8],[1230,416.9],[1247.2,418],[1251.2,408.7],[1255.2,399.4],[1238.4,412.7],[1221.6,426],[1214.1,428.8],[1211.9,423.1],[1199.4,424.7],[1185.9,452.6],[1165.2,460.9],[1117.3,470.6],[1117.3,470.6],[1108.6,494.1],[1112,524.6],[1112,524.6],[1126.2,530.3],[1126.2,530.3],[1125.1,543.2],[1125.1,543.2],[1144.1,548.3],[1144.1,548.3],[1148.7,563.1],[1148.7,563.1],[1147.3,589.5],[1143.3,594.2],[1107.3,605.9],[1098.5,616.2],[1098.5,616.2],[1065.5,627.8],[1020.4,632.4],[983.1,645.4],[961.1,651.2],[914.7,660],[880.8,664.6],[841.1,664.2],[841.1,664.2],[806,665.4],[819.5,666.3],[833,667.2],[849.5,655],[866,642.8],[896.6,644.2],[918.1,640.6],[943.9,622.6],[966.3,607.6],[974.4,590.7],[981.5,567.6],[978.5,556.7],[978.5,556.7],[975.5,545.8],[964.4,542.4],[954.1,534.6],[919.1,515.5],[893.2,501.4],[875.8,512.6],[858.4,523.8],[848.2,542.7],[838,561.6],[840.4,577.3],[846.1,580.1],[866.1,577.6],[918.7,582.7],[965,589.8],[1003.3,584.4],[1003.3,584.4],[1036.2,590.9],[1060.2,603.8],[1079.3,607.7],[1098.4,611.6],[1124.5,614.3],[1147.3,629.9],[1153.2,632.4],[1125.7,631.7],[1102,641.4],[1086.3,663.6],[1057.2,671.3],[1037,672.6],[1028.8,677.1],[1044.9,674],[1039.5,669.2],[1018.9,666.6],[1015.2,677.1],[1018.2,688.8],[1002.8,689.6],[996.5,694.9],[1011.4,701.6],[1026.3,708.3],[1032.5,703.1],[1014.4,705.5],[990.5,715.4],[990.5,715.4],[981.8,723.1],[981.8,723.1],[970.5,738.6],[938.8,739.6],[938.8,739.6],[953.1,742.4],[946.3,737.1],[928.6,726.9],[928.6,726.9],[914.6,729.6],[914.9,734.7],[913.4,737.7],[917.7,733.2],[928.1,723.1],[941.1,705.2],[941.1,705.2],[954,719.2],[940.6,735.4],[941.3,763.4],[940.7,772.7],[940.7,772.7],[939.6,764.7],[911.7,779.4],[896.5,791.5],[895.4,797.2],[888.2,808.5],[875.7,812.1],[877,797.1],[906.9,786.6],[934.7,767.9],[957.8,766.5],[970.8,777.3],[1008.9,766.1],[1048,750.9],[1048,750.9],[1053.7,755.4],[1059.4,759.9],[1071.7,760.4],[1091,774.9],[1082.9,779.4],[1082.3,786.3],[1082.3,786.3],[1078.5,794.2],[1089.7,798],[1089.7,798],[1105.5,816.4],[1105.5,816.4],[1069.9,839.9],[1069.9,839.9],[1075.2,851.9],[1075.2,851.9],[1078.6,833.3],[1096.1,829.8],[1090.5,823.5],[1067.8,824.5],[1037.6,823.1],[1047.9,821.7],[1050.1,816.6],[1050.1,816.6],[1041.1,806.4],[1041.1,806.4],[1099.6,802.2],[1136.5,796.2],[1187.9,819.7],[1223.9,839.8],[1259.9,843.5],[1317.3,812.7],[1352.6,777.2],[1346.1,776.3],[1339.6,775.4],[1330.1,741.3],[1305.2,702.1],[1313.2,666.4],[1273.5,638],[1222,625],[1186.6,617.2],[1151.1,623.2],[1137.7,633.9],[1157,599.9],[1178.6,578],[1185.1,583.7],[1179,592.1],[1140,597],[1097.3,585.4],[1060.6,574.7],[1030.6,562],[1030.6,562],[981.5,551.6],[946.3,535.6],[888.9,530.1],[836,509.7],[803.9,494.2],[787.8,475.4],[771.7,456.6],[818.7,444.9],[862.4,427.9],[862.4,427.9],[880.6,410.8],[910.5,404.9],[926.5,404.6],[981.5,401.7],[1029.7,401.6],[1048.5,406.6],[1051.3,414.9],[1082.1,415.9],[1088.4,421.5],[1103.8,416.1],[1128.9,417.7],[1157.2,419.2],[1185.3,418.7],[1172,439.5],[1170.1,475.7],[1179.7,476.8],[1189.3,477.9],[1170,486.1],[1150.9,492.9],[1106.8,499.1],[1071.8,500.4],[1020.1,508.7],[968.6,519],[924.4,522.1],[868.8,509.8],[839.6,515.5],[784,534.4],[784,534.4],[733.2,557.8],[713,575.7],[739.1,588.7],[765.4,610.1],[808.4,624.5],[851.4,638.9],[876.9,646.2],[914.9,647.9],[923.2,661.7],[957.4,661.6],[1014,641.4],[1040,629],[1035.3,630.4],[1040.4,619.8],[1040.4,619.8],[1045.5,609.2],[1055,601.7],[1077.7,583.5],[1076.7,573],[1128.1,561.8],[1128.1,561.8],[1180,551.3],[1198.2,549.8],[1226.5,552.1],[1264.2,546.1]]","[-0.056692,0.170076]","[0.056692,0.170076]","[0.170076,0.170076]","[-0.170076,-0.170076]","[-0.170076,0.056692]","[-0.170076,-0.056692]","[-0.056692,-0.170076]","[0.056692,-0.170076]","[0.170076,-0.170076]","[-0.056692,0.056692]","[0.056692,0.056692]","[0.170076,0.056692]","[-0.056692,-0.056692]","[0.056692,-0.056692]","[0.170076,-0.056692]",0,0,0,0,1,2,Smartphone,15,20,8,3,70,4,3,60,4
