inst1_resp.keys,inst1_resp.rt,calibrationMouse.x,calibrationMouse.y,calibrationMouse.leftButton,calibrationMouse.midButton,calibrationMouse.rightButton,calibrationClick.x,calibrationClick.y,calibrationClick.leftButton,calibrationClick.midButton,calibrationClick.rightButton,trialsc.thisRepN,trialsc.thisTrialN,trialsc.thisN,trialsc.thisIndex,trialsc.ran,calibration_x,calibration_y,participant,session,date,expName,psychopyVersion,OS,frameRate,calibrationClick.clicked_name,ScreenRes_pixels,mouse_2.x,mouse_2.y,mouse_2.leftButton,mouse_2.midButton,mouse_2.rightButton,mouse_2.time,mouse_2.clicked_name,Camera_pixels,mouse.x,mouse.y,mouse.leftButton,mouse.midButton,mouse.rightButton,mouse.time,mouse.clicked_name,Choice,Trial,TrialDuration,MOUSE_GAZE,ET_GAZE,ET_GAZE_x_T,time,unixTime,ET_GAZE_NF,Loc_Bus_label,Loc_Metro_label,Loc_RH_label,Loc_Cost_label,Loc_Travel_label,Loc_Comfort_label,Loc_Bus_cost,Loc_Metro_cost,Loc_RH_cost,Loc_Bus_travel,Loc_Metro_travel,Loc_RH_travel,Loc_Bus_comfort,Loc_Metro_comfort,Loc_RH_comfort,trials.thisRepN,trials.thisTrialN,trials.thisN,trials.thisIndex,trials.ran,Block,Device,RH_cost,RH_travel_time,RH_Comfort,metro_cost,metro_travel_time,metro_Comfort,Bus_cost,Bus_travel_time,Bus_Comfort
space,1.9788,-0.516666667,-0.757407407,1,0,0,0.341666667,0.687037037,1,0,0,0,0,0,18,1,0.33,0.67,44,001,2024-11-18_16h25.25.017,Attention_exp_legacy,2023.1.0,Win32,60.24096386,,,,,,,,,,,,,,,,,,,,,,,,,,,,,,,,,,,,,,,,,,,,,,,,,,,,,,,,,
,,,,,,,0.327083333,0.342592593,1,0,0,0,1,1,17,1,0.33,0.33,44,001,2024-11-18_16h25.25.017,Attention_exp_legacy,2023.1.0,Win32,60.24096386,,,,,,,,,,,,,,,,,,,,,,,,,,,,,,,,,,,,,,,,,,,,,,,,,,,,,,,,,
,,,,,,,-0.317708333,0.651851852,1,0,0,0,2,2,8,1,-0.33,0.67,44,001,2024-11-18_16h25.25.017,Attention_exp_legacy,2023.1.0,Win32,60.24096386,,,,,,,,,,,,,,,,,,,,,,,,,,,,,,,,,,,,,,,,,,,,,,,,,,,,,,,,,
,,,,,,,-0.013541667,0.674074074,1,0,0,0,3,3,13,1,0,0.67,44,001,2024-11-18_16h25.25.017,Attention_exp_legacy,2023.1.0,Win32,60.24096386,,,,,,,,,,,,,,,,,,,,,,,,,,,,,,,,,,,,,,,,,,,,,,,,,,,,,,,,,
,,,,,,,0.003125,-0.011111111,1,0,0,0,4,4,11,1,0,0,44,001,2024-11-18_16h25.25.017,Attention_exp_legacy,2023.1.0,Win32,60.24096386,,,,,,,,,,,,,,,,,,,,,,,,,,,,,,,,,,,,,,,,,,,,,,,,,,,,,,,,,
,,,,,,,-0.670833333,-0.335185185,1,0,0,0,5,5,1,1,-0.67,-0.33,44,001,2024-11-18_16h25.25.017,Attention_exp_legacy,2023.1.0,Win32,60.24096386,calibration_square,,,,,,,,,,,,,,,,,,,,,,,,,,,,,,,,,,,,,,,,,,,,,,,,,,,,,,,,
,,,,,,,0.315625,-0.325925926,1,0,0,0,6,6,15,1,0.33,-0.33,44,001,2024-11-18_16h25.25.017,Attention_exp_legacy,2023.1.0,Win32,60.24096386,,,,,,,,,,,,,,,,,,,,,,,,,,,,,,,,,,,,,,,,,,,,,,,,,,,,,,,,,
,,,,,,,0.009375,0.335185185,1,0,0,0,7,7,12,1,0,0.33,44,001,2024-11-18_16h25.25.017,Attention_exp_legacy,2023.1.0,Win32,60.24096386,calibration_square,,,,,,,,,,,,,,,,,,,,,,,,,,,,,,,,,,,,,,,,,,,,,,,,,,,,,,,,
,,,,,,,0.670833333,0.674074074,1,0,0,0,8,8,19,1,0.67,0.67,44,001,2024-11-18_16h25.25.017,Attention_exp_legacy,2023.1.0,Win32,60.24096386,calibration_square,,,,,,,,,,,,,,,,,,,,,,,,,,,,,,,,,,,,,,,,,,,,,,,,,,,,,,,,
,,,,,,,-0.341666667,0.335185185,1,0,0,0,9,9,7,1,-0.33,0.33,44,001,2024-11-18_16h25.25.017,Attention_exp_legacy,2023.1.0,Win32,60.24096386,,,,,,,,,,,,,,,,,,,,,,,,,,,,,,,,,,,,,,,,,,,,,,,,,,,,,,,,,
,,,,,,,-0.352083333,0.009259259,1,0,0,0,10,10,6,1,-0.33,0,44,001,2024-11-18_16h25.25.017,Attention_exp_legacy,2023.1.0,Win32,60.24096386,,,,,,,,,,,,,,,,,,,,,,,,,,,,,,,,,,,,,,,,,,,,,,,,,,,,,,,,,
,,,,,,,-0.336458333,-0.324074074,1,0,0,0,11,11,5,1,-0.33,-0.33,44,001,2024-11-18_16h25.25.017,Attention_exp_legacy,2023.1.0,Win32,60.24096386,calibration_square,,,,,,,,,,,,,,,,,,,,,,,,,,,,,,,,,,,,,,,,,,,,,,,,,,,,,,,,
,,,,,,,-0.679166667,-0.005555556,1,0,0,0,12,12,2,1,-0.67,0,44,001,2024-11-18_16h25.25.017,Attention_exp_legacy,2023.1.0,Win32,60.24096386,calibration_square,,,,,,,,,,,,,,,,,,,,,,,,,,,,,,,,,,,,,,,,,,,,,,,,,,,,,,,,
,,,,,,,-0.684375,0.337037037,1,0,0,0,13,13,3,1,-0.67,0.33,44,001,2024-11-18_16h25.25.017,Attention_exp_legacy,2023.1.0,Win32,60.24096386,,,,,,,,,,,,,,,,,,,,,,,,,,,,,,,,,,,,,,,,,,,,,,,,,,,,,,,,,
,,,,,,,-0.019791667,-0.661111111,1,0,0,0,14,14,9,1,0,-0.67,44,001,2024-11-18_16h25.25.017,Attention_exp_legacy,2023.1.0,Win32,60.24096386,,,,,,,,,,,,,,,,,,,,,,,,,,,,,,,,,,,,,,,,,,,,,,,,,,,,,,,,,
,,,,,,,0.335416667,-0.692592593,1,0,0,0,15,15,14,1,0.33,-0.67,44,001,2024-11-18_16h25.25.017,Attention_exp_legacy,2023.1.0,Win32,60.24096386,,,,,,,,,,,,,,,,,,,,,,,,,,,,,,,,,,,,,,,,,,,,,,,,,,,,,,,,,
,,,,,,,-0.001041667,-0.335185185,1,0,0,0,16,16,10,1,0,-0.33,44,001,2024-11-18_16h25.25.017,Attention_exp_legacy,2023.1.0,Win32,60.24096386,calibration_square,,,,,,,,,,,,,,,,,,,,,,,,,,,,,,,,,,,,,,,,,,,,,,,,,,,,,,,,
,,,,,,,-0.6625,-0.674074074,1,0,0,0,17,17,0,1,-0.67,-0.67,44,001,2024-11-18_16h25.25.017,Attention_exp_legacy,2023.1.0,Win32,60.24096386,calibration_square,,,,,,,,,,,,,,,,,,,,,,,,,,,,,,,,,,,,,,,,,,,,,,,,,,,,,,,,
,,,,,,,0.320833333,-0.001851852,1,0,0,0,18,18,16,1,0.33,0,44,001,2024-11-18_16h25.25.017,Attention_exp_legacy,2023.1.0,Win32,60.24096386,calibration_square,,,,,,,,,,,,,,,,,,,,,,,,,,,,,,,,,,,,,,,,,,,,,,,,,,,,,,,,
,,,,,,,0.671875,-0.675925926,1,0,0,0,19,19,20,1,0.67,-0.67,44,001,2024-11-18_16h25.25.017,Attention_exp_legacy,2023.1.0,Win32,60.24096386,calibration_square,,,,,,,,,,,,,,,,,,,,,,,,,,,,,,,,,,,,,,,,,,,,,,,,,,,,,,,,
,,,,,,,-0.328125,-0.672222222,1,0,0,0,20,20,4,1,-0.33,-0.67,44,001,2024-11-18_16h25.25.017,Attention_exp_legacy,2023.1.0,Win32,60.24096386,calibration_square,,,,,,,,,,,,,,,,,,,,,,,,,,,,,,,,,,,,,,,,,,,,,,,,,,,,,,,,
,,,,,,,,,,,,,,,,,,,44,001,2024-11-18_16h25.25.017,Attention_exp_legacy,2023.1.0,Win32,60.24096386,,"[1920,1080]",[0.053125],[-0.48148148148148145],[1],[0],[0],[0.7676999998092668],"[""StartButton""]","[640,480]",[0.2916666666666667],[0.5425925925925926],[1],[0],[0],[5.43560000038147],"[""Metro_label""]",Metro_label,1,6.4608,"[[0.15416666666666667,-0.09074074074074075],[0.15416666666666667,-0.09074074074074075],[0.15416666666666667,-0.09074074074074075],[0.15416666666666667,-0.09074074074074075],[0.15416666666666667,-0.09074074074074075],[0.15416666666666667,-0.09074074074074075],[0.15416666666666667,-0.09074074074074075],[0.15520833333333334,-0.09074074074074075],[0.15520833333333334,-0.09074074074074075],[0.15520833333333334,-0.09074074074074075],[0.15520833333333334,-0.09259259259259259],[0.15416666666666667,-0.09259259259259259],[0.15416666666666667,-0.09259259259259259],[0.15416666666666667,-0.09259259259259259],[0.15416666666666667,-0.09259259259259259],[0.153125,-0.09444444444444444],[0.15208333333333332,-0.0962962962962963],[0.15208333333333332,-0.09814814814814815],[0.15208333333333332,-0.09814814814814815],[0.15,-0.10555555555555556],[0.14791666666666667,-0.1111111111111111],[0.13958333333333334,-0.13703703703703704],[0.13229166666666667,-0.1574074074074074],[0.12395833333333334,-0.17592592592592593],[0.115625,-0.2],[0.10625,-0.22962962962962963],[0.096875,-0.2537037037037037],[0.0875,-0.2722222222222222],[0.07708333333333334,-0.29074074074074074],[0.06145833333333333,-0.3111111111111111],[0.04791666666666667,-0.3314814814814815],[0.029166666666666667,-0.35555555555555557],[0.015625,-0.3685185185185185],[0.0010416666666666667,-0.37962962962962965],[-0.0125,-0.387037037037037],[-0.020833333333333332,-0.3907407407407407],[-0.025,-0.3907407407407407],[-0.026041666666666668,-0.3907407407407407],[-0.027083333333333334,-0.3907407407407407],[-0.027083333333333334,-0.37962962962962965],[-0.027083333333333334,-0.35555555555555557],[-0.027083333333333334,-0.32037037037037036],[-0.020833333333333332,-0.2574074074074074],[-0.017708333333333333,-0.23703703703703705],[-0.010416666666666666,-0.19444444444444445],[0.004166666666666667,-0.1259259259259259],[0.01875,-0.06851851851851852],[0.034375,-0.003703703703703704],[0.04791666666666667,0.06111111111111111],[0.06041666666666667,0.10925925925925926],[0.07083333333333333,0.14629629629629629],[0.07604166666666666,0.17037037037037037],[0.07916666666666666,0.18703703703703703],[0.08125,0.1925925925925926],[0.08333333333333333,0.2],[0.08333333333333333,0.2],[0.08333333333333333,0.2],[0.08333333333333333,0.2],[0.08333333333333333,0.2],[0.08333333333333333,0.2],[0.08333333333333333,0.2],[0.08333333333333333,0.2],[0.08333333333333333,0.2],[0.08333333333333333,0.2],[0.08333333333333333,0.2],[0.08333333333333333,0.2],[0.08333333333333333,0.2],[0.08333333333333333,0.2],[0.08333333333333333,0.2],[0.08333333333333333,0.2],[0.08333333333333333,0.2],[0.08333333333333333,0.2],[0.08333333333333333,0.2],[0.084375,0.19814814814814816],[0.08541666666666667,0.19444444444444445],[0.0875,0.19074074074074074],[0.090625,0.18333333333333332],[0.09270833333333334,0.17962962962962964],[0.096875,0.17037037037037037],[0.103125,0.1537037037037037],[0.109375,0.14074074074074075],[0.11979166666666667,0.12037037037037036],[0.13125,0.10185185185185185],[0.14375,0.08703703703703704],[0.15520833333333334,0.07777777777777778],[0.16770833333333332,0.07407407407407407],[0.18020833333333333,0.06666666666666667],[0.19583333333333333,0.06111111111111111],[0.21145833333333333,0.05740740740740741],[0.22916666666666666,0.05555555555555555],[0.24791666666666667,0.04814814814814815],[0.2635416666666667,0.044444444444444446],[0.28125,0.040740740740740744],[0.303125,0.040740740740740744],[0.31875,0.040740740740740744],[0.33125,0.040740740740740744],[0.346875,0.040740740740740744],[0.35833333333333334,0.040740740740740744],[0.3697916666666667,0.04814814814814815],[0.3802083333333333,0.053703703703703705],[0.3885416666666667,0.05925925925925926],[0.39166666666666666,0.05925925925925926],[0.39166666666666666,0.05925925925925926],[0.39166666666666666,0.05925925925925926],[0.39166666666666666,0.05925925925925926],[0.39166666666666666,0.05925925925925926],[0.39166666666666666,0.05925925925925926],[0.39166666666666666,0.05925925925925926],[0.39166666666666666,0.05925925925925926],[0.39166666666666666,0.05925925925925926],[0.39166666666666666,0.05925925925925926],[0.39166666666666666,0.05925925925925926],[0.39166666666666666,0.05925925925925926],[0.39166666666666666,0.05925925925925926],[0.39166666666666666,0.05925925925925926],[0.39166666666666666,0.05925925925925926],[0.39166666666666666,0.05925925925925926],[0.39166666666666666,0.05925925925925926],[0.39895833333333336,0.05925925925925926],[0.41041666666666665,0.06666666666666667],[0.43020833333333336,0.07592592592592592],[0.45416666666666666,0.09444444444444444],[0.4864583333333333,0.11851851851851852],[0.5104166666666666,0.1388888888888889],[0.5364583333333334,0.1685185185185185],[0.5645833333333333,0.20555555555555555],[0.5708333333333333,0.21481481481481482],[0.578125,0.22777777777777777],[0.584375,0.2388888888888889],[0.590625,0.25],[0.5916666666666667,0.2574074074074074],[0.5927083333333333,0.25925925925925924],[0.59375,0.2611111111111111],[0.59375,0.26296296296296295],[0.59375,0.26481481481481484],[0.59375,0.26481481481481484],[0.59375,0.26666666666666666],[0.59375,0.26851851851851855],[0.59375,0.26851851851851855],[0.5927083333333333,0.2722222222222222],[0.590625,0.2722222222222222],[0.5895833333333333,0.2722222222222222],[0.5885416666666666,0.2722222222222222],[0.5875,0.2722222222222222],[0.5875,0.2722222222222222],[0.5833333333333334,0.26851851851851855],[0.5802083333333333,0.26296296296296295],[0.5760416666666667,0.2537037037037037],[0.5697916666666667,0.23703703703703705],[0.5635416666666667,0.2222222222222222],[0.559375,0.20555555555555555],[0.5541666666666667,0.1925925925925926],[0.55,0.17962962962962964],[0.546875,0.16666666666666666],[0.5447916666666667,0.1574074074074074],[0.5427083333333333,0.15185185185185185],[0.5395833333333333,0.14629629629629629],[0.528125,0.14629629629629629],[0.5177083333333333,0.14629629629629629],[0.5125,0.14444444444444443],[0.5125,0.14444444444444443],[0.5125,0.14444444444444443],[0.5125,0.14444444444444443],[0.5125,0.14444444444444443],[0.5125,0.14444444444444443],[0.5125,0.14444444444444443],[0.5125,0.14444444444444443],[0.5125,0.14444444444444443],[0.5125,0.14444444444444443],[0.5125,0.14444444444444443],[0.5125,0.14444444444444443],[0.5125,0.14444444444444443],[0.5125,0.14444444444444443],[0.5125,0.14444444444444443],[0.5125,0.14444444444444443],[0.5125,0.14444444444444443],[0.5125,0.14444444444444443],[0.5125,0.14444444444444443],[0.5125,0.14444444444444443],[0.5125,0.14444444444444443],[0.5145833333333333,0.14444444444444443],[0.5239583333333333,0.15],[0.5239583333333333,0.15],[0.5322916666666667,0.15185185185185185],[0.5375,0.15185185185185185],[0.540625,0.15185185185185185],[0.5427083333333333,0.1537037037037037],[0.5427083333333333,0.15555555555555556],[0.5427083333333333,0.15555555555555556],[0.5427083333333333,0.15555555555555556],[0.5427083333333333,0.15555555555555556],[0.54375,0.15555555555555556],[0.5458333333333333,0.15555555555555556],[0.5458333333333333,0.1537037037037037],[0.5458333333333333,0.15],[0.5458333333333333,0.14629629629629629],[0.5458333333333333,0.1425925925925926],[0.5458333333333333,0.14074074074074075],[0.5447916666666667,0.14074074074074075],[0.5447916666666667,0.14074074074074075],[0.5395833333333333,0.14074074074074075],[0.5270833333333333,0.18888888888888888],[0.5135416666666667,0.23333333333333334],[0.5020833333333333,0.2722222222222222],[0.49583333333333335,0.3055555555555556],[0.4947916666666667,0.3314814814814815],[0.49270833333333336,0.34814814814814815],[0.49166666666666664,0.3611111111111111],[0.49166666666666664,0.3685185185185185],[0.4895833333333333,0.37592592592592594],[0.4864583333333333,0.387037037037037],[0.4822916666666667,0.39444444444444443],[0.475,0.40185185185185185],[0.453125,0.4148148148148148],[0.4270833333333333,0.4185185185185185],[0.39375,0.42407407407407405],[0.353125,0.42777777777777776],[0.32083333333333336,0.42777777777777776],[0.2989583333333333,0.42777777777777776],[0.2833333333333333,0.42777777777777776],[0.27708333333333335,0.42777777777777776],[0.275,0.42777777777777776],[0.275,0.42777777777777776],[0.27395833333333336,0.42962962962962964],[0.27395833333333336,0.44074074074074077],[0.27395833333333336,0.45555555555555555],[0.275,0.4685185185185185],[0.275,0.48148148148148145],[0.275,0.49074074074074076],[0.26875,0.5074074074074074],[0.265625,0.5148148148148148],[0.259375,0.5277777777777778],[0.25625,0.5370370370370371],[0.2520833333333333,0.5425925925925926],[0.24895833333333334,0.5462962962962963],[0.24791666666666667,0.5481481481481482],[0.24791666666666667,0.5481481481481482],[0.24791666666666667,0.5481481481481482],[0.24791666666666667,0.5481481481481482],[0.24791666666666667,0.5481481481481482],[0.24791666666666667,0.5481481481481482],[0.24791666666666667,0.5481481481481482],[0.24791666666666667,0.5481481481481482],[0.24791666666666667,0.5481481481481482],[0.25,0.5481481481481482],[0.2552083333333333,0.5333333333333333],[0.2625,0.524074074074074],[0.2708333333333333,0.5166666666666667],[0.27291666666666664,0.512962962962963],[0.2760416666666667,0.512962962962963],[0.2760416666666667,0.512962962962963],[0.2760416666666667,0.512962962962963],[0.2760416666666667,0.512962962962963],[0.2760416666666667,0.512962962962963],[0.2760416666666667,0.512962962962963],[0.275,0.512962962962963],[0.271875,0.512962962962963],[0.26979166666666665,0.5148148148148148],[0.26875,0.5166666666666667],[0.2677083333333333,0.5166666666666667],[0.2677083333333333,0.5166666666666667],[0.2677083333333333,0.5166666666666667],[0.26979166666666665,0.5166666666666667],[0.290625,0.5166666666666667],[0.3229166666666667,0.5166666666666667],[0.3572916666666667,0.5166666666666667],[0.390625,0.5166666666666667],[0.4083333333333333,0.5166666666666667],[0.4114583333333333,0.5166666666666667],[0.4114583333333333,0.5166666666666667],[0.4114583333333333,0.5166666666666667],[0.4114583333333333,0.5166666666666667],[0.4114583333333333,0.5166666666666667],[0.409375,0.5166666666666667],[0.39375,0.5166666666666667],[0.3729166666666667,0.5166666666666667],[0.35625,0.5166666666666667],[0.3458333333333333,0.5166666666666667],[0.34270833333333334,0.5166666666666667],[0.3416666666666667,0.5166666666666667],[0.3416666666666667,0.5166666666666667],[0.3416666666666667,0.5148148148148148],[0.3416666666666667,0.5148148148148148],[0.34270833333333334,0.5111111111111111],[0.346875,0.5111111111111111],[0.35,0.5111111111111111],[0.35,0.5111111111111111],[0.35,0.5111111111111111],[0.35,0.5111111111111111],[0.35104166666666664,0.5111111111111111],[0.35104166666666664,0.512962962962963],[0.35104166666666664,0.5166666666666667],[0.34375,0.5259259259259259],[0.3302083333333333,0.5296296296296297],[0.31354166666666666,0.5351851851851852],[0.30104166666666665,0.5370370370370371],[0.2916666666666667,0.5370370370370371],[0.28958333333333336,0.5370370370370371],[0.28854166666666664,0.5370370370370371],[0.28854166666666664,0.5370370370370371],[0.28854166666666664,0.5370370370370371],[0.28854166666666664,0.5370370370370371],[0.28854166666666664,0.5370370370370371],[0.28854166666666664,0.5370370370370371],[0.28854166666666664,0.5370370370370371],[0.28854166666666664,0.5370370370370371],[0.28854166666666664,0.5370370370370371],[0.28854166666666664,0.5370370370370371],[0.28854166666666664,0.5370370370370371],[0.28854166666666664,0.5370370370370371],[0.28854166666666664,0.5370370370370371],[0.28854166666666664,0.5370370370370371],[0.28854166666666664,0.5370370370370371],[0.28854166666666664,0.5370370370370371],[0.28854166666666664,0.5370370370370371],[0.28854166666666664,0.5351851851851852],[0.28958333333333336,0.5370370370370371],[0.290625,0.5388888888888889],[0.290625,0.5407407407407407],[0.290625,0.5407407407407407],[0.290625,0.5407407407407407],[0.290625,0.5425925925925926],[0.290625,0.5425925925925926],[0.2916666666666667,0.5425925925925926],[0.2916666666666667,0.5425925925925926],[0.2916666666666667,0.5425925925925926],[0.2916666666666667,0.5425925925925926],[0.2916666666666667,0.5425925925925926],[0.2916666666666667,0.5425925925925926],[0.2916666666666667,0.5425925925925926],[0.2916666666666667,0.5425925925925926],[0.2916666666666667,0.5425925925925926],[0.2916666666666667,0.5425925925925926],[0.2916666666666667,0.5425925925925926],[0.2916666666666667,0.5425925925925926],[0.2916666666666667,0.5425925925925926],[0.2916666666666667,0.5425925925925926],[0.2916666666666667,0.5425925925925926],[0.29375,0.5388888888888889],[0.2947916666666667,0.5333333333333333],[0.29791666666666666,0.5259259259259259],[0.30104166666666665,0.5166666666666667],[0.303125,0.5074074074074074],[0.30625,0.4981481481481482],[0.30833333333333335,0.48703703703703705],[0.3104166666666667,0.4722222222222222],[0.31354166666666666,0.46296296296296297],[0.31666666666666665,0.45555555555555555],[0.32083333333333336,0.4425925925925926],[0.325,0.43148148148148147],[0.3302083333333333,0.4148148148148148],[0.33645833333333336,0.39814814814814814],[0.3458333333333333,0.3537037037037037],[0.34791666666666665,0.337037037037037],[0.3541666666666667,0.3],[0.359375,0.26481481481481484],[0.365625,0.24259259259259258],[0.37395833333333334,0.22037037037037038],[0.37916666666666665,0.2074074074074074],[0.3854166666666667,0.19074074074074074],[0.3927083333333333,0.17407407407407408],[0.39791666666666664,0.15925925925925927],[0.403125,0.14629629629629629],[0.409375,0.13518518518518519],[0.409375,0.13518518518518519],[0.41041666666666665,0.13148148148148148],[0.41354166666666664,0.13148148148148148],[0.4239583333333333,0.13148148148148148],[0.43020833333333336,0.13148148148148148],[0.43125,0.13518518518518519],[0.4322916666666667,0.13518518518518519],[0.4322916666666667,0.13518518518518519],[0.4322916666666667,0.13518518518518519],[0.4322916666666667,0.13518518518518519],[0.4322916666666667,0.13518518518518519],[0.4322916666666667,0.13518518518518519],[0.4322916666666667,0.13518518518518519],[0.4322916666666667,0.13518518518518519],[0.4322916666666667,0.13518518518518519],[0.4322916666666667,0.13518518518518519],[0.4322916666666667,0.13518518518518519],[0.4322916666666667,0.13518518518518519],[0.4322916666666667,0.13518518518518519],[0.4322916666666667,0.13518518518518519],[0.4322916666666667,0.13518518518518519],[0.4322916666666667,0.13518518518518519]]","[[-0.00927083333333331,-0.01629629629629621],[-0.00927083333333331,-0.01629629629629621],[0.025833333333333285,0.03462962962962971],[0.026250000000000048,0.05388888888888893],[0.08802083333333334,0.05055555555555547],[0.16843750000000005,-0.029259259259259176],[0.2652083333333332,-0.11981481481481479],[0.2652083333333332,-0.11981481481481479],[0.28541666666666665,-0.1714814814814815],[0.26687500000000003,-0.14833333333333337],[0.2570833333333333,-0.11148148148148146],[0.2570833333333333,-0.13037037037037033],[0.2570833333333333,-0.13037037037037033],[0.27937500000000004,-0.0712962962962963],[0.2709374999999999,-0.08925925925925923],[0.2775000000000001,-0.05240740740740743],[0.26510416666666664,-0.006851851851851936],[0.2509375000000001,0.032407407407407406],[0.22614583333333324,0.01722222222222214],[0.17458333333333323,0.051111111111111156],[0.19802083333333323,-0.007962962962962878],[0.23510416666666673,-0.072037037037037],[0.2146874999999999,-0.015555555555555513],[0.1970833333333334,0.006666666666666709],[0.19031250000000005,-0.04425925925925922],[0.12541666666666676,-0.0242592592592593],[0.12020833333333343,-0.09055555555555551],[0.1296875,-0.12685185185185185],[0.0853125000000001,-0.060370370370370414],[0.0853125000000001,-0.060370370370370414],[0.08312499999999995,-0.05870370370370368],[0.08312499999999995,-0.05870370370370368],[-0.05552083333333328,-0.03148148148148148],[-0.05552083333333328,-0.03148148148148148],[-0.1748958333333333,-0.0025925925925925505],[-0.1748958333333333,-0.0025925925925925505],[-0.21281249999999996,0.0837037037037038],[-0.21281249999999996,0.0837037037037038],[-0.23645833333333333,0.05611111111111103],[-0.2185416666666666,0.0477777777777777],[-0.21531250000000005,-0.012222222222222264],[-0.22250000000000003,0.010370370370370412],[-0.22250000000000003,0.019259259259259216],[-0.22250000000000003,0.019259259259259216],[-0.19624999999999998,0.028703703703703703],[-0.19624999999999998,0.028703703703703703],[-0.14052083333333332,0.02444444444444453],[-0.051250000000000046,-0.008148148148148106],[0.08197916666666671,-0.09055555555555551],[0.12458333333333324,-0.20537037037037034],[0.18125,-0.1977777777777778],[0.16145833333333334,-0.17074074074074072],[0.21552083333333344,-0.1403703703703704],[0.23479166666666676,-0.09666666666666665],[0.2243750000000001,-0.05240740740740743],[0.2196875000000001,-0.06555555555555552],[0.2048958333333334,-0.01055555555555564],[0.2048958333333334,-0.01055555555555564],[0.2703125,0.07296296296296292],[0.23177083333333334,0.16055555555555565],[0.23177083333333334,0.16055555555555565],[0.2782291666666666,0.2162962962962962],[0.23302083333333337,0.2574074074074074],[0.23302083333333337,0.2574074074074074],[0.25239583333333326,0.32981481481481484],[0.2111458333333334,0.3427777777777778],[0.2267708333333334,0.3544444444444444],[0.25020833333333337,0.3492592592592593],[0.25333333333333335,0.4198148148148149],[0.23406250000000003,0.4503703703703705],[0.20802083333333338,0.44240740740740736],[0.2319791666666667,0.4444444444444444],[0.21208333333333323,0.4322222222222222],[0.23666666666666672,0.51],[0.20447916666666663,0.4422222222222221],[0.22552083333333334,0.3979629629629629],[0.20958333333333337,0.38425925925925924],[0.20958333333333337,0.38425925925925924],[0.17437500000000009,0.3427777777777778],[0.17437500000000009,0.3427777777777778],[0.1727083333333333,0.23370370370370377],[0.1727083333333333,0.23370370370370377],[0.17843749999999994,0.17407407407407408],[0.17843749999999994,0.17407407407407408],[0.1857291666666666,0.1346296296296297],[0.1857291666666666,0.1346296296296297],[0.1584374999999999,0.06740740740740736],[0.14072916666666657,0.021481481481481525],[0.14072916666666657,0.021481481481481525],[0.14427083333333332,-0.12092592592592595],[0.14427083333333332,-0.12092592592592595],[0.18239583333333323,-0.10351851851851848],[0.18291666666666656,-0.09666666666666665],[0.17083333333333334,-0.102962962962963],[0.1724999999999999,-0.06592592592592597],[0.17145833333333324,-0.0507407407407407],[0.18583333333333343,-0.06092592592592588],[0.16729166666666656,-0.06481481481481481],[0.16729166666666656,-0.06481481481481481],[0.1703125,-0.039629629629629584],[0.1703125,-0.039629629629629584],[0.17916666666666667,-0.04944444444444453],[0.1953125,-0.08462962962962961],[0.2103125000000001,-0.11722222222222224],[0.2568749999999999,-0.1374074074074074],[0.29572916666666677,-0.18111111111111114],[0.31437499999999996,-0.1992592592592593],[0.3375,-0.20259259259259255],[0.3384375000000001,-0.20166666666666663],[0.37166666666666665,-0.17537037037037034],[0.38270833333333343,-0.15722222222222218],[0.37833333333333335,-0.12537037037037035],[0.3805208333333333,-0.0992592592592593],[0.3784374999999999,-0.07537037037037035],[0.33395833333333325,-0.040740740740740744],[0.296875,-0.003888888888888931],[0.28229166666666666,0.03722222222222227],[0.26375000000000004,0.11055555555555564],[0.2634375000000001,0.12444444444444452],[0.24322916666666666,0.1175925925925926],[0.24322916666666666,0.1175925925925926],[0.24604166666666671,0.1449999999999999],[0.24604166666666671,0.1449999999999999],[0.2853125000000001,0.12777777777777777],[0.31135416666666677,0.1588888888888888],[0.33916666666666656,0.18000000000000008],[0.33916666666666656,0.18000000000000008],[0.36083333333333345,0.1479629629629629],[0.38010416666666674,0.16999999999999993],[0.4348958333333333,0.10981481481481473],[0.4266666666666666,0.08444444444444449],[0.39958333333333323,0.09018518518518527],[0.4110416666666666,0.09407407407407399],[0.43468749999999995,0.05685185185185194],[0.4508333333333333,0.043703703703703745],[0.4638541666666666,0.0014814814814813973],[0.4253124999999999,0.012962962962962963],[0.4599999999999999,-0.030000000000000086],[0.4588541666666667,-0.09833333333333337],[0.42604166666666665,-0.1527777777777778],[0.3616666666666667,-0.20833333333333334],[0.3616666666666667,-0.20833333333333334],[0.2846874999999999,-0.11925925925925922],[0.20416666666666666,-0.08629629629629634],[0.1851041666666667,-0.08074074074074078],[0.1851041666666667,-0.08074074074074078],[0.1099999999999999,-0.0933333333333333],[0.014479166666666644,-0.027222222222222307],[0.02687499999999995,-0.06962962962962967],[-0.006458333333333381,0.019259259259259216],[-0.05645833333333338,0.12407407407407407],[-0.11802083333333328,0.2698148148148149],[-0.0655208333333333,0.2962962962962963],[-0.000416666666666643,0.17814814814814822],[0.049687500000000044,0.10018518518518522],[0.049687500000000044,0.10018518518518522],[0.07385416666666676,0.08277777777777787],[0.11729166666666657,0.10981481481481473],[0.2259375000000001,0.04592592592592584],[0.23166666666666677,0.03777777777777774],[0.2493750000000001,0.003703703703703704],[0.2960416666666667,-0.039629629629629584],[0.36687500000000006,-0.1294444444444444],[0.41437499999999994,-0.1331481481481481],[0.4319791666666667,-0.15555555555555556],[0.4319791666666667,-0.15555555555555556],[0.5051041666666668,-0.10203703703703708],[0.5095833333333334,-0.0544444444444444],[0.5220833333333333,-0.002407407407407323],[0.46083333333333343,0.0294444444444444],[0.46083333333333343,0.0294444444444444],[0.4461458333333333,0.060370370370370414],[0.4461458333333333,0.060370370370370414],[0.43093750000000003,0.07444444444444454],[0.4241666666666667,0.07018518518518514],[0.4041666666666667,0.09444444444444444],[0.3959374999999999,0.14444444444444443],[0.4176041666666668,0.2131481481481482],[0.3866666666666667,0.18203703703703694],[0.3866666666666667,0.18203703703703694],[0.3758333333333333,0.13870370370370366],[0.3758333333333333,0.13870370370370366],[0.37781250000000005,0.08129629629629626],[0.37781250000000005,0.08129629629629626],[0.39947916666666666,0.053703703703703705],[0.4313541666666666,-0.0485185185185186],[0.47000000000000003,-0.13055555555555556],[0.5141666666666665,-0.22462962962962965],[0.5141666666666665,-0.22462962962962965],[0.5275000000000001,-0.227962962962963],[0.5454166666666665,-0.2711111111111111],[0.5923958333333333,-0.35555555555555557],[0.5923958333333333,-0.35555555555555557],[0.6020833333333333,-0.3633333333333333],[0.5903125,-0.34888888888888886],[0.573125,-0.31574074074074077],[0.5628124999999999,-0.3244444444444444],[0.5341666666666666,-0.275],[0.5261458333333332,-0.23351851851851857],[0.5261458333333332,-0.23351851851851857],[0.52625,-0.18407407407407403],[0.52625,-0.18407407407407403],[0.5098958333333333,-0.16277777777777774],[0.5098958333333333,-0.16277777777777774],[0.5082291666666667,-0.15685185185185183],[0.5082291666666667,-0.15685185185185183],[0.5180208333333333,-0.18222222222222217],[0.5180208333333333,-0.18222222222222217],[0.5105208333333332,-0.1801851851851852],[0.5105208333333332,-0.1801851851851852],[0.5358333333333334,-0.24574074074074073],[0.5358333333333334,-0.24574074074074073],[0.5535416666666667,-0.32611111111111113],[0.5535416666666667,-0.32611111111111113],[0.5429166666666667,-0.3290740740740741],[0.5429166666666667,-0.3290740740740741],[0.5304166666666668,-0.307962962962963],[0.5304166666666668,-0.307962962962963],[0.4961458333333333,-0.2448148148148148],[0.4961458333333333,-0.2448148148148148],[0.4587500000000001,-0.18944444444444447],[0.4587500000000001,-0.18944444444444447],[0.4772916666666667,-0.25851851851851854],[0.43989583333333326,-0.3272222222222222],[0.27239583333333334,-0.19962962962962966],[0.27239583333333334,-0.19962962962962966],[0.14562499999999995,-0.14981481481481476],[0.017604166666666643,-0.08574074074074076],[-0.04520833333333331,-0.013518518518518435],[-0.08760416666666669,0.022777777777777692],[-0.13812500000000003,0.026666666666666623],[-0.19249999999999995,0.03592592592592588],[-0.18010416666666665,-0.040740740740740744],[-0.2157291666666667,-0.012962962962962963],[-0.15458333333333332,0.07074074074074083],[-0.04562499999999995,0.069074074074074],[0.07468750000000005,0.03592592592592588],[0.18489583333333334,0.0338888888888888],[0.2303124999999999,-0.0235185185185186],[0.29874999999999996,-0.08148148148148149],[0.29874999999999996,-0.08148148148148149],[0.3853125000000001,-0.11462962962962958],[0.3853125000000001,-0.11462962962962958],[0.4658333333333334,-0.20055555555555557],[0.45812499999999995,-0.12444444444444443],[0.47718749999999993,-0.16314814814814818],[0.4779166666666666,-0.25259259259259254],[0.4939583333333334,-0.3624074074074074],[0.4939583333333334,-0.3624074074074074],[0.5235416666666666,-0.42370370370370375],[0.5046875,-0.4705555555555556],[0.5046875,-0.4705555555555556],[0.45968749999999997,-0.4396296296296296],[0.42197916666666657,-0.4516666666666666],[0.3703125,-0.3907407407407407],[0.3234375,-0.31592592592592594],[0.2964583333333332,-0.4046296296296296],[0.2616666666666667,-0.3603703703703704],[0.23583333333333342,-0.34685185185185186],[0.23583333333333342,-0.34685185185185186],[0.22062499999999996,-0.2825925925925926],[0.1788541666666667,-0.2661111111111111],[0.17354166666666657,-0.2838888888888889],[0.2185416666666666,-0.33537037037037043],[0.23322916666666677,-0.34333333333333327],[0.24541666666666656,-0.4016666666666666],[0.26052083333333326,-0.45925925925925926],[0.2855208333333332,-0.4396296296296296],[0.31124999999999997,-0.5109259259259259],[0.2738541666666668,-0.4938888888888889],[0.25718750000000007,-0.5616666666666666],[0.2453125,-0.5835185185185185],[0.2595833333333334,-0.6411111111111111],[0.24927083333333327,-0.6955555555555556],[0.2647916666666667,-0.667037037037037],[0.27531249999999996,-0.667037037037037],[0.2849999999999999,-0.7081481481481481],[0.2849999999999999,-0.7083333333333334],[0.30010416666666656,-0.6696296296296297],[0.3185416666666666,-0.6537037037037037],[0.3185416666666666,-0.6537037037037037],[0.36447916666666674,-0.6462962962962963],[0.36447916666666674,-0.6462962962962963],[0.38250000000000006,-0.654074074074074],[0.39395833333333335,-0.5983333333333334],[0.40260416666666665,-0.5246296296296297],[0.3818749999999999,-0.5481481481481482],[0.3818749999999999,-0.5481481481481482],[0.38260416666666663,-0.5657407407407408],[0.37916666666666665,-0.5374074074074073],[0.3851041666666667,-0.5311111111111111],[0.3851041666666667,-0.5311111111111111],[0.39562499999999995,-0.5335185185185186],[0.39729166666666677,-0.5668518518518519],[0.3631249999999999,-0.5068518518518518],[0.3568749999999999,-0.4316666666666667],[0.3463541666666667,-0.3811111111111111],[0.3367708333333333,-0.38925925925925925],[0.32999999999999996,-0.3477777777777778],[0.32020833333333343,-0.31592592592592594],[0.32020833333333343,-0.31592592592592594],[0.31010416666666674,-0.2661111111111111],[0.31010416666666674,-0.2661111111111111],[0.2900000000000001,-0.21203703703703702],[0.28135416666666657,-0.19296296296296295],[0.2703125,-0.13333333333333333],[0.26531250000000006,-0.18592592592592588],[0.2638541666666666,-0.21388888888888888],[0.2599999999999999,-0.2822222222222222],[0.24562499999999995,-0.29000000000000004],[0.25833333333333336,-0.327962962962963],[0.2693749999999999,-0.3205555555555556],[0.29500000000000004,-0.3351851851851852],[0.29500000000000004,-0.3351851851851852],[0.3220833333333334,-0.3933333333333333],[0.3377083333333334,-0.41648148148148145],[0.3385416666666667,-0.4794444444444444],[0.3367708333333333,-0.4988888888888888],[0.35697916666666674,-0.5418518518518519],[0.3460416666666667,-0.5035185185185185],[0.3706249999999999,-0.4922222222222222],[0.3688541666666666,-0.4861111111111111],[0.36479166666666674,-0.5362962962962964],[0.34562499999999996,-0.5811111111111111],[0.3415625000000001,-0.5716666666666667],[0.3375,-0.5622222222222223],[0.3680208333333333,-0.5370370370370371],[0.40291666666666665,-0.4992592592592593],[0.3958333333333333,-0.4570370370370371],[0.41124999999999995,-0.4742592592592593],[0.41166666666666674,-0.4692592592592592],[0.41166666666666674,-0.4692592592592592],[0.41208333333333325,-0.46425925925925926],[0.41208333333333325,-0.46425925925925926],[0.42062499999999997,-0.44722222222222224],[0.42062499999999997,-0.44722222222222224],[0.4283333333333334,-0.4566666666666667],[0.4023958333333333,-0.4662962962962963],[0.4023958333333333,-0.4662962962962963],[0.3871875000000001,-0.48],[0.3871875000000001,-0.48],[0.37520833333333337,-0.5305555555555556],[0.37520833333333337,-0.5305555555555556],[0.3540625000000001,-0.5735185185185185],[0.3474999999999999,-0.5996296296296296],[0.3462500000000001,-0.5883333333333333],[0.3446875000000001,-0.5938888888888889],[0.34312500000000007,-0.5994444444444444],[0.33406250000000004,-0.6166666666666667],[0.3355208333333332,-0.5951851851851852],[0.3455208333333334,-0.5792592592592593],[0.3474999999999999,-0.5698148148148148],[0.31885416666666655,-0.4609259259259259],[0.31885416666666655,-0.4609259259259259],[0.31906249999999997,-0.4294444444444444],[0.32479166666666665,-0.36074074074074075],[0.3467708333333334,-0.2946296296296297],[0.3377083333333334,-0.19722222222222222],[0.32864583333333336,-0.09981481481481477],[0.3259375000000001,0.01777777777777782],[0.3259375000000001,0.01777777777777782],[0.3025000000000001,0.05018518518518523],[0.27760416666666665,0.08814814814814818],[0.2794791666666666,0.12370370370370362],[0.2794791666666666,0.12370370370370362],[0.28125,0.05092592592592592],[0.2635416666666667,0.13148148148148148],[0.2673958333333334,0.08833333333333342],[0.2639583333333334,0.007777777777777862],[0.2837500000000001,-0.1022222222222222],[0.2837500000000001,-0.1022222222222222],[0.29635416666666664,-0.19500000000000003],[0.3154166666666666,-0.3448148148148148],[0.3484375,-0.42851851851851847],[0.40260416666666665,-0.522962962962963],[0.4304166666666667,-0.6331481481481481],[0.46635416666666674,-0.6477777777777778],[0.4977083333333333,-0.7585185185185186],[0.4982291666666666,-0.8070370370370371],[0.4921875,-0.8177777777777778],[0.4982291666666666,-0.8348148148148148],[0.5022916666666667,-0.915],[0.47062499999999996,-0.8555555555555555],[0.44416666666666677,-0.7572222222222221],[0.4085416666666667,-0.6716666666666666],[0.3554166666666667,-0.5568518518518518]]","[[-0.00927083333333331,-0.01629629629629621,0.0003000001907338401],[-0.00927083333333331,-0.01629629629629621,0.06099999999999994],[0.025833333333333285,0.03462962962962971,0.07719999980926673],[0.026250000000000048,0.05388888888888893,0.09380000019073265],[0.08802083333333334,0.05055555555555547,0.11050000000000182],[0.16843750000000005,-0.029259259259259176,0.1271999998092639],[0.2652083333333332,-0.11981481481481479,0.14559999990463268],[0.2652083333333332,-0.11981481481481479,0.16369999980926764],[0.28541666666666665,-0.1714814814814815,0.17719999980926104],[0.26687500000000003,-0.14833333333333337,0.1954000000953684],[0.2570833333333333,-0.11148148148148146,0.21430000019073248],[0.2570833333333333,-0.13037037037037033,0.23730000019073572],[0.2570833333333333,-0.13037037037037033,0.244800000190736],[0.27937500000000004,-0.0712962962962963,0.2605000000000004],[0.2709374999999999,-0.08925925925925923,0.27899999999999636],[0.2775000000000001,-0.05240740740740743,0.2961999998092679],[0.26510416666666664,-0.006851851851851936,0.3106999998092661],[0.2509375000000001,0.032407407407407406,0.3279000000953687],[0.22614583333333324,0.01722222222222214,0.34380000019073265],[0.17458333333333323,0.051111111111111156,0.3633000001907334],[0.19802083333333323,-0.007962962962962878,0.37740000009536345],[0.23510416666666673,-0.072037037037037,0.39399999999999835],[0.2146874999999999,-0.015555555555555513,0.4106999998092675],[0.1970833333333334,0.006666666666666709,0.42980000019073117],[0.19031250000000005,-0.04425925925925922,0.4468000001907342],[0.12541666666666676,-0.0242592592592593,0.46219999980926474],[0.12020833333333343,-0.09055555555555551,0.4773000001907377],[0.1296875,-0.12685185185185185,0.4976999998092637],[0.0853125000000001,-0.060370370370370414,0.5129000000953639],[0.0853125000000001,-0.060370370370370414,0.5273000001907349],[0.08312499999999995,-0.05870370370370368,0.5440999999046312],[0.08312499999999995,-0.05870370370370368,0.5636999998092662],[-0.05552083333333328,-0.03148148148148148,0.5775000000000006],[-0.05552083333333328,-0.03148148148148148,0.5939000000953669],[-0.1748958333333333,-0.0025925925925925505,0.6144000000953653],[-0.1748958333333333,-0.0025925925925925505,0.6273000001907363],[-0.21281249999999996,0.0837037037037038,0.6441999998092669],[-0.21281249999999996,0.0837037037037038,0.6691999998092655],[-0.23645833333333333,0.05611111111111103,0.6774000000953677],[-0.2185416666666666,0.0477777777777777,0.6971999998092642],[-0.21531250000000005,-0.012222222222222264,0.7129000000953667],[-0.22250000000000003,0.010370370370370412,0.7321999998092679],[-0.22250000000000003,0.019259259259259216,0.7488000001907338],[-0.22250000000000003,0.019259259259259216,0.7606999998092618],[-0.19624999999999998,0.028703703703703703,0.7773000001907349],[-0.19624999999999998,0.028703703703703703,0.7969000000953699],[-0.14052083333333332,0.02444444444444453,0.8106999998092661],[-0.051250000000000046,-0.008148148148148106,0.8290000000000006],[0.08197916666666671,-0.09055555555555551,0.8490999999046309],[0.12458333333333324,-0.20537037037037034,0.86390000009537],[0.18125,-0.1977777777777778,0.879800000190734],[0.16145833333333334,-0.17074074074074072,0.8973000001907323],[0.21552083333333344,-0.1403703703703704,0.9129000000953695],[0.23479166666666676,-0.09666666666666665,0.9289000000953678],[0.2243750000000001,-0.05240740740740743,0.9486999998092642],[0.2196875000000001,-0.06555555555555552,0.9646999998092625],[0.2048958333333334,-0.01055555555555564,0.9830999999046313],[0.2048958333333334,-0.01055555555555564,0.9938000001907312],[0.2703125,0.07296296296296292,1.0105000000000004],[0.23177083333333334,0.16055555555555565,1.0305999999046307],[0.23177083333333334,0.16055555555555565,1.0439000000953698],[0.2782291666666666,0.2162962962962962,1.0604999999999976],[0.23302083333333337,0.2574074074074074,1.0795999999046302],[0.23302083333333337,0.2574074074074074,1.093900000095367],[0.25239583333333326,0.32981481481481484,1.1105000000000018],[0.2111458333333334,0.3427777777777778,1.1296999998092616],[0.2267708333333334,0.3544444444444444,1.1454000000953641],[0.25020833333333337,0.3492592592592593,1.1625000000000014],[0.25333333333333335,0.4198148148148149,1.177199999809261],[0.23406250000000003,0.4503703703703705,1.193800000190734],[0.20802083333333338,0.44240740740740736,1.2104999999999961],[0.2319791666666667,0.4444444444444444,1.2286999998092654],[0.21208333333333323,0.4322222222222222,1.244800000190736],[0.23666666666666672,0.51,1.264400000095364],[0.20447916666666663,0.4422222222222221,1.279599999904633],[0.22552083333333334,0.3979629629629629,1.2950999999046289],[0.20958333333333337,0.38425925925925924,1.3170000000000002],[0.20958333333333337,0.38425925925925924,1.3271999998092667],[0.17437500000000009,0.3427777777777778,1.3440000000000012],[0.17437500000000009,0.3427777777777778,1.3606999998092633],[0.1727083333333333,0.23370370370370377,1.3825000000000003],[0.1727083333333333,0.23370370370370377,1.394199999809267],[0.17843749999999994,0.17407407407407408,1.4166999998092678],[0.17843749999999994,0.17407407407407408,1.4273000001907334],[0.1857291666666666,0.1346296296296297,1.4495000000000005],[0.1857291666666666,0.1346296296296297,1.4605999999046304],[0.1584374999999999,0.06740740740740736,1.4773000001907377],[0.14072916666666657,0.021481481481481525,1.4984000000953657],[0.14072916666666657,0.021481481481481525,1.5105999999046347],[0.14427083333333332,-0.12092592592592595,1.5273000001907349],[0.14427083333333332,-0.12092592592592595,1.5440999999046312],[0.18239583333333323,-0.10351851851851848,1.5626999998092614],[0.18291666666666656,-0.09666666666666665,1.577300000190732],[0.17083333333333334,-0.102962962962963,1.5940999999046284],[0.1724999999999999,-0.06592592592592597,1.610599999904629],[0.17145833333333324,-0.0507407407407407,1.629099999904632],[0.18583333333333343,-0.06092592592592588,1.6443000001907322],[0.16729166666666656,-0.06481481481481481,1.6613000001907352],[0.16729166666666656,-0.06481481481481481,1.6773000001907334],[0.1703125,-0.039629629629629584,1.6963000001907318],[0.1703125,-0.039629629629629584,1.7105999999046304],[0.17916666666666667,-0.04944444444444453,1.7273000001907377],[0.1953125,-0.08462962962962961,1.7439000000953655],[0.2103125000000001,-0.11722222222222224,1.7605000000000004],[0.2568749999999999,-0.1374074074074074,1.7771999998092625],[0.29572916666666677,-0.18111111111111114,1.7938000001907355],[0.31437499999999996,-0.1992592592592593,1.8104000000953633],[0.3375,-0.20259259259259255,1.8305000000000007],[0.3384375000000001,-0.20166666666666663,1.8453000001907327],[0.37166666666666665,-0.17537037037037034,1.8605000000000018],[0.38270833333333343,-0.15722222222222218,1.8771999998092639],[0.37833333333333335,-0.12537037037037035,1.8950999999046303],[0.3805208333333333,-0.0992592592592593,1.9104000000953647],[0.3784374999999999,-0.07537037037037035,1.9270999999046339],[0.33395833333333325,-0.040740740740740744,1.9440999999046298],[0.296875,-0.003888888888888931,1.9604999999999961],[0.28229166666666666,0.03722222222222227,1.977099999904631],[0.26375000000000004,0.11055555555555564,1.9939000000953655],[0.2634375000000001,0.12444444444444452,2.01409999990463],[0.24322916666666666,0.1175925925925926,2.030300000190735],[0.24322916666666666,0.1175925925925926,2.0441999998092655],[0.24604166666666671,0.1449999999999999,2.064300000190734],[0.24604166666666671,0.1449999999999999,2.077300000190732],[0.2853125000000001,0.12777777777777777,2.094000000000001],[0.31135416666666677,0.1588888888888888,2.110599999904629],[0.33916666666666656,0.18000000000000008,2.131300000190734],[0.33916666666666656,0.18000000000000008,2.1439999999999984],[0.36083333333333345,0.1479629629629629,2.1605999999046333],[0.38010416666666674,0.16999999999999993,2.1774000000953677],[0.4348958333333333,0.10981481481481473,2.1965999999046346],[0.4266666666666666,0.08444444444444449,2.2124999999999986],[0.39958333333333323,0.09018518518518527,2.2288000001907307],[0.4110416666666666,0.09407407407407399,2.244500000000002],[0.43468749999999995,0.05685185185185194,2.2626999998092643],[0.4508333333333333,0.043703703703703745,2.277300000190735],[0.4638541666666666,0.0014814814814813973,2.2938000001907355],[0.4253124999999999,0.012962962962962963,2.3140999999046343],[0.4599999999999999,-0.030000000000000086,2.3296999998092645],[0.4588541666666667,-0.09833333333333337,2.3440999999046284],[0.42604166666666665,-0.1527777777777778,2.360599999904629],[0.3616666666666667,-0.20833333333333334,2.3800999999046297],[0.3616666666666667,-0.20833333333333334,2.393900000095364],[0.2846874999999999,-0.11925925925925922,2.4106999998092675],[0.20416666666666666,-0.08629629629629634,2.430500000000002],[0.1851041666666667,-0.08074074074074078,2.44559999990463],[0.1851041666666667,-0.08074074074074078,2.465900000095367],[0.1099999999999999,-0.0933333333333333,2.4773000001907377],[0.014479166666666644,-0.027222222222222307,2.4964000000953632],[0.02687499999999995,-0.06962962962962967,2.510699999809262],[-0.006458333333333381,0.019259259259259216,2.527300000190735],[-0.05645833333333338,0.12407407407407407,2.5441999998092655],[-0.11802083333333328,0.2698148148148149,2.5634000000953634],[-0.0655208333333333,0.2962962962962963,2.5771999998092667],[-0.000416666666666643,0.17814814814814822,2.594000000000001],[0.049687500000000044,0.10018518518518522,2.610599999904629],[0.049687500000000044,0.10018518518518522,2.6300000000000026],[0.07385416666666676,0.08277777777777787,2.644199999809267],[0.11729166666666657,0.10981481481481473,2.662699999809263],[0.2259375000000001,0.04592592592592584,2.68090000009537],[0.23166666666666677,0.03777777777777774,2.6955000000000027],[0.2493750000000001,0.003703703703703704,2.710499999999996],[0.2960416666666667,-0.039629629629629584,2.7279000000953673],[0.36687500000000006,-0.1294444444444444,2.744400000095368],[0.41437499999999994,-0.1331481481481481,2.764499999999998],[0.4319791666666667,-0.15555555555555556,2.7800999999046354],[0.4319791666666667,-0.15555555555555556,2.7938000001907355],[0.5051041666666668,-0.10203703703703708,2.8104999999999976],[0.5095833333333334,-0.0544444444444444,2.830199999809267],[0.5220833333333333,-0.002407407407407323,2.847699999809265],[0.46083333333333343,0.0294444444444444,2.866800000190736],[0.46083333333333343,0.0294444444444444,2.8774000000953635],[0.4461458333333333,0.060370370370370414,2.893800000190737],[0.4461458333333333,0.060370370370370414,2.910499999999999],[0.43093750000000003,0.07444444444444454,2.927199999809261],[0.4241666666666667,0.07018518518518514,2.9439000000953683],[0.4041666666666667,0.09444444444444444,2.9609000000953642],[0.3959374999999999,0.14444444444444443,2.980400000095365],[0.4176041666666668,0.2131481481481482,2.994199999809261],[0.3866666666666667,0.18203703703703694,3.0105000000000004],[0.3866666666666667,0.18203703703703694,3.0271999998092625],[0.3758333333333333,0.13870370370370366,3.048800000190731],[0.3758333333333333,0.13870370370370366,3.0615999999046295],[0.37781250000000005,0.08129629629629626,3.0771999998092667],[0.37781250000000005,0.08129629629629626,3.094000000000001],[0.39947916666666666,0.053703703703703705,3.114699999809261],[0.4313541666666666,-0.0485185185185186,3.130499999999998],[0.47000000000000003,-0.13055555555555556,3.147599999904635],[0.5141666666666665,-0.22462962962962965,3.1658000001907354],[0.5141666666666665,-0.22462962962962965,3.177199999809261],[0.5275000000000001,-0.227962962962963,3.1939000000953683],[0.5454166666666665,-0.2711111111111111,3.2134999999999962],[0.5923958333333333,-0.35555555555555557,3.232599999904629],[0.5923958333333333,-0.35555555555555557,3.244099999904634],[0.6020833333333333,-0.3633333333333333,3.2605999999046347],[0.5903125,-0.34888888888888886,3.277300000190735],[0.573125,-0.31574074074074077,3.29690000009537],[0.5628124999999999,-0.3244444444444444,3.3138000001907315],[0.5341666666666666,-0.275,3.329099999904635],[0.5261458333333332,-0.23351851851851857,3.3494000000953648],[0.5261458333333332,-0.23351851851851857,3.36090000009537],[0.52625,-0.18407407407407403,3.3773000001907363],[0.52625,-0.18407407407407403,3.3948000001907346],[0.5098958333333333,-0.16277777777777774,3.4159000000953696],[0.5098958333333333,-0.16277777777777774,3.427199999809261],[0.5082291666666667,-0.15685185185185183,3.44409999990463],[0.5082291666666667,-0.15685185185185183,3.4644000000953667],[0.5180208333333333,-0.18222222222222217,3.477400000095365],[0.5180208333333333,-0.18222222222222217,3.4939999999999998],[0.5105208333333332,-0.1801851851851852,3.5160999999046325],[0.5105208333333332,-0.1801851851851852,3.5271999998092625],[0.5358333333333334,-0.24574074074074073,3.544099999904631],[0.5358333333333334,-0.24574074074074073,3.5604999999999976],[0.5535416666666667,-0.32611111111111113,3.583199999809267],[0.5535416666666667,-0.32611111111111113,3.594000000000001],[0.5429166666666667,-0.3290740740740741,3.6106999998092633],[0.5429166666666667,-0.3290740740740741,3.6273000001907363],[0.5304166666666668,-0.307962962962963,3.650800000190735],[0.5304166666666668,-0.307962962962963,3.6606999998092675],[0.4961458333333333,-0.2448148148148148,3.6773000001907334],[0.4961458333333333,-0.2448148148148148,3.6940000000000026],[0.4587500000000001,-0.18944444444444447,3.7149999999999963],[0.4587500000000001,-0.18944444444444447,3.7273000001907377],[0.4772916666666667,-0.25851851851851854,3.7438000001907312],[0.43989583333333326,-0.3272222222222222,3.765900000095364],[0.27239583333333334,-0.19962962962962966,3.7811999998092674],[0.27239583333333334,-0.19962962962962966,3.7939000000953698],[0.14562499999999995,-0.14981481481481476,3.810599999904632],[0.017604166666666643,-0.08574074074074076,3.82959999990463],[-0.04520833333333331,-0.013518518518518435,3.8463000001907375],[-0.08760416666666669,0.022777777777777692,3.862099999904629],[-0.13812500000000003,0.026666666666666623,3.8773000001907363],[-0.19249999999999995,0.03592592592592588,3.8963000001907346],[-0.18010416666666665,-0.040740740740740744,3.9125999999046286],[-0.2157291666666667,-0.012962962962962963,3.9273000001907334],[-0.15458333333333332,0.07074074074074083,3.9484000000953685],[-0.04562499999999995,0.069074074074074,3.963699999809265],[0.07468750000000005,0.03592592592592588,3.9790999999046335],[0.18489583333333334,0.0338888888888888,3.9938000001907312],[0.2303124999999999,-0.0235185185185186,4.010400000095366],[0.29874999999999996,-0.08148148148148149,4.031400000095367],[0.29874999999999996,-0.08148148148148149,4.04390000009537],[0.3853125000000001,-0.11462962962962958,4.0604999999999976],[0.3853125000000001,-0.11462962962962958,4.0770999999046325],[0.4658333333333334,-0.20055555555555557,4.093800000190733],[0.45812499999999995,-0.12444444444444443,4.1140999999046315],[0.47718749999999993,-0.16314814814814818,4.129900000095368],[0.4779166666666666,-0.25259259259259254,4.146699999809265],[0.4939583333333334,-0.3624074074074074,4.164699999809265],[0.4939583333333334,-0.3624074074074074,4.177300000190733],[0.5235416666666666,-0.42370370370370375,4.194000000000003],[0.5046875,-0.4705555555555556,4.210400000095369],[0.5046875,-0.4705555555555556,4.227099999904631],[0.45968749999999997,-0.4396296296296296,4.2439000000953655],[0.42197916666666657,-0.4516666666666666,4.260800000190734],[0.3703125,-0.3907407407407407,4.277499999999996],[0.3234375,-0.31592592592592594,4.296599999904629],[0.2964583333333332,-0.4046296296296296,4.310599999904632],[0.2616666666666667,-0.3603703703703704,4.327500000000001],[0.23583333333333342,-0.34685185185185186,4.350999999999999],[0.23583333333333342,-0.34685185185185186,4.360500000000002],[0.22062499999999996,-0.2825925925925926,4.377199999809264],[0.1788541666666667,-0.2661111111111111,4.396400000095369],[0.17354166666666657,-0.2838888888888889,4.4140000000000015],[0.2185416666666666,-0.33537037037037043,4.4291999998092635],[0.23322916666666677,-0.34333333333333327,4.445],[0.24541666666666656,-0.4016666666666666,4.465199999809265],[0.26052083333333326,-0.45925925925925926,4.480199999809265],[0.2855208333333332,-0.4396296296296296,4.495599999904634],[0.31124999999999997,-0.5109259259259259,4.512400000095369],[0.2738541666666668,-0.4938888888888889,4.527099999904635],[0.25718750000000007,-0.5616666666666666,4.544099999904631],[0.2453125,-0.5835185185185185,4.562800000190734],[0.2595833333333334,-0.6411111111111111,4.578900000095366],[0.24927083333333327,-0.6955555555555556,4.5970999999046285],[0.2647916666666667,-0.667037037037037,4.613699999809263],[0.27531249999999996,-0.667037037037037,4.6289000000953635],[0.2849999999999999,-0.7081481481481481,4.649300000190735],[0.2849999999999999,-0.7083333333333334,4.663800000190733],[0.30010416666666656,-0.6696296296296297,4.6780999999046315],[0.3185416666666666,-0.6537037037037037,4.695699999809264],[0.3185416666666666,-0.6537037037037037,4.718499999999999],[0.36447916666666674,-0.6462962962962963,4.7331999998092655],[0.36447916666666674,-0.6462962962962963,4.7439000000953655],[0.38250000000000006,-0.654074074074074,4.760699999809262],[0.39395833333333335,-0.5983333333333334,4.7771999998092625],[0.40260416666666665,-0.5246296296296297,4.7964000000953675],[0.3818749999999999,-0.5481481481481482,4.811099999904634],[0.3818749999999999,-0.5481481481481482,4.8270999999046325],[0.38260416666666663,-0.5657407407407408,4.843800000190733],[0.37916666666666665,-0.5374074074074073,4.863300000190733],[0.3851041666666667,-0.5311111111111111,4.8774000000953635],[0.3851041666666667,-0.5311111111111111,4.893900000095364],[0.39562499999999995,-0.5335185185185186,4.914499999999997],[0.39729166666666677,-0.5668518518518519,4.929099999904629],[0.3631249999999999,-0.5068518518518518,4.944800000190732],[0.3568749999999999,-0.4316666666666667,4.96059999990463],[0.3463541666666667,-0.3811111111111111,4.979599999904629],[0.3367708333333333,-0.38925925925925925,4.996099999904629],[0.32999999999999996,-0.3477777777777778,5.010599999904635],[0.32020833333333343,-0.31592592592592594,5.029499999999999],[0.32020833333333343,-0.31592592592592594,5.0438000001907355],[0.31010416666666674,-0.2661111111111111,5.0604999999999976],[0.31010416666666674,-0.2661111111111111,5.0770999999046325],[0.2900000000000001,-0.21203703703703702,5.093800000190733],[0.28135416666666657,-0.19296296296296295,5.1104000000953675],[0.2703125,-0.13333333333333333,5.127199999809264],[0.26531250000000006,-0.18592592592592588,5.145599999904633],[0.2638541666666666,-0.21388888888888888,5.162099999904633],[0.2599999999999999,-0.2822222222222222,5.177099999904634],[0.24562499999999995,-0.29000000000000004,5.193699999809262],[0.25833333333333336,-0.327962962962963,5.210400000095369],[0.2693749999999999,-0.3205555555555556,5.228499999999997],[0.29500000000000004,-0.3351851851851852,5.244300000190734],[0.29500000000000004,-0.3351851851851852,5.263800000190734],[0.3220833333333334,-0.3933333333333333,5.277099999904635],[0.3377083333333334,-0.41648148148148145,5.295499999999997],[0.3385416666666667,-0.4794444444444444,5.310599999904632],[0.3367708333333333,-0.4988888888888888,5.327199999809267],[0.35697916666666674,-0.5418518518518519,5.347199999809263],[0.3460416666666667,-0.5035185185185185,5.360800000190736],[0.3706249999999999,-0.4922222222222222,5.377300000190736],[0.3688541666666666,-0.4861111111111111,5.393999999999998],[0.36479166666666674,-0.5362962962962964,5.410400000095365],[0.34562499999999996,-0.5811111111111111,5.429099999904629],[0.3415625000000001,-0.5716666666666667,5.444599999904632],[0.3375,-0.5622222222222223,5.460400000095369],[0.3680208333333333,-0.5370370370370371,5.477900000095367],[0.40291666666666665,-0.4992592592592593,5.493699999809266],[0.3958333333333333,-0.4570370370370371,5.510400000095366],[0.41124999999999995,-0.4742592592592593,5.527099999904635],[0.41166666666666674,-0.4692592592592592,5.543699999809263],[0.41166666666666674,-0.4692592592592592,5.560400000095363],[0.41208333333333325,-0.46425925925925926,5.5770999999046325],[0.41208333333333325,-0.46425925925925926,5.593699999809267],[0.42062499999999997,-0.44722222222222224,5.6104000000953675],[0.42062499999999997,-0.44722222222222224,5.6270000000000024],[0.4283333333333334,-0.4566666666666667,5.643900000095364],[0.4023958333333333,-0.4662962962962963,5.665400000095367],[0.4023958333333333,-0.4662962962962963,5.681699999809261],[0.3871875000000001,-0.48,5.69409999990463],[0.3871875000000001,-0.48,5.710699999809265],[0.37520833333333337,-0.5305555555555556,5.732199999809268],[0.37520833333333337,-0.5305555555555556,5.7439000000953655],[0.3540625000000001,-0.5735185185185185,5.760599999904635],[0.3474999999999999,-0.5996296296296296,5.779199999809265],[0.3462500000000001,-0.5883333333333333,5.793999999999997],[0.3446875000000001,-0.5938888888888889,5.8104999999999976],[0.34312500000000007,-0.5994444444444444,5.827199999809267],[0.33406250000000004,-0.6166666666666667,5.847199999809263],[0.3355208333333332,-0.5951851851851852,5.863999999999997],[0.3455208333333334,-0.5792592592592593,5.878800000190736],[0.3474999999999999,-0.5698148148148148,5.893900000095364],[0.31885416666666655,-0.4609259259259259,5.916199999809265],[0.31885416666666655,-0.4609259259259259,5.927199999809261],[0.31906249999999997,-0.4294444444444444,5.944000000000003],[0.32479166666666665,-0.36074074074074075,5.96059999990463],[0.3467708333333334,-0.2946296296296297,5.979699999809263],[0.3377083333333334,-0.19722222222222222,5.995900000095368],[0.32864583333333336,-0.09981481481481477,6.011199999809264],[0.3259375000000001,0.01777777777777782,6.030400000095369],[0.3259375000000001,0.01777777777777782,6.044699999809268],[0.3025000000000001,0.05018518518518523,6.060599999904632],[0.27760416666666665,0.08814814814814818,6.083699999809262],[0.2794791666666666,0.12370370370370362,6.102099999904631],[0.2794791666666666,0.12370370370370362,6.1104000000953675],[0.28125,0.05092592592592592,6.127499999999998],[0.2635416666666667,0.13148148148148148,6.147300000190732],[0.2673958333333334,0.08833333333333342,6.1629000000953695],[0.2639583333333334,0.007777777777777862,6.180099999904634],[0.2837500000000001,-0.1022222222222222,6.1946999998092664],[0.2837500000000001,-0.1022222222222222,6.2135999999046305],[0.29635416666666664,-0.19500000000000003,6.227099999904631],[0.3154166666666666,-0.3448148148148148,6.245900000095368],[0.3484375,-0.42851851851851847,6.262400000095369],[0.40260416666666665,-0.522962962962963,6.277000000000001],[0.4304166666666667,-0.6331481481481481,6.295099999904629],[0.46635416666666674,-0.6477777777777778,6.310400000095363],[0.4977083333333333,-0.7585185185185186,6.3270999999046325],[0.4982291666666666,-0.8070370370370371,6.344000000000001],[0.4921875,-0.8177777777777778,6.361800000190733],[0.4982291666666666,-0.8348148148148148,6.377499999999998],[0.5022916666666667,-0.915,6.3936999998092645],[0.47062499999999996,-0.8555555555555555,6.410400000095365],[0.44416666666666677,-0.7572222222222221,6.427599999904629],[0.4085416666666667,-0.6716666666666666,6.443800000190734],[0.3554166666666667,-0.5568518518518518,6.460800000190737]]","[0.0003000001907338401,0.06099999999999994,0.07719999980926673,0.09380000019073265,0.11050000000000182,0.1271999998092639,0.14559999990463268,0.16369999980926764,0.17719999980926104,0.1954000000953684,0.21430000019073248,0.23730000019073572,0.244800000190736,0.2605000000000004,0.27899999999999636,0.2961999998092679,0.3106999998092661,0.3279000000953687,0.34380000019073265,0.3633000001907334,0.37740000009536345,0.39399999999999835,0.4106999998092675,0.42980000019073117,0.4468000001907342,0.46219999980926474,0.4773000001907377,0.4976999998092637,0.5129000000953639,0.5273000001907349,0.5440999999046312,0.5636999998092662,0.5775000000000006,0.5939000000953669,0.6144000000953653,0.6273000001907363,0.6441999998092669,0.6691999998092655,0.6774000000953677,0.6971999998092642,0.7129000000953667,0.7321999998092679,0.7488000001907338,0.7606999998092618,0.7773000001907349,0.7969000000953699,0.8106999998092661,0.8290000000000006,0.8490999999046309,0.86390000009537,0.879800000190734,0.8973000001907323,0.9129000000953695,0.9289000000953678,0.9486999998092642,0.9646999998092625,0.9830999999046313,0.9938000001907312,1.0105000000000004,1.0305999999046307,1.0439000000953698,1.0604999999999976,1.0795999999046302,1.093900000095367,1.1105000000000018,1.1296999998092616,1.1454000000953641,1.1625000000000014,1.177199999809261,1.193800000190734,1.2104999999999961,1.2286999998092654,1.244800000190736,1.264400000095364,1.279599999904633,1.2950999999046289,1.3170000000000002,1.3271999998092667,1.3440000000000012,1.3606999998092633,1.3825000000000003,1.394199999809267,1.4166999998092678,1.4273000001907334,1.4495000000000005,1.4605999999046304,1.4773000001907377,1.4984000000953657,1.5105999999046347,1.5273000001907349,1.5440999999046312,1.5626999998092614,1.577300000190732,1.5940999999046284,1.610599999904629,1.629099999904632,1.6443000001907322,1.6613000001907352,1.6773000001907334,1.6963000001907318,1.7105999999046304,1.7273000001907377,1.7439000000953655,1.7605000000000004,1.7771999998092625,1.7938000001907355,1.8104000000953633,1.8305000000000007,1.8453000001907327,1.8605000000000018,1.8771999998092639,1.8950999999046303,1.9104000000953647,1.9270999999046339,1.9440999999046298,1.9604999999999961,1.977099999904631,1.9939000000953655,2.01409999990463,2.030300000190735,2.0441999998092655,2.064300000190734,2.077300000190732,2.094000000000001,2.110599999904629,2.131300000190734,2.1439999999999984,2.1605999999046333,2.1774000000953677,2.1965999999046346,2.2124999999999986,2.2288000001907307,2.244500000000002,2.2626999998092643,2.277300000190735,2.2938000001907355,2.3140999999046343,2.3296999998092645,2.3440999999046284,2.360599999904629,2.3800999999046297,2.393900000095364,2.4106999998092675,2.430500000000002,2.44559999990463,2.465900000095367,2.4773000001907377,2.4964000000953632,2.510699999809262,2.527300000190735,2.5441999998092655,2.5634000000953634,2.5771999998092667,2.594000000000001,2.610599999904629,2.6300000000000026,2.644199999809267,2.662699999809263,2.68090000009537,2.6955000000000027,2.710499999999996,2.7279000000953673,2.744400000095368,2.764499999999998,2.7800999999046354,2.7938000001907355,2.8104999999999976,2.830199999809267,2.847699999809265,2.866800000190736,2.8774000000953635,2.893800000190737,2.910499999999999,2.927199999809261,2.9439000000953683,2.9609000000953642,2.980400000095365,2.994199999809261,3.0105000000000004,3.0271999998092625,3.048800000190731,3.0615999999046295,3.0771999998092667,3.094000000000001,3.114699999809261,3.130499999999998,3.147599999904635,3.1658000001907354,3.177199999809261,3.1939000000953683,3.2134999999999962,3.232599999904629,3.244099999904634,3.2605999999046347,3.277300000190735,3.29690000009537,3.3138000001907315,3.329099999904635,3.3494000000953648,3.36090000009537,3.3773000001907363,3.3948000001907346,3.4159000000953696,3.427199999809261,3.44409999990463,3.4644000000953667,3.477400000095365,3.4939999999999998,3.5160999999046325,3.5271999998092625,3.544099999904631,3.5604999999999976,3.583199999809267,3.594000000000001,3.6106999998092633,3.6273000001907363,3.650800000190735,3.6606999998092675,3.6773000001907334,3.6940000000000026,3.7149999999999963,3.7273000001907377,3.7438000001907312,3.765900000095364,3.7811999998092674,3.7939000000953698,3.810599999904632,3.82959999990463,3.8463000001907375,3.862099999904629,3.8773000001907363,3.8963000001907346,3.9125999999046286,3.9273000001907334,3.9484000000953685,3.963699999809265,3.9790999999046335,3.9938000001907312,4.010400000095366,4.031400000095367,4.04390000009537,4.0604999999999976,4.0770999999046325,4.093800000190733,4.1140999999046315,4.129900000095368,4.146699999809265,4.164699999809265,4.177300000190733,4.194000000000003,4.210400000095369,4.227099999904631,4.2439000000953655,4.260800000190734,4.277499999999996,4.296599999904629,4.310599999904632,4.327500000000001,4.350999999999999,4.360500000000002,4.377199999809264,4.396400000095369,4.4140000000000015,4.4291999998092635,4.445,4.465199999809265,4.480199999809265,4.495599999904634,4.512400000095369,4.527099999904635,4.544099999904631,4.562800000190734,4.578900000095366,4.5970999999046285,4.613699999809263,4.6289000000953635,4.649300000190735,4.663800000190733,4.6780999999046315,4.695699999809264,4.718499999999999,4.7331999998092655,4.7439000000953655,4.760699999809262,4.7771999998092625,4.7964000000953675,4.811099999904634,4.8270999999046325,4.843800000190733,4.863300000190733,4.8774000000953635,4.893900000095364,4.914499999999997,4.929099999904629,4.944800000190732,4.96059999990463,4.979599999904629,4.996099999904629,5.010599999904635,5.029499999999999,5.0438000001907355,5.0604999999999976,5.0770999999046325,5.093800000190733,5.1104000000953675,5.127199999809264,5.145599999904633,5.162099999904633,5.177099999904634,5.193699999809262,5.210400000095369,5.228499999999997,5.244300000190734,5.263800000190734,5.277099999904635,5.295499999999997,5.310599999904632,5.327199999809267,5.347199999809263,5.360800000190736,5.377300000190736,5.393999999999998,5.410400000095365,5.429099999904629,5.444599999904632,5.460400000095369,5.477900000095367,5.493699999809266,5.510400000095366,5.527099999904635,5.543699999809263,5.560400000095363,5.5770999999046325,5.593699999809267,5.6104000000953675,5.6270000000000024,5.643900000095364,5.665400000095367,5.681699999809261,5.69409999990463,5.710699999809265,5.732199999809268,5.7439000000953655,5.760599999904635,5.779199999809265,5.793999999999997,5.8104999999999976,5.827199999809267,5.847199999809263,5.863999999999997,5.878800000190736,5.893900000095364,5.916199999809265,5.927199999809261,5.944000000000003,5.96059999990463,5.979699999809263,5.995900000095368,6.011199999809264,6.030400000095369,6.044699999809268,6.060599999904632,6.083699999809262,6.102099999904631,6.1104000000953675,6.127499999999998,6.147300000190732,6.1629000000953695,6.180099999904634,6.1946999998092664,6.2135999999046305,6.227099999904631,6.245900000095368,6.262400000095369,6.277000000000001,6.295099999904629,6.310400000095363,6.3270999999046325,6.344000000000001,6.361800000190733,6.377499999999998,6.3936999998092645,6.410400000095365,6.427599999904629,6.443800000190734,6.460800000190737]","[1731918365698,1731918365750,1731918365766,1731918365783,1731918365799,1731918365816,1731918365834,1731918365852,1731918365866,1731918365884,1731918365903,1731918365926,1731918365933,1731918365949,1731918365968,1731918365985,1731918365999,1731918366017,1731918366033,1731918366052,1731918366066,1731918366083,1731918366099,1731918366118,1731918366135,1731918366151,1731918366166,1731918366186,1731918366202,1731918366216,1731918366233,1731918366252,1731918366266,1731918366283,1731918366303,1731918366316,1731918366333,1731918366358,1731918366366,1731918366386,1731918366402,1731918366421,1731918366437,1731918366449,1731918366466,1731918366486,1731918366499,1731918366518,1731918366538,1731918366553,1731918366568,1731918366586,1731918366602,1731918366618,1731918366637,1731918366653,1731918366672,1731918366682,1731918366699,1731918366719,1731918366733,1731918366749,1731918366768,1731918366783,1731918366799,1731918366818,1731918366834,1731918366851,1731918366866,1731918366882,1731918366899,1731918366917,1731918366933,1731918366953,1731918366968,1731918366984,1731918367006,1731918367016,1731918367033,1731918367049,1731918367071,1731918367083,1731918367105,1731918367116,1731918367138,1731918367149,1731918367166,1731918367187,1731918367199,1731918367216,1731918367233,1731918367251,1731918367266,1731918367283,1731918367299,1731918367318,1731918367333,1731918367350,1731918367366,1731918367385,1731918367399,1731918367416,1731918367433,1731918367449,1731918367466,1731918367482,1731918367499,1731918367519,1731918367534,1731918367549,1731918367566,1731918367584,1731918367599,1731918367616,1731918367633,1731918367649,1731918367666,1731918367683,1731918367703,1731918367719,1731918367733,1731918367753,1731918367766,1731918367783,1731918367799,1731918367820,1731918367833,1731918367849,1731918367866,1731918367885,1731918367901,1731918367917,1731918367933,1731918367951,1731918367966,1731918367982,1731918368003,1731918368018,1731918368033,1731918368049,1731918368069,1731918368083,1731918368099,1731918368119,1731918368134,1731918368155,1731918368166,1731918368185,1731918368199,1731918368216,1731918368233,1731918368252,1731918368266,1731918368283,1731918368299,1731918368319,1731918368333,1731918368351,1731918368370,1731918368384,1731918368399,1731918368417,1731918368433,1731918368453,1731918368469,1731918368482,1731918368499,1731918368519,1731918368536,1731918368556,1731918368567,1731918368583,1731918368600,1731918368617,1731918368633,1731918368650,1731918368670,1731918368684,1731918368700,1731918368717,1731918368738,1731918368751,1731918368767,1731918368783,1731918368804,1731918368820,1731918368837,1731918368855,1731918368867,1731918368883,1731918368903,1731918368922,1731918368934,1731918368950,1731918368967,1731918368986,1731918369003,1731918369019,1731918369039,1731918369050,1731918369067,1731918369084,1731918369105,1731918369117,1731918369134,1731918369154,1731918369167,1731918369183,1731918369206,1731918369217,1731918369234,1731918369250,1731918369273,1731918369283,1731918369300,1731918369317,1731918369340,1731918369350,1731918369367,1731918369383,1731918369404,1731918369417,1731918369433,1731918369455,1731918369471,1731918369483,1731918369500,1731918369519,1731918369536,1731918369552,1731918369567,1731918369586,1731918369602,1731918369617,1731918369638,1731918369653,1731918369668,1731918369683,1731918369700,1731918369721,1731918369733,1731918369750,1731918369767,1731918369783,1731918369804,1731918369819,1731918369836,1731918369854,1731918369867,1731918369883,1731918369900,1731918369917,1731918369933,1731918369950,1731918369967,1731918369986,1731918370000,1731918370017,1731918370040,1731918370050,1731918370067,1731918370086,1731918370103,1731918370119,1731918370134,1731918370155,1731918370170,1731918370185,1731918370202,1731918370217,1731918370233,1731918370252,1731918370268,1731918370287,1731918370303,1731918370318,1731918370339,1731918370353,1731918370368,1731918370385,1731918370408,1731918370423,1731918370433,1731918370450,1731918370467,1731918370486,1731918370501,1731918370517,1731918370533,1731918370553,1731918370567,1731918370583,1731918370604,1731918370619,1731918370634,1731918370650,1731918370669,1731918370686,1731918370700,1731918370719,1731918370733,1731918370750,1731918370767,1731918370783,1731918370800,1731918370817,1731918370835,1731918370852,1731918370866,1731918370883,1731918370900,1731918370918,1731918370934,1731918370953,1731918370966,1731918370985,1731918371000,1731918371017,1731918371037,1731918371050,1731918371067,1731918371083,1731918371100,1731918371119,1731918371134,1731918371150,1731918371167,1731918371183,1731918371200,1731918371216,1731918371233,1731918371250,1731918371267,1731918371283,1731918371300,1731918371317,1731918371333,1731918371355,1731918371371,1731918371384,1731918371400,1731918371422,1731918371433,1731918371450,1731918371469,1731918371483,1731918371500,1731918371517,1731918371537,1731918371553,1731918371568,1731918371583,1731918371606,1731918371617,1731918371633,1731918371650,1731918371669,1731918371686,1731918371701,1731918371720,1731918371734,1731918371750,1731918371773,1731918371792,1731918371800,1731918371817,1731918371837,1731918371852,1731918371870,1731918371884,1731918371903,1731918371917,1731918371935,1731918371952,1731918371966,1731918371984,1731918372000,1731918372016,1731918372033,1731918372051,1731918372067,1731918372083,1731918372100,1731918372117,1731918372133,1731918372150]","[[951.1,531.2],[951.1,531.2],[984.8,558.7],[985.2,569.1],[1044.5,567.3],[1121.7,524.2],[1214.6,475.3],[1214.6,475.3],[1234,447.4],[1216.2,459.9],[1206.8,479.8],[1206.8,469.6],[1206.8,469.6],[1228.2,501.5],[1220.1,491.8],[1226.4,511.7],[1214.5,536.3],[1200.9,557.5],[1177.1,549.3],[1127.6,567.6],[1150.1,535.7],[1185.7,501.1],[1166.1,531.6],[1149.2,543.6],[1142.7,516.1],[1080.4,526.9],[1075.4,491.1],[1084.5,471.5],[1041.9,507.4],[1041.9,507.4],[1039.8,508.3],[1039.8,508.3],[906.7,523],[906.7,523],[792.1,538.6],[792.1,538.6],[755.7,585.2],[755.7,585.2],[733,570.3],[750.2,565.8],[753.3,533.4],[746.4,545.6],[746.4,550.4],[746.4,550.4],[771.6,555.5],[771.6,555.5],[825.1,553.2],[910.8,535.6],[1038.7,491.1],[1079.6,429.1],[1134,433.2],[1115,447.8],[1166.9,464.2],[1185.4,487.8],[1175.4,511.7],[1170.9,504.6],[1156.7,534.3],[1156.7,534.3],[1219.5,579.4],[1182.5,626.7],[1182.5,626.7],[1227.1,656.8],[1183.7,679],[1183.7,679],[1202.3,718.1],[1162.7,725.1],[1177.7,731.4],[1200.2,728.6],[1203.2,766.7],[1184.7,783.2],[1159.7,778.9],[1182.7,780],[1163.6,773.4],[1187.2,815.4],[1156.3,778.8],[1176.5,754.9],[1161.2,747.5],[1161.2,747.5],[1127.4,725.1],[1127.4,725.1],[1125.8,666.2],[1125.8,666.2],[1131.3,634],[1131.3,634],[1138.3,612.7],[1138.3,612.7],[1112.1,576.4],[1095.1,551.6],[1095.1,551.6],[1098.5,474.7],[1098.5,474.7],[1135.1,484.1],[1135.6,487.8],[1124,484.4],[1125.6,504.4],[1124.6,512.6],[1138.4,507.1],[1120.6,505],[1120.6,505],[1123.5,518.6],[1123.5,518.6],[1132,513.3],[1147.5,494.3],[1161.9,476.7],[1206.6,465.8],[1243.9,442.2],[1261.8,432.4],[1284,430.6],[1284.9,431.1],[1316.8,445.3],[1327.4,455.1],[1323.2,472.3],[1325.3,486.4],[1323.3,499.3],[1280.6,518],[1245,537.9],[1231,560.1],[1213.2,599.7],[1212.9,607.2],[1193.5,603.5],[1193.5,603.5],[1196.2,618.3],[1196.2,618.3],[1233.9,609],[1258.9,625.8],[1285.6,637.2],[1285.6,637.2],[1306.4,619.9],[1324.9,631.8],[1377.5,599.3],[1369.6,585.6],[1343.6,588.7],[1354.6,590.8],[1377.3,570.7],[1392.8,563.6],[1405.3,540.8],[1368.3,547],[1401.6,523.8],[1400.5,486.9],[1369,457.5],[1307.2,427.5],[1307.2,427.5],[1233.3,475.6],[1156,493.4],[1137.7,496.4],[1137.7,496.4],[1065.6,489.6],[973.9,525.3],[985.8,502.4],[953.8,550.4],[905.8,607],[846.7,685.7],[897.1,700],[959.6,636.2],[1007.7,594.1],[1007.7,594.1],[1030.9,584.7],[1072.6,599.3],[1176.9,564.8],[1182.4,560.4],[1199.4,542],[1244.2,518.6],[1312.2,470.1],[1357.8,468.1],[1374.7,456],[1374.7,456],[1444.9,484.9],[1449.2,510.6],[1461.2,538.7],[1402.4,555.9],[1402.4,555.9],[1388.3,572.6],[1388.3,572.6],[1373.7,580.2],[1367.2,577.9],[1348,591],[1340.1,618],[1360.9,655.1],[1331.2,638.3],[1331.2,638.3],[1320.8,614.9],[1320.8,614.9],[1322.7,583.9],[1322.7,583.9],[1343.5,569],[1374.1,513.8],[1411.2,469.5],[1453.6,418.7],[1453.6,418.7],[1466.4,416.9],[1483.6,393.6],[1528.7,348],[1528.7,348],[1538,343.8],[1526.7,351.6],[1510.2,369.5],[1500.3,364.8],[1472.8,391.5],[1465.1,413.9],[1465.1,413.9],[1465.2,440.6],[1465.2,440.6],[1449.5,452.1],[1449.5,452.1],[1447.9,455.3],[1447.9,455.3],[1457.3,441.6],[1457.3,441.6],[1450.1,442.7],[1450.1,442.7],[1474.4,407.3],[1474.4,407.3],[1491.4,363.9],[1491.4,363.9],[1481.2,362.3],[1481.2,362.3],[1469.2,373.7],[1469.2,373.7],[1436.3,407.8],[1436.3,407.8],[1400.4,437.7],[1400.4,437.7],[1418.2,400.4],[1382.3,363.3],[1221.5,432.2],[1221.5,432.2],[1099.8,459.1],[976.9,493.7],[916.6,532.7],[875.9,552.3],[827.4,554.4],[775.2,559.4],[787.1,518],[752.9,533],[811.6,578.2],[916.2,577.3],[1031.7,559.4],[1137.5,558.3],[1181.1,527.3],[1246.8,496],[1246.8,496],[1329.9,478.1],[1329.9,478.1],[1407.2,431.7],[1399.8,472.8],[1418.1,451.9],[1418.8,403.6],[1434.2,344.3],[1434.2,344.3],[1462.6,311.2],[1444.5,285.9],[1444.5,285.9],[1401.3,302.6],[1365.1,296.1],[1315.5,329],[1270.5,369.4],[1244.6,321.5],[1211.2,345.4],[1186.4,352.7],[1186.4,352.7],[1171.8,387.4],[1131.7,396.3],[1126.6,386.7],[1169.8,358.9],[1183.9,354.6],[1195.6,323.1],[1210.1,292],[1234.1,302.6],[1258.8,264.1],[1222.9,273.3],[1206.9,236.7],[1195.5,224.9],[1209.2,193.8],[1199.3,164.4],[1214.2,179.8],[1224.3,179.8],[1233.6,157.6],[1233.6,157.5],[1248.1,178.4],[1265.8,187],[1265.8,187],[1309.9,191],[1309.9,191],[1327.2,186.8],[1338.2,216.9],[1346.5,256.7],[1326.6,244],[1326.6,244],[1327.3,234.5],[1324,249.8],[1329.7,253.2],[1329.7,253.2],[1339.8,251.9],[1341.4,233.9],[1308.6,266.3],[1302.6,306.9],[1292.5,334.2],[1283.3,329.8],[1276.8,352.2],[1267.4,369.4],[1267.4,369.4],[1257.7,396.3],[1257.7,396.3],[1238.4,425.5],[1230.1,435.8],[1219.5,468],[1214.7,439.6],[1213.3,424.5],[1209.6,387.6],[1195.8,383.4],[1208,362.9],[1218.6,366.9],[1243.2,359],[1243.2,359],[1269.2,327.6],[1284.2,315.1],[1285,281.1],[1283.3,270.6],[1302.7,247.4],[1292.2,268.1],[1315.8,274.2],[1314.1,277.5],[1310.2,250.4],[1291.8,226.2],[1287.9,231.3],[1284,236.4],[1313.3,250],[1346.8,270.4],[1340,293.2],[1354.8,283.9],[1355.2,286.6],[1355.2,286.6],[1355.6,289.3],[1355.6,289.3],[1363.8,298.5],[1363.8,298.5],[1371.2,293.4],[1346.3,288.2],[1346.3,288.2],[1331.7,280.8],[1331.7,280.8],[1320.2,253.5],[1320.2,253.5],[1299.9,230.3],[1293.6,216.2],[1292.4,222.3],[1290.9,219.3],[1289.4,216.3],[1280.7,207],[1282.1,218.6],[1291.7,227.2],[1293.6,232.3],[1266.1,291.1],[1266.1,291.1],[1266.3,308.1],[1271.8,345.2],[1292.9,380.9],[1284.2,433.5],[1275.5,486.1],[1272.9,549.6],[1272.9,549.6],[1250.4,567.1],[1226.5,587.6],[1228.3,606.8],[1228.3,606.8],[1230,567.5],[1213,611],[1216.7,587.7],[1213.4,544.2],[1232.4,484.8],[1232.4,484.8],[1244.5,434.7],[1262.8,353.8],[1294.5,308.6],[1346.5,257.6],[1373.2,198.1],[1407.7,190.2],[1437.8,130.4],[1438.3,104.2],[1432.5,98.4],[1438.3,89.2],[1442.2,45.9],[1411.8,78],[1386.4,131.1],[1352.2,177.3],[1301.2,239.3]]","[-0.2,0.6000000000000001]","[0.2,0.6000000000000001]","[0.6000000000000001,0.6000000000000001]","[-0.6000000000000001,-0.6000000000000001]","[-0.6000000000000001,-0.2]","[-0.6000000000000001,0.2]","[-0.2,-0.6000000000000001]","[0.2,-0.6000000000000001]","[0.6000000000000001,-0.6000000000000001]","[-0.2,-0.2]","[0.2,-0.2]","[0.6000000000000001,-0.2]","[-0.2,0.2]","[0.2,0.2]","[0.6000000000000001,0.2]",0,0,0,0,1,1,Monitor,20,20,7,2,70,4,2,70,4
