inst1_resp.keys,inst1_resp.rt,calibrationMouse.x,calibrationMouse.y,calibrationMouse.leftButton,calibrationMouse.midButton,calibrationMouse.rightButton,calibrationClick.x,calibrationClick.y,calibrationClick.leftButton,calibrationClick.midButton,calibrationClick.rightButton,trialsc.thisRepN,trialsc.thisTrialN,trialsc.thisN,trialsc.thisIndex,trialsc.ran,calibration_x,calibration_y,participant,session,date,expName,psychopyVersion,OS,frameRate,calibrationClick.clicked_name,ScreenRes_pixels,mouse_2.x,mouse_2.y,mouse_2.leftButton,mouse_2.midButton,mouse_2.rightButton,mouse_2.time,mouse_2.clicked_name,Camera_pixels,mouse.x,mouse.y,mouse.leftButton,mouse.midButton,mouse.rightButton,mouse.time,mouse.clicked_name,Choice,Trial,TrialDuration,MOUSE_GAZE,ET_GAZE,ET_GAZE_x_T,time,unixTime,ET_GAZE_NF,Loc_Bus_label,Loc_Metro_label,Loc_RH_label,Loc_Cost_label,Loc_Travel_label,Loc_Comfort_label,Loc_Bus_cost,Loc_Metro_cost,Loc_RH_cost,Loc_Bus_travel,Loc_Metro_travel,Loc_RH_travel,Loc_Bus_comfort,Loc_Metro_comfort,Loc_RH_comfort,trials.thisRepN,trials.thisTrialN,trials.thisN,trials.thisIndex,trials.ran,Block,Device,RH_cost,RH_travel_time,RH_Comfort,metro_cost,metro_travel_time,metro_Comfort,Bus_cost,Bus_travel_time,Bus_Comfort
space,1.8332,0.013541667,-0.403703704,1,0,0,0.111458333,-0.207407407,0,0,0,0,0,0,20,1,0.67,-0.67,20,001,2024-11-18_16h30.46.783,Attention_exp_legacy,2023.1.0,Win32,59.52380952,,,,,,,,,,,,,,,,,,,,,,,,,,,,,,,,,,,,,,,,,,,,,,,,,,,,,,,,,
,,,,,,,0.333333333,-0.327777778,1,0,0,0,1,1,15,1,0.33,-0.33,20,001,2024-11-18_16h30.46.783,Attention_exp_legacy,2023.1.0,Win32,59.52380952,calibration_square,,,,,,,,,,,,,,,,,,,,,,,,,,,,,,,,,,,,,,,,,,,,,,,,,,,,,,,,
,,,,,,,-0.019791667,0.02037037,1,0,0,0,2,2,11,1,0,0,20,001,2024-11-18_16h30.46.783,Attention_exp_legacy,2023.1.0,Win32,59.52380952,,,,,,,,,,,,,,,,,,,,,,,,,,,,,,,,,,,,,,,,,,,,,,,,,,,,,,,,,
,,,,,,,-0.669791667,0.32962963,1,0,0,0,3,3,3,1,-0.67,0.33,20,001,2024-11-18_16h30.46.783,Attention_exp_legacy,2023.1.0,Win32,59.52380952,calibration_square,,,,,,,,,,,,,,,,,,,,,,,,,,,,,,,,,,,,,,,,,,,,,,,,,,,,,,,,
,,,,,,,0.00625,-0.322222222,1,0,0,0,4,4,10,1,0,-0.33,20,001,2024-11-18_16h30.46.783,Attention_exp_legacy,2023.1.0,Win32,59.52380952,calibration_square,,,,,,,,,,,,,,,,,,,,,,,,,,,,,,,,,,,,,,,,,,,,,,,,,,,,,,,,
,,,,,,,-0.325,0.32037037,1,0,0,0,5,5,7,1,-0.33,0.33,20,001,2024-11-18_16h30.46.783,Attention_exp_legacy,2023.1.0,Win32,59.52380952,calibration_square,,,,,,,,,,,,,,,,,,,,,,,,,,,,,,,,,,,,,,,,,,,,,,,,,,,,,,,,
,,,,,,,-0.008333333,0.664814815,1,0,0,0,6,6,13,1,0,0.67,20,001,2024-11-18_16h30.46.783,Attention_exp_legacy,2023.1.0,Win32,59.52380952,calibration_square,,,,,,,,,,,,,,,,,,,,,,,,,,,,,,,,,,,,,,,,,,,,,,,,,,,,,,,,
,,,,,,,0.329166667,0.014814815,1,0,0,0,7,7,16,1,0.33,0,20,001,2024-11-18_16h30.46.783,Attention_exp_legacy,2023.1.0,Win32,59.52380952,,,,,,,,,,,,,,,,,,,,,,,,,,,,,,,,,,,,,,,,,,,,,,,,,,,,,,,,,
,,,,,,,0.671875,0.668518519,1,0,0,0,8,8,19,1,0.67,0.67,20,001,2024-11-18_16h30.46.783,Attention_exp_legacy,2023.1.0,Win32,59.52380952,calibration_square,,,,,,,,,,,,,,,,,,,,,,,,,,,,,,,,,,,,,,,,,,,,,,,,,,,,,,,,
,,,,,,,-0.66875,0.007407407,1,0,0,0,9,9,2,1,-0.67,0,20,001,2024-11-18_16h30.46.783,Attention_exp_legacy,2023.1.0,Win32,59.52380952,calibration_square,,,,,,,,,,,,,,,,,,,,,,,,,,,,,,,,,,,,,,,,,,,,,,,,,,,,,,,,
,,,,,,,0.317708333,-0.651851852,1,0,0,0,10,10,14,1,0.33,-0.67,20,001,2024-11-18_16h30.46.783,Attention_exp_legacy,2023.1.0,Win32,59.52380952,,,,,,,,,,,,,,,,,,,,,,,,,,,,,,,,,,,,,,,,,,,,,,,,,,,,,,,,,
,,,,,,,-0.004166667,-0.657407407,1,0,0,0,11,11,9,1,0,-0.67,20,001,2024-11-18_16h30.46.783,Attention_exp_legacy,2023.1.0,Win32,59.52380952,,,,,,,,,,,,,,,,,,,,,,,,,,,,,,,,,,,,,,,,,,,,,,,,,,,,,,,,,
,,,,,,,0.336458333,0.661111111,1,0,0,0,12,12,18,1,0.33,0.67,20,001,2024-11-18_16h30.46.783,Attention_exp_legacy,2023.1.0,Win32,59.52380952,calibration_square,,,,,,,,,,,,,,,,,,,,,,,,,,,,,,,,,,,,,,,,,,,,,,,,,,,,,,,,
,,,,,,,0.33125,0.338888889,1,0,0,0,13,13,17,1,0.33,0.33,20,001,2024-11-18_16h30.46.783,Attention_exp_legacy,2023.1.0,Win32,59.52380952,calibration_square,,,,,,,,,,,,,,,,,,,,,,,,,,,,,,,,,,,,,,,,,,,,,,,,,,,,,,,,
,,,,,,,-0.328125,0.662962963,1,0,0,0,14,14,8,1,-0.33,0.67,20,001,2024-11-18_16h30.46.783,Attention_exp_legacy,2023.1.0,Win32,59.52380952,calibration_square,,,,,,,,,,,,,,,,,,,,,,,,,,,,,,,,,,,,,,,,,,,,,,,,,,,,,,,,
,,,,,,,-0.333333333,-0.325925926,1,0,0,0,15,15,5,1,-0.33,-0.33,20,001,2024-11-18_16h30.46.783,Attention_exp_legacy,2023.1.0,Win32,59.52380952,calibration_square,,,,,,,,,,,,,,,,,,,,,,,,,,,,,,,,,,,,,,,,,,,,,,,,,,,,,,,,
,,,,,,,0.003125,0.327777778,1,0,0,0,16,16,12,1,0,0.33,20,001,2024-11-18_16h30.46.783,Attention_exp_legacy,2023.1.0,Win32,59.52380952,calibration_square,,,,,,,,,,,,,,,,,,,,,,,,,,,,,,,,,,,,,,,,,,,,,,,,,,,,,,,,
,,,,,,,-0.672916667,-0.662962963,1,0,0,0,17,17,0,1,-0.67,-0.67,20,001,2024-11-18_16h30.46.783,Attention_exp_legacy,2023.1.0,Win32,59.52380952,calibration_square,,,,,,,,,,,,,,,,,,,,,,,,,,,,,,,,,,,,,,,,,,,,,,,,,,,,,,,,
,,,,,,,-0.336458333,-0.694444444,1,0,0,0,18,18,4,1,-0.33,-0.67,20,001,2024-11-18_16h30.46.783,Attention_exp_legacy,2023.1.0,Win32,59.52380952,,,,,,,,,,,,,,,,,,,,,,,,,,,,,,,,,,,,,,,,,,,,,,,,,,,,,,,,,
,,,,,,,-0.66875,-0.311111111,1,0,0,0,19,19,1,1,-0.67,-0.33,20,001,2024-11-18_16h30.46.783,Attention_exp_legacy,2023.1.0,Win32,59.52380952,,,,,,,,,,,,,,,,,,,,,,,,,,,,,,,,,,,,,,,,,,,,,,,,,,,,,,,,,
,,,,,,,-0.336458333,0.014814815,1,0,0,0,20,20,6,1,-0.33,0,20,001,2024-11-18_16h30.46.783,Attention_exp_legacy,2023.1.0,Win32,59.52380952,,,,,,,,,,,,,,,,,,,,,,,,,,,,,,,,,,,,,,,,,,,,,,,,,,,,,,,,,
,,,,,,,,,,,,,,,,,,,20,001,2024-11-18_16h30.46.783,Attention_exp_legacy,2023.1.0,Win32,59.52380952,,"[1920,1080]",[0.008333333333333333],[-0.45185185185185184],[1],[0],[0],[0.9448000001907388],"[""StartButton""]","[640,480]",[0.20104166666666667],[0.40555555555555556],[1],[0],[0],[5.433799999713898],"[""Metro_label""]",Metro_label,1,6.4598,"[[0.04375,-0.337037037037037],[0.04375,-0.337037037037037],[0.04375,-0.337037037037037],[0.04375,-0.337037037037037],[0.04375,-0.337037037037037],[0.04375,-0.337037037037037],[0.04375,-0.337037037037037],[0.04375,-0.337037037037037],[0.04375,-0.337037037037037],[0.04375,-0.337037037037037],[0.04375,-0.337037037037037],[0.04375,-0.337037037037037],[0.04375,-0.337037037037037],[0.04375,-0.337037037037037],[0.04375,-0.337037037037037],[0.04375,-0.337037037037037],[0.04375,-0.337037037037037],[0.04375,-0.337037037037037],[0.04479166666666667,-0.34074074074074073],[0.04479166666666667,-0.34074074074074073],[0.04479166666666667,-0.34074074074074073],[0.04479166666666667,-0.34074074074074073],[0.04479166666666667,-0.34074074074074073],[0.04479166666666667,-0.34074074074074073],[0.04479166666666667,-0.34074074074074073],[0.04583333333333333,-0.34444444444444444],[0.04583333333333333,-0.34814814814814815],[0.04583333333333333,-0.35],[0.04583333333333333,-0.35],[0.04583333333333333,-0.35],[0.04583333333333333,-0.35],[0.04583333333333333,-0.35],[0.04583333333333333,-0.35],[0.04583333333333333,-0.35],[0.046875,-0.34814814814814815],[0.04791666666666667,-0.34629629629629627],[0.04791666666666667,-0.3425925925925926],[0.04791666666666667,-0.337037037037037],[0.05,-0.3296296296296296],[0.052083333333333336,-0.31666666666666665],[0.053125,-0.3037037037037037],[0.05416666666666667,-0.29259259259259257],[0.05416666666666667,-0.27037037037037037],[0.05625,-0.2351851851851852],[0.05625,-0.2074074074074074],[0.05625,-0.1925925925925926],[0.05625,-0.14814814814814814],[0.05520833333333333,-0.12222222222222222],[0.051041666666666666,-0.09814814814814815],[0.046875,-0.07962962962962963],[0.042708333333333334,-0.06111111111111111],[0.03958333333333333,-0.05185185185185185],[0.036458333333333336,-0.044444444444444446],[0.036458333333333336,-0.03888888888888889],[0.03333333333333333,-0.03333333333333333],[0.03229166666666667,-0.02962962962962963],[0.030208333333333334,-0.025925925925925925],[0.030208333333333334,-0.025925925925925925],[0.028125,-0.022222222222222223],[0.028125,-0.022222222222222223],[0.027083333333333334,-0.020370370370370372],[0.027083333333333334,-0.020370370370370372],[0.027083333333333334,-0.018518518518518517],[0.026041666666666668,-0.016666666666666666],[0.025,-0.012962962962962963],[0.025,-0.011111111111111112],[0.025,-0.005555555555555556],[0.023958333333333335,-0.001851851851851852],[0.023958333333333335,0.001851851851851852],[0.022916666666666665,0.007407407407407408],[0.022916666666666665,0.022222222222222223],[0.020833333333333332,0.03518518518518519],[0.019791666666666666,0.04814814814814815],[0.016666666666666666,0.06296296296296296],[0.015625,0.07407407407407407],[0.014583333333333334,0.08703703703703704],[0.0125,0.09259259259259259],[0.011458333333333333,0.09814814814814815],[0.010416666666666666,0.10185185185185185],[0.009375,0.1037037037037037],[0.009375,0.1037037037037037],[0.009375,0.1037037037037037],[0.009375,0.1037037037037037],[0.009375,0.1037037037037037],[0.009375,0.1037037037037037],[0.009375,0.1037037037037037],[0.009375,0.1037037037037037],[0.009375,0.1037037037037037],[0.009375,0.1037037037037037],[0.009375,0.1037037037037037],[0.009375,0.1037037037037037],[0.009375,0.1037037037037037],[0.009375,0.1037037037037037],[0.009375,0.1037037037037037],[0.009375,0.1037037037037037],[0.009375,0.1037037037037037],[0.009375,0.1037037037037037],[0.009375,0.1037037037037037],[0.009375,0.1037037037037037],[0.009375,0.1037037037037037],[0.009375,0.1037037037037037],[0.009375,0.1037037037037037],[0.009375,0.1037037037037037],[0.009375,0.1037037037037037],[0.009375,0.1037037037037037],[0.009375,0.1037037037037037],[0.009375,0.1037037037037037],[0.009375,0.1037037037037037],[0.009375,0.1037037037037037],[0.009375,0.1037037037037037],[0.009375,0.1037037037037037],[0.008333333333333333,0.10555555555555556],[0.007291666666666667,0.10740740740740741],[0.00625,0.1111111111111111],[0.00625,0.1111111111111111],[0.00625,0.1111111111111111],[0.00625,0.1111111111111111],[0.00625,0.11296296296296296],[0.00625,0.11296296296296296],[0.00625,0.11296296296296296],[0.00625,0.11296296296296296],[0.00625,0.11296296296296296],[0.00625,0.11296296296296296],[0.00625,0.11296296296296296],[0.00625,0.11296296296296296],[0.00625,0.11296296296296296],[0.00625,0.11296296296296296],[0.00625,0.11296296296296296],[0.00625,0.11296296296296296],[0.00625,0.11296296296296296],[0.00625,0.11296296296296296],[0.00625,0.11296296296296296],[0.00625,0.11296296296296296],[0.00625,0.11296296296296296],[0.00625,0.11296296296296296],[0.00625,0.11296296296296296],[0.00625,0.11296296296296296],[0.00625,0.11296296296296296],[0.00625,0.11296296296296296],[0.00625,0.11296296296296296],[0.00625,0.12407407407407407],[0.007291666666666667,0.13518518518518519],[0.01875,0.18333333333333332],[0.026041666666666668,0.21481481481481482],[0.03229166666666667,0.24259259259259258],[0.035416666666666666,0.26851851851851855],[0.03854166666666667,0.28703703703703703],[0.040625,0.30185185185185187],[0.040625,0.3111111111111111],[0.040625,0.3148148148148148],[0.040625,0.31666666666666665],[0.040625,0.31851851851851853],[0.040625,0.31851851851851853],[0.040625,0.31851851851851853],[0.040625,0.31851851851851853],[0.040625,0.31851851851851853],[0.040625,0.31851851851851853],[0.040625,0.31851851851851853],[0.040625,0.31851851851851853],[0.040625,0.31851851851851853],[0.040625,0.31851851851851853],[0.040625,0.31851851851851853],[0.040625,0.32037037037037036],[0.03854166666666667,0.32037037037037036],[0.036458333333333336,0.32037037037037036],[0.03229166666666667,0.31851851851851853],[0.028125,0.31666666666666665],[0.028125,0.31666666666666665],[0.027083333333333334,0.31666666666666665],[0.027083333333333334,0.31666666666666665],[0.027083333333333334,0.31666666666666665],[0.027083333333333334,0.31666666666666665],[0.027083333333333334,0.31666666666666665],[0.027083333333333334,0.31666666666666665],[0.027083333333333334,0.31666666666666665],[0.027083333333333334,0.31666666666666665],[0.027083333333333334,0.31666666666666665],[0.03125,0.31666666666666665],[0.040625,0.32037037037037036],[0.052083333333333336,0.32222222222222224],[0.06666666666666667,0.32222222222222224],[0.08645833333333333,0.32222222222222224],[0.10625,0.32222222222222224],[0.128125,0.32222222222222224],[0.15,0.32222222222222224],[0.17604166666666668,0.32222222222222224],[0.203125,0.32222222222222224],[0.23333333333333334,0.32222222222222224],[0.2635416666666667,0.32222222222222224],[0.2947916666666667,0.32592592592592595],[0.33958333333333335,0.3388888888888889],[0.3645833333333333,0.34814814814814815],[0.38333333333333336,0.3592592592592593],[0.3958333333333333,0.36666666666666664],[0.40729166666666666,0.37777777777777777],[0.4114583333333333,0.38333333333333336],[0.4166666666666667,0.3907407407407407],[0.42083333333333334,0.39814814814814814],[0.42291666666666666,0.40185185185185185],[0.4239583333333333,0.40370370370370373],[0.4239583333333333,0.40370370370370373],[0.4239583333333333,0.40555555555555556],[0.425,0.4074074074074074],[0.425,0.4074074074074074],[0.425,0.4074074074074074],[0.425,0.4074074074074074],[0.425,0.4074074074074074],[0.425,0.4074074074074074],[0.425,0.4074074074074074],[0.425,0.4074074074074074],[0.425,0.4074074074074074],[0.425,0.4074074074074074],[0.425,0.4074074074074074],[0.425,0.4074074074074074],[0.425,0.4074074074074074],[0.425,0.4074074074074074],[0.425,0.4074074074074074],[0.425,0.4074074074074074],[0.425,0.4074074074074074],[0.425,0.4074074074074074],[0.425,0.4074074074074074],[0.425,0.4074074074074074],[0.425,0.4074074074074074],[0.425,0.4074074074074074],[0.425,0.4074074074074074],[0.425,0.4074074074074074],[0.425,0.4074074074074074],[0.425,0.4074074074074074],[0.425,0.4074074074074074],[0.425,0.4074074074074074],[0.425,0.4074074074074074],[0.425,0.4074074074074074],[0.425,0.4074074074074074],[0.425,0.40555555555555556],[0.425,0.40555555555555556],[0.425,0.40555555555555556],[0.425,0.40555555555555556],[0.425,0.40555555555555556],[0.425,0.40555555555555556],[0.425,0.40555555555555556],[0.425,0.40555555555555556],[0.425,0.40555555555555556],[0.425,0.40555555555555556],[0.425,0.40555555555555556],[0.425,0.40555555555555556],[0.425,0.40555555555555556],[0.425,0.40555555555555556],[0.425,0.40555555555555556],[0.425,0.40555555555555556],[0.425,0.40555555555555556],[0.425,0.40555555555555556],[0.425,0.40555555555555556],[0.425,0.40555555555555556],[0.425,0.40555555555555556],[0.425,0.40555555555555556],[0.425,0.40555555555555556],[0.425,0.40555555555555556],[0.425,0.40555555555555556],[0.425,0.40555555555555556],[0.425,0.40555555555555556],[0.425,0.40555555555555556],[0.425,0.40555555555555556],[0.425,0.40555555555555556],[0.425,0.40555555555555556],[0.425,0.40555555555555556],[0.425,0.40555555555555556],[0.425,0.40555555555555556],[0.425,0.40555555555555556],[0.425,0.40555555555555556],[0.425,0.40555555555555556],[0.425,0.40555555555555556],[0.425,0.40555555555555556],[0.425,0.40555555555555556],[0.425,0.40555555555555556],[0.425,0.40555555555555556],[0.425,0.40555555555555556],[0.425,0.40555555555555556],[0.42291666666666666,0.40370370370370373],[0.4197916666666667,0.40370370370370373],[0.41458333333333336,0.40185185185185185],[0.4125,0.40185185185185185],[0.4083333333333333,0.4],[0.40625,0.4],[0.40208333333333335,0.4],[0.396875,0.4],[0.3875,0.4],[0.36875,0.4],[0.353125,0.4],[0.33958333333333335,0.4],[0.3229166666666667,0.4],[0.30625,0.4],[0.2916666666666667,0.4],[0.28125,0.4],[0.271875,0.4],[0.26666666666666666,0.4],[0.2625,0.4],[0.25416666666666665,0.4],[0.25104166666666666,0.4],[0.23854166666666668,0.4],[0.23125,0.4],[0.22604166666666667,0.4],[0.22395833333333334,0.4],[0.22291666666666668,0.4],[0.221875,0.4],[0.21979166666666666,0.4],[0.21770833333333334,0.4],[0.21666666666666667,0.4],[0.21354166666666666,0.4],[0.21354166666666666,0.40185185185185185],[0.2125,0.40185185185185185],[0.20833333333333334,0.40185185185185185],[0.20520833333333333,0.40185185185185185],[0.203125,0.40555555555555556],[0.20104166666666667,0.40555555555555556],[0.20104166666666667,0.40555555555555556],[0.20104166666666667,0.40555555555555556],[0.20104166666666667,0.40555555555555556],[0.20104166666666667,0.40555555555555556],[0.20104166666666667,0.40555555555555556],[0.20104166666666667,0.40555555555555556],[0.20104166666666667,0.40555555555555556],[0.20104166666666667,0.40555555555555556],[0.20104166666666667,0.40555555555555556],[0.20104166666666667,0.40555555555555556],[0.20104166666666667,0.40555555555555556],[0.20104166666666667,0.40555555555555556],[0.20104166666666667,0.40555555555555556],[0.20104166666666667,0.40555555555555556],[0.20104166666666667,0.40555555555555556],[0.20104166666666667,0.40555555555555556],[0.20104166666666667,0.40555555555555556],[0.20104166666666667,0.40555555555555556],[0.20104166666666667,0.40555555555555556],[0.20104166666666667,0.40555555555555556],[0.20104166666666667,0.40555555555555556],[0.20104166666666667,0.40555555555555556],[0.20104166666666667,0.40555555555555556],[0.20104166666666667,0.40555555555555556],[0.20104166666666667,0.40555555555555556],[0.20104166666666667,0.40555555555555556],[0.20104166666666667,0.40555555555555556],[0.2,0.40555555555555556],[0.2,0.40555555555555556],[0.2,0.40555555555555556],[0.2,0.40555555555555556],[0.2,0.40555555555555556],[0.2,0.40555555555555556],[0.19895833333333332,0.40555555555555556],[0.19895833333333332,0.40555555555555556],[0.19895833333333332,0.40555555555555556],[0.19895833333333332,0.40555555555555556],[0.19895833333333332,0.40555555555555556],[0.19895833333333332,0.40555555555555556],[0.19895833333333332,0.40555555555555556],[0.19895833333333332,0.40555555555555556],[0.19895833333333332,0.40555555555555556],[0.19895833333333332,0.40555555555555556],[0.19895833333333332,0.40555555555555556],[0.19895833333333332,0.40555555555555556],[0.19895833333333332,0.40555555555555556],[0.19895833333333332,0.40555555555555556],[0.19895833333333332,0.40555555555555556],[0.19895833333333332,0.40555555555555556],[0.19895833333333332,0.40555555555555556],[0.19895833333333332,0.40555555555555556],[0.19895833333333332,0.40555555555555556],[0.19895833333333332,0.40555555555555556],[0.19895833333333332,0.40555555555555556],[0.19895833333333332,0.40555555555555556],[0.19895833333333332,0.40555555555555556],[0.19895833333333332,0.40555555555555556],[0.19895833333333332,0.40555555555555556],[0.19895833333333332,0.40555555555555556],[0.19895833333333332,0.40555555555555556],[0.19895833333333332,0.40555555555555556],[0.19895833333333332,0.40555555555555556],[0.19895833333333332,0.40555555555555556],[0.19895833333333332,0.40555555555555556],[0.19895833333333332,0.40555555555555556],[0.19895833333333332,0.40555555555555556],[0.19895833333333332,0.40555555555555556],[0.19895833333333332,0.40555555555555556],[0.19895833333333332,0.40555555555555556],[0.19895833333333332,0.40555555555555556],[0.19895833333333332,0.40555555555555556],[0.19895833333333332,0.40555555555555556],[0.19895833333333332,0.40555555555555556]]","[[-0.31447916666666664,0.06518518518518526],[-0.31447916666666664,0.06518518518518526],[-0.2663541666666667,0.11074074074074065],[-0.2296875,0.1337037037037038],[-0.1875,0.13333333333333333],[-0.15677083333333333,0.13407407407407404],[-0.1889583333333333,0.13185185185185194],[-0.19781249999999997,0.16314814814814818],[-0.19781249999999997,0.16314814814814818],[-0.21354166666666666,0.14814814814814814],[-0.2485416666666667,0.1198148148148149],[-0.2673958333333334,0.09611111111111106],[-0.2747916666666666,0.10962962962962972],[-0.23072916666666668,0.14037037037037028],[-0.22166666666666662,0.13296296296296287],[-0.24010416666666667,0.10777777777777786],[-0.2326041666666666,0.10537037037037032],[-0.21229166666666663,0.11166666666666658],[-0.20510416666666664,0.0787037037037037],[-0.16395833333333332,0.09574074074074082],[-0.12093750000000002,0.13037037037037033],[-0.08812500000000002,0.13796296296296295],[-0.08718750000000004,0.1259259259259259],[-0.08135416666666669,0.10740740740740741],[-0.029062499999999977,0.14962962962962956],[0.03104166666666662,0.22592592592592592],[0.051874999999999956,0.25018518518518523],[0.051874999999999956,0.25018518518518523],[0.08020833333333334,0.27074074074074084],[0.07062499999999995,0.29907407407407405],[0.05479166666666669,0.2712962962962963],[0.05479166666666669,0.2712962962962963],[0.024062500000000025,0.2175925925925926],[0.024062500000000025,0.2175925925925926],[0.010625000000000048,0.21370370370370367],[0.010625000000000048,0.21370370370370367],[0.0234375,0.24740740740740744],[0.0234375,0.24740740740740744],[0.013437499999999976,0.26444444444444437],[0.013437499999999976,0.26444444444444437],[-0.021562500000000047,0.2712962962962963],[-0.021562500000000047,0.2712962962962963],[-0.03677083333333329,0.26648148148148143],[-0.018020833333333285,0.2766666666666666],[-0.011458333333333333,0.2800000000000001],[0.03135416666666669,0.2551851851851851],[0.03135416666666669,0.2551851851851851],[0.05916666666666662,0.29666666666666675],[0.10395833333333329,0.3603703703703704],[0.10395833333333329,0.3603703703703704],[0.11822916666666666,0.3562962962962963],[0.1178124999999999,0.29685185185185176],[0.11281249999999995,0.2324074074074074],[0.1271874999999999,0.21962962962962967],[0.12156250000000005,0.1735185185185186],[0.10677083333333333,0.14055555555555552],[0.075,0.10851851851851856],[0.051145833333333356,0.09870370370370361],[0.03187500000000002,0.07314814814814814],[0.008229166666666643,0.0485185185185186],[0.02052083333333338,0.12925925925925918],[0.0018749999999999527,0.15240740740740732],[-0.04052083333333331,0.27018518518518514],[-0.060000000000000026,0.32111111111111107],[-0.08354166666666671,0.40037037037037043],[-0.08020833333333334,0.4111111111111111],[-0.071875,0.4346296296296297],[-0.0655208333333333,0.4403703703703703],[-0.06833333333333336,0.4403703703703703],[-0.09135416666666671,0.4579629629629629],[-0.12385416666666664,0.4],[-0.10645833333333338,0.4046296296296296],[-0.06333333333333328,0.32444444444444454],[-0.0640625,0.30462962962962964],[-0.07322916666666662,0.23481481481481473],[-0.12093750000000002,0.20555555555555555],[-0.13489583333333333,0.19666666666666674],[-0.14093749999999997,0.20092592592592592],[-0.14375,0.15999999999999995],[-0.12291666666666666,0.11518518518518527],[-0.09510416666666661,0.07518518518518523],[-0.09791666666666667,0.045740740740740825],[-0.10249999999999998,-0.010925925925925884],[-0.06062500000000005,-0.05870370370370368],[-0.06062500000000005,-0.05870370370370368],[-0.04458333333333329,-0.08592592592592588],[0.006562499999999953,-0.09000000000000004],[0.029166666666666667,-0.13351851851851856],[0.04593750000000003,-0.15259259259259256],[0.058229166666666644,-0.15351851851851847],[0.05572916666666667,-0.167037037037037],[0.01895833333333338,-0.18425925925925926],[0.006562499999999953,-0.18518518518518517],[0.007604166666666619,-0.18074074074074079],[-0.002916666666666619,-0.2103703703703704],[-0.002291666666666714,-0.18611111111111112],[-0.02510416666666669,-0.15703703703703706],[-0.004062499999999977,-0.12629629629629627],[0.000416666666666643,-0.11148148148148146],[0.005937500000000048,-0.07611111111111116],[0.02510416666666669,-0.039074074074074115],[0.06302083333333333,-0.008333333333333333],[0.09385416666666657,0.006111111111111027],[0.07718749999999991,0.02907407407407416],[0.08677083333333328,0.03296296296296288],[0.11593749999999996,-0.005000000000000084],[0.1428124999999999,-0.030000000000000086],[0.13322916666666676,-0.027037037037037078],[0.14249999999999996,-0.032037037037036954],[0.1616666666666667,-0.052037037037037076],[0.17354166666666657,-0.04518518518518514],[0.1820833333333333,-0.03129629629629625],[0.1820833333333333,-0.03129629629629625],[0.1384375000000001,-0.0338888888888888],[0.1384375000000001,-0.0338888888888888],[0.14343750000000005,-0.01703703703703712],[0.11395833333333343,0.008333333333333333],[0.1046875,0.015000000000000043],[0.0859375,0.010370370370370412],[0.08802083333333334,0.002407407407407323],[0.07447916666666667,-0.009629629629629714],[0.05249999999999998,-0.01314814814814819],[0.03958333333333333,-0.050370370370370454],[0.03250000000000005,-0.06833333333333329],[0.07114583333333328,-0.06592592592592597],[0.07770833333333324,-0.08518518518518518],[0.06822916666666666,-0.09851851851851849],[0.06927083333333334,-0.09296296296296294],[0.09302083333333329,-0.08333333333333333],[0.08927083333333338,-0.09537037037037037],[0.10718750000000009,-0.09759259259259258],[0.12750000000000009,-0.09000000000000004],[0.14260416666666675,-0.10055555555555558],[0.16333333333333327,-0.0933333333333333],[0.1712500000000001,-0.09370370370370375],[0.19645833333333323,-0.0883333333333333],[0.2289583333333333,-0.09611111111111106],[0.2341666666666666,-0.056851851851851834],[0.23572916666666663,-0.025185185185185227],[0.23572916666666663,-0.025185185185185227],[0.24364583333333342,0.005000000000000084],[0.24364583333333342,0.005000000000000084],[0.17687499999999995,0.012962962962962963],[0.15885416666666666,0.01796296296296305],[0.11500000000000009,0.012592592592592508],[0.08291666666666657,0.01703703703703712],[0.05291666666666662,0.027407407407407325],[0.02645833333333331,0.027407407407407325],[0.008645833333333287,0.03537037037037041],[-0.000416666666666643,-0.028518518518518478],[-0.019479166666666714,-0.08981481481481482],[-0.018124999999999978,-0.1559259259259259],[0.0014583333333333095,-0.1648148148148148],[-0.003958333333333286,-0.17962962962962964],[-0.004062499999999977,-0.1764814814814815],[-0.000416666666666643,-0.2111111111111111],[0.007083333333333286,-0.2227777777777778],[0.014583333333333334,-0.2264814814814815],[0.010416666666666666,-0.2324074074074074],[-0.0012500000000000473,-0.21944444444444444],[-0.0012500000000000473,-0.21944444444444444],[-0.020624999999999952,-0.2096296296296296],[-0.04833333333333331,-0.1551851851851852],[-0.03583333333333331,-0.17851851851851847],[-0.03583333333333331,-0.17851851851851847],[-0.035208333333333286,-0.20037037037037034],[-0.035208333333333286,-0.20037037037037034],[-0.02312500000000005,-0.207962962962963],[-0.029791666666666692,-0.1911111111111111],[-0.03802083333333333,-0.20092592592592592],[-0.0704166666666667,-0.19444444444444445],[-0.06364583333333336,-0.22370370370370374],[-0.06364583333333336,-0.22370370370370374],[-0.06062500000000005,-0.2477777777777778],[-0.06062500000000005,-0.2477777777777778],[-0.04916666666666671,-0.23703703703703705],[-0.033854166666666664,-0.2822222222222222],[-0.027187500000000024,-0.2824074074074074],[-0.04770833333333328,-0.27018518518518514],[-0.05572916666666667,-0.2548148148148149],[-0.04812500000000005,-0.25259259259259254],[-0.03250000000000005,-0.26185185185185184],[-0.008541666666666715,-0.28351851851851856],[0.0034374999999999527,-0.2803703703703703],[-0.009062500000000048,-0.2448148148148148],[-0.003541666666666643,-0.2855555555555555],[-0.003541666666666643,-0.2855555555555555],[-0.0015625,-0.26944444444444443],[-0.022083333333333382,-0.28111111111111114],[-0.022083333333333382,-0.28111111111111114],[0.003854166666666714,-0.28833333333333333],[0.03135416666666669,-0.3020370370370371],[0.010625000000000048,-0.3594444444444445],[-0.0002083333333333807,-0.4101851851851852],[0.02052083333333338,-0.46351851851851855],[0.022291666666666644,-0.4655555555555555],[0.022291666666666644,-0.4655555555555555],[0.05239583333333329,-0.5029629629629631],[0.06583333333333338,-0.47907407407407404],[0.06583333333333338,-0.47907407407407404],[0.08239583333333324,-0.5033333333333333],[0.08239583333333324,-0.5033333333333333],[0.06802083333333328,-0.46407407407407414],[0.06802083333333328,-0.46407407407407414],[0.11593749999999996,-0.43425925925925923],[0.11593749999999996,-0.43425925925925923],[0.15239583333333329,-0.415925925925926],[0.15239583333333329,-0.415925925925926],[0.2007291666666667,-0.35833333333333334],[0.2007291666666667,-0.35833333333333334],[0.2634375000000001,-0.31870370370370377],[0.3051041666666668,-0.27685185185185185],[0.31906249999999997,-0.2887037037037037],[0.3307291666666667,-0.2948148148148148],[0.33531250000000007,-0.32518518518518524],[0.3240624999999999,-0.24407407407407408],[0.3519791666666668,-0.21185185185185182],[0.31145833333333334,-0.20425925925925928],[0.26541666666666663,-0.1581481481481481],[0.26541666666666663,-0.1581481481481481],[0.221875,-0.1977777777777778],[0.22229166666666675,-0.19537037037037036],[0.16593749999999996,-0.20629629629629626],[0.1408333333333334,-0.20166666666666663],[0.10958333333333338,-0.20388888888888893],[0.08895833333333343,-0.18462962962962962],[0.11177083333333329,-0.23259259259259263],[0.13635416666666675,-0.247037037037037],[0.1404166666666666,-0.2722222222222222],[0.1837500000000001,-0.33259259259259266],[0.2256249999999999,-0.32888888888888895],[0.18895833333333342,-0.34074074074074073],[0.18895833333333342,-0.34074074074074073],[0.19583333333333333,-0.3229629629629629],[0.19583333333333333,-0.3229629629629629],[0.2428124999999999,-0.3072222222222222],[0.2934375000000001,-0.2868518518518518],[0.3662499999999999,-0.29240740740740734],[0.40562500000000007,-0.3264814814814815],[0.4088541666666667,-0.357962962962963],[0.4193749999999999,-0.3690740740740741],[0.41739583333333335,-0.37240740740740746],[0.4357291666666666,-0.3566666666666667],[0.4357291666666666,-0.3566666666666667],[0.44729166666666675,-0.35759259259259263],[0.46687500000000004,-0.35759259259259263],[0.4430208333333333,-0.3542592592592593],[0.42864583333333334,-0.3507407407407407],[0.39385416666666656,-0.3296296296296296],[0.3611458333333334,-0.30333333333333334],[0.37770833333333326,-0.3405555555555555],[0.39375,-0.3707407407407407],[0.39260416666666675,-0.382962962962963],[0.3932291666666667,-0.39296296296296296],[0.3950000000000001,-0.3701851851851851],[0.41510416666666666,-0.372037037037037],[0.41510416666666666,-0.372037037037037],[0.4025000000000001,-0.3557407407407408],[0.40687499999999993,-0.36518518518518517],[0.4099999999999999,-0.3712962962962963],[0.4243750000000001,-0.40129629629629626],[0.4258333333333333,-0.3562962962962963],[0.42781250000000004,-0.3183333333333333],[0.42781250000000004,-0.3183333333333333],[0.42333333333333345,-0.29388888888888887],[0.4150000000000001,-0.2753703703703704],[0.39895833333333336,-0.2764814814814815],[0.33229166666666665,-0.2524074074074074],[0.3015625,-0.2477777777777778],[0.3015625,-0.2477777777777778],[0.20364583333333333,-0.17462962962962966],[0.12770833333333323,-0.1427777777777778],[0.019479166666666714,-0.0809259259259259],[-0.06802083333333328,-0.004074074074074159],[-0.11989583333333335,0.01777777777777782],[-0.1594791666666667,0.04203703703703712],[-0.1955208333333334,0.055740740740740785],[-0.2508333333333333,0.08944444444444435],[-0.20989583333333334,0.09462962962962967],[-0.19260416666666663,0.10500000000000008],[-0.10114583333333335,0.042407407407407366],[-0.035104166666666714,0.011481481481481566],[0.06395833333333331,-0.0448148148148149],[0.15458333333333343,-0.15055555555555558],[0.18583333333333343,-0.147037037037037],[0.22291666666666668,-0.19425925925925921],[0.25458333333333344,-0.1809259259259259],[0.33052083333333326,-0.21500000000000005],[0.3494791666666667,-0.23944444444444446],[0.3494791666666667,-0.23944444444444446],[0.37770833333333326,-0.27870370370370373],[0.3763541666666666,-0.27999999999999997],[0.3763541666666666,-0.27999999999999997],[0.3754166666666668,-0.2927777777777778],[0.3754166666666668,-0.2927777777777778],[0.3551041666666668,-0.28722222222222227],[0.3551041666666668,-0.28722222222222227],[0.3289583333333333,-0.2946296296296297],[0.32687499999999997,-0.33666666666666667],[0.32666666666666655,-0.33185185185185184],[0.30791666666666656,-0.37351851851851847],[0.27937500000000004,-0.3896296296296296],[0.2564583333333334,-0.3992592592592593],[0.25104166666666666,-0.39388888888888884],[0.23645833333333333,-0.4166666666666667],[0.23322916666666677,-0.4368518518518518],[0.22906250000000009,-0.4281481481481481],[0.2415625000000001,-0.41888888888888887],[0.2365624999999999,-0.42407407407407405],[0.20499999999999996,-0.42777777777777776],[0.19364583333333343,-0.43333333333333335],[0.18708333333333324,-0.4348148148148148],[0.1984375,-0.44814814814814813],[0.2055208333333333,-0.4727777777777778],[0.221875,-0.48148148148148145],[0.22197916666666656,-0.46037037037037043],[0.21375000000000005,-0.49444444444444446],[0.225,-0.51],[0.24385416666666657,-0.5188888888888888],[0.2752083333333334,-0.5161111111111111],[0.2964583333333332,-0.5120370370370371],[0.32312500000000005,-0.4987037037037037],[0.328125,-0.49314814814814817],[0.3342708333333334,-0.4816666666666667],[0.3342708333333334,-0.4816666666666667],[0.33781249999999996,-0.4474074074074075],[0.3337500000000001,-0.4498148148148148],[0.3318749999999999,-0.4309259259259259],[0.31312499999999993,-0.39388888888888884],[0.31375000000000003,-0.38981481481481484],[0.32447916666666665,-0.4142592592592592],[0.32447916666666665,-0.4142592592592592],[0.3195833333333333,-0.4198148148148148],[0.30322916666666655,-0.42592592592592593],[0.30322916666666655,-0.42592592592592593],[0.29802083333333323,-0.45759259259259266],[0.29802083333333323,-0.45759259259259266],[0.2920833333333334,-0.4431481481481482],[0.2920833333333334,-0.4431481481481482],[0.2920833333333334,-0.46888888888888886],[0.27374999999999994,-0.4487037037037037],[0.25979166666666675,-0.45851851851851855],[0.25979166666666675,-0.45851851851851855],[0.2556250000000001,-0.492037037037037],[0.2443749999999999,-0.5066666666666667],[0.2256249999999999,-0.5098148148148148],[0.22552083333333334,-0.48944444444444446],[0.23052083333333329,-0.47259259259259256],[0.20958333333333337,-0.45129629629629625],[0.19677083333333342,-0.4727777777777778],[0.1712500000000001,-0.4577777777777778],[0.17614583333333325,-0.4729629629629629],[0.17614583333333325,-0.4729629629629629],[0.19479166666666667,-0.45851851851851855],[0.17062499999999994,-0.42185185185185187],[0.1508333333333333,-0.3738888888888888],[0.1408333333333334,-0.32314814814814813],[0.1306250000000001,-0.28129629629629627],[0.10583333333333324,-0.2577777777777778],[0.08854166666666667,-0.202962962962963],[0.051874999999999956,-0.10499999999999998],[0.051874999999999956,-0.10499999999999998],[0.03760416666666669,-0.022777777777777692],[0.042708333333333334,-0.000925925925925926],[0.04552083333333338,0.019999999999999917],[0.06791666666666671,0.018148148148148063],[0.08291666666666657,-0.0025925925925925505],[0.08291666666666657,-0.0025925925925925505],[0.09333333333333324,-0.017407407407407365],[0.09333333333333324,-0.017407407407407365],[0.11239583333333343,-0.05814814814814811],[0.11239583333333343,-0.05814814814814811],[0.1408333333333334,-0.08777777777777773],[0.1408333333333334,-0.08777777777777773],[0.17760416666666667,-0.11796296296296294],[0.17760416666666667,-0.11796296296296294],[0.23687500000000009,-0.17481481481481478],[0.23687500000000009,-0.17481481481481478],[0.2882291666666667,-0.28851851851851856],[0.31916666666666677,-0.31425925925925924],[0.33093750000000005,-0.33370370370370367],[0.33093750000000005,-0.33370370370370367],[0.3631249999999999,-0.3622222222222223],[0.3631249999999999,-0.3622222222222223],[0.41989583333333325,-0.40907407407407403],[0.45822916666666674,-0.4311111111111111],[0.49166666666666664,-0.44962962962962966]]","[[-0.31447916666666664,0.06518518518518526,0.0001999998092614419],[-0.31447916666666664,0.06518518518518526,0.0494000000953676],[-0.2663541666666667,0.11074074074074065,0.060000000000002274],[-0.2296875,0.1337037037037038,0.07699999999999818],[-0.1875,0.13333333333333333,0.09319999980926497],[-0.15677083333333333,0.13407407407407404,0.10999999999999943],[-0.1889583333333333,0.13185185185185194,0.12650000000000006],[-0.19781249999999997,0.16314814814814818,0.14630000019073464],[-0.19781249999999997,0.16314814814814818,0.15990000009536942],[-0.21354166666666666,0.14814814814814814,0.17719999980926815],[-0.2485416666666667,0.1198148148148149,0.19680000019073418],[-0.2673958333333334,0.09611111111111106,0.20990000009536658],[-0.2747916666666666,0.10962962962962972,0.22650000000000148],[-0.23072916666666668,0.14037037037037028,0.24319999980926355],[-0.22166666666666662,0.13296296296296287,0.25990000009536374],[-0.24010416666666667,0.10777777777777786,0.2765999999046329],[-0.2326041666666666,0.10537037037037032,0.2931999998092678],[-0.21229166666666663,0.11166666666666658,0.309900000095368],[-0.20510416666666664,0.0787037037037037,0.3299999999999983],[-0.16395833333333332,0.09574074074074082,0.3440000000000012],[-0.12093750000000002,0.13037037037037033,0.35999999999999943],[-0.08812500000000002,0.13796296296296295,0.37650000000000006],[-0.08718750000000004,0.1259259259259259,0.3931999998092621],[-0.08135416666666669,0.10740740740740741,0.40980000019073515],[-0.029062499999999977,0.14962962962962956,0.4265999999046315],[0.03104166666666662,0.22592592592592592,0.4465999999046346],[0.051874999999999956,0.25018518518518523,0.4603000001907347],[0.051874999999999956,0.25018518518518523,0.4766999998092629],[0.08020833333333334,0.27074074074074084,0.49330000019073594],[0.07062499999999995,0.29907407407407405,0.5098000001907366],[0.05479166666666669,0.2712962962962963,0.5350999999046309],[0.05479166666666669,0.2712962962962963,0.5433000001907331],[0.024062500000000025,0.2175925925925926,0.5600000000000023],[0.024062500000000025,0.2175925925925926,0.5765999999046301],[0.010625000000000048,0.21370370370370367,0.5975999999046309],[0.010625000000000048,0.21370370370370367,0.6100999999046337],[0.0234375,0.24740740740740744,0.6268000001907339],[0.0234375,0.24740740740740744,0.6433000001907345],[0.013437499999999976,0.26444444444444437,0.6643000001907353],[0.013437499999999976,0.26444444444444437,0.6766999998092658],[-0.021562500000000047,0.2712962962962963,0.693400000095366],[-0.021562500000000047,0.2712962962962963,0.7100000000000009],[-0.03677083333333329,0.26648148148148143,0.7309000000953674],[-0.018020833333333285,0.2766666666666666,0.7464000000953703],[-0.011458333333333333,0.2800000000000001,0.7620999999046347],[0.03135416666666669,0.2551851851851851,0.7794999999999987],[0.03135416666666669,0.2551851851851851,0.7933000001907331],[0.05916666666666662,0.29666666666666675,0.8100999999046294],[0.10395833333333329,0.3603703703703704,0.832099999904635],[0.10395833333333329,0.3603703703703704,0.8433000001907374],[0.11822916666666666,0.3562962962962963,0.8600999999046337],[0.1178124999999999,0.29685185185185176,0.8773000001907363],[0.11281249999999995,0.2324074074074074,0.8964999999999961],[0.1271874999999999,0.21962962962962967,0.9125999999046286],[0.12156250000000005,0.1735185185185186,0.9309000000953702],[0.10677083333333333,0.14055555555555552,0.9476999998092666],[0.075,0.10851851851851856,0.9626999998092671],[0.051145833333333356,0.09870370370370361,0.9765000000000015],[0.03187500000000002,0.07314814814814814,0.9934999999999974],[0.008229166666666643,0.0485185185185186,1.0098000001907366],[0.02052083333333338,0.12925925925925918,1.0300000000000011],[0.0018749999999999527,0.15240740740740732,1.0456999998092655],[-0.04052083333333331,0.27018518518518514,1.0600999999046294],[-0.060000000000000026,0.32111111111111107,1.0766999998092643],[-0.08354166666666671,0.40037037037037043,1.095800000190735],[-0.08020833333333334,0.4111111111111111,1.1099999999999994],[-0.071875,0.4346296296296297,1.126800000190734],[-0.0655208333333333,0.4403703703703703,1.146099999904635],[-0.06833333333333336,0.4403703703703703,1.160900000095367],[-0.09135416666666671,0.4579629629629629,1.1769000000953653],[-0.12385416666666664,0.4,1.1961999998092665],[-0.10645833333333338,0.4046296296296296,1.2103000001907347],[-0.06333333333333328,0.32444444444444454,1.226699999809263],[-0.0640625,0.30462962962962964,1.2460999999046294],[-0.07322916666666662,0.23481481481481473,1.262199999809262],[-0.12093750000000002,0.20555555555555555,1.2766999998092672],[-0.13489583333333333,0.19666666666666674,1.2960999999046336],[-0.14093749999999997,0.20092592592592592,1.3100999999046294],[-0.14375,0.15999999999999995,1.3268000001907367],[-0.12291666666666666,0.11518518518518527,1.3466999998092675],[-0.09510416666666661,0.07518518518518523,1.363599999904629],[-0.09791666666666667,0.045740740740740825,1.3791999998092663],[-0.10249999999999998,-0.010925925925925884,1.3931999998092621],[-0.06062500000000005,-0.05870370370370368,1.4104000000953647],[-0.06062500000000005,-0.05870370370370368,1.4265999999046315],[-0.04458333333333329,-0.08592592592592588,1.4430999999046321],[0.006562499999999953,-0.09000000000000004,1.4618000001907347],[0.029166666666666667,-0.13351851851851856,1.4799000000953697],[0.04593750000000003,-0.15259259259259256,1.4976999998092637],[0.058229166666666644,-0.15351851851851847,1.5149000000953663],[0.05572916666666667,-0.167037037037037,1.531400000095367],[0.01895833333333338,-0.18425925925925926,1.5469000000953699],[0.006562499999999953,-0.18518518518518517,1.5624000000953657],[0.007604166666666619,-0.18074074074074079,1.5793000001907345],[-0.002916666666666619,-0.2103703703703704,1.595800000190735],[-0.002291666666666714,-0.18611111111111112,1.6099999999999994],[-0.02510416666666669,-0.15703703703703706,1.6265],[-0.004062499999999977,-0.12629629629629627,1.6434000000953688],[0.000416666666666643,-0.11148148148148146,1.6598000001907351],[0.005937500000000048,-0.07611111111111116,1.6764999999999972],[0.02510416666666669,-0.039074074074074115,1.697499999999998],[0.06302083333333333,-0.008333333333333333,1.7123000001907371],[0.09385416666666657,0.006111111111111027,1.7284000000953696],[0.07718749999999991,0.02907407407407416,1.7430999999046293],[0.08677083333333328,0.03296296296296288,1.7598000001907366],[0.11593749999999996,-0.005000000000000084,1.7764999999999986],[0.1428124999999999,-0.030000000000000086,1.7930999999046335],[0.13322916666666676,-0.027037037037037078,1.809900000095368],[0.14249999999999996,-0.032037037037036954,1.8284999999999982],[0.1616666666666667,-0.052037037037037076,1.8436999998092674],[0.17354166666666657,-0.04518518518518514,1.8599999999999994],[0.1820833333333333,-0.03129629629629625,1.8838000001907318],[0.1820833333333333,-0.03129629629629625,1.8944000000953665],[0.1384375000000001,-0.0338888888888888,1.9185000000000016],[0.1384375000000001,-0.0338888888888888,1.9278000001907358],[0.14343750000000005,-0.01703703703703712,1.9431999998092664],[0.11395833333333343,0.008333333333333333,1.9598000001907323],[0.1046875,0.015000000000000043,1.9801999998092654],[0.0859375,0.010370370370370412,1.9954999999999998],[0.08802083333333334,0.002407407407407323,2.0105999999046347],[0.07447916666666667,-0.009629629629629714,2.0264999999999986],[0.05249999999999998,-0.01314814814814819,2.0430999999046335],[0.03958333333333333,-0.050370370370370454,2.0598000001907337],[0.03250000000000005,-0.06833333333333329,2.076500000000003],[0.07114583333333328,-0.06592592592592597,2.093199999809265],[0.07770833333333324,-0.08518518518518518,2.109800000190731],[0.06822916666666666,-0.09851851851851849,2.1265],[0.06927083333333334,-0.09296296296296294,2.1458000001907322],[0.09302083333333329,-0.08333333333333333,2.1605999999046333],[0.08927083333333338,-0.09537037037037037,2.1774000000953677],[0.10718750000000009,-0.09759259259259258,2.194199999809264],[0.12750000000000009,-0.09000000000000004,2.210099999904635],[0.14260416666666675,-0.10055555555555558,2.2265000000000015],[0.16333333333333327,-0.0933333333333333,2.2435999999046317],[0.1712500000000001,-0.09370370370370375,2.259999999999998],[0.19645833333333323,-0.0883333333333333,2.2764999999999986],[0.2289583333333333,-0.09611111111111106,2.293199999809268],[0.2341666666666666,-0.056851851851851834,2.309900000095368],[0.23572916666666663,-0.025185185185185227,2.3430999999046307],[0.23572916666666663,-0.025185185185185227,2.3519000000953696],[0.24364583333333342,0.005000000000000084,2.3684999999999974],[0.24364583333333342,0.005000000000000084,2.3765999999046343],[0.17687499999999995,0.012962962962962963,2.393400000095369],[0.15885416666666666,0.01796296296296305,2.4099999999999966],[0.11500000000000009,0.012592592592592508,2.4305999999046293],[0.08291666666666657,0.01703703703703712,2.445999999999998],[0.05291666666666662,0.027407407407407325,2.460000000000001],[0.02645833333333331,0.027407407407407325,2.476699999809263],[0.008645833333333287,0.03537037037037041,2.497099999904634],[-0.000416666666666643,-0.028518518518518478,2.5105999999046347],[-0.019479166666666714,-0.08981481481481482,2.526699999809267],[-0.018124999999999978,-0.1559259259259259,2.5465000000000018],[0.0014583333333333095,-0.1648148148148148,2.5600000000000023],[-0.003958333333333286,-0.17962962962962964,2.576500000000003],[-0.004062499999999977,-0.1764814814814815,2.5956999998092627],[-0.000416666666666643,-0.2111111111111111,2.609800000190731],[0.007083333333333286,-0.2227777777777778,2.6265999999046343],[0.014583333333333334,-0.2264814814814815,2.646400000095369],[0.010416666666666666,-0.2324074074074074,2.6606999998092675],[-0.0012500000000000473,-0.21944444444444444,2.676499999999997],[-0.0012500000000000473,-0.21944444444444444,2.693099999904632],[-0.020624999999999952,-0.2096296296296296,2.7098000001907323],[-0.04833333333333331,-0.1551851851851852,2.730300000190738],[-0.03583333333333331,-0.17851851851851847,2.7435999999046317],[-0.03583333333333331,-0.17851851851851847,2.759999999999998],[-0.035208333333333286,-0.20037037037037034,2.7768000001907325],[-0.035208333333333286,-0.20037037037037034,2.798800000190731],[-0.02312500000000005,-0.207962962962963,2.809900000095368],[-0.029791666666666692,-0.1911111111111111,2.8266999998092643],[-0.03802083333333333,-0.20092592592592592,2.8436999998092674],[-0.0704166666666667,-0.19444444444444445,2.859800000190731],[-0.06364583333333336,-0.22370370370370374,2.8766999998092615],[-0.06364583333333336,-0.22370370370370374,2.893199999809262],[-0.06062500000000005,-0.2477777777777778,2.9099000000953694],[-0.06062500000000005,-0.2477777777777778,2.927099999904634],[-0.04916666666666671,-0.23703703703703705,2.9431999998092664],[-0.033854166666666664,-0.2822222222222222,2.959699999809267],[-0.027187500000000024,-0.2824074074074074,2.9804999999999993],[-0.04770833333333328,-0.27018518518518514,2.995900000095368],[-0.05572916666666667,-0.2548148148148149,3.009999999999998],[-0.04812500000000005,-0.25259259259259254,3.031500000000001],[-0.03250000000000005,-0.26185185185185184,3.0464000000953675],[-0.008541666666666715,-0.28351851851851856,3.0600000000000023],[0.0034374999999999527,-0.2803703703703703,3.0766999998092643],[-0.009062500000000048,-0.2448148148148148,3.0963000001907375],[-0.003541666666666643,-0.2855555555555555,3.1099999999999994],[-0.003541666666666643,-0.2855555555555555,3.126800000190734],[-0.0015625,-0.26944444444444443,3.1433000001907345],[-0.022083333333333382,-0.28111111111111114,3.163900000095367],[-0.022083333333333382,-0.28111111111111114,3.1765999999046315],[0.003854166666666714,-0.28833333333333333,3.193400000095366],[0.03135416666666669,-0.3020370370370371,3.2124999999999986],[0.010625000000000048,-0.3594444444444445,3.226699999809263],[-0.0002083333333333807,-0.4101851851851852,3.2461999998092637],[0.02052083333333338,-0.46351851851851855,3.259999999999998],[0.022291666666666644,-0.4655555555555555,3.2819000000953693],[0.022291666666666644,-0.4655555555555555,3.293300000190733],[0.05239583333333329,-0.5029629629629631,3.3100000000000023],[0.06583333333333338,-0.47907407407407404,3.3371999998092647],[0.06583333333333338,-0.47907407407407404,3.3463000001907375],[0.08239583333333324,-0.5033333333333333,3.359800000190731],[0.08239583333333324,-0.5033333333333333,3.376800000190734],[0.06802083333333328,-0.46407407407407414,3.399099999904635],[0.06802083333333328,-0.46407407407407414,3.409800000190735],[0.11593749999999996,-0.43425925925925923,3.426499999999997],[0.11593749999999996,-0.43425925925925923,3.443099999904632],[0.15239583333333329,-0.415925925925926,3.459699999809267],[0.15239583333333329,-0.415925925925926,3.4765000000000015],[0.2007291666666667,-0.35833333333333334,3.4931999998092635],[0.2007291666666667,-0.35833333333333334,3.5099000000953637],[0.2634375000000001,-0.31870370370370377,3.526599999904633],[0.3051041666666668,-0.27685185185185185,3.5468000001907356],[0.31906249999999997,-0.2887037037037037,3.562800000190734],[0.3307291666666667,-0.2948148148148148,3.577300000190732],[0.33531250000000007,-0.32518518518518524,3.5934000000953645],[0.3240624999999999,-0.24407407407407408,3.609900000095365],[0.3519791666666668,-0.21185185185185182,3.6265],[0.31145833333333334,-0.20425925925925928,3.6436999998092645],[0.26541666666666663,-0.1581481481481481,3.6621999998092676],[0.26541666666666663,-0.1581481481481481,3.67640000009537],[0.221875,-0.1977777777777778,3.6931999998092664],[0.22229166666666675,-0.19537037037037036,3.711999999999996],[0.16593749999999996,-0.20629629629629626,3.7275999999046334],[0.1408333333333334,-0.20166666666666663,3.7434999999999974],[0.10958333333333338,-0.20388888888888893,3.760699999809262],[0.08895833333333343,-0.18462962962962962,3.7764999999999986],[0.11177083333333329,-0.23259259259259263,3.7938000001907355],[0.13635416666666675,-0.247037037037037,3.8096999998092613],[0.1404166666666666,-0.2722222222222222,3.826500000000003],[0.1837500000000001,-0.33259259259259266,3.8430999999046307],[0.2256249999999999,-0.32888888888888895,3.86090000009537],[0.18895833333333342,-0.34074074074074073,3.8774000000953635],[0.18895833333333342,-0.34074074074074073,3.893099999904635],[0.19583333333333333,-0.3229629629629629,3.9146999998092653],[0.19583333333333333,-0.3229629629629629,3.9273000001907334],[0.2428124999999999,-0.3072222222222222,3.9431999998092664],[0.2934375000000001,-0.2868518518518518,3.9598000001907323],[0.3662499999999999,-0.29240740740740734,3.976400000095367],[0.40562500000000007,-0.3264814814814815,3.9935999999046317],[0.4088541666666667,-0.357962962962963,4.009800000190737],[0.4193749999999999,-0.3690740740740741,4.028400000095367],[0.41739583333333335,-0.37240740740740746,4.04540000009537],[0.4357291666666666,-0.3566666666666667,4.072699999809267],[0.4357291666666666,-0.3566666666666667,4.079099999904635],[0.44729166666666675,-0.35759259259259263,4.093199999809265],[0.46687500000000004,-0.35759259259259263,4.112499999999997],[0.4430208333333333,-0.3542592592592593,4.129800000190734],[0.42864583333333334,-0.3507407407407407,4.145599999904633],[0.39385416666666656,-0.3296296296296296,4.1606999998092675],[0.3611458333333334,-0.30333333333333334,4.177099999904634],[0.37770833333333326,-0.3405555555555555,4.193400000095366],[0.39375,-0.3707407407407407,4.210199999809262],[0.39260416666666675,-0.382962962962963,4.22840000009537],[0.3932291666666667,-0.39296296296296296,4.243099999904629],[0.3950000000000001,-0.3701851851851851,4.259800000190737],[0.41510416666666666,-0.372037037037037,4.276499999999999],[0.41510416666666666,-0.372037037037037,4.293199999809268],[0.4025000000000001,-0.3557407407407408,4.309699999809261],[0.40687499999999993,-0.36518518518518517,4.328499999999998],[0.4099999999999999,-0.3712962962962963,4.345300000190733],[0.4243750000000001,-0.40129629629629626,4.359900000095365],[0.4258333333333333,-0.3562962962962963,4.376800000190734],[0.42781250000000004,-0.3183333333333333,4.403199999809267],[0.42781250000000004,-0.3183333333333333,4.410199999809265],[0.42333333333333345,-0.29388888888888887,4.426499999999997],[0.4150000000000001,-0.2753703703703704,4.443199999809266],[0.39895833333333336,-0.2764814814814815,4.459800000190732],[0.33229166666666665,-0.2524074074074074,4.478599999904631],[0.3015625,-0.2477777777777778,4.4931999998092635],[0.3015625,-0.2477777777777778,4.510300000190732],[0.20364583333333333,-0.17462962962962966,4.526499999999999],[0.12770833333333323,-0.1427777777777778,4.547400000095365],[0.019479166666666714,-0.0809259259259259,4.562599999904634],[-0.06802083333333328,-0.004074074074074159,4.576500000000003],[-0.11989583333333335,0.01777777777777782,4.593599999904633],[-0.1594791666666667,0.04203703703703712,4.609800000190731],[-0.1955208333333334,0.055740740740740785,4.627699999809266],[-0.2508333333333333,0.08944444444444435,4.647099999904633],[-0.20989583333333334,0.09462962962962967,4.663300000190738],[-0.19260416666666663,0.10500000000000008,4.677],[-0.10114583333333335,0.042407407407407366,4.693300000190732],[-0.035104166666666714,0.011481481481481566,4.712499999999999],[0.06395833333333331,-0.0448148148148149,4.728999999999999],[0.15458333333333343,-0.15055555555555558,4.743800000190731],[0.18583333333333343,-0.147037037037037,4.759999999999998],[0.22291666666666668,-0.19425925925925921,4.779300000190737],[0.25458333333333344,-0.1809259259259259,4.793400000095367],[0.33052083333333326,-0.21500000000000005,4.809900000095368],[0.3494791666666667,-0.23944444444444446,4.834300000190737],[0.3494791666666667,-0.23944444444444446,4.843199999809265],[0.37770833333333326,-0.27870370370370373,4.860199999809268],[0.3763541666666666,-0.27999999999999997,4.883900000095366],[0.3763541666666666,-0.27999999999999997,4.896699999809265],[0.3754166666666668,-0.2927777777777778,4.910199999809265],[0.3754166666666668,-0.2927777777777778,4.9265999999046315],[0.3551041666666668,-0.28722222222222227,4.9546999998092645],[0.3551041666666668,-0.28722222222222227,4.962300000190737],[0.3289583333333333,-0.2946296296296297,4.97690000009537],[0.32687499999999997,-0.33666666666666667,4.9931999998092635],[0.32666666666666655,-0.33185185185185184,5.012900000095364],[0.30791666666666656,-0.37351851851851847,5.0286999998092625],[0.27937500000000004,-0.3896296296296296,5.043300000190733],[0.2564583333333334,-0.3992592592592593,5.060000000000002],[0.25104166666666666,-0.39388888888888884,5.079199999809262],[0.23645833333333333,-0.4166666666666667,5.0940999999046355],[0.23322916666666677,-0.4368518518518518,5.109999999999999],[0.22906250000000009,-0.4281481481481481,5.1318000001907365],[0.2415625000000001,-0.41888888888888887,5.146099999904635],[0.2365624999999999,-0.42407407407407405,5.159999999999997],[0.20499999999999996,-0.42777777777777776,5.176699999809266],[0.19364583333333343,-0.43333333333333335,5.196800000190734],[0.18708333333333324,-0.4348148148148148,5.211999999999996],[0.1984375,-0.44814814814814813,5.226699999809263],[0.2055208333333333,-0.4727777777777778,5.247099999904634],[0.221875,-0.48148148148148145,5.263699999809262],[0.22197916666666656,-0.46037037037037043,5.278900000095369],[0.21375000000000005,-0.49444444444444446,5.2930999999046335],[0.225,-0.51,5.309800000190734],[0.24385416666666657,-0.5188888888888888,5.329199999809262],[0.2752083333333334,-0.5161111111111111,5.346400000095365],[0.2964583333333332,-0.5120370370370371,5.362699999809266],[0.32312500000000005,-0.4987037037037037,5.377599999904632],[0.328125,-0.49314814814814817,5.396000000000001],[0.3342708333333334,-0.4816666666666667,5.417800000190738],[0.3342708333333334,-0.4816666666666667,5.42640000009537],[0.33781249999999996,-0.4474074074074075,5.443099999904632],[0.3337500000000001,-0.4498148148148148,5.462499999999999],[0.3318749999999999,-0.4309259259259259,5.477300000190738],[0.31312499999999993,-0.39388888888888884,5.496000000000002],[0.31375000000000003,-0.38981481481481484,5.509999999999998],[0.32447916666666665,-0.4142592592592592,5.5356999998092675],[0.32447916666666665,-0.4142592592592592,5.543199999809268],[0.3195833333333333,-0.4198148148148148,5.559800000190734],[0.30322916666666655,-0.42592592592592593,5.583099999904633],[0.30322916666666655,-0.42592592592592593,5.593199999809265],[0.29802083333333323,-0.45759259259259266,5.609800000190731],[0.29802083333333323,-0.45759259259259266,5.6265],[0.2920833333333334,-0.4431481481481482,5.643199999809262],[0.2920833333333334,-0.4431481481481482,5.659900000095369],[0.2920833333333334,-0.46888888888888886,5.6765999999046315],[0.27374999999999994,-0.4487037037037037,5.696599999904635],[0.25979166666666675,-0.45851851851851855,5.716800000190737],[0.25979166666666675,-0.45851851851851855,5.7265000000000015],[0.2556250000000001,-0.492037037037037,5.7431999998092635],[0.2443749999999999,-0.5066666666666667,5.762699999809264],[0.2256249999999999,-0.5098148148148148,5.777900000095364],[0.22552083333333334,-0.48944444444444446,5.795499999999997],[0.23052083333333329,-0.47259259259259256,5.813900000095366],[0.20958333333333337,-0.45129629629629625,5.831800000190732],[0.19677083333333342,-0.4727777777777778,5.848599999904636],[0.1712500000000001,-0.4577777777777778,5.863800000190736],[0.17614583333333325,-0.4729629629629629,5.881500000000003],[0.17614583333333325,-0.4729629629629629,5.8944000000953665],[0.19479166666666667,-0.45851851851851855,5.909800000190735],[0.17062499999999994,-0.42185185185185187,5.930800000190736],[0.1508333333333333,-0.3738888888888888,5.947300000190737],[0.1408333333333334,-0.32314814814814813,5.963000000000001],[0.1306250000000001,-0.28129629629629627,5.980300000190738],[0.10583333333333324,-0.2577777777777778,5.997500000000002],[0.08854166666666667,-0.202962962962963,6.01259999990463],[0.051874999999999956,-0.10499999999999998,6.031699999809263],[0.051874999999999956,-0.10499999999999998,6.0430999999046335],[0.03760416666666669,-0.022777777777777692,6.059900000095368],[0.042708333333333334,-0.000925925925925926,6.079199999809262],[0.04552083333333338,0.019999999999999917,6.098099999904633],[0.06791666666666671,0.018148148148148063,6.114300000190731],[0.08291666666666657,-0.0025925925925925505,6.137099999904635],[0.08291666666666657,-0.0025925925925925505,6.144300000190732],[0.09333333333333324,-0.017407407407407365,6.159800000190735],[0.09333333333333324,-0.017407407407407365,6.176499999999997],[0.11239583333333343,-0.05814814814814811,6.193300000190732],[0.11239583333333343,-0.05814814814814811,6.209800000190732],[0.1408333333333334,-0.08777777777777773,6.2265000000000015],[0.1408333333333334,-0.08777777777777773,6.243099999904629],[0.17760416666666667,-0.11796296296296294,6.259800000190737],[0.17760416666666667,-0.11796296296296294,6.276699999809267],[0.23687500000000009,-0.17481481481481478,6.298099999904629],[0.23687500000000009,-0.17481481481481478,6.309800000190734],[0.2882291666666667,-0.28851851851851856,6.326500000000003],[0.31916666666666677,-0.31425925925925924,6.343300000190737],[0.33093750000000005,-0.33370370370370367,6.362900000095365],[0.33093750000000005,-0.33370370370370367,6.38909999990463],[0.3631249999999999,-0.3622222222222223,6.404099999904631],[0.3631249999999999,-0.3622222222222223,6.413099999904631],[0.41989583333333325,-0.40907407407407403,6.426499999999997],[0.45822916666666674,-0.4311111111111111,6.443099999904632],[0.49166666666666664,-0.44962962962962966,6.459800000190732]]","[0.0001999998092614419,0.0494000000953676,0.060000000000002274,0.07699999999999818,0.09319999980926497,0.10999999999999943,0.12650000000000006,0.14630000019073464,0.15990000009536942,0.17719999980926815,0.19680000019073418,0.20990000009536658,0.22650000000000148,0.24319999980926355,0.25990000009536374,0.2765999999046329,0.2931999998092678,0.309900000095368,0.3299999999999983,0.3440000000000012,0.35999999999999943,0.37650000000000006,0.3931999998092621,0.40980000019073515,0.4265999999046315,0.4465999999046346,0.4603000001907347,0.4766999998092629,0.49330000019073594,0.5098000001907366,0.5350999999046309,0.5433000001907331,0.5600000000000023,0.5765999999046301,0.5975999999046309,0.6100999999046337,0.6268000001907339,0.6433000001907345,0.6643000001907353,0.6766999998092658,0.693400000095366,0.7100000000000009,0.7309000000953674,0.7464000000953703,0.7620999999046347,0.7794999999999987,0.7933000001907331,0.8100999999046294,0.832099999904635,0.8433000001907374,0.8600999999046337,0.8773000001907363,0.8964999999999961,0.9125999999046286,0.9309000000953702,0.9476999998092666,0.9626999998092671,0.9765000000000015,0.9934999999999974,1.0098000001907366,1.0300000000000011,1.0456999998092655,1.0600999999046294,1.0766999998092643,1.095800000190735,1.1099999999999994,1.126800000190734,1.146099999904635,1.160900000095367,1.1769000000953653,1.1961999998092665,1.2103000001907347,1.226699999809263,1.2460999999046294,1.262199999809262,1.2766999998092672,1.2960999999046336,1.3100999999046294,1.3268000001907367,1.3466999998092675,1.363599999904629,1.3791999998092663,1.3931999998092621,1.4104000000953647,1.4265999999046315,1.4430999999046321,1.4618000001907347,1.4799000000953697,1.4976999998092637,1.5149000000953663,1.531400000095367,1.5469000000953699,1.5624000000953657,1.5793000001907345,1.595800000190735,1.6099999999999994,1.6265,1.6434000000953688,1.6598000001907351,1.6764999999999972,1.697499999999998,1.7123000001907371,1.7284000000953696,1.7430999999046293,1.7598000001907366,1.7764999999999986,1.7930999999046335,1.809900000095368,1.8284999999999982,1.8436999998092674,1.8599999999999994,1.8838000001907318,1.8944000000953665,1.9185000000000016,1.9278000001907358,1.9431999998092664,1.9598000001907323,1.9801999998092654,1.9954999999999998,2.0105999999046347,2.0264999999999986,2.0430999999046335,2.0598000001907337,2.076500000000003,2.093199999809265,2.109800000190731,2.1265,2.1458000001907322,2.1605999999046333,2.1774000000953677,2.194199999809264,2.210099999904635,2.2265000000000015,2.2435999999046317,2.259999999999998,2.2764999999999986,2.293199999809268,2.309900000095368,2.3430999999046307,2.3519000000953696,2.3684999999999974,2.3765999999046343,2.393400000095369,2.4099999999999966,2.4305999999046293,2.445999999999998,2.460000000000001,2.476699999809263,2.497099999904634,2.5105999999046347,2.526699999809267,2.5465000000000018,2.5600000000000023,2.576500000000003,2.5956999998092627,2.609800000190731,2.6265999999046343,2.646400000095369,2.6606999998092675,2.676499999999997,2.693099999904632,2.7098000001907323,2.730300000190738,2.7435999999046317,2.759999999999998,2.7768000001907325,2.798800000190731,2.809900000095368,2.8266999998092643,2.8436999998092674,2.859800000190731,2.8766999998092615,2.893199999809262,2.9099000000953694,2.927099999904634,2.9431999998092664,2.959699999809267,2.9804999999999993,2.995900000095368,3.009999999999998,3.031500000000001,3.0464000000953675,3.0600000000000023,3.0766999998092643,3.0963000001907375,3.1099999999999994,3.126800000190734,3.1433000001907345,3.163900000095367,3.1765999999046315,3.193400000095366,3.2124999999999986,3.226699999809263,3.2461999998092637,3.259999999999998,3.2819000000953693,3.293300000190733,3.3100000000000023,3.3371999998092647,3.3463000001907375,3.359800000190731,3.376800000190734,3.399099999904635,3.409800000190735,3.426499999999997,3.443099999904632,3.459699999809267,3.4765000000000015,3.4931999998092635,3.5099000000953637,3.526599999904633,3.5468000001907356,3.562800000190734,3.577300000190732,3.5934000000953645,3.609900000095365,3.6265,3.6436999998092645,3.6621999998092676,3.67640000009537,3.6931999998092664,3.711999999999996,3.7275999999046334,3.7434999999999974,3.760699999809262,3.7764999999999986,3.7938000001907355,3.8096999998092613,3.826500000000003,3.8430999999046307,3.86090000009537,3.8774000000953635,3.893099999904635,3.9146999998092653,3.9273000001907334,3.9431999998092664,3.9598000001907323,3.976400000095367,3.9935999999046317,4.009800000190737,4.028400000095367,4.04540000009537,4.072699999809267,4.079099999904635,4.093199999809265,4.112499999999997,4.129800000190734,4.145599999904633,4.1606999998092675,4.177099999904634,4.193400000095366,4.210199999809262,4.22840000009537,4.243099999904629,4.259800000190737,4.276499999999999,4.293199999809268,4.309699999809261,4.328499999999998,4.345300000190733,4.359900000095365,4.376800000190734,4.403199999809267,4.410199999809265,4.426499999999997,4.443199999809266,4.459800000190732,4.478599999904631,4.4931999998092635,4.510300000190732,4.526499999999999,4.547400000095365,4.562599999904634,4.576500000000003,4.593599999904633,4.609800000190731,4.627699999809266,4.647099999904633,4.663300000190738,4.677,4.693300000190732,4.712499999999999,4.728999999999999,4.743800000190731,4.759999999999998,4.779300000190737,4.793400000095367,4.809900000095368,4.834300000190737,4.843199999809265,4.860199999809268,4.883900000095366,4.896699999809265,4.910199999809265,4.9265999999046315,4.9546999998092645,4.962300000190737,4.97690000009537,4.9931999998092635,5.012900000095364,5.0286999998092625,5.043300000190733,5.060000000000002,5.079199999809262,5.0940999999046355,5.109999999999999,5.1318000001907365,5.146099999904635,5.159999999999997,5.176699999809266,5.196800000190734,5.211999999999996,5.226699999809263,5.247099999904634,5.263699999809262,5.278900000095369,5.2930999999046335,5.309800000190734,5.329199999809262,5.346400000095365,5.362699999809266,5.377599999904632,5.396000000000001,5.417800000190738,5.42640000009537,5.443099999904632,5.462499999999999,5.477300000190738,5.496000000000002,5.509999999999998,5.5356999998092675,5.543199999809268,5.559800000190734,5.583099999904633,5.593199999809265,5.609800000190731,5.6265,5.643199999809262,5.659900000095369,5.6765999999046315,5.696599999904635,5.716800000190737,5.7265000000000015,5.7431999998092635,5.762699999809264,5.777900000095364,5.795499999999997,5.813900000095366,5.831800000190732,5.848599999904636,5.863800000190736,5.881500000000003,5.8944000000953665,5.909800000190735,5.930800000190736,5.947300000190737,5.963000000000001,5.980300000190738,5.997500000000002,6.01259999990463,6.031699999809263,6.0430999999046335,6.059900000095368,6.079199999809262,6.098099999904633,6.114300000190731,6.137099999904635,6.144300000190732,6.159800000190735,6.176499999999997,6.193300000190732,6.209800000190732,6.2265000000000015,6.243099999904629,6.259800000190737,6.276699999809267,6.298099999904629,6.309800000190734,6.326500000000003,6.343300000190737,6.362900000095365,6.38909999990463,6.404099999904631,6.413099999904631,6.426499999999997,6.443099999904632,6.459800000190732]","[1731918690015,1731918690055,1731918690066,1731918690083,1731918690099,1731918690116,1731918690132,1731918690152,1731918690166,1731918690183,1731918690203,1731918690216,1731918690233,1731918690249,1731918690266,1731918690283,1731918690299,1731918690316,1731918690336,1731918690350,1731918690366,1731918690383,1731918690399,1731918690416,1731918690433,1731918690453,1731918690467,1731918690483,1731918690500,1731918690516,1731918690541,1731918690549,1731918690566,1731918690583,1731918690604,1731918690616,1731918690633,1731918690650,1731918690671,1731918690683,1731918690700,1731918690716,1731918690737,1731918690753,1731918690768,1731918690786,1731918690800,1731918690816,1731918690838,1731918690850,1731918690866,1731918690884,1731918690903,1731918690919,1731918690937,1731918690954,1731918690969,1731918690983,1731918691000,1731918691016,1731918691036,1731918691052,1731918691066,1731918691083,1731918691102,1731918691116,1731918691133,1731918691152,1731918691167,1731918691183,1731918691203,1731918691216,1731918691233,1731918691252,1731918691269,1731918691283,1731918691302,1731918691316,1731918691333,1731918691353,1731918691370,1731918691385,1731918691399,1731918691417,1731918691433,1731918691449,1731918691468,1731918691486,1731918691504,1731918691521,1731918691538,1731918691553,1731918691569,1731918691586,1731918691602,1731918691616,1731918691633,1731918691650,1731918691666,1731918691683,1731918691704,1731918691719,1731918691735,1731918691749,1731918691766,1731918691783,1731918691799,1731918691816,1731918691835,1731918691850,1731918691866,1731918691890,1731918691901,1731918691925,1731918691934,1731918691949,1731918691966,1731918691987,1731918692002,1731918692017,1731918692033,1731918692049,1731918692066,1731918692083,1731918692099,1731918692116,1731918692133,1731918692152,1731918692167,1731918692184,1731918692200,1731918692216,1731918692233,1731918692250,1731918692266,1731918692283,1731918692300,1731918692316,1731918692349,1731918692358,1731918692375,1731918692383,1731918692400,1731918692416,1731918692437,1731918692452,1731918692466,1731918692483,1731918692503,1731918692517,1731918692533,1731918692553,1731918692566,1731918692583,1731918692602,1731918692616,1731918692633,1731918692653,1731918692667,1731918692683,1731918692699,1731918692716,1731918692737,1731918692750,1731918692766,1731918692783,1731918692805,1731918692816,1731918692833,1731918692850,1731918692866,1731918692883,1731918692900,1731918692916,1731918692933,1731918692949,1731918692966,1731918692987,1731918693002,1731918693016,1731918693038,1731918693053,1731918693066,1731918693083,1731918693103,1731918693116,1731918693133,1731918693150,1731918693170,1731918693183,1731918693200,1731918693219,1731918693233,1731918693252,1731918693266,1731918693288,1731918693300,1731918693316,1731918693343,1731918693353,1731918693366,1731918693383,1731918693405,1731918693416,1731918693433,1731918693449,1731918693466,1731918693483,1731918693499,1731918693516,1731918693533,1731918693553,1731918693569,1731918693584,1731918693600,1731918693616,1731918693633,1731918693650,1731918693668,1731918693683,1731918693699,1731918693718,1731918693734,1731918693750,1731918693767,1731918693783,1731918693800,1731918693816,1731918693833,1731918693849,1731918693867,1731918693884,1731918693899,1731918693921,1731918693934,1731918693949,1731918693966,1731918693983,1731918694000,1731918694016,1731918694035,1731918694052,1731918694079,1731918694085,1731918694099,1731918694119,1731918694136,1731918694152,1731918694167,1731918694183,1731918694200,1731918694216,1731918694235,1731918694249,1731918694266,1731918694283,1731918694299,1731918694316,1731918694335,1731918694352,1731918694366,1731918694383,1731918694409,1731918694417,1731918694433,1731918694449,1731918694466,1731918694485,1731918694499,1731918694517,1731918694533,1731918694554,1731918694569,1731918694583,1731918694600,1731918694616,1731918694634,1731918694653,1731918694670,1731918694683,1731918694700,1731918694719,1731918694735,1731918694750,1731918694766,1731918694786,1731918694800,1731918694816,1731918694841,1731918694850,1731918694866,1731918694890,1731918694903,1731918694916,1731918694933,1731918694961,1731918694969,1731918694983,1731918695000,1731918695019,1731918695035,1731918695050,1731918695066,1731918695085,1731918695100,1731918695116,1731918695138,1731918695152,1731918695166,1731918695183,1731918695203,1731918695218,1731918695233,1731918695253,1731918695270,1731918695285,1731918695299,1731918695316,1731918695336,1731918695353,1731918695369,1731918695384,1731918695402,1731918695424,1731918695433,1731918695449,1731918695469,1731918695484,1731918695502,1731918695516,1731918695542,1731918695549,1731918695566,1731918695589,1731918695599,1731918695616,1731918695633,1731918695649,1731918695666,1731918695683,1731918695703,1731918695723,1731918695733,1731918695749,1731918695769,1731918695784,1731918695802,1731918695820,1731918695838,1731918695855,1731918695870,1731918695888,1731918695901,1731918695916,1731918695937,1731918695953,1731918695969,1731918695987,1731918696004,1731918696019,1731918696038,1731918696049,1731918696066,1731918696086,1731918696104,1731918696121,1731918696143,1731918696151,1731918696166,1731918696183,1731918696200,1731918696216,1731918696233,1731918696249,1731918696266,1731918696283,1731918696304,1731918696316,1731918696333,1731918696350,1731918696369,1731918696395,1731918696410,1731918696419,1731918696433,1731918696449,1731918696466]","[[658.1,575.2],[658.1,575.2],[704.3,599.8],[739.5,612.2],[780,612],[809.5,612.4],[778.6,611.2],[770.1,628.1],[770.1,628.1],[755,620],[721.4,604.7],[703.3,591.9],[696.2,599.2],[738.5,615.8],[747.2,611.8],[729.5,598.2],[736.7,596.9],[756.2,600.3],[763.1,582.5],[802.6,591.7],[843.9,610.4],[875.4,614.5],[876.3,608],[881.9,598],[932.1,620.8],[989.8,662],[1009.8,675.1],[1009.8,675.1],[1037,686.2],[1027.8,701.5],[1012.6,686.5],[1012.6,686.5],[983.1,657.5],[983.1,657.5],[970.2,655.4],[970.2,655.4],[982.5,673.6],[982.5,673.6],[972.9,682.8],[972.9,682.8],[939.3,686.5],[939.3,686.5],[924.7,683.9],[942.7,689.4],[949,691.2],[990.1,677.8],[990.1,677.8],[1016.8,700.2],[1059.8,734.6],[1059.8,734.6],[1073.5,732.4],[1073.1,700.3],[1068.3,665.5],[1082.1,658.6],[1076.7,633.7],[1062.5,615.9],[1032,598.6],[1009.1,593.3],[990.6,579.5],[967.9,566.2],[979.7,609.8],[961.8,622.3],[921.1,685.9],[902.4,713.4],[879.8,756.2],[883,762],[891,774.7],[897.1,777.8],[894.4,777.8],[872.3,787.3],[841.1,756],[857.8,758.5],[899.2,715.2],[898.5,704.5],[889.7,666.8],[843.9,651],[830.5,646.2],[824.7,648.5],[822,626.4],[842,602.2],[868.7,580.6],[866,564.7],[861.6,534.1],[901.8,508.3],[901.8,508.3],[917.2,493.6],[966.3,491.4],[988,467.9],[1004.1,457.6],[1015.9,457.1],[1013.5,449.8],[978.2,440.5],[966.3,440],[967.3,442.4],[957.2,426.4],[957.8,439.5],[935.9,455.2],[956.1,471.8],[960.4,479.8],[965.7,498.9],[984.1,518.9],[1020.5,535.5],[1050.1,543.3],[1034.1,555.7],[1043.3,557.8],[1071.3,537.3],[1097.1,523.8],[1087.9,525.4],[1096.8,522.7],[1115.2,511.9],[1126.6,515.6],[1134.8,523.1],[1134.8,523.1],[1092.9,521.7],[1092.9,521.7],[1097.7,530.8],[1069.4,544.5],[1060.5,548.1],[1042.5,545.6],[1044.5,541.3],[1031.5,534.8],[1010.4,532.9],[998,512.8],[991.2,503.1],[1028.3,504.4],[1034.6,494],[1025.5,486.8],[1026.5,489.8],[1049.3,495],[1045.7,488.5],[1062.9,487.3],[1082.4,491.4],[1096.9,485.7],[1116.8,489.6],[1124.4,489.4],[1148.6,492.3],[1179.8,488.1],[1184.8,509.3],[1186.3,526.4],[1186.3,526.4],[1193.9,542.7],[1193.9,542.7],[1129.8,547],[1112.5,549.7],[1070.4,546.8],[1039.6,549.2],[1010.8,554.8],[985.4,554.8],[968.3,559.1],[959.6,524.6],[941.3,491.5],[942.6,455.8],[961.4,451],[956.2,443],[956.1,444.7],[959.6,426],[966.8,419.7],[974,417.7],[970,414.5],[958.8,421.5],[958.8,421.5],[940.2,426.8],[913.6,456.2],[925.6,443.6],[925.6,443.6],[926.2,431.8],[926.2,431.8],[937.8,427.7],[931.4,436.8],[923.5,431.5],[892.4,435],[898.9,419.2],[898.9,419.2],[901.8,406.2],[901.8,406.2],[912.8,412],[927.5,387.6],[933.9,387.5],[914.2,394.1],[906.5,402.4],[913.8,403.6],[928.8,398.6],[951.8,386.9],[963.3,388.6],[951.3,407.8],[956.6,385.8],[956.6,385.8],[958.5,394.5],[938.8,388.2],[938.8,388.2],[963.7,384.3],[990.1,376.9],[970.2,345.9],[959.8,318.5],[979.7,289.7],[981.4,288.6],[981.4,288.6],[1010.3,268.4],[1023.2,281.3],[1023.2,281.3],[1039.1,268.2],[1039.1,268.2],[1025.3,289.4],[1025.3,289.4],[1071.3,305.5],[1071.3,305.5],[1106.3,315.4],[1106.3,315.4],[1152.7,346.5],[1152.7,346.5],[1212.9,367.9],[1252.9,390.5],[1266.3,384.1],[1277.5,380.8],[1281.9,364.4],[1271.1,408.2],[1297.9,425.6],[1259,429.7],[1214.8,454.6],[1214.8,454.6],[1173,433.2],[1173.4,434.5],[1119.3,428.6],[1095.2,431.1],[1065.2,429.9],[1045.4,440.3],[1067.3,414.4],[1090.9,406.6],[1094.8,393],[1136.4,360.4],[1176.6,362.4],[1141.4,356],[1141.4,356],[1148,365.6],[1148,365.6],[1193.1,374.1],[1241.7,385.1],[1311.6,382.1],[1349.4,363.7],[1352.5,346.7],[1362.6,340.7],[1360.7,338.9],[1378.3,347.4],[1378.3,347.4],[1389.4,346.9],[1408.2,346.9],[1385.3,348.7],[1371.5,350.6],[1338.1,362],[1306.7,376.2],[1322.6,356.1],[1338,339.8],[1336.9,333.2],[1337.5,327.8],[1339.2,340.1],[1358.5,339.1],[1358.5,339.1],[1346.4,347.9],[1350.6,342.8],[1353.6,339.5],[1367.4,323.3],[1368.8,347.6],[1370.7,368.1],[1370.7,368.1],[1366.4,381.3],[1358.4,391.3],[1343,390.7],[1279,403.7],[1249.5,406.2],[1249.5,406.2],[1155.5,445.7],[1082.6,462.9],[978.7,496.3],[894.7,537.8],[844.9,549.6],[806.9,562.7],[772.3,570.1],[719.2,588.3],[758.5,591.1],[775.1,596.7],[862.9,562.9],[926.3,546.2],[1021.4,515.8],[1108.4,458.7],[1138.4,460.6],[1174,435.1],[1204.4,442.3],[1277.3,423.9],[1295.5,410.7],[1295.5,410.7],[1322.6,389.5],[1321.3,388.8],[1321.3,388.8],[1320.4,381.9],[1320.4,381.9],[1300.9,384.9],[1300.9,384.9],[1275.8,380.9],[1273.8,358.2],[1273.6,360.8],[1255.6,338.3],[1228.2,329.6],[1206.2,324.4],[1201,327.3],[1187,315],[1183.9,304.1],[1179.9,308.8],[1191.9,313.8],[1187.1,311],[1156.8,309],[1145.9,306],[1139.6,305.2],[1150.5,298],[1157.3,284.7],[1173,280],[1173.1,291.4],[1165.2,273],[1176,264.6],[1194.1,259.8],[1224.2,261.3],[1244.6,263.5],[1270.2,270.7],[1275,273.7],[1280.9,279.9],[1280.9,279.9],[1284.3,298.4],[1280.4,297.1],[1278.6,307.3],[1260.6,327.3],[1261.2,329.5],[1271.5,316.3],[1271.5,316.3],[1266.8,313.3],[1251.1,310],[1251.1,310],[1246.1,292.9],[1246.1,292.9],[1240.4,300.7],[1240.4,300.7],[1240.4,286.8],[1222.8,297.7],[1209.4,292.4],[1209.4,292.4],[1205.4,274.3],[1194.6,266.4],[1176.6,264.7],[1176.5,275.7],[1181.3,284.8],[1161.2,296.3],[1148.9,284.7],[1124.4,292.8],[1129.1,284.6],[1129.1,284.6],[1147,292.4],[1123.8,312.2],[1104.8,338.1],[1095.2,365.5],[1085.4,388.1],[1061.6,400.8],[1045,430.4],[1009.8,483.3],[1009.8,483.3],[996.1,527.7],[1001,539.5],[1003.7,550.8],[1025.2,549.8],[1039.6,538.6],[1039.6,538.6],[1049.6,530.6],[1049.6,530.6],[1067.9,508.6],[1067.9,508.6],[1095.2,492.6],[1095.2,492.6],[1130.5,476.3],[1130.5,476.3],[1187.4,445.6],[1187.4,445.6],[1236.7,384.2],[1266.4,370.3],[1277.7,359.8],[1277.7,359.8],[1308.6,344.4],[1308.6,344.4],[1363.1,319.1],[1399.9,307.2],[1432,297.2]]","[-0.142,0.42599999999999993]","[0.142,0.42599999999999993]","[0.42599999999999993,0.42599999999999993]","[-0.42599999999999993,0.142]","[-0.42599999999999993,-0.42599999999999993]","[-0.42599999999999993,-0.142]","[-0.142,0.142]","[0.142,0.142]","[0.42599999999999993,0.142]","[-0.142,-0.42599999999999993]","[0.142,-0.42599999999999993]","[0.42599999999999993,-0.42599999999999993]","[-0.142,-0.142]","[0.142,-0.142]","[0.42599999999999993,-0.142]",0,0,0,0,1,3,Laptop,25,40,9,1,50,4,1,60,5
