inst1_resp.keys,inst1_resp.rt,calibrationMouse.x,calibrationMouse.y,calibrationMouse.leftButton,calibrationMouse.midButton,calibrationMouse.rightButton,calibrationClick.x,calibrationClick.y,calibrationClick.leftButton,calibrationClick.midButton,calibrationClick.rightButton,trialsc.thisRepN,trialsc.thisTrialN,trialsc.thisN,trialsc.thisIndex,trialsc.ran,calibration_x,calibration_y,participant,session,date,expName,psychopyVersion,OS,frameRate,calibrationClick.clicked_name,ScreenRes_pixels,Camera_pixels,mouse_2.x,mouse_2.y,mouse_2.leftButton,mouse_2.midButton,mouse_2.rightButton,mouse_2.time,mouse_2.clicked_name,mouse.x,mouse.y,mouse.leftButton,mouse.midButton,mouse.rightButton,mouse.time,mouse.clicked_name,Choice,Trial,TrialDuration,MOUSE_GAZE,ET_GAZE,ET_GAZE_x_T,time,unixTime,ET_GAZE_NF,Loc_Bus_label,Loc_Metro_label,Loc_RH_label,Loc_Cost_label,Loc_Travel_label,Loc_Comfort_label,Loc_Bus_cost,Loc_Metro_cost,Loc_RH_cost,Loc_Bus_travel,Loc_Metro_travel,Loc_RH_travel,Loc_Bus_comfort,Loc_Metro_comfort,Loc_RH_comfort,trials.thisRepN,trials.thisTrialN,trials.thisN,trials.thisIndex,trials.ran,Block,Device,RH_cost,RH_travel_time,RH_Comfort,metro_cost,metro_travel_time,metro_Comfort,Bus_cost,Bus_travel_time,Bus_Comfort
space,3.0815,0.005208333,-0.107407407,1,0,0,0.658333333,-0.662962963,1,0,0,0,0,0,20,1,0.67,-0.67,26,001,2024-11-18_16h20.42.151,Attention_exp_legacy,2023.1.0,Win32,60.24096386,,,,,,,,,,,,,,,,,,,,,,,,,,,,,,,,,,,,,,,,,,,,,,,,,,,,,,,,,
,,,,,,,-0.325,-0.338888889,1,0,0,0,1,1,5,1,-0.33,-0.33,26,001,2024-11-18_16h20.42.151,Attention_exp_legacy,2023.1.0,Win32,60.24096386,calibration_square,,,,,,,,,,,,,,,,,,,,,,,,,,,,,,,,,,,,,,,,,,,,,,,,,,,,,,,,
,,,,,,,-0.340625,0,1,0,0,0,2,2,6,1,-0.33,0,26,001,2024-11-18_16h20.42.151,Attention_exp_legacy,2023.1.0,Win32,60.24096386,,,,,,,,,,,,,,,,,,,,,,,,,,,,,,,,,,,,,,,,,,,,,,,,,,,,,,,,,
,,,,,,,-0.671875,-0.318518519,1,0,0,0,3,3,1,1,-0.67,-0.33,26,001,2024-11-18_16h20.42.151,Attention_exp_legacy,2023.1.0,Win32,60.24096386,,,,,,,,,,,,,,,,,,,,,,,,,,,,,,,,,,,,,,,,,,,,,,,,,,,,,,,,,
,,,,,,,-0.010416667,-0.659259259,1,0,0,0,4,4,9,1,0,-0.67,26,001,2024-11-18_16h20.42.151,Attention_exp_legacy,2023.1.0,Win32,60.24096386,,,,,,,,,,,,,,,,,,,,,,,,,,,,,,,,,,,,,,,,,,,,,,,,,,,,,,,,,
,,,,,,,0.334375,0.677777778,1,0,0,0,5,5,18,1,0.33,0.67,26,001,2024-11-18_16h20.42.151,Attention_exp_legacy,2023.1.0,Win32,60.24096386,calibration_square,,,,,,,,,,,,,,,,,,,,,,,,,,,,,,,,,,,,,,,,,,,,,,,,,,,,,,,,
,,,,,,,0.008333333,-0.338888889,1,0,0,0,6,6,10,1,0,-0.33,26,001,2024-11-18_16h20.42.151,Attention_exp_legacy,2023.1.0,Win32,60.24096386,calibration_square,,,,,,,,,,,,,,,,,,,,,,,,,,,,,,,,,,,,,,,,,,,,,,,,,,,,,,,,
,,,,,,,0.332291667,0.348148148,1,0,0,0,7,7,17,1,0.33,0.33,26,001,2024-11-18_16h20.42.151,Attention_exp_legacy,2023.1.0,Win32,60.24096386,,,,,,,,,,,,,,,,,,,,,,,,,,,,,,,,,,,,,,,,,,,,,,,,,,,,,,,,,
,,,,,,,0.0125,0.337037037,1,0,0,0,8,8,12,1,0,0.33,26,001,2024-11-18_16h20.42.151,Attention_exp_legacy,2023.1.0,Win32,60.24096386,,,,,,,,,,,,,,,,,,,,,,,,,,,,,,,,,,,,,,,,,,,,,,,,,,,,,,,,,
,,,,,,,-0.663541667,0.344444444,1,0,0,0,9,9,3,1,-0.67,0.33,26,001,2024-11-18_16h20.42.151,Attention_exp_legacy,2023.1.0,Win32,60.24096386,,,,,,,,,,,,,,,,,,,,,,,,,,,,,,,,,,,,,,,,,,,,,,,,,,,,,,,,,
,,,,,,,0.322916667,-0.327777778,1,0,0,0,10,10,15,1,0.33,-0.33,26,001,2024-11-18_16h20.42.151,Attention_exp_legacy,2023.1.0,Win32,60.24096386,calibration_square,,,,,,,,,,,,,,,,,,,,,,,,,,,,,,,,,,,,,,,,,,,,,,,,,,,,,,,,
,,,,,,,0.327083333,-0.653703704,1,0,0,0,11,11,14,1,0.33,-0.67,26,001,2024-11-18_16h20.42.151,Attention_exp_legacy,2023.1.0,Win32,60.24096386,,,,,,,,,,,,,,,,,,,,,,,,,,,,,,,,,,,,,,,,,,,,,,,,,,,,,,,,,
,,,,,,,-0.009375,0.012962963,1,0,0,0,12,12,11,1,0,0,26,001,2024-11-18_16h20.42.151,Attention_exp_legacy,2023.1.0,Win32,60.24096386,,,,,,,,,,,,,,,,,,,,,,,,,,,,,,,,,,,,,,,,,,,,,,,,,,,,,,,,,
,,,,,,,-0.330208333,0.327777778,1,0,0,0,13,13,7,1,-0.33,0.33,26,001,2024-11-18_16h20.42.151,Attention_exp_legacy,2023.1.0,Win32,60.24096386,calibration_square,,,,,,,,,,,,,,,,,,,,,,,,,,,,,,,,,,,,,,,,,,,,,,,,,,,,,,,,
,,,,,,,-0.329166667,-0.675925926,1,0,0,0,14,14,4,1,-0.33,-0.67,26,001,2024-11-18_16h20.42.151,Attention_exp_legacy,2023.1.0,Win32,60.24096386,calibration_square,,,,,,,,,,,,,,,,,,,,,,,,,,,,,,,,,,,,,,,,,,,,,,,,,,,,,,,,
,,,,,,,0.326041667,-0.001851852,1,0,0,0,15,15,16,1,0.33,0,26,001,2024-11-18_16h20.42.151,Attention_exp_legacy,2023.1.0,Win32,60.24096386,calibration_square,,,,,,,,,,,,,,,,,,,,,,,,,,,,,,,,,,,,,,,,,,,,,,,,,,,,,,,,
,,,,,,,-0.661458333,-0.666666667,1,0,0,0,16,16,0,1,-0.67,-0.67,26,001,2024-11-18_16h20.42.151,Attention_exp_legacy,2023.1.0,Win32,60.24096386,calibration_square,,,,,,,,,,,,,,,,,,,,,,,,,,,,,,,,,,,,,,,,,,,,,,,,,,,,,,,,
,,,,,,,0,0.683333333,1,0,0,0,17,17,13,1,0,0.67,26,001,2024-11-18_16h20.42.151,Attention_exp_legacy,2023.1.0,Win32,60.24096386,,,,,,,,,,,,,,,,,,,,,,,,,,,,,,,,,,,,,,,,,,,,,,,,,,,,,,,,,
,,,,,,,0.667708333,0.685185185,1,0,0,0,18,18,19,1,0.67,0.67,26,001,2024-11-18_16h20.42.151,Attention_exp_legacy,2023.1.0,Win32,60.24096386,,,,,,,,,,,,,,,,,,,,,,,,,,,,,,,,,,,,,,,,,,,,,,,,,,,,,,,,,
,,,,,,,-0.328125,0.67037037,1,0,0,0,19,19,8,1,-0.33,0.67,26,001,2024-11-18_16h20.42.151,Attention_exp_legacy,2023.1.0,Win32,60.24096386,calibration_square,,,,,,,,,,,,,,,,,,,,,,,,,,,,,,,,,,,,,,,,,,,,,,,,,,,,,,,,
,,,,,,,-0.671875,0,1,0,0,0,20,20,2,1,-0.67,0,26,001,2024-11-18_16h20.42.151,Attention_exp_legacy,2023.1.0,Win32,60.24096386,calibration_square,,,,,,,,,,,,,,,,,,,,,,,,,,,,,,,,,,,,,,,,,,,,,,,,,,,,,,,,
,,,,,,,,,,,,,,,,,,,26,001,2024-11-18_16h20.42.151,Attention_exp_legacy,2023.1.0,Win32,60.24096386,,"[1920,1080]","[640,480]","[-0.05625,-0.020833333333333332]","[-0.43333333333333335,-0.5296296296296297]","[1,1]","[0,0]","[0,0]","[1.0374000000953671,2.253700000286102]","[""StartButton""]",[0.16458333333333333],[0.387037037037037],[1],[0],[0],[6.8215999999046275],"[""Metro_label""]",Metro_label,1,7.8441,"[[0.11875,-0.17777777777777778],[0.11875,-0.17777777777777778],[0.11875,-0.17777777777777778],[0.11875,-0.17777777777777778],[0.11875,-0.17777777777777778],[0.11875,-0.17777777777777778],[0.11875,-0.17777777777777778],[0.11875,-0.17777777777777778],[0.11875,-0.17777777777777778],[0.11875,-0.17777777777777778],[0.11875,-0.17777777777777778],[0.11875,-0.17777777777777778],[0.11875,-0.17777777777777778],[0.11875,-0.17777777777777778],[0.11875,-0.17777777777777778],[0.11875,-0.17777777777777778],[0.11875,-0.17777777777777778],[0.11875,-0.17777777777777778],[0.11875,-0.17777777777777778],[0.11875,-0.17777777777777778],[0.11875,-0.17777777777777778],[0.11875,-0.17777777777777778],[0.11875,-0.17777777777777778],[0.11875,-0.17777777777777778],[0.11875,-0.17777777777777778],[0.11875,-0.17777777777777778],[0.11875,-0.17777777777777778],[0.11875,-0.17777777777777778],[0.11875,-0.17777777777777778],[0.11875,-0.17777777777777778],[0.11875,-0.17777777777777778],[0.11875,-0.17777777777777778],[0.11875,-0.17777777777777778],[0.11875,-0.17777777777777778],[0.11875,-0.17407407407407408],[0.12395833333333334,-0.1574074074074074],[0.12916666666666668,-0.13703703703703704],[0.13229166666666667,-0.1259259259259259],[0.1375,-0.10925925925925926],[0.14583333333333334,-0.07037037037037037],[0.14791666666666667,-0.05925925925925926],[0.15,-0.037037037037037035],[0.153125,-0.014814814814814815],[0.15416666666666667,0.003703703703703704],[0.15520833333333334,0.025925925925925925],[0.15833333333333333,0.044444444444444446],[0.15833333333333333,0.06111111111111111],[0.15833333333333333,0.07037037037037037],[0.15833333333333333,0.07592592592592592],[0.15833333333333333,0.07962962962962963],[0.15833333333333333,0.08148148148148149],[0.15833333333333333,0.08148148148148149],[0.15833333333333333,0.08148148148148149],[0.15833333333333333,0.08148148148148149],[0.15833333333333333,0.08148148148148149],[0.15833333333333333,0.08148148148148149],[0.15729166666666666,0.07962962962962963],[0.15729166666666666,0.07777777777777778],[0.15729166666666666,0.07777777777777778],[0.15729166666666666,0.07777777777777778],[0.15729166666666666,0.07777777777777778],[0.15729166666666666,0.07777777777777778],[0.15729166666666666,0.07592592592592592],[0.15729166666666666,0.07592592592592592],[0.15729166666666666,0.07407407407407407],[0.15729166666666666,0.07407407407407407],[0.1625,0.07407407407407407],[0.17708333333333334,0.07407407407407407],[0.19895833333333332,0.07407407407407407],[0.228125,0.07777777777777778],[0.2625,0.07962962962962963],[0.2916666666666667,0.07962962962962963],[0.3145833333333333,0.07962962962962963],[0.31666666666666665,0.07962962962962963],[0.31666666666666665,0.07962962962962963],[0.31666666666666665,0.07962962962962963],[0.31666666666666665,0.07962962962962963],[0.31666666666666665,0.07962962962962963],[0.31666666666666665,0.07962962962962963],[0.31666666666666665,0.07962962962962963],[0.31666666666666665,0.07962962962962963],[0.31666666666666665,0.07962962962962963],[0.31666666666666665,0.07962962962962963],[0.31666666666666665,0.07962962962962963],[0.31666666666666665,0.07962962962962963],[0.31666666666666665,0.07962962962962963],[0.31666666666666665,0.07962962962962963],[0.31666666666666665,0.07962962962962963],[0.31666666666666665,0.07962962962962963],[0.31666666666666665,0.07962962962962963],[0.31666666666666665,0.07962962962962963],[0.31666666666666665,0.07962962962962963],[0.31666666666666665,0.07962962962962963],[0.31666666666666665,0.07962962962962963],[0.31875,0.06481481481481481],[0.32083333333333336,0.05185185185185185],[0.32083333333333336,0.04259259259259259],[0.325,0.018518518518518517],[0.3302083333333333,-0.014814814814814815],[0.3302083333333333,-0.020370370370370372],[0.334375,-0.037037037037037035],[0.3375,-0.05],[0.340625,-0.06296296296296296],[0.3416666666666667,-0.07407407407407407],[0.34375,-0.08703703703703704],[0.3458333333333333,-0.09814814814814815],[0.34791666666666665,-0.10185185185185185],[0.34791666666666665,-0.10555555555555556],[0.3489583333333333,-0.10740740740740741],[0.35,-0.10925925925925926],[0.35,-0.10925925925925926],[0.35,-0.10925925925925926],[0.35,-0.10925925925925926],[0.35,-0.10925925925925926],[0.35,-0.10925925925925926],[0.35,-0.10925925925925926],[0.35,-0.10925925925925926],[0.35,-0.10925925925925926],[0.35,-0.10925925925925926],[0.35,-0.10925925925925926],[0.35,-0.10925925925925926],[0.35,-0.10925925925925926],[0.35,-0.10925925925925926],[0.35,-0.10925925925925926],[0.35,-0.10925925925925926],[0.35,-0.10925925925925926],[0.35,-0.10925925925925926],[0.35,-0.10925925925925926],[0.35,-0.10925925925925926],[0.35,-0.10925925925925926],[0.35,-0.10925925925925926],[0.35,-0.10925925925925926],[0.35,-0.10925925925925926],[0.35,-0.10925925925925926],[0.35,-0.10925925925925926],[0.35,-0.10925925925925926],[0.35,-0.10925925925925926],[0.35,-0.10925925925925926],[0.35,-0.10925925925925926],[0.35,-0.10925925925925926],[0.35,-0.10925925925925926],[0.35,-0.10925925925925926],[0.35,-0.10925925925925926],[0.35,-0.10925925925925926],[0.35,-0.10925925925925926],[0.35,-0.10925925925925926],[0.35,-0.10925925925925926],[0.35,-0.10925925925925926],[0.35104166666666664,-0.1111111111111111],[0.35104166666666664,-0.11296296296296296],[0.35104166666666664,-0.11296296296296296],[0.35104166666666664,-0.11296296296296296],[0.35104166666666664,-0.11296296296296296],[0.35104166666666664,-0.11296296296296296],[0.35104166666666664,-0.11296296296296296],[0.35104166666666664,-0.11296296296296296],[0.35104166666666664,-0.11296296296296296],[0.35104166666666664,-0.11296296296296296],[0.35104166666666664,-0.11296296296296296],[0.35104166666666664,-0.11296296296296296],[0.35104166666666664,-0.11296296296296296],[0.35104166666666664,-0.11296296296296296],[0.35104166666666664,-0.11296296296296296],[0.35104166666666664,-0.11296296296296296],[0.35104166666666664,-0.11296296296296296],[0.35104166666666664,-0.11296296296296296],[0.35104166666666664,-0.11296296296296296],[0.35104166666666664,-0.11296296296296296],[0.35104166666666664,-0.11296296296296296],[0.35104166666666664,-0.11296296296296296],[0.35104166666666664,-0.11296296296296296],[0.35104166666666664,-0.11296296296296296],[0.35104166666666664,-0.11296296296296296],[0.35104166666666664,-0.11296296296296296],[0.35104166666666664,-0.11296296296296296],[0.35104166666666664,-0.11296296296296296],[0.35104166666666664,-0.11296296296296296],[0.35104166666666664,-0.11296296296296296],[0.35104166666666664,-0.11296296296296296],[0.35104166666666664,-0.11296296296296296],[0.35104166666666664,-0.11296296296296296],[0.35104166666666664,-0.11296296296296296],[0.35104166666666664,-0.11296296296296296],[0.35104166666666664,-0.11296296296296296],[0.35104166666666664,-0.11296296296296296],[0.35104166666666664,-0.11296296296296296],[0.35104166666666664,-0.11296296296296296],[0.35104166666666664,-0.11296296296296296],[0.35104166666666664,-0.11296296296296296],[0.35104166666666664,-0.11296296296296296],[0.35104166666666664,-0.11296296296296296],[0.35104166666666664,-0.11296296296296296],[0.35104166666666664,-0.11296296296296296],[0.35104166666666664,-0.11296296296296296],[0.35104166666666664,-0.11296296296296296],[0.35104166666666664,-0.11296296296296296],[0.35104166666666664,-0.11296296296296296],[0.35104166666666664,-0.11296296296296296],[0.35104166666666664,-0.11296296296296296],[0.35104166666666664,-0.11296296296296296],[0.35104166666666664,-0.11296296296296296],[0.35104166666666664,-0.11296296296296296],[0.35104166666666664,-0.11296296296296296],[0.35104166666666664,-0.11296296296296296],[0.35104166666666664,-0.11296296296296296],[0.35104166666666664,-0.11296296296296296],[0.35104166666666664,-0.11296296296296296],[0.35104166666666664,-0.11296296296296296],[0.35104166666666664,-0.11296296296296296],[0.35104166666666664,-0.11296296296296296],[0.35104166666666664,-0.11296296296296296],[0.35104166666666664,-0.11296296296296296],[0.35104166666666664,-0.11296296296296296],[0.35104166666666664,-0.11296296296296296],[0.35104166666666664,-0.11296296296296296],[0.35104166666666664,-0.11296296296296296],[0.35104166666666664,-0.11296296296296296],[0.35104166666666664,-0.11296296296296296],[0.35104166666666664,-0.11296296296296296],[0.35104166666666664,-0.11296296296296296],[0.35104166666666664,-0.11296296296296296],[0.35104166666666664,-0.11296296296296296],[0.35104166666666664,-0.11296296296296296],[0.35104166666666664,-0.11296296296296296],[0.35104166666666664,-0.11296296296296296],[0.35104166666666664,-0.11296296296296296],[0.35104166666666664,-0.11296296296296296],[0.35104166666666664,-0.11296296296296296],[0.35104166666666664,-0.11296296296296296],[0.35104166666666664,-0.11296296296296296],[0.35104166666666664,-0.11296296296296296],[0.35104166666666664,-0.11296296296296296],[0.35104166666666664,-0.11296296296296296],[0.35104166666666664,-0.11296296296296296],[0.35104166666666664,-0.11296296296296296],[0.35104166666666664,-0.11296296296296296],[0.35104166666666664,-0.11296296296296296],[0.35104166666666664,-0.11296296296296296],[0.35104166666666664,-0.11296296296296296],[0.35104166666666664,-0.11296296296296296],[0.35104166666666664,-0.11296296296296296],[0.35104166666666664,-0.11296296296296296],[0.35104166666666664,-0.11296296296296296],[0.35104166666666664,-0.11296296296296296],[0.35104166666666664,-0.11296296296296296],[0.35104166666666664,-0.11296296296296296],[0.35104166666666664,-0.11296296296296296],[0.35104166666666664,-0.11296296296296296],[0.35104166666666664,-0.11296296296296296],[0.35104166666666664,-0.11296296296296296],[0.35104166666666664,-0.11296296296296296],[0.35104166666666664,-0.11296296296296296],[0.35104166666666664,-0.11296296296296296],[0.35104166666666664,-0.11296296296296296],[0.35104166666666664,-0.11296296296296296],[0.35104166666666664,-0.11296296296296296],[0.35104166666666664,-0.11296296296296296],[0.35104166666666664,-0.11296296296296296],[0.35104166666666664,-0.11296296296296296],[0.35104166666666664,-0.11296296296296296],[0.35104166666666664,-0.11296296296296296],[0.35104166666666664,-0.11296296296296296],[0.35104166666666664,-0.11296296296296296],[0.35208333333333336,-0.11296296296296296],[0.35625,-0.11296296296296296],[0.3572916666666667,-0.11296296296296296],[0.359375,-0.11296296296296296],[0.36041666666666666,-0.11296296296296296],[0.3625,-0.11296296296296296],[0.36354166666666665,-0.11296296296296296],[0.36354166666666665,-0.11296296296296296],[0.36354166666666665,-0.11296296296296296],[0.36354166666666665,-0.11296296296296296],[0.36354166666666665,-0.11296296296296296],[0.36354166666666665,-0.11296296296296296],[0.36354166666666665,-0.11296296296296296],[0.36354166666666665,-0.11296296296296296],[0.36354166666666665,-0.11296296296296296],[0.36354166666666665,-0.11296296296296296],[0.36354166666666665,-0.11296296296296296],[0.36354166666666665,-0.11296296296296296],[0.36354166666666665,-0.11296296296296296],[0.36354166666666665,-0.11296296296296296],[0.36354166666666665,-0.11296296296296296],[0.36354166666666665,-0.11296296296296296],[0.36354166666666665,-0.11296296296296296],[0.36354166666666665,-0.11296296296296296],[0.36354166666666665,-0.11296296296296296],[0.36354166666666665,-0.11296296296296296],[0.36354166666666665,-0.11296296296296296],[0.36354166666666665,-0.11296296296296296],[0.36354166666666665,-0.11296296296296296],[0.36354166666666665,-0.11296296296296296],[0.36354166666666665,-0.11296296296296296],[0.36354166666666665,-0.11296296296296296],[0.36354166666666665,-0.11296296296296296],[0.36354166666666665,-0.11296296296296296],[0.36354166666666665,-0.11296296296296296],[0.36354166666666665,-0.11296296296296296],[0.36354166666666665,-0.11296296296296296],[0.36354166666666665,-0.11296296296296296],[0.36354166666666665,-0.11296296296296296],[0.36354166666666665,-0.11296296296296296],[0.36354166666666665,-0.11296296296296296],[0.36354166666666665,-0.11296296296296296],[0.36354166666666665,-0.11296296296296296],[0.36354166666666665,-0.11296296296296296],[0.36354166666666665,-0.11296296296296296],[0.36354166666666665,-0.11296296296296296],[0.36354166666666665,-0.11296296296296296],[0.36354166666666665,-0.11296296296296296],[0.36354166666666665,-0.11296296296296296],[0.36354166666666665,-0.11296296296296296],[0.36354166666666665,-0.11296296296296296],[0.36354166666666665,-0.11296296296296296],[0.36354166666666665,-0.11296296296296296],[0.36354166666666665,-0.11296296296296296],[0.36354166666666665,-0.11296296296296296],[0.36354166666666665,-0.11296296296296296],[0.36354166666666665,-0.11296296296296296],[0.36354166666666665,-0.11296296296296296],[0.36354166666666665,-0.11296296296296296],[0.36354166666666665,-0.11296296296296296],[0.36354166666666665,-0.11296296296296296],[0.36354166666666665,-0.11296296296296296],[0.36354166666666665,-0.11296296296296296],[0.36354166666666665,-0.11296296296296296],[0.36354166666666665,-0.11296296296296296],[0.36354166666666665,-0.11296296296296296],[0.36354166666666665,-0.11296296296296296],[0.36354166666666665,-0.11296296296296296],[0.36354166666666665,-0.11296296296296296],[0.36354166666666665,-0.11296296296296296],[0.36354166666666665,-0.11296296296296296],[0.36354166666666665,-0.11296296296296296],[0.36354166666666665,-0.11296296296296296],[0.36354166666666665,-0.11296296296296296],[0.36354166666666665,-0.11296296296296296],[0.36354166666666665,-0.11296296296296296],[0.36354166666666665,-0.11296296296296296],[0.36354166666666665,-0.11296296296296296],[0.36354166666666665,-0.11296296296296296],[0.36354166666666665,-0.11296296296296296],[0.36354166666666665,-0.11296296296296296],[0.36354166666666665,-0.11296296296296296],[0.36354166666666665,-0.11296296296296296],[0.36354166666666665,-0.11296296296296296],[0.36354166666666665,-0.11296296296296296],[0.36354166666666665,-0.11296296296296296],[0.36354166666666665,-0.11481481481481481],[0.36354166666666665,-0.11851851851851852],[0.36354166666666665,-0.12222222222222222],[0.3614583333333333,-0.13148148148148148],[0.35625,-0.13703703703703704],[0.35208333333333336,-0.13703703703703704],[0.34479166666666666,-0.1388888888888889],[0.334375,-0.1388888888888889],[0.31979166666666664,-0.13703703703703704],[0.30416666666666664,-0.12407407407407407],[0.290625,-0.1],[0.28125,-0.07407407407407407],[0.275,-0.046296296296296294],[0.2677083333333333,-0.016666666666666666],[0.2635416666666667,0.025925925925925925],[0.2625,0.05],[0.26145833333333335,0.08518518518518518],[0.25729166666666664,0.12037037037037036],[0.25104166666666666,0.15185185185185185],[0.24583333333333332,0.17592592592592593],[0.24270833333333333,0.1925925925925926],[0.24270833333333333,0.2],[0.24166666666666667,0.20555555555555555],[0.23958333333333334,0.21851851851851853],[0.23854166666666668,0.2222222222222222],[0.234375,0.23703703703703705],[0.23229166666666667,0.2518518518518518],[0.22916666666666666,0.2574074074074074],[0.22604166666666667,0.26851851851851855],[0.22291666666666668,0.2777777777777778],[0.21875,0.28888888888888886],[0.21458333333333332,0.29444444444444445],[0.20625,0.3055555555555556],[0.2,0.31296296296296294],[0.19270833333333334,0.32222222222222224],[0.18333333333333332,0.3296296296296296],[0.178125,0.337037037037037],[0.171875,0.3425925925925926],[0.16875,0.34814814814814815],[0.16666666666666666,0.3537037037037037],[0.16666666666666666,0.3574074074074074],[0.16666666666666666,0.3574074074074074],[0.16666666666666666,0.3592592592592593],[0.165625,0.362962962962963],[0.165625,0.3648148148148148],[0.16458333333333333,0.37222222222222223],[0.16458333333333333,0.37407407407407406],[0.16458333333333333,0.37407407407407406],[0.16458333333333333,0.37592592592592594],[0.16458333333333333,0.37592592592592594],[0.16458333333333333,0.37592592592592594],[0.16458333333333333,0.37777777777777777],[0.16458333333333333,0.3814814814814815],[0.16458333333333333,0.38333333333333336],[0.16458333333333333,0.3851851851851852],[0.16458333333333333,0.387037037037037],[0.16458333333333333,0.387037037037037],[0.16458333333333333,0.387037037037037],[0.16458333333333333,0.387037037037037],[0.16458333333333333,0.387037037037037],[0.16458333333333333,0.387037037037037],[0.16458333333333333,0.387037037037037],[0.16458333333333333,0.387037037037037],[0.16458333333333333,0.387037037037037],[0.16458333333333333,0.387037037037037],[0.16458333333333333,0.387037037037037],[0.16458333333333333,0.387037037037037],[0.16458333333333333,0.387037037037037],[0.16458333333333333,0.387037037037037],[0.16458333333333333,0.387037037037037],[0.16458333333333333,0.3851851851851852],[0.165625,0.37222222222222223],[0.16770833333333332,0.3574074074074074],[0.16875,0.3425925925925926],[0.171875,0.32592592592592595],[0.17291666666666666,0.3148148148148148],[0.17395833333333333,0.3037037037037037],[0.17604166666666668,0.29074074074074074],[0.17604166666666668,0.2740740740740741],[0.17604166666666668,0.2574074074074074],[0.17604166666666668,0.23703703703703705],[0.17604166666666668,0.20185185185185187],[0.17708333333333334,0.1814814814814815],[0.17708333333333334,0.16666666666666666],[0.178125,0.15555555555555556],[0.17916666666666667,0.15],[0.18020833333333333,0.1388888888888889],[0.18020833333333333,0.12777777777777777],[0.18020833333333333,0.12037037037037036],[0.18020833333333333,0.11851851851851852],[0.18020833333333333,0.11481481481481481],[0.18020833333333333,0.11481481481481481],[0.18020833333333333,0.11481481481481481],[0.18020833333333333,0.11481481481481481],[0.18229166666666666,0.11296296296296296],[0.1875,0.11851851851851852],[0.18854166666666666,0.12222222222222222],[0.19166666666666668,0.13703703703703704],[0.19583333333333333,0.1574074074074074],[0.19791666666666666,0.1685185185185185],[0.19791666666666666,0.1814814814814815],[0.19791666666666666,0.19444444444444445],[0.19791666666666666,0.2074074074074074],[0.19479166666666667,0.22407407407407406],[0.19166666666666668,0.24444444444444444],[0.18958333333333333,0.26296296296296295],[0.1875,0.2740740740740741],[0.1875,0.2740740740740741],[0.18645833333333334,0.2777777777777778],[0.18645833333333334,0.2796296296296296],[0.18541666666666667,0.2833333333333333],[0.18333333333333332,0.28703703703703703],[0.18333333333333332,0.29074074074074074],[0.18229166666666666,0.29074074074074074],[0.18229166666666666,0.29074074074074074],[0.18125,0.29259259259259257],[0.18125,0.29259259259259257],[0.18125,0.29259259259259257],[0.18125,0.29259259259259257],[0.18125,0.29259259259259257],[0.18125,0.29259259259259257]]","[[-0.02510416666666669,-0.06407407407407412],[-0.02510416666666669,-0.06407407407407412],[0.001145833333333357,-0.059999999999999956],[-0.04229166666666669,-0.04814814814814815],[-0.12291666666666666,-0.01703703703703712],[-0.19364583333333332,-0.06925925925925921],[-0.25812499999999994,-0.1359259259259259],[-0.31791666666666674,-0.15037037037037035],[-0.38395833333333335,-0.14462962962962966],[-0.38395833333333335,-0.14462962962962966],[-0.4547916666666667,-0.16111111111111112],[-0.5278125,-0.2035185185185185],[-0.6115625,-0.25703703703703706],[-0.7,-0.32166666666666666],[-0.7528125,-0.37407407407407406],[-0.7483333333333333,-0.43555555555555553],[-0.7625,-0.4648148148148148],[-0.7751041666666667,-0.47740740740740745],[-0.7751041666666667,-0.47740740740740745],[-0.7630208333333334,-0.5148148148148148],[-0.7784375,-0.5233333333333334],[-0.7739583333333333,-0.5414814814814815],[-0.7772916666666667,-0.5425925925925926],[-0.763125,-0.5298148148148148],[-0.7489583333333333,-0.517037037037037],[-0.7489583333333333,-0.517037037037037],[-0.7257291666666668,-0.5122222222222222],[-0.6798958333333334,-0.5416666666666666],[-0.6798958333333334,-0.5416666666666666],[-0.5901041666666667,-0.4981481481481482],[-0.5203125,-0.49074074074074076],[-0.4717708333333333,-0.41814814814814816],[-0.38604166666666667,-0.42777777777777776],[-0.3110416666666667,-0.42481481481481476],[-0.22437499999999996,-0.44092592592592594],[-0.1486458333333334,-0.3757407407407407],[-0.07104166666666671,-0.3272222222222222],[-0.07104166666666671,-0.3272222222222222],[0.018020833333333285,-0.27314814814814814],[0.05270833333333336,-0.205],[0.05270833333333336,-0.205],[0.04354166666666662,-0.22870370370370371],[0.01739583333333338,-0.2007407407407407],[0.009895833333333333,-0.15870370370370368],[0.00458333333333331,-0.13185185185185183],[0.0017708333333333807,-0.08277777777777776],[-0.0003124999999999526,-0.04259259259259259],[-0.003125,-0.08277777777777776],[-0.0078125,-0.10629629629629625],[-0.00625,-0.14888888888888885],[0.0014583333333333095,-0.12185185185185188],[0.01270833333333338,-0.0816666666666667],[0.11270833333333338,-0.09759259259259258],[0.18239583333333323,-0.15796296296296297],[0.22781250000000006,-0.10981481481481484],[0.28322916666666675,-0.1259259259259259],[0.33270833333333344,-0.12148148148148152],[0.35906250000000006,-0.09351851851851851],[0.3775000000000001,-0.07388888888888885],[0.39791666666666664,-0.027407407407407325],[0.4087500000000001,-0.011296296296296339],[0.4195833333333333,0.004814814814814857],[0.38822916666666674,-0.003888888888888931],[0.34437499999999993,0.007777777777777862],[0.32843749999999994,-0.0007407407407406986],[0.2994791666666667,0.02370370370370362],[0.2837500000000001,0.02962962962962963],[0.2837500000000001,0.02962962962962963],[0.26802083333333326,0.05611111111111103],[0.2540625000000001,0.06833333333333329],[0.24145833333333327,0.069074074074074],[0.24708333333333338,0.027407407407407325],[0.25270833333333326,-0.014259259259259343],[0.24552083333333338,0.009444444444444486],[0.2671875,0.08111111111111102],[0.26687500000000003,0.14611111111111108],[0.24541666666666656,0.20203703703703707],[0.21208333333333323,0.2668518518518519],[0.2009375000000001,0.30462962962962964],[0.17645833333333344,0.3051851851851851],[0.14052083333333343,0.325],[0.10145833333333343,0.35796296296296287],[0.07354166666666657,0.37833333333333324],[0.04885416666666664,0.3987037037037036],[-0.008229166666666643,0.39203703703703713],[-0.008229166666666643,0.39203703703703713],[-0.06531250000000005,0.3853703703703704],[-0.09270833333333334,0.3761111111111112],[-0.09239583333333339,0.3918518518518519],[-0.09114583333333333,0.3905555555555555],[-0.0907291666666667,0.4487037037037036],[-0.08843749999999997,0.49129629629629623],[-0.05249999999999998,0.567962962962963],[-0.046875,0.6551851851851851],[-0.041562499999999974,0.7449999999999999],[0.0140625,0.712037037037037],[0.0140625,0.712037037037037],[0.0865624999999999,0.6761111111111111],[0.0865624999999999,0.6761111111111111],[0.12374999999999996,0.665],[0.12374999999999996,0.665],[0.14020833333333324,0.6229629629629629],[0.14020833333333324,0.6229629629629629],[0.15437500000000004,0.5844444444444444],[0.15437500000000004,0.5844444444444444],[0.1865624999999999,0.5612962962962963],[0.1865624999999999,0.5612962962962963],[0.23968749999999991,0.5112962962962964],[0.23968749999999991,0.5112962962962964],[0.24635416666666668,0.4527777777777778],[0.27937500000000004,0.37185185185185177],[0.3297916666666666,0.2959259259259258],[0.3219791666666666,0.27259259259259266],[0.3219791666666666,0.27259259259259266],[0.3154166666666666,0.25685185185185194],[0.31583333333333335,0.18555555555555564],[0.29666666666666663,0.13537037037037042],[0.2904166666666666,0.08981481481481482],[0.2915625000000001,0.02296296296296292],[0.2717708333333334,0.006296296296296254],[0.2647916666666667,-0.03592592592592588],[0.24729166666666677,-0.05722222222222218],[0.20177083333333337,-0.09222222222222225],[0.1974999999999999,-0.12851851851851848],[0.16614583333333333,-0.14629629629629629],[0.15479166666666658,-0.1175925925925926],[0.19458333333333327,-0.15055555555555558],[0.19822916666666662,-0.14425925925925923],[0.20354166666666676,-0.060555555555555536],[0.20885416666666667,-0.0001851851851852273],[0.2021874999999999,0.03259259259259263],[0.20125000000000004,0.06851851851851852],[0.209375,0.1],[0.20843749999999991,0.15166666666666662],[0.221875,0.16500000000000004],[0.23916666666666658,0.1737037037037036],[0.2085416666666667,0.22444444444444453],[0.19385416666666658,0.2140740740740741],[0.19385416666666658,0.2140740740740741],[0.16760416666666675,0.16055555555555565],[0.1390625,0.11388888888888889],[0.1224999999999999,0.0948148148148149],[0.12510416666666657,0.07444444444444454],[0.12958333333333344,0.06462962962962959],[0.13406250000000006,0.05481481481481486],[0.13406250000000006,0.05481481481481486],[0.13510416666666672,0.07925925925925917],[0.13510416666666672,0.07925925925925917],[0.13572916666666662,0.12407407407407407],[0.1678124999999999,0.15685185185185194],[0.18458333333333338,0.18203703703703694],[0.20947916666666658,0.17925925925925917],[0.24322916666666666,0.13574074074074066],[0.28250000000000003,0.08333333333333333],[0.31270833333333337,0.06092592592592588],[0.3394791666666668,0.03296296296296288],[0.3631249999999999,0.009629629629629714],[0.38291666666666657,-0.027777777777777776],[0.3910416666666668,-0.05925925925925926],[0.37437500000000007,-0.07592592592592592],[0.3628124999999999,-0.06925925925925921],[0.34791666666666665,-0.06259259259259262],[0.34791666666666665,-0.06259259259259262],[0.3337500000000001,-0.04537037037037037],[0.30739583333333326,-0.011666666666666582],[0.2685416666666666,-0.006296296296296254],[0.22989583333333338,0.03481481481481473],[0.1943749999999999,0.0712962962962963],[0.16072916666666662,0.10277777777777777],[0.1443749999999999,0.14092592592592595],[0.12822916666666656,0.16870370370370374],[0.1318749999999999,0.19444444444444445],[0.1318749999999999,0.19444444444444445],[0.13114583333333343,0.23574074074074067],[0.13802083333333334,0.21444444444444435],[0.13760416666666658,0.25759259259259265],[0.14833333333333343,0.29611111111111105],[0.1622916666666666,0.3044444444444444],[0.1578125,0.27759259259259256],[0.15333333333333338,0.2581481481481481],[0.15760416666666663,0.1588888888888888],[0.1616666666666667,0.1],[0.17687499999999995,0.0448148148148149],[0.17468750000000005,0.0242592592592593],[0.17770833333333325,0.04092592592592597],[0.20208333333333334,-0.06129629629629634],[0.20979166666666677,-0.13944444444444445],[0.22218749999999995,-0.24074074074074073],[0.22218749999999995,-0.24074074074074073],[0.24249999999999997,-0.18518518518518517],[0.2741666666666667,-0.14666666666666664],[0.2883333333333333,-0.051666666666666625],[0.30520833333333336,0.015000000000000043],[0.3089583333333332,0.04000000000000004],[0.32052083333333337,0.004074074074074159],[0.31260416666666657,0.03333333333333333],[0.29697916666666657,0.10129629629629638],[0.2868750000000001,0.14981481481481476],[0.28958333333333336,0.32111111111111107],[0.31354166666666666,0.3235185185185186],[0.35145833333333343,0.3346296296296297],[0.38937499999999997,0.34574074074074085],[0.3955208333333334,0.32759259259259255],[0.4036458333333333,0.34740740740740744],[0.4384375000000001,0.43074074074074076],[0.4384375000000001,0.43074074074074076],[0.4726041666666667,0.4975925925925927],[0.4726041666666667,0.4975925925925927],[0.4813541666666666,0.5446296296296297],[0.48760416666666656,0.6825925925925926],[0.4521874999999999,0.7048148148148149],[0.40604166666666663,0.7742592592592593],[0.33833333333333326,0.8296296296296296],[0.27062499999999995,0.885],[0.2289583333333333,0.9964814814814813],[0.1872916666666666,1.1079629629629628],[0.1872916666666666,1.1079629629629628],[0.13291666666666657,1.1666666666666667],[0.13291666666666657,1.1666666666666667],[0.12635416666666663,1.1664814814814817],[0.12635416666666663,1.1664814814814817],[0.14479166666666668,1.2],[0.14479166666666668,1.2],[0.134375,1.1724074074074073],[0.134375,1.1724074074074073],[0.12822916666666656,1.2031481481481483],[0.12822916666666656,1.2031481481481483],[0.09583333333333334,1.167962962962963],[0.09583333333333334,1.167962962962963],[0.07135416666666666,1.1283333333333332],[0.07135416666666666,1.1283333333333332],[0.03895833333333331,1.105925925925926],[0.03895833333333331,1.105925925925926],[0.011354166666666643,1.0505555555555555],[-0.003541666666666643,0.987777777777778],[-0.035000000000000024,0.9062962962962965],[-0.035000000000000024,0.9062962962962965],[-0.11822916666666666,0.8846296296296298],[-0.11822916666666666,0.8846296296296298],[-0.19135416666666671,0.8731481481481481],[-0.19135416666666671,0.8731481481481481],[-0.24249999999999997,0.7966666666666667],[-0.28500000000000003,0.7162962962962962],[-0.2827083333333333,0.6566666666666667],[-0.2894791666666666,0.5862962962962963],[-0.2894791666666666,0.5862962962962963],[-0.2883333333333333,0.4987037037037036],[-0.29281250000000003,0.48629629629629634],[-0.30447916666666663,0.4642592592592593],[-0.2860416666666667,0.42018518518518516],[-0.2633333333333333,0.4607407407407407],[-0.2453125,0.4885185185185184],[-0.19197916666666662,0.5027777777777778],[-0.13895833333333332,0.5625925925925925],[-0.08729166666666661,0.6255555555555554],[-0.033958333333333354,0.7314814814814815],[0.013750000000000047,0.8272222222222223],[0.07770833333333324,0.8712962962962963],[0.12333333333333343,0.9038888888888887],[0.1554166666666667,0.9772222222222223],[0.18104166666666663,0.967962962962963],[0.20197916666666677,0.9555555555555556],[0.2101041666666667,0.9840740740740742],[0.22979166666666656,0.9287037037037037],[0.24052083333333343,0.8451851851851852],[0.22645833333333343,0.8092592592592592],[0.21593749999999995,0.7816666666666667],[0.20447916666666663,0.7422222222222221],[0.21135416666666676,0.6987037037037036],[0.21822916666666667,0.6551851851851851],[0.23468749999999997,0.6103703703703705],[0.25114583333333323,0.5655555555555555],[0.2564583333333334,0.5085185185185186],[0.26197916666666665,0.4390740740740741],[0.2631249999999999,0.43703703703703706],[0.2695833333333333,0.41333333333333344],[0.29364583333333344,0.3907407407407407],[0.2930208333333333,0.3557407407407408],[0.2853125000000001,0.37666666666666665],[0.27760416666666665,0.39759259259259266],[0.2716666666666666,0.38851851851851843],[0.2678124999999999,0.3762962962962964],[0.2552083333333333,0.39018518518518525],[0.23854166666666668,0.4385185185185184],[0.21572916666666658,0.48925925925925934],[0.19947916666666668,0.497037037037037],[0.1709374999999999,0.4618518518518518],[0.15833333333333333,0.4335185185185186],[0.15833333333333333,0.4335185185185186],[0.14729166666666677,0.38185185185185194],[0.12541666666666676,0.3425925925925926],[0.10062499999999991,0.26888888888888896],[0.07635416666666663,0.21296296296296297],[0.0609375,0.1427777777777778],[0.044270833333333336,0.04018518518518527],[0.017499999999999953,-0.026481481481481398],[-0.001979166666666643,-0.06888888888888887],[-0.02333333333333331,-0.06722222222222224],[-0.011458333333333333,-0.0977777777777778],[-0.03458333333333338,-0.11388888888888889],[-0.0265625,-0.13537037037037042],[-0.041562499999999974,-0.11129629629629634],[-0.03927083333333338,-0.11796296296296294],[-0.0484375,-0.10944444444444448],[-0.05395833333333329,-0.09518518518518514],[-0.05593750000000005,-0.09203703703703701],[-0.05593750000000005,-0.09203703703703701],[-0.05291666666666662,-0.1255555555555556],[-0.0546875,-0.13703703703703704],[-0.08968750000000002,-0.11629629629629631],[-0.09500000000000004,-0.14148148148148143],[-0.12062499999999995,-0.17370370370370372],[-0.12552083333333333,-0.18870370370370365],[-0.14458333333333329,-0.2146296296296296],[-0.1805208333333333,-0.21074074074074076],[-0.21499999999999997,-0.2022222222222222],[-0.2046875,-0.20388888888888893],[-0.19802083333333337,-0.18888888888888888],[-0.18520833333333328,-0.2014814814814815],[-0.17239583333333333,-0.2140740740740741],[-0.12562500000000001,-0.17166666666666663],[-0.0703125,-0.13370370370370369],[-0.02020833333333331,-0.07999999999999997],[-0.02020833333333331,-0.07999999999999997],[0.028437499999999952,-0.015555555555555513],[0.09874999999999995,-0.0198148148148149],[0.184375,-0.02759259259259255],[0.184375,-0.02759259259259255],[0.23447916666666657,-0.03333333333333333],[0.2686458333333334,0.041111111111111195],[0.2686458333333334,0.041111111111111195],[0.2897916666666667,0.09462962962962967],[0.33229166666666665,0.14629629629629629],[0.34614583333333326,0.17444444444444454],[0.334375,0.19388888888888897],[0.3310416666666666,0.2351851851851852],[0.3310416666666666,0.2351851851851852],[0.32479166666666665,0.28407407407407403],[0.31906249999999997,0.3655555555555555],[0.29802083333333323,0.4505555555555555],[0.2760416666666667,0.5324074074074074],[0.2703125,0.5372222222222223],[0.25416666666666665,0.5740740740740741],[0.24083333333333337,0.5835185185185185],[0.2289583333333333,0.5668518518518519],[0.2247916666666666,0.6118518518518518],[0.22270833333333329,0.5733333333333334],[0.21927083333333333,0.5435185185185185],[0.21927083333333333,0.5435185185185185],[0.21947916666666673,0.49537037037037035],[0.21947916666666673,0.49537037037037035],[0.21875,0.4661111111111112],[0.21875,0.4661111111111112],[0.22687499999999997,0.3972222222222222],[0.22687499999999997,0.3972222222222222],[0.23666666666666672,0.3337037037037038],[0.23666666666666672,0.3337037037037038],[0.2703125,0.30388888888888893],[0.2703125,0.30388888888888893],[0.26624999999999993,0.30037037037037045],[0.26624999999999993,0.30037037037037045],[0.26666666666666666,0.3014814814814814],[0.26666666666666666,0.3014814814814814],[0.2679166666666667,0.28944444444444434],[0.2679166666666667,0.28944444444444434],[0.2726041666666667,0.2698148148148149],[0.2726041666666667,0.2698148148148149],[0.26927083333333335,0.2962962962962963],[0.26927083333333335,0.2962962962962963],[0.2705208333333334,0.2785185185185185],[0.2705208333333334,0.2785185185185185],[0.29229166666666656,0.22592592592592592],[0.2964583333333332,0.22925925925925916],[0.2986458333333334,0.22407407407407406],[0.28802083333333334,0.16666666666666666],[0.28760416666666655,0.11277777777777774],[0.28895833333333343,0.053703703703703705],[0.28895833333333343,0.053703703703703705],[0.2964583333333332,0.0035185185185184764],[0.29416666666666674,0.006296296296296254],[0.30322916666666655,-0.05944444444444449],[0.31124999999999997,-0.07462962962962966],[0.2929166666666667,-0.03518518518518519],[0.2838541666666667,-0.025185185185185227],[0.2747916666666666,-0.01518518518518527],[0.2747916666666666,-0.01518518518518527],[0.28458333333333335,-0.04000000000000004],[0.28458333333333335,-0.04000000000000004],[0.27843749999999995,-0.04981481481481477],[0.27843749999999995,-0.04981481481481477],[0.27937500000000004,-0.02907407407407416],[0.28072916666666664,-0.06074074074074076],[0.2783333333333334,-0.10259259259259255],[0.2783333333333334,-0.10259259259259255],[0.2685416666666666,-0.1272222222222222],[0.2522916666666667,-0.11074074074074076],[0.2522916666666667,-0.11074074074074076],[0.24031250000000004,-0.14814814814814814],[0.2423958333333334,-0.16500000000000004],[0.2443749999999999,-0.20018518518518522],[0.22218749999999995,-0.18203703703703705],[0.22229166666666675,-0.20333333333333337],[0.20583333333333323,-0.23333333333333334],[0.19500000000000003,-0.2559259259259259],[0.17135416666666667,-0.252962962962963],[0.16541666666666663,-0.24129629629629631],[0.15354166666666677,-0.2596296296296296],[0.14447916666666671,-0.259074074074074],[0.12104166666666671,-0.28277777777777774],[0.09375,-0.3001851851851852],[0.09874999999999995,-0.2388888888888889],[0.08572916666666662,-0.1727777777777778],[0.0890625,-0.1259259259259259],[0.06885416666666658,-0.07185185185185188],[0.08177083333333333,-0.12833333333333335],[0.07937500000000004,-0.18703703703703703],[0.10437500000000005,-0.28166666666666673],[0.10437500000000005,-0.3801851851851852],[0.11937499999999991,-0.465],[0.13833333333333328,-0.5377777777777777],[0.13833333333333328,-0.5377777777777777],[0.1365624999999999,-0.6542592592592593],[0.1521874999999999,-0.7455555555555556],[0.15812499999999996,-0.8225925925925925],[0.16375000000000003,-0.8638888888888889],[0.1538541666666667,-0.8094444444444445],[0.1515625,-0.7694444444444445],[0.1515625,-0.7694444444444445],[0.12468750000000005,-0.6753703703703704],[0.13229166666666667,-0.587037037037037],[0.13093750000000004,-0.5025925925925926],[0.12822916666666656,-0.4009259259259259],[0.12604166666666666,-0.4016666666666666],[0.12145833333333324,-0.40851851851851856],[0.12145833333333324,-0.40851851851851856],[0.14718749999999994,-0.337037037037037],[0.17333333333333342,-0.3648148148148148],[0.19947916666666668,-0.3925925925925926],[0.19989583333333344,-0.4270370370370371],[0.24114583333333334,-0.415925925925926],[0.24989583333333343,-0.4735185185185185],[0.25541666666666674,-0.532962962962963],[0.26624999999999993,-0.6114814814814815],[0.27999999999999997,-0.6285185185185185],[0.30010416666666656,-0.6096296296296296],[0.30010416666666656,-0.6096296296296296],[0.2864583333333333,-0.6383333333333333],[0.2930208333333333,-0.6005555555555556],[0.2930208333333333,-0.6005555555555556],[0.26052083333333326,-0.5416666666666666],[0.26052083333333326,-0.5416666666666666],[0.28010416666666677,-0.4485185185185185],[0.2634375000000001,-0.5109259259259259],[0.2694791666666667,-0.4987037037037037],[0.28624999999999995,-0.4946296296296297],[0.27708333333333335,-0.43425925925925923],[0.27708333333333335,-0.43425925925925923],[0.2652083333333332,-0.41574074074074074],[0.2652083333333332,-0.41574074074074074],[0.2493750000000001,-0.4292592592592593],[0.2493750000000001,-0.4292592592592593],[0.23864583333333325,-0.4383333333333333],[0.23250000000000004,-0.43499999999999994],[0.26541666666666663,-0.4527777777777778],[0.2663541666666667,-0.5162962962962964],[0.25677083333333334,-0.46870370370370373],[0.24770833333333328,-0.4255555555555556],[0.22541666666666677,-0.3785185185185185],[0.22447916666666667,-0.38499999999999995],[0.23947916666666677,-0.32388888888888884]]","[[-0.02510416666666669,-0.06407407407407412,0.00029999971389571556],[-0.02510416666666669,-0.06407407407407412,0.04969999980926332],[0.001145833333333357,-0.059999999999999956,0.06099999999999994],[-0.04229166666666669,-0.04814814814814815,0.08099999999999596],[-0.12291666666666666,-0.01703703703703712,0.09700000000000131],[-0.19364583333333332,-0.06925925925925921,0.11299999999999955],[-0.25812499999999994,-0.1359259259259259,0.1306999998092664],[-0.31791666666666674,-0.15037037037037035,0.1469000000953642],[-0.38395833333333335,-0.14462962962962966,0.1739999999999995],[-0.38395833333333335,-0.14462962962962966,0.18229999971389788],[-0.4547916666666667,-0.16111111111111112,0.19419999980926406],[-0.5278125,-0.2035185185185185,0.21099999999999852],[-0.6115625,-0.25703703703703706,0.22819999980926298],[-0.7,-0.32166666666666666,0.24479999971389788],[-0.7528125,-0.37407407407407406,0.26229999971389617],[-0.7483333333333333,-0.43555555555555553,0.2775999999046306],[-0.7625,-0.4648148148148148,0.29429999971389265],[-0.7751041666666667,-0.47740740740740745,0.31219999980926616],[-0.7751041666666667,-0.47740740740740745,0.32759999990462774],[-0.7630208333333334,-0.5148148148148148,0.3442999997138969],[-0.7784375,-0.5233333333333334,0.3609000000953628],[-0.7739583333333333,-0.5414814814814815,0.377599999904632],[-0.7772916666666667,-0.5425925925925926,0.3957999997138941],[-0.763125,-0.5298148148148148,0.4114000000953624],[-0.7489583333333333,-0.517037037037037,0.430499999999995],[-0.7489583333333333,-0.517037037037037,0.44429999971389833],[-0.7257291666666668,-0.5122222222222222,0.4610999999046328],[-0.6798958333333334,-0.5416666666666666,0.48309999990463126],[-0.6798958333333334,-0.5416666666666666,0.4942999997138955],[-0.5901041666666667,-0.4981481481481482,0.5109999999999957],[-0.5203125,-0.49074074074074076,0.5281999998092601],[-0.4717708333333333,-0.41814814814814816,0.5456999998092655],[-0.38604166666666667,-0.42777777777777776,0.5616999998092638],[-0.3110416666666667,-0.42481481481481476,0.577699999809262],[-0.22437499999999996,-0.44092592592592594,0.5967999997138946],[-0.1486458333333334,-0.3757407407407407,0.6110999999046314],[-0.07104166666666671,-0.3272222222222222,0.6334000000953637],[-0.07104166666666671,-0.3272222222222222,0.6444000000953665],[0.018020833333333285,-0.27314814814814814,0.6644000000953625],[0.05270833333333336,-0.205,0.6865999999046295],[0.05270833333333336,-0.205,0.6944000000953636],[0.04354166666666662,-0.22870370370370371,0.7110999999046328],[0.01739583333333338,-0.2007407407407407,0.7315999999046312],[0.009895833333333333,-0.15870370370370368,0.7480999999046318],[0.00458333333333331,-0.13185185185185183,0.7629000000953639],[0.0017708333333333807,-0.08277777777777776,0.7815999999046284],[-0.0003124999999999526,-0.04259259259259259,0.7962999997138951],[-0.003125,-0.08277777777777776,0.8110999999046271],[-0.0078125,-0.10629629629629625,0.8277999997138963],[-0.00625,-0.14888888888888885,0.8474999999999966],[0.0014583333333333095,-0.12185185185185188,0.8625999999046314],[0.01270833333333338,-0.0816666666666667,0.8779000000953658],[0.11270833333333338,-0.09759259259259258,0.8942999997138941],[0.18239583333333323,-0.15796296296296297,0.9109000000953671],[0.22781250000000006,-0.10981481481481484,0.9279999999999973],[0.28322916666666675,-0.1259259259259259,0.9441999998092641],[0.33270833333333344,-0.12148148148148152,0.9632999997138967],[0.35906250000000006,-0.09351851851851851,0.9792999997138949],[0.3775000000000001,-0.07388888888888885,0.9941999998092612],[0.39791666666666664,-0.027407407407407325,1.0122999997138962],[0.4087500000000001,-0.011296296296296339,1.0294999999999987],[0.4195833333333333,0.004814814814814857,1.044400000095365],[0.38822916666666674,-0.003888888888888931,1.0637999997138934],[0.34437499999999993,0.007777777777777862,1.0789000000953664],[0.32843749999999994,-0.0007407407407406986,1.0959999999999965],[0.2994791666666667,0.02370370370370362,1.1134999999999948],[0.2837500000000001,0.02962962962962963,1.133499999999998],[0.2837500000000001,0.02962962962962963,1.1444000000953665],[0.26802083333333326,0.05611111111111103,1.1611999998092628],[0.2540625000000001,0.06833333333333329,1.1776999998092634],[0.24145833333333327,0.069074074074074,1.1969000000953685],[0.24708333333333338,0.027407407407407325,1.2112999997138942],[0.25270833333333326,-0.014259259259259343,1.2319999999999993],[0.24552083333333338,0.009444444444444486,1.2504000000953681],[0.2671875,0.08111111111111102,1.2646999998092596],[0.26687500000000003,0.14611111111111108,1.2801999998092626],[0.24541666666666656,0.20203703703703707,1.2969000000953628],[0.21208333333333323,0.2668518518518519,1.3136999998092662],[0.2009375000000001,0.30462962962962964,1.3299999999999983],[0.17645833333333344,0.3051851851851851,1.346199999809265],[0.14052083333333343,0.325,1.3609000000953628],[0.10145833333333343,0.35796296296296287,1.3776999998092663],[0.07354166666666657,0.37833333333333324,1.3941999998092598],[0.04885416666666664,0.3987037037037036,1.4110000000000014],[-0.008229166666666643,0.39203703703703713,1.4339999999999975],[-0.008229166666666643,0.39203703703703713,1.44709999990463],[-0.06531250000000005,0.3853703703703704,1.4609999999999985],[-0.09270833333333334,0.3761111111111112,1.4817999997138926],[-0.09239583333333339,0.3918518518518519,1.4979000000953633],[-0.09114583333333333,0.3905555555555555,1.5124999999999957],[-0.0907291666666667,0.4487037037037036,1.5279000000953644],[-0.08843749999999997,0.49129629629629623,1.5441999998092655],[-0.05249999999999998,0.567962962962963,1.5609000000953657],[-0.046875,0.6551851851851851,1.5781999998092644],[-0.041562499999999974,0.7449999999999999,1.5997999997138947],[0.0140625,0.712037037037037,1.6147999997138953],[0.0140625,0.712037037037037,1.6284999999999954],[0.0865624999999999,0.6761111111111111,1.6602999997138923],[0.0865624999999999,0.6761111111111111,1.6704000000953627],[0.12374999999999996,0.665,1.6784999999999997],[0.12374999999999996,0.665,1.6944000000953636],[0.14020833333333324,0.6229629629629629,1.7164999999999964],[0.14020833333333324,0.6229629629629629,1.7279999999999944],[0.15437500000000004,0.5844444444444444,1.7444000000953679],[0.15437500000000004,0.5844444444444444,1.76109999990463],[0.1865624999999999,0.5612962962962963,1.7824999999999989],[0.1865624999999999,0.5612962962962963,1.7944999999999993],[0.23968749999999991,0.5112962962962964,1.8111999998092614],[0.23968749999999991,0.5112962962962964,1.8300999999046326],[0.24635416666666668,0.4527777777777778,1.8444000000953622],[0.27937500000000004,0.37185185185185177,1.8609000000953628],[0.3297916666666666,0.2959259259259258,1.877599999904632],[0.3219791666666666,0.27259259259259266,1.8941999998092598],[0.3219791666666666,0.27259259259259266,1.910900000095367],[0.3154166666666666,0.25685185185185194,1.9275999999046292],[0.31583333333333335,0.18555555555555564,1.944199999809264],[0.29666666666666663,0.13537037037037042,1.9609999999999985],[0.2904166666666666,0.08981481481481482,1.9775999999046334],[0.2915625000000001,0.02296296296296292,1.9941999998092612],[0.2717708333333334,0.006296296296296254,2.0124999999999957],[0.2647916666666667,-0.03592592592592588,2.0290999999046306],[0.24729166666666677,-0.05722222222222218,2.0441999998092655],[0.20177083333333337,-0.09222222222222225,2.0609000000953657],[0.1974999999999999,-0.12851851851851848,2.0790000000000006],[0.16614583333333333,-0.14629629629629629,2.0941999998092626],[0.15479166666666658,-0.1175925925925926,2.110900000095363],[0.19458333333333327,-0.15055555555555558,2.130599999904632],[0.19822916666666662,-0.14425925925925923,2.1447999997138965],[0.20354166666666676,-0.060555555555555536,2.160900000095367],[0.20885416666666667,-0.0001851851851852273,2.177599999904629],[0.2021874999999999,0.03259259259259263,2.194199999809264],[0.20125000000000004,0.06851851851851852,2.2109000000953642],[0.209375,0.1,2.227499999999999],[0.20843749999999991,0.15166666666666662,2.244199999809261],[0.221875,0.16500000000000004,2.2609000000953685],[0.23916666666666658,0.1737037037037036,2.2775999999046306],[0.2085416666666667,0.22444444444444453,2.2941999998092655],[0.19385416666666658,0.2140740740740741,2.3109000000953657],[0.19385416666666658,0.2140740740740741,2.3275999999046277],[0.16760416666666675,0.16055555555555565,2.3441999998092626],[0.1390625,0.11388888888888889,2.360900000095363],[0.1224999999999999,0.0948148148148149,2.378299999713896],[0.12510416666666657,0.07444444444444454,2.39419999980926],[0.12958333333333344,0.06462962962962959,2.410900000095367],[0.13406250000000006,0.05481481481481486,2.4317999997138955],[0.13406250000000006,0.05481481481481486,2.444900000095366],[0.13510416666666672,0.07925925925925917,2.4609999999999985],[0.13510416666666672,0.07925925925925917,2.4776999998092606],[0.13572916666666662,0.12407407407407407,2.497400000095368],[0.1678124999999999,0.15685185185185194,2.5135000000000005],[0.18458333333333338,0.18203703703703694,2.527699999809265],[0.20947916666666658,0.17925925925925917,2.5441999998092655],[0.24322916666666666,0.13574074074074066,2.5609000000953657],[0.28250000000000003,0.08333333333333333,2.5775000000000006],[0.31270833333333337,0.06092592592592588,2.594299999713897],[0.3394791666666668,0.03296296296296288,2.610999999999997],[0.3631249999999999,0.009629629629629714,2.6280999999046273],[0.38291666666666657,-0.027777777777777776,2.64419999980926],[0.3910416666666668,-0.05925925925925926,2.660900000095367],[0.37437500000000007,-0.07592592592592592,2.6777999997138977],[0.3628124999999999,-0.06925925925925921,2.694199999809264],[0.34791666666666665,-0.06259259259259262,2.7109000000953642],[0.34791666666666665,-0.06259259259259262,2.7275999999046334],[0.3337500000000001,-0.04537037037037037,2.7442999997138955],[0.30739583333333326,-0.011666666666666582,2.7609000000953685],[0.2685416666666666,-0.006296296296296254,2.7775999999046306],[0.22989583333333338,0.03481481481481473,2.7942999997138926],[0.1943749999999999,0.0712962962962963,2.8109000000953657],[0.16072916666666662,0.10277777777777777,2.8299999999999983],[0.1443749999999999,0.14092592592592595,2.844400000095362],[0.12822916666666656,0.16870370370370374,2.8625999999046314],[0.1318749999999999,0.19444444444444445,2.8774999999999977],[0.1318749999999999,0.19444444444444445,2.89419999980926],[0.13114583333333343,0.23574074074074067,2.910900000095367],[0.13802083333333334,0.21444444444444435,2.927599999904629],[0.13760416666666658,0.25759259259259265,2.944900000095366],[0.14833333333333343,0.29611111111111105,2.9609999999999985],[0.1622916666666666,0.3044444444444444,2.9775999999046334],[0.1578125,0.27759259259259256,2.9942999997138955],[0.15333333333333338,0.2581481481481481,3.0109000000953685],[0.15760416666666663,0.1588888888888888,3.0275999999046306],[0.1616666666666667,0.1,3.0442999997138926],[0.17687499999999995,0.0448148148148149,3.0614999999999952],[0.17468750000000005,0.0242592592592593,3.0775000000000006],[0.17770833333333325,0.04092592592592597,3.0941999998092626],[0.20208333333333334,-0.06129629629629634,3.110900000095363],[0.20979166666666677,-0.13944444444444445,3.1284999999999954],[0.22218749999999995,-0.24074074074074073,3.157199999809265],[0.22218749999999995,-0.24074074074074073,3.1647999997138925],[0.24249999999999997,-0.18518518518518517,3.177599999904629],[0.2741666666666667,-0.14666666666666664,3.1942999997138983],[0.2883333333333333,-0.051666666666666625,3.213099999904628],[0.30520833333333336,0.015000000000000043,3.2294000000953673],[0.3089583333333332,0.04000000000000004,3.2461999998092637],[0.32052083333333337,0.004074074074074159,3.2624000000953686],[0.31260416666666657,0.03333333333333333,3.279199999809265],[0.29697916666666657,0.10129629629629638,3.2941999998092655],[0.2868750000000001,0.14981481481481476,3.3109000000953657],[0.28958333333333336,0.32111111111111107,3.3279000000953687],[0.31354166666666666,0.3235185185185186,3.344299999713897],[0.35145833333333343,0.3346296296296297,3.360900000095363],[0.38937499999999997,0.34574074074074085,3.378999999999998],[0.3955208333333334,0.32759259259259255,3.39419999980926],[0.4036458333333333,0.34740740740740744,3.411199999809263],[0.4384375000000001,0.43074074074074076,3.430799999713898],[0.4384375000000001,0.43074074074074076,3.4442999997138983],[0.4726041666666667,0.4975925925925927,3.4609000000953642],[0.4726041666666667,0.4975925925925927,3.4775999999046334],[0.4813541666666666,0.5446296296296297,3.494199999809261],[0.48760416666666656,0.6825925925925926,3.514799999713894],[0.4521874999999999,0.7048148148148149,3.5309000000953645],[0.40604166666666663,0.7742592592592593,3.5469000000953628],[0.33833333333333326,0.8296296296296296,3.561099999904627],[0.27062499999999995,0.885,3.5800999999046326],[0.2289583333333333,0.9964814814814813,3.5955999999046284],[0.1872916666666666,1.1079629629629628,3.610900000095363],[0.1872916666666666,1.1079629629629628,3.6276999998092663],[0.13291666666666657,1.1666666666666667,3.6444000000953665],[0.13291666666666657,1.1666666666666667,3.660900000095367],[0.12635416666666663,1.1664814814814817,3.6776999998092634],[0.12635416666666663,1.1664814814814817,3.694199999809264],[0.14479166666666668,1.2,3.7109999999999985],[0.14479166666666668,1.2,3.7276999998092606],[0.134375,1.1724074074074073,3.7442999997138955],[0.134375,1.1724074074074073,3.7609000000953685],[0.12822916666666656,1.2031481481481483,3.7775999999046306],[0.12822916666666656,1.2031481481481483,3.7941999998092655],[0.09583333333333334,1.167962962962963,3.811],[0.09583333333333334,1.167962962962963,3.8275999999046277],[0.07135416666666666,1.1283333333333332,3.844299999713897],[0.07135416666666666,1.1283333333333332,3.860999999999997],[0.03895833333333331,1.105925925925926,3.877599999904632],[0.03895833333333331,1.105925925925926,3.894299999713894],[0.011354166666666643,1.0505555555555555,3.9110000000000014],[-0.003541666666666643,0.987777777777778,3.9329000000953656],[-0.035000000000000024,0.9062962962962965,3.9510000000000005],[-0.035000000000000024,0.9062962962962965,3.9609000000953642],[-0.11822916666666666,0.8846296296296298,3.9775999999046334],[-0.11822916666666666,0.8846296296296298,3.994199999809261],[-0.19135416666666671,0.8731481481481481,4.010999999999996],[-0.19135416666666671,0.8731481481481481,4.027799999713892],[-0.24249999999999997,0.7966666666666667,4.0441999998092655],[-0.28500000000000003,0.7162962962962962,4.060900000095366],[-0.2827083333333333,0.6566666666666667,4.077500000000001],[-0.2894791666666666,0.5862962962962963,4.097799999713892],[-0.2894791666666666,0.5862962962962963,4.112599999904631],[-0.2883333333333333,0.4987037037037036,4.127599999904632],[-0.29281250000000003,0.48629629629629634,4.1444000000953665],[-0.30447916666666663,0.4642592592592593,4.160900000095367],[-0.2860416666666667,0.42018518518518516,4.177599999904629],[-0.2633333333333333,0.4607407407407407,4.194199999809264],[-0.2453125,0.4885185185185184,4.211500000000001],[-0.19197916666666662,0.5027777777777778,4.227699999809261],[-0.13895833333333332,0.5625925925925925,4.2442999997138955],[-0.08729166666666661,0.6255555555555554,4.2609000000953685],[-0.033958333333333354,0.7314814814814815,4.277499999999996],[0.013750000000000047,0.8272222222222223,4.2941999998092655],[0.07770833333333324,0.8712962962962963,4.310900000095366],[0.12333333333333343,0.9038888888888887,4.327599999904628],[0.1554166666666667,0.9772222222222223,4.344199999809263],[0.18104166666666663,0.967962962962963,4.360900000095363],[0.20197916666666677,0.9555555555555556,4.377499999999998],[0.2101041666666667,0.9840740740740742,4.394500000000001],[0.22979166666666656,0.9287037037037037,4.412999999999997],[0.24052083333333343,0.8451851851851852,4.427900000095363],[0.22645833333333343,0.8092592592592592,4.444599999904632],[0.21593749999999995,0.7816666666666667,4.46119999980926],[0.20447916666666663,0.7422222222222221,4.481199999809263],[0.21135416666666676,0.6987037037037036,4.497699999809264],[0.21822916666666667,0.6551851851851851,4.512999999999998],[0.23468749999999997,0.6103703703703705,4.529099999904631],[0.25114583333333323,0.5655555555555555,4.5441999998092655],[0.2564583333333334,0.5085185185185186,4.561],[0.26197916666666665,0.4390740740740741,4.579099999904628],[0.2631249999999999,0.43703703703703706,4.594199999809263],[0.2695833333333333,0.41333333333333344,4.612499999999997],[0.29364583333333344,0.3907407407407407,4.629099999904632],[0.2930208333333333,0.3557407407407408,4.645799999713894],[0.2853125000000001,0.37666666666666665,4.661299999713897],[0.27760416666666665,0.39759259259259266,4.678199999809266],[0.2716666666666666,0.38851851851851843,4.694199999809264],[0.2678124999999999,0.3762962962962964,4.711400000095367],[0.2552083333333333,0.39018518518518525,4.7309999999999945],[0.23854166666666668,0.4385185185185184,4.745900000095368],[0.21572916666666658,0.48925925925925934,4.7609000000953685],[0.19947916666666668,0.497037037037037,4.777499999999996],[0.1709374999999999,0.4618518518518518,4.794299999713893],[0.15833333333333333,0.4335185185185186,4.810799999713893],[0.15833333333333333,0.4335185185185186,4.827599999904628],[0.14729166666666677,0.38185185185185194,4.844299999713897],[0.12541666666666676,0.3425925925925926,4.861400000095365],[0.10062499999999991,0.26888888888888896,4.877599999904632],[0.07635416666666663,0.21296296296296297,4.894900000095362],[0.0609375,0.1427777777777778,4.911400000095362],[0.044270833333333336,0.04018518518518527,4.930199999809261],[0.017499999999999953,-0.026481481481481398,4.946699999809262],[-0.001979166666666643,-0.06888888888888887,4.960900000095364],[-0.02333333333333331,-0.06722222222222224,4.977499999999999],[-0.011458333333333333,-0.0977777777777778,4.994199999809261],[-0.03458333333333338,-0.11388888888888889,5.0109000000953685],[-0.0265625,-0.13537037037037042,5.027499999999996],[-0.041562499999999974,-0.11129629629629634,5.045799999713893],[-0.03927083333333338,-0.11796296296296294,5.060900000095366],[-0.0484375,-0.10944444444444448,5.078199999809264],[-0.05395833333333329,-0.09518518518518514,5.096900000095367],[-0.05593750000000005,-0.09203703703703701,5.112400000095363],[-0.05593750000000005,-0.09203703703703701,5.127599999904632],[-0.05291666666666662,-0.1255555555555556,5.14419999980926],[-0.0546875,-0.13703703703703704,5.160900000095367],[-0.08968750000000002,-0.11629629629629631,5.177599999904629],[-0.09500000000000004,-0.14148148148148143,5.194199999809264],[-0.12062499999999995,-0.17370370370370372,5.212299999713899],[-0.12552083333333333,-0.18870370370370365,5.227799999713895],[-0.14458333333333329,-0.2146296296296296,5.247900000095363],[-0.1805208333333333,-0.21074074074074076,5.263299999713894],[-0.21499999999999997,-0.2022222222222222,5.277499999999996],[-0.2046875,-0.20388888888888893,5.2941999998092655],[-0.19802083333333337,-0.18888888888888888,5.310799999713893],[-0.18520833333333328,-0.2014814814814815,5.32809999990463],[-0.17239583333333333,-0.2140740740740741,5.34669999980926],[-0.12562500000000001,-0.17166666666666663,5.362599999904631],[-0.0703125,-0.13370370370370369,5.377599999904632],[-0.02020833333333331,-0.07999999999999997,5.39419999980926],[-0.02020833333333331,-0.07999999999999997,5.410900000095367],[0.028437499999999952,-0.015555555555555513,5.427599999904629],[0.09874999999999995,-0.0198148148148149,5.4484000000953685],[0.184375,-0.02759259259259255,5.465199999809265],[0.184375,-0.02759259259259255,5.477599999904633],[0.23447916666666657,-0.03333333333333333,5.494199999809261],[0.2686458333333334,0.041111111111111195,5.510900000095361],[0.2686458333333334,0.041111111111111195,5.5275999999046235],[0.2897916666666667,0.09462962962962967,5.5441999998092655],[0.33229166666666665,0.14629629629629629,5.561299999713896],[0.34614583333333326,0.17444444444444454,5.577500000000001],[0.334375,0.19388888888888897,5.594199999809263],[0.3310416666666666,0.2351851851851852,5.61090000009537],[0.3310416666666666,0.2351851851851852,5.627599999904632],[0.32479166666666665,0.28407407407407403,5.644299999713894],[0.31906249999999997,0.3655555555555555,5.660900000095367],[0.29802083333333323,0.4505555555555555,5.6806999998092635],[0.2760416666666667,0.5324074074074074,5.696599999904635],[0.2703125,0.5372222222222223,5.710900000095364],[0.25416666666666665,0.5740740740740741,5.730000000000004],[0.24083333333333337,0.5835185185185185,5.744599999904636],[0.2289583333333333,0.5668518518518519,5.760799999713896],[0.2247916666666666,0.6118518518518518,5.778099999904626],[0.22270833333333329,0.5733333333333334,5.796199999809261],[0.21927083333333333,0.5435185185185185,5.819199999809257],[0.21927083333333333,0.5435185185185185,5.830599999904635],[0.21947916666666673,0.49537037037037035,5.847599999904631],[0.21947916666666673,0.49537037037037035,5.861099999904624],[0.21875,0.4661111111111112,5.877699999809266],[0.21875,0.4661111111111112,5.894299999713894],[0.22687499999999997,0.3972222222222222,5.91429999971389],[0.22687499999999997,0.3972222222222222,5.927799999713898],[0.23666666666666672,0.3337037037037038,5.944400000095371],[0.23666666666666672,0.3337037037037038,5.965799999713894],[0.2703125,0.30388888888888893,5.977699999809261],[0.2703125,0.30388888888888893,5.994400000095368],[0.26624999999999993,0.30037037037037045,6.014699999809267],[0.26624999999999993,0.30037037037037045,6.027799999713892],[0.26666666666666666,0.3014814814814814,6.044400000095365],[0.26666666666666666,0.3014814814814814,6.065799999713889],[0.2679166666666667,0.28944444444444434,6.077699999809269],[0.2679166666666667,0.28944444444444434,6.094400000095362],[0.2726041666666667,0.2698148148148149,6.114699999809261],[0.2726041666666667,0.2698148148148149,6.127699999809266],[0.26927083333333335,0.2962962962962963,6.144400000095359],[0.26927083333333335,0.2962962962962963,6.165499999999994],[0.2705208333333334,0.2785185185185185,6.177799999713898],[0.2705208333333334,0.2785185185185185,6.194400000095371],[0.29229166666666656,0.22592592592592592,6.214500000000001],[0.2964583333333332,0.22925925925925916,6.230699999809261],[0.2986458333333334,0.22407407407407406,6.244400000095368],[0.28802083333333334,0.16666666666666666,6.264499999999998],[0.28760416666666655,0.11277777777777774,6.2794000000953645],[0.28895833333333343,0.053703703703703705,6.294400000095365],[0.28895833333333343,0.053703703703703705,6.311099999904627],[0.2964583333333332,0.0035185185185184764,6.330799999713889],[0.29416666666666674,0.006296296296296254,6.34579999971389],[0.30322916666666655,-0.05944444444444449,6.361099999904624],[0.31124999999999997,-0.07462962962962966,6.379599999904627],[0.2929166666666667,-0.03518518518518519,6.394299999713894],[0.2838541666666667,-0.025185185185185227,6.411000000000001],[0.2747916666666666,-0.01518518518518527,6.430799999713898],[0.2747916666666666,-0.01518518518518527,6.444499999999991],[0.28458333333333335,-0.04000000000000004,6.461099999904633],[0.28458333333333335,-0.04000000000000004,6.477799999713895],[0.27843749999999995,-0.04981481481481477,6.497400000095368],[0.27843749999999995,-0.04981481481481477,6.510999999999996],[0.27937500000000004,-0.02907407407407416,6.5275999999046235],[0.28072916666666664,-0.06074074074074076,6.546199999809261],[0.2783333333333334,-0.10259259259259255,6.560999999999993],[0.2783333333333334,-0.10259259259259255,6.577699999809269],[0.2685416666666666,-0.1272222222222222,6.594400000095362],[0.2522916666666667,-0.11074074074074076,6.619099999904634],[0.2522916666666667,-0.11074074074074076,6.627499999999998],[0.24031250000000004,-0.14814814814814814,6.644400000095359],[0.2423958333333334,-0.16500000000000004,6.660900000095367],[0.2443749999999999,-0.20018518518518522,6.678900000095368],[0.22218749999999995,-0.18203703703703705,6.699699999809269],[0.22229166666666675,-0.20333333333333337,6.714599999904635],[0.20583333333333323,-0.23333333333333334,6.731099999904629],[0.19500000000000003,-0.2559259259259259,6.747099999904634],[0.17135416666666667,-0.252962962962963,6.764499999999998],[0.16541666666666663,-0.24129629629629631,6.779199999809265],[0.15354166666666677,-0.2596296296296296,6.7941999998092655],[0.14447916666666671,-0.259074074074074,6.810799999713893],[0.12104166666666671,-0.28277777777777774,6.831499999999991],[0.09375,-0.3001851851851852,6.846599999904626],[0.09874999999999995,-0.2388888888888889,6.862299999713898],[0.08572916666666662,-0.1727777777777778,6.879000000000005],[0.0890625,-0.1259259259259259,6.89419999980926],[0.06885416666666658,-0.07185185185185188,6.91440000009537],[0.08177083333333333,-0.12833333333333335,6.929900000095358],[0.07937500000000004,-0.18703703703703703,6.944199999809257],[0.10437500000000005,-0.28166666666666673,6.960799999713899],[0.10437500000000005,-0.3801851851851852,6.977499999999992],[0.11937499999999991,-0.465,6.994099999904634],[0.13833333333333328,-0.5377777777777777,7.013499999999993],[0.13833333333333328,-0.5377777777777777,7.027699999809258],[0.1365624999999999,-0.6542592592592593,7.044400000095365],[0.1521874999999999,-0.7455555555555556,7.060999999999993],[0.15812499999999996,-0.8225925925925925,7.082099999904628],[0.16375000000000003,-0.8638888888888889,7.099299999713892],[0.1538541666666667,-0.8094444444444445,7.114299999713893],[0.1515625,-0.7694444444444445,7.135499999999993],[0.1515625,-0.7694444444444445,7.144299999713894],[0.12468750000000005,-0.6753703703703704,7.160900000095367],[0.13229166666666667,-0.587037037037037,7.180900000095363],[0.13093750000000004,-0.5025925925925926,7.199699999809269],[0.12822916666666656,-0.4009259259259259,7.214199999809267],[0.12604166666666666,-0.4016666666666666,7.230699999809261],[0.12145833333333324,-0.40851851851851856,7.251199999809259],[0.12145833333333324,-0.40851851851851856,7.260900000095361],[0.14718749999999994,-0.337037037037037,7.277699999809258],[0.17333333333333342,-0.3648148148148148,7.2942999997139],[0.19947916666666668,-0.3925925925925926,7.31459999990463],[0.19989583333333344,-0.4270370370370371,7.330900000095369],[0.24114583333333334,-0.415925925925926,7.346099999904624],[0.24989583333333343,-0.4735185185185185,7.36079999971389],[0.25541666666666674,-0.532962962962963,7.377499999999998],[0.26624999999999993,-0.6114814814814815,7.397699999809262],[0.27999999999999997,-0.6285185185185185,7.4159000000953625],[0.30010416666666656,-0.6096296296296296,7.433799999713898],[0.30010416666666656,-0.6096296296296296,7.444499999999991],[0.2864583333333333,-0.6383333333333333,7.461199999809267],[0.2930208333333333,-0.6005555555555556,7.485599999904636],[0.2930208333333333,-0.6005555555555556,7.494199999809268],[0.26052083333333326,-0.5416666666666666,7.510999999999996],[0.26052083333333326,-0.5416666666666666,7.527699999809258],[0.28010416666666677,-0.4485185185185185,7.547799999713902],[0.2634375000000001,-0.5109259259259259,7.563500000000005],[0.2694791666666667,-0.4987037037037037,7.579299999713896],[0.28624999999999995,-0.4946296296296297,7.597199999809263],[0.27708333333333335,-0.43425925925925923,7.626799999713896],[0.27708333333333335,-0.43425925925925923,7.634199999809269],[0.2652083333333332,-0.41574074074074074,7.648699999809267],[0.2652083333333332,-0.41574074074074074,7.6614000000953695],[0.2493750000000001,-0.4292592592592593,7.6780999999046315],[0.2493750000000001,-0.4292592592592593,7.694299999713891],[0.23864583333333325,-0.4383333333333333,7.713699999809265],[0.23250000000000004,-0.43499999999999994,7.729500000000002],[0.26541666666666663,-0.4527777777777778,7.744199999809268],[0.2663541666666667,-0.5162962962962964,7.764400000095364],[0.25677083333333334,-0.46870370370370373,7.778799999713897],[0.24770833333333328,-0.4255555555555556,7.794099999904631],[0.22541666666666677,-0.3785185185185185,7.810799999713893],[0.22447916666666667,-0.38499999999999995,7.827500000000001],[0.23947916666666677,-0.32388888888888884,7.844099999904628]]","[0.00029999971389571556,0.04969999980926332,0.06099999999999994,0.08099999999999596,0.09700000000000131,0.11299999999999955,0.1306999998092664,0.1469000000953642,0.1739999999999995,0.18229999971389788,0.19419999980926406,0.21099999999999852,0.22819999980926298,0.24479999971389788,0.26229999971389617,0.2775999999046306,0.29429999971389265,0.31219999980926616,0.32759999990462774,0.3442999997138969,0.3609000000953628,0.377599999904632,0.3957999997138941,0.4114000000953624,0.430499999999995,0.44429999971389833,0.4610999999046328,0.48309999990463126,0.4942999997138955,0.5109999999999957,0.5281999998092601,0.5456999998092655,0.5616999998092638,0.577699999809262,0.5967999997138946,0.6110999999046314,0.6334000000953637,0.6444000000953665,0.6644000000953625,0.6865999999046295,0.6944000000953636,0.7110999999046328,0.7315999999046312,0.7480999999046318,0.7629000000953639,0.7815999999046284,0.7962999997138951,0.8110999999046271,0.8277999997138963,0.8474999999999966,0.8625999999046314,0.8779000000953658,0.8942999997138941,0.9109000000953671,0.9279999999999973,0.9441999998092641,0.9632999997138967,0.9792999997138949,0.9941999998092612,1.0122999997138962,1.0294999999999987,1.044400000095365,1.0637999997138934,1.0789000000953664,1.0959999999999965,1.1134999999999948,1.133499999999998,1.1444000000953665,1.1611999998092628,1.1776999998092634,1.1969000000953685,1.2112999997138942,1.2319999999999993,1.2504000000953681,1.2646999998092596,1.2801999998092626,1.2969000000953628,1.3136999998092662,1.3299999999999983,1.346199999809265,1.3609000000953628,1.3776999998092663,1.3941999998092598,1.4110000000000014,1.4339999999999975,1.44709999990463,1.4609999999999985,1.4817999997138926,1.4979000000953633,1.5124999999999957,1.5279000000953644,1.5441999998092655,1.5609000000953657,1.5781999998092644,1.5997999997138947,1.6147999997138953,1.6284999999999954,1.6602999997138923,1.6704000000953627,1.6784999999999997,1.6944000000953636,1.7164999999999964,1.7279999999999944,1.7444000000953679,1.76109999990463,1.7824999999999989,1.7944999999999993,1.8111999998092614,1.8300999999046326,1.8444000000953622,1.8609000000953628,1.877599999904632,1.8941999998092598,1.910900000095367,1.9275999999046292,1.944199999809264,1.9609999999999985,1.9775999999046334,1.9941999998092612,2.0124999999999957,2.0290999999046306,2.0441999998092655,2.0609000000953657,2.0790000000000006,2.0941999998092626,2.110900000095363,2.130599999904632,2.1447999997138965,2.160900000095367,2.177599999904629,2.194199999809264,2.2109000000953642,2.227499999999999,2.244199999809261,2.2609000000953685,2.2775999999046306,2.2941999998092655,2.3109000000953657,2.3275999999046277,2.3441999998092626,2.360900000095363,2.378299999713896,2.39419999980926,2.410900000095367,2.4317999997138955,2.444900000095366,2.4609999999999985,2.4776999998092606,2.497400000095368,2.5135000000000005,2.527699999809265,2.5441999998092655,2.5609000000953657,2.5775000000000006,2.594299999713897,2.610999999999997,2.6280999999046273,2.64419999980926,2.660900000095367,2.6777999997138977,2.694199999809264,2.7109000000953642,2.7275999999046334,2.7442999997138955,2.7609000000953685,2.7775999999046306,2.7942999997138926,2.8109000000953657,2.8299999999999983,2.844400000095362,2.8625999999046314,2.8774999999999977,2.89419999980926,2.910900000095367,2.927599999904629,2.944900000095366,2.9609999999999985,2.9775999999046334,2.9942999997138955,3.0109000000953685,3.0275999999046306,3.0442999997138926,3.0614999999999952,3.0775000000000006,3.0941999998092626,3.110900000095363,3.1284999999999954,3.157199999809265,3.1647999997138925,3.177599999904629,3.1942999997138983,3.213099999904628,3.2294000000953673,3.2461999998092637,3.2624000000953686,3.279199999809265,3.2941999998092655,3.3109000000953657,3.3279000000953687,3.344299999713897,3.360900000095363,3.378999999999998,3.39419999980926,3.411199999809263,3.430799999713898,3.4442999997138983,3.4609000000953642,3.4775999999046334,3.494199999809261,3.514799999713894,3.5309000000953645,3.5469000000953628,3.561099999904627,3.5800999999046326,3.5955999999046284,3.610900000095363,3.6276999998092663,3.6444000000953665,3.660900000095367,3.6776999998092634,3.694199999809264,3.7109999999999985,3.7276999998092606,3.7442999997138955,3.7609000000953685,3.7775999999046306,3.7941999998092655,3.811,3.8275999999046277,3.844299999713897,3.860999999999997,3.877599999904632,3.894299999713894,3.9110000000000014,3.9329000000953656,3.9510000000000005,3.9609000000953642,3.9775999999046334,3.994199999809261,4.010999999999996,4.027799999713892,4.0441999998092655,4.060900000095366,4.077500000000001,4.097799999713892,4.112599999904631,4.127599999904632,4.1444000000953665,4.160900000095367,4.177599999904629,4.194199999809264,4.211500000000001,4.227699999809261,4.2442999997138955,4.2609000000953685,4.277499999999996,4.2941999998092655,4.310900000095366,4.327599999904628,4.344199999809263,4.360900000095363,4.377499999999998,4.394500000000001,4.412999999999997,4.427900000095363,4.444599999904632,4.46119999980926,4.481199999809263,4.497699999809264,4.512999999999998,4.529099999904631,4.5441999998092655,4.561,4.579099999904628,4.594199999809263,4.612499999999997,4.629099999904632,4.645799999713894,4.661299999713897,4.678199999809266,4.694199999809264,4.711400000095367,4.7309999999999945,4.745900000095368,4.7609000000953685,4.777499999999996,4.794299999713893,4.810799999713893,4.827599999904628,4.844299999713897,4.861400000095365,4.877599999904632,4.894900000095362,4.911400000095362,4.930199999809261,4.946699999809262,4.960900000095364,4.977499999999999,4.994199999809261,5.0109000000953685,5.027499999999996,5.045799999713893,5.060900000095366,5.078199999809264,5.096900000095367,5.112400000095363,5.127599999904632,5.14419999980926,5.160900000095367,5.177599999904629,5.194199999809264,5.212299999713899,5.227799999713895,5.247900000095363,5.263299999713894,5.277499999999996,5.2941999998092655,5.310799999713893,5.32809999990463,5.34669999980926,5.362599999904631,5.377599999904632,5.39419999980926,5.410900000095367,5.427599999904629,5.4484000000953685,5.465199999809265,5.477599999904633,5.494199999809261,5.510900000095361,5.5275999999046235,5.5441999998092655,5.561299999713896,5.577500000000001,5.594199999809263,5.61090000009537,5.627599999904632,5.644299999713894,5.660900000095367,5.6806999998092635,5.696599999904635,5.710900000095364,5.730000000000004,5.744599999904636,5.760799999713896,5.778099999904626,5.796199999809261,5.819199999809257,5.830599999904635,5.847599999904631,5.861099999904624,5.877699999809266,5.894299999713894,5.91429999971389,5.927799999713898,5.944400000095371,5.965799999713894,5.977699999809261,5.994400000095368,6.014699999809267,6.027799999713892,6.044400000095365,6.065799999713889,6.077699999809269,6.094400000095362,6.114699999809261,6.127699999809266,6.144400000095359,6.165499999999994,6.177799999713898,6.194400000095371,6.214500000000001,6.230699999809261,6.244400000095368,6.264499999999998,6.2794000000953645,6.294400000095365,6.311099999904627,6.330799999713889,6.34579999971389,6.361099999904624,6.379599999904627,6.394299999713894,6.411000000000001,6.430799999713898,6.444499999999991,6.461099999904633,6.477799999713895,6.497400000095368,6.510999999999996,6.5275999999046235,6.546199999809261,6.560999999999993,6.577699999809269,6.594400000095362,6.619099999904634,6.627499999999998,6.644400000095359,6.660900000095367,6.678900000095368,6.699699999809269,6.714599999904635,6.731099999904629,6.747099999904634,6.764499999999998,6.779199999809265,6.7941999998092655,6.810799999713893,6.831499999999991,6.846599999904626,6.862299999713898,6.879000000000005,6.89419999980926,6.91440000009537,6.929900000095358,6.944199999809257,6.960799999713899,6.977499999999992,6.994099999904634,7.013499999999993,7.027699999809258,7.044400000095365,7.060999999999993,7.082099999904628,7.099299999713892,7.114299999713893,7.135499999999993,7.144299999713894,7.160900000095367,7.180900000095363,7.199699999809269,7.214199999809267,7.230699999809261,7.251199999809259,7.260900000095361,7.277699999809258,7.2942999997139,7.31459999990463,7.330900000095369,7.346099999904624,7.36079999971389,7.377499999999998,7.397699999809262,7.4159000000953625,7.433799999713898,7.444499999999991,7.461199999809267,7.485599999904636,7.494199999809268,7.510999999999996,7.527699999809258,7.547799999713902,7.563500000000005,7.579299999713896,7.597199999809263,7.626799999713896,7.634199999809269,7.648699999809267,7.6614000000953695,7.6780999999046315,7.694299999713891,7.713699999809265,7.729500000000002,7.744199999809268,7.764400000095364,7.778799999713897,7.794099999904631,7.810799999713893,7.827500000000001,7.844099999904628]","[1731918091316,1731918091356,1731918091367,1731918091387,1731918091403,1731918091419,1731918091437,1731918091453,1731918091480,1731918091488,1731918091500,1731918091517,1731918091534,1731918091551,1731918091568,1731918091584,1731918091600,1731918091618,1731918091634,1731918091650,1731918091667,1731918091684,1731918091702,1731918091717,1731918091737,1731918091750,1731918091767,1731918091789,1731918091800,1731918091817,1731918091834,1731918091852,1731918091868,1731918091884,1731918091903,1731918091917,1731918091939,1731918091950,1731918091970,1731918091993,1731918092000,1731918092017,1731918092037,1731918092054,1731918092069,1731918092088,1731918092102,1731918092117,1731918092134,1731918092154,1731918092169,1731918092184,1731918092200,1731918092217,1731918092234,1731918092250,1731918092269,1731918092285,1731918092300,1731918092318,1731918092335,1731918092350,1731918092370,1731918092385,1731918092402,1731918092419,1731918092439,1731918092450,1731918092467,1731918092484,1731918092503,1731918092517,1731918092538,1731918092556,1731918092571,1731918092586,1731918092603,1731918092620,1731918092636,1731918092652,1731918092667,1731918092684,1731918092700,1731918092717,1731918092740,1731918092753,1731918092767,1731918092788,1731918092804,1731918092818,1731918092834,1731918092850,1731918092867,1731918092884,1731918092906,1731918092921,1731918092934,1731918092966,1731918092976,1731918092984,1731918093000,1731918093022,1731918093034,1731918093050,1731918093067,1731918093088,1731918093100,1731918093117,1731918093136,1731918093150,1731918093167,1731918093184,1731918093200,1731918093217,1731918093234,1731918093250,1731918093267,1731918093284,1731918093300,1731918093318,1731918093335,1731918093350,1731918093367,1731918093385,1731918093400,1731918093417,1731918093437,1731918093451,1731918093467,1731918093484,1731918093500,1731918093517,1731918093534,1731918093550,1731918093567,1731918093584,1731918093600,1731918093617,1731918093634,1731918093650,1731918093667,1731918093684,1731918093700,1731918093717,1731918093738,1731918093751,1731918093767,1731918093784,1731918093803,1731918093819,1731918093834,1731918093850,1731918093867,1731918093884,1731918093900,1731918093917,1731918093934,1731918093950,1731918093967,1731918093984,1731918094000,1731918094017,1731918094034,1731918094050,1731918094067,1731918094084,1731918094100,1731918094117,1731918094136,1731918094150,1731918094169,1731918094184,1731918094200,1731918094217,1731918094234,1731918094251,1731918094267,1731918094284,1731918094300,1731918094317,1731918094334,1731918094350,1731918094368,1731918094384,1731918094400,1731918094417,1731918094434,1731918094463,1731918094471,1731918094484,1731918094500,1731918094519,1731918094535,1731918094552,1731918094568,1731918094585,1731918094600,1731918094617,1731918094634,1731918094650,1731918094667,1731918094685,1731918094700,1731918094717,1731918094737,1731918094750,1731918094767,1731918094784,1731918094800,1731918094821,1731918094837,1731918094853,1731918094867,1731918094886,1731918094902,1731918094917,1731918094934,1731918094950,1731918094967,1731918094984,1731918095000,1731918095017,1731918095034,1731918095050,1731918095067,1731918095084,1731918095100,1731918095117,1731918095134,1731918095150,1731918095167,1731918095184,1731918095200,1731918095217,1731918095239,1731918095257,1731918095267,1731918095284,1731918095300,1731918095317,1731918095334,1731918095350,1731918095367,1731918095383,1731918095404,1731918095419,1731918095434,1731918095450,1731918095467,1731918095484,1731918095500,1731918095517,1731918095534,1731918095550,1731918095567,1731918095584,1731918095600,1731918095617,1731918095634,1731918095650,1731918095667,1731918095683,1731918095700,1731918095719,1731918095734,1731918095751,1731918095767,1731918095787,1731918095804,1731918095819,1731918095835,1731918095850,1731918095867,1731918095885,1731918095900,1731918095918,1731918095935,1731918095952,1731918095967,1731918095984,1731918096000,1731918096017,1731918096037,1731918096052,1731918096067,1731918096084,1731918096100,1731918096117,1731918096134,1731918096150,1731918096167,1731918096184,1731918096201,1731918096217,1731918096236,1731918096253,1731918096267,1731918096283,1731918096300,1731918096317,1731918096334,1731918096352,1731918096367,1731918096384,1731918096403,1731918096418,1731918096434,1731918096450,1731918096467,1731918096484,1731918096500,1731918096518,1731918096534,1731918096554,1731918096569,1731918096583,1731918096600,1731918096617,1731918096634,1731918096653,1731918096669,1731918096683,1731918096700,1731918096717,1731918096734,1731918096754,1731918096771,1731918096784,1731918096800,1731918096817,1731918096834,1731918096850,1731918096867,1731918096884,1731918096900,1731918096917,1731918096934,1731918096950,1731918096967,1731918096987,1731918097003,1731918097017,1731918097036,1731918097051,1731918097067,1731918097084,1731918097102,1731918097125,1731918097137,1731918097154,1731918097167,1731918097184,1731918097200,1731918097220,1731918097234,1731918097250,1731918097272,1731918097284,1731918097300,1731918097321,1731918097334,1731918097350,1731918097372,1731918097384,1731918097400,1731918097421,1731918097434,1731918097450,1731918097471,1731918097484,1731918097500,1731918097521,1731918097537,1731918097550,1731918097570,1731918097585,1731918097600,1731918097617,1731918097637,1731918097652,1731918097667,1731918097686,1731918097700,1731918097717,1731918097737,1731918097750,1731918097767,1731918097784,1731918097803,1731918097817,1731918097834,1731918097852,1731918097867,1731918097884,1731918097900,1731918097925,1731918097934,1731918097950,1731918097967,1731918097985,1731918098006,1731918098021,1731918098037,1731918098053,1731918098070,1731918098085,1731918098100,1731918098117,1731918098138,1731918098153,1731918098168,1731918098185,1731918098200,1731918098220,1731918098236,1731918098250,1731918098267,1731918098283,1731918098300,1731918098319,1731918098334,1731918098350,1731918098367,1731918098388,1731918098405,1731918098420,1731918098442,1731918098450,1731918098467,1731918098487,1731918098506,1731918098520,1731918098537,1731918098557,1731918098567,1731918098584,1731918098600,1731918098621,1731918098637,1731918098652,1731918098667,1731918098683,1731918098704,1731918098722,1731918098740,1731918098750,1731918098767,1731918098792,1731918098800,1731918098817,1731918098834,1731918098854,1731918098869,1731918098885,1731918098903,1731918098933,1731918098940,1731918098955,1731918098967,1731918098984,1731918099000,1731918099020,1731918099035,1731918099050,1731918099070,1731918099085,1731918099100,1731918099117,1731918099133,1731918099150]","[[935.9,505.4],[935.9,505.4],[961.1,507.6],[919.4,514],[842,530.8],[774.1,502.6],[712.2,466.6],[654.8,458.8],[591.4,461.9],[591.4,461.9],[523.4,453],[453.3,430.1],[372.9,401.2],[288,366.3],[237.3,338],[241.6,304.8],[228,289],[215.9,282.2],[215.9,282.2],[227.5,262],[212.7,257.4],[217,247.6],[213.8,247],[227.4,253.9],[241,260.8],[241,260.8],[263.3,263.4],[307.3,247.5],[307.3,247.5],[393.5,271],[460.5,275],[507.1,314.2],[589.4,309],[661.4,310.6],[744.6,301.9],[817.3,337.1],[891.8,363.3],[891.8,363.3],[977.3,392.5],[1010.6,429.3],[1010.6,429.3],[1001.8,416.5],[976.7,431.6],[969.5,454.3],[964.4,468.8],[961.7,495.3],[959.7,517],[957,495.3],[952.5,482.6],[954,459.6],[961.4,474.2],[972.2,495.9],[1068.2,487.3],[1135.1,454.7],[1178.7,480.7],[1231.9,472],[1279.4,474.4],[1304.7,489.5],[1322.4,500.1],[1342,525.2],[1352.4,533.9],[1362.8,542.6],[1332.7,537.9],[1290.6,544.2],[1275.3,539.6],[1247.5,552.8],[1232.4,556],[1232.4,556],[1217.3,570.3],[1203.9,576.9],[1191.8,577.3],[1197.2,554.8],[1202.6,532.3],[1195.7,545.1],[1216.5,583.8],[1216.2,618.9],[1195.6,649.1],[1163.6,684.1],[1152.9,704.5],[1129.4,704.8],[1094.9,715.5],[1057.4,733.3],[1030.6,744.3],[1006.9,755.3],[952.1,751.7],[952.1,751.7],[897.3,748.1],[871,743.1],[871.3,751.6],[872.5,750.9],[872.9,782.3],[875.1,805.3],[909.6,846.7],[915,893.8],[920.1,942.3],[973.5,924.5],[973.5,924.5],[1043.1,905.1],[1043.1,905.1],[1078.8,899.1],[1078.8,899.1],[1094.6,876.4],[1094.6,876.4],[1108.2,855.6],[1108.2,855.6],[1139.1,843.1],[1139.1,843.1],[1190.1,816.1],[1190.1,816.1],[1196.5,784.5],[1228.2,740.8],[1276.6,699.8],[1269.1,687.2],[1269.1,687.2],[1262.8,678.7],[1263.2,640.2],[1244.8,613.1],[1238.8,588.5],[1239.9,552.4],[1220.9,543.4],[1214.2,520.6],[1197.4,509.1],[1153.7,490.2],[1149.6,470.6],[1119.5,461],[1108.6,476.5],[1146.8,458.7],[1150.3,462.1],[1155.4,507.3],[1160.5,539.9],[1154.1,557.6],[1153.2,577],[1161,594],[1160.1,621.9],[1173,629.1],[1189.6,633.8],[1160.2,661.2],[1146.1,655.6],[1146.1,655.6],[1120.9,626.7],[1093.5,601.5],[1077.6,591.2],[1080.1,580.2],[1084.4,574.9],[1088.7,569.6],[1088.7,569.6],[1089.7,582.8],[1089.7,582.8],[1090.3,607],[1121.1,624.7],[1137.2,638.3],[1161.1,636.8],[1193.5,613.3],[1231.2,585],[1260.2,572.9],[1285.9,557.8],[1308.6,545.2],[1327.6,525],[1335.4,508],[1319.4,499],[1308.3,502.6],[1294,506.2],[1294,506.2],[1280.4,515.5],[1255.1,533.7],[1217.8,536.6],[1180.7,558.8],[1146.6,578.5],[1114.3,595.5],[1098.6,616.1],[1083.1,631.1],[1086.6,645],[1086.6,645],[1085.9,667.3],[1092.5,655.8],[1092.1,679.1],[1102.4,699.9],[1115.8,704.4],[1111.5,689.9],[1107.2,679.4],[1111.3,625.8],[1115.2,594],[1129.8,564.2],[1127.7,553.1],[1130.6,562.1],[1154,506.9],[1161.4,464.7],[1173.3,410],[1173.3,410],[1192.8,440],[1223.2,460.8],[1236.8,512.1],[1253,548.1],[1256.6,561.6],[1267.7,542.2],[1260.1,558],[1245.1,594.7],[1235.4,620.9],[1238,713.4],[1261,714.7],[1297.4,720.7],[1333.8,726.7],[1339.7,716.9],[1347.5,727.6],[1380.9,772.6],[1380.9,772.6],[1413.7,808.7],[1413.7,808.7],[1422.1,834.1],[1428.1,908.6],[1394.1,920.6],[1349.8,958.1],[1284.8,988],[1219.8,1017.9],[1179.8,1078.1],[1139.8,1138.3],[1139.8,1138.3],[1087.6,1170],[1087.6,1170],[1081.3,1169.9],[1081.3,1169.9],[1099,1188],[1099,1188],[1089,1173.1],[1089,1173.1],[1083.1,1189.7],[1083.1,1189.7],[1052,1170.7],[1052,1170.7],[1028.5,1149.3],[1028.5,1149.3],[997.4,1137.2],[997.4,1137.2],[970.9,1107.3],[956.6,1073.4],[926.4,1029.4],[926.4,1029.4],[846.5,1017.7],[846.5,1017.7],[776.3,1011.5],[776.3,1011.5],[727.2,970.2],[686.4,926.8],[688.6,894.6],[682.1,856.6],[682.1,856.6],[683.2,809.3],[678.9,802.6],[667.7,790.7],[685.4,766.9],[707.2,788.8],[724.5,803.8],[775.7,811.5],[826.6,843.8],[876.2,877.8],[927.4,935],[973.2,986.7],[1034.6,1010.5],[1078.4,1028.1],[1109.2,1067.7],[1133.8,1062.7],[1153.9,1056],[1161.7,1071.4],[1180.6,1041.5],[1190.9,996.4],[1177.4,977],[1167.3,962.1],[1156.3,940.8],[1162.9,917.3],[1169.5,893.8],[1185.3,869.6],[1201.1,845.4],[1206.2,814.6],[1211.5,777.1],[1212.6,776],[1218.8,763.2],[1241.9,751],[1241.3,732.1],[1233.9,743.4],[1226.5,754.7],[1220.8,749.8],[1217.1,743.2],[1205,750.7],[1189,776.8],[1167.1,804.2],[1151.5,808.4],[1124.1,789.4],[1112,774.1],[1112,774.1],[1101.4,746.2],[1080.4,725],[1056.6,685.2],[1033.3,655],[1018.5,617.1],[1002.5,561.7],[976.8,525.7],[958.1,502.8],[937.6,503.7],[949,487.2],[926.8,478.5],[934.5,466.9],[920.1,479.9],[922.3,476.3],[913.5,480.9],[908.2,488.6],[906.3,490.3],[906.3,490.3],[909.2,472.2],[907.5,466],[873.9,477.2],[868.8,463.6],[844.2,446.2],[839.5,438.1],[821.2,424.1],[786.7,426.2],[753.6,430.8],[763.5,429.9],[769.9,438],[782.2,431.2],[794.5,424.4],[839.4,447.3],[892.5,467.8],[940.6,496.8],[940.6,496.8],[987.3,531.6],[1054.8,529.3],[1137,525.1],[1137,525.1],[1185.1,522],[1217.9,562.2],[1217.9,562.2],[1238.2,591.1],[1279,619],[1292.3,634.2],[1281,644.7],[1277.8,667],[1277.8,667],[1271.8,693.4],[1266.3,737.4],[1246.1,783.3],[1225,827.5],[1219.5,830.1],[1204,850],[1191.2,855.1],[1179.8,846.1],[1175.8,870.4],[1173.8,849.6],[1170.5,833.5],[1170.5,833.5],[1170.7,807.5],[1170.7,807.5],[1170,791.7],[1170,791.7],[1177.8,754.5],[1177.8,754.5],[1187.2,720.2],[1187.2,720.2],[1219.5,704.1],[1219.5,704.1],[1215.6,702.2],[1215.6,702.2],[1216,702.8],[1216,702.8],[1217.2,696.3],[1217.2,696.3],[1221.7,685.7],[1221.7,685.7],[1218.5,700],[1218.5,700],[1219.7,690.4],[1219.7,690.4],[1240.6,662],[1244.6,663.8],[1246.7,661],[1236.5,630],[1236.1,600.9],[1237.4,569],[1237.4,569],[1244.6,541.9],[1242.4,543.4],[1251.1,507.9],[1258.8,499.7],[1241.2,521],[1232.5,526.4],[1223.8,531.8],[1223.8,531.8],[1233.2,518.4],[1233.2,518.4],[1227.3,513.1],[1227.3,513.1],[1228.2,524.3],[1229.5,507.2],[1227.2,484.6],[1227.2,484.6],[1217.8,471.3],[1202.2,480.2],[1202.2,480.2],[1190.7,460],[1192.7,450.9],[1194.6,431.9],[1173.3,441.7],[1173.4,430.2],[1157.6,414],[1147.2,401.8],[1124.5,403.4],[1118.8,409.7],[1107.4,399.8],[1098.7,400.1],[1076.2,387.3],[1050,377.9],[1054.8,411],[1042.3,446.7],[1045.5,472],[1026.1,501.2],[1038.5,470.7],[1036.2,439],[1060.2,387.9],[1060.2,334.7],[1074.6,288.9],[1092.8,249.6],[1092.8,249.6],[1091.1,186.7],[1106.1,137.4],[1111.8,95.8],[1117.2,73.5],[1107.7,102.9],[1105.5,124.5],[1105.5,124.5],[1079.7,175.3],[1087,223],[1085.7,268.6],[1083.1,323.5],[1081,323.1],[1076.6,319.4],[1076.6,319.4],[1101.3,358],[1126.4,343],[1151.5,328],[1151.9,309.4],[1191.5,315.4],[1199.9,284.3],[1205.2,252.2],[1215.6,209.8],[1228.8,200.6],[1248.1,210.8],[1248.1,210.8],[1235,195.3],[1241.3,215.7],[1241.3,215.7],[1210.1,247.5],[1210.1,247.5],[1228.9,297.8],[1212.9,264.1],[1218.7,270.7],[1234.8,272.9],[1226,305.5],[1226,305.5],[1214.6,315.5],[1214.6,315.5],[1199.4,308.2],[1199.4,308.2],[1189.1,303.3],[1183.2,305.1],[1214.8,295.5],[1215.7,261.2],[1206.5,286.9],[1197.8,310.2],[1176.4,335.6],[1175.5,332.1],[1189.9,365.1]]","[-0.132282,0.39684600000000003]","[0.132282,0.39684600000000003]","[0.39684600000000003,0.39684600000000003]","[-0.39684600000000003,-0.132282]","[-0.39684600000000003,-0.39684600000000003]","[-0.39684600000000003,0.132282]","[-0.132282,-0.132282]","[0.132282,-0.132282]","[0.39684600000000003,-0.132282]","[-0.132282,-0.39684600000000003]","[0.132282,-0.39684600000000003]","[0.39684600000000003,-0.39684600000000003]","[-0.132282,0.132282]","[0.132282,0.132282]","[0.39684600000000003,0.132282]",0,0,0,0,1,3,Tablet,25,40,9,1,50,4,1,60,5
