inst1_resp.keys,inst1_resp.rt,calibrationMouse.x,calibrationMouse.y,calibrationMouse.leftButton,calibrationMouse.midButton,calibrationMouse.rightButton,calibrationClick.x,calibrationClick.y,calibrationClick.leftButton,calibrationClick.midButton,calibrationClick.rightButton,trialsc.thisRepN,trialsc.thisTrialN,trialsc.thisN,trialsc.thisIndex,trialsc.ran,calibration_x,calibration_y,participant,session,date,expName,psychopyVersion,OS,frameRate,calibrationClick.clicked_name,ScreenRes_pixels,Camera_pixels,mouse_2.x,mouse_2.y,mouse_2.leftButton,mouse_2.midButton,mouse_2.rightButton,mouse_2.time,mouse_2.clicked_name,mouse.x,mouse.y,mouse.leftButton,mouse.midButton,mouse.rightButton,mouse.time,mouse.clicked_name,Choice,Trial,TrialDuration,MOUSE_GAZE,ET_GAZE,ET_GAZE_x_T,time,unixTime,ET_GAZE_NF,Loc_Bus_label,Loc_Metro_label,Loc_RH_label,Loc_Cost_label,Loc_Travel_label,Loc_Comfort_label,Loc_Bus_cost,Loc_Metro_cost,Loc_RH_cost,Loc_Bus_travel,Loc_Metro_travel,Loc_RH_travel,Loc_Bus_comfort,Loc_Metro_comfort,Loc_RH_comfort,trials.thisRepN,trials.thisTrialN,trials.thisN,trials.thisIndex,trials.ran,Block,Device,RH_cost,RH_travel_time,RH_Comfort,metro_cost,metro_travel_time,metro_Comfort,Bus_cost,Bus_travel_time,Bus_Comfort
space,4.3319,-0.05,0.387037037,1,0,0,-0.330208333,-0.685185185,1,0,0,0,0,0,4,1,-0.33,-0.67,33,001,2024-11-18_17h38.11.004,Attention_exp_legacy,2023.1.0,Win32,59.88023952,,,,,,,,,,,,,,,,,,,,,,,,,,,,,,,,,,,,,,,,,,,,,,,,,,,,,,,,,
,,,,,,,-0.002083333,0.337037037,1,0,0,0,1,1,12,1,0,0.33,33,001,2024-11-18_17h38.11.004,Attention_exp_legacy,2023.1.0,Win32,59.88023952,calibration_square,,,,,,,,,,,,,,,,,,,,,,,,,,,,,,,,,,,,,,,,,,,,,,,,,,,,,,,,
,,,,,,,0.007291667,-0.325925926,1,0,0,0,2,2,10,1,0,-0.33,33,001,2024-11-18_17h38.11.004,Attention_exp_legacy,2023.1.0,Win32,59.88023952,calibration_square,,,,,,,,,,,,,,,,,,,,,,,,,,,,,,,,,,,,,,,,,,,,,,,,,,,,,,,,
,,,,,,,0.325,0.335185185,1,0,0,0,3,3,17,1,0.33,0.33,33,001,2024-11-18_17h38.11.004,Attention_exp_legacy,2023.1.0,Win32,59.88023952,calibration_square,,,,,,,,,,,,,,,,,,,,,,,,,,,,,,,,,,,,,,,,,,,,,,,,,,,,,,,,
,,,,,,,-0.66875,0.344444444,1,0,0,0,4,4,3,1,-0.67,0.33,33,001,2024-11-18_17h38.11.004,Attention_exp_legacy,2023.1.0,Win32,59.88023952,,,,,,,,,,,,,,,,,,,,,,,,,,,,,,,,,,,,,,,,,,,,,,,,,,,,,,,,,
,,,,,,,-0.660416667,-0.662962963,1,0,0,0,5,5,0,1,-0.67,-0.67,33,001,2024-11-18_17h38.11.004,Attention_exp_legacy,2023.1.0,Win32,59.88023952,calibration_square,,,,,,,,,,,,,,,,,,,,,,,,,,,,,,,,,,,,,,,,,,,,,,,,,,,,,,,,
,,,,,,,-0.673958333,-0.32962963,1,0,0,0,6,6,1,1,-0.67,-0.33,33,001,2024-11-18_17h38.11.004,Attention_exp_legacy,2023.1.0,Win32,59.88023952,calibration_square,,,,,,,,,,,,,,,,,,,,,,,,,,,,,,,,,,,,,,,,,,,,,,,,,,,,,,,,
,,,,,,,-0.011458333,0.003703704,1,0,0,0,7,7,11,1,0,0,33,001,2024-11-18_17h38.11.004,Attention_exp_legacy,2023.1.0,Win32,59.88023952,,,,,,,,,,,,,,,,,,,,,,,,,,,,,,,,,,,,,,,,,,,,,,,,,,,,,,,,,
,,,,,,,0.322916667,-0.337037037,1,0,0,0,8,8,15,1,0.33,-0.33,33,001,2024-11-18_17h38.11.004,Attention_exp_legacy,2023.1.0,Win32,59.88023952,calibration_square,,,,,,,,,,,,,,,,,,,,,,,,,,,,,,,,,,,,,,,,,,,,,,,,,,,,,,,,
,,,,,,,-0.004166667,-0.664814815,1,0,0,0,9,9,9,1,0,-0.67,33,001,2024-11-18_17h38.11.004,Attention_exp_legacy,2023.1.0,Win32,59.88023952,calibration_square,,,,,,,,,,,,,,,,,,,,,,,,,,,,,,,,,,,,,,,,,,,,,,,,,,,,,,,,
,,,,,,,0.33125,-0.668518519,1,0,0,0,10,10,14,1,0.33,-0.67,33,001,2024-11-18_17h38.11.004,Attention_exp_legacy,2023.1.0,Win32,59.88023952,calibration_square,,,,,,,,,,,,,,,,,,,,,,,,,,,,,,,,,,,,,,,,,,,,,,,,,,,,,,,,
,,,,,,,0.00625,0.685185185,1,0,0,0,11,11,13,1,0,0.67,33,001,2024-11-18_17h38.11.004,Attention_exp_legacy,2023.1.0,Win32,59.88023952,,,,,,,,,,,,,,,,,,,,,,,,,,,,,,,,,,,,,,,,,,,,,,,,,,,,,,,,,
,,,,,,,-0.670833333,0.003703704,1,0,0,0,12,12,2,1,-0.67,0,33,001,2024-11-18_17h38.11.004,Attention_exp_legacy,2023.1.0,Win32,59.88023952,calibration_square,,,,,,,,,,,,,,,,,,,,,,,,,,,,,,,,,,,,,,,,,,,,,,,,,,,,,,,,
,,,,,,,0.323958333,0.001851852,1,0,0,0,13,13,16,1,0.33,0,33,001,2024-11-18_17h38.11.004,Attention_exp_legacy,2023.1.0,Win32,59.88023952,calibration_square,,,,,,,,,,,,,,,,,,,,,,,,,,,,,,,,,,,,,,,,,,,,,,,,,,,,,,,,
,,,,,,,0.670833333,-0.672222222,1,0,0,0,14,14,20,1,0.67,-0.67,33,001,2024-11-18_17h38.11.004,Attention_exp_legacy,2023.1.0,Win32,59.88023952,calibration_square,,,,,,,,,,,,,,,,,,,,,,,,,,,,,,,,,,,,,,,,,,,,,,,,,,,,,,,,
,,,,,,,-0.328125,-0.32962963,1,0,0,0,15,15,5,1,-0.33,-0.33,33,001,2024-11-18_17h38.11.004,Attention_exp_legacy,2023.1.0,Win32,59.88023952,calibration_square,,,,,,,,,,,,,,,,,,,,,,,,,,,,,,,,,,,,,,,,,,,,,,,,,,,,,,,,
,,,,,,,-0.335416667,0.668518519,1,0,0,0,16,16,8,1,-0.33,0.67,33,001,2024-11-18_17h38.11.004,Attention_exp_legacy,2023.1.0,Win32,59.88023952,calibration_square,,,,,,,,,,,,,,,,,,,,,,,,,,,,,,,,,,,,,,,,,,,,,,,,,,,,,,,,
,,,,,,,0.65625,0.672222222,1,0,0,0,17,17,19,1,0.67,0.67,33,001,2024-11-18_17h38.11.004,Attention_exp_legacy,2023.1.0,Win32,59.88023952,,,,,,,,,,,,,,,,,,,,,,,,,,,,,,,,,,,,,,,,,,,,,,,,,,,,,,,,,
,,,,,,,-0.335416667,0.016666667,1,0,0,0,18,18,6,1,-0.33,0,33,001,2024-11-18_17h38.11.004,Attention_exp_legacy,2023.1.0,Win32,59.88023952,,,,,,,,,,,,,,,,,,,,,,,,,,,,,,,,,,,,,,,,,,,,,,,,,,,,,,,,,
,,,,,,,-0.325,0.342592593,1,0,0,0,19,19,7,1,-0.33,0.33,33,001,2024-11-18_17h38.11.004,Attention_exp_legacy,2023.1.0,Win32,59.88023952,,,,,,,,,,,,,,,,,,,,,,,,,,,,,,,,,,,,,,,,,,,,,,,,,,,,,,,,,
,,,,,,,0.338541667,0.666666667,1,0,0,0,20,20,18,1,0.33,0.67,33,001,2024-11-18_17h38.11.004,Attention_exp_legacy,2023.1.0,Win32,59.88023952,calibration_square,,,,,,,,,,,,,,,,,,,,,,,,,,,,,,,,,,,,,,,,,,,,,,,,,,,,,,,,
,,,,,,,,,,,,,,,,,,,33,001,2024-11-18_17h38.11.004,Attention_exp_legacy,2023.1.0,Win32,59.88023952,,"[1920,1080]","[640,480]",[0.026041666666666668],[-0.5314814814814814],[1],[0],[0],[1.2663000001907392],"[""StartButton""]",[0.434375],[0.4111111111111111],[1],[0],[0],[6.251199999809266],"[""RH_label""]",RH_label,1,7.2772,"[[0.06458333333333334,-0.42592592592592593],[0.06458333333333334,-0.42592592592592593],[0.06458333333333334,-0.42592592592592593],[0.06458333333333334,-0.42592592592592593],[0.06458333333333334,-0.42592592592592593],[0.06458333333333334,-0.42592592592592593],[0.06458333333333334,-0.42592592592592593],[0.06458333333333334,-0.42592592592592593],[0.06458333333333334,-0.42592592592592593],[0.06458333333333334,-0.42592592592592593],[0.06458333333333334,-0.42592592592592593],[0.06458333333333334,-0.42592592592592593],[0.06458333333333334,-0.42592592592592593],[0.06458333333333334,-0.42592592592592593],[0.06458333333333334,-0.42592592592592593],[0.06458333333333334,-0.42592592592592593],[0.06458333333333334,-0.42592592592592593],[0.06458333333333334,-0.4203703703703704],[0.06458333333333334,-0.4185185185185185],[0.06458333333333334,-0.4166666666666667],[0.06458333333333334,-0.4148148148148148],[0.06458333333333334,-0.4111111111111111],[0.06666666666666667,-0.40555555555555556],[0.06666666666666667,-0.39814814814814814],[0.06770833333333333,-0.387037037037037],[0.06770833333333333,-0.37777777777777777],[0.06770833333333333,-0.36666666666666664],[0.06770833333333333,-0.35555555555555557],[0.06770833333333333,-0.32592592592592595],[0.065625,-0.29259259259259257],[0.06041666666666667,-0.2574074074074074],[0.05416666666666667,-0.21851851851851853],[0.04791666666666667,-0.18333333333333332],[0.04375,-0.15185185185185185],[0.03854166666666667,-0.12407407407407407],[0.03333333333333333,-0.09074074074074075],[0.03125,-0.07037037037037037],[0.027083333333333334,-0.046296296296296294],[0.026041666666666668,-0.025925925925925925],[0.022916666666666665,-0.009259259259259259],[0.021875,0.005555555555555556],[0.021875,0.020370370370370372],[0.019791666666666666,0.025925925925925925],[0.019791666666666666,0.025925925925925925],[0.019791666666666666,0.025925925925925925],[0.019791666666666666,0.025925925925925925],[0.019791666666666666,0.025925925925925925],[0.019791666666666666,0.025925925925925925],[0.019791666666666666,0.025925925925925925],[0.019791666666666666,0.025925925925925925],[0.019791666666666666,0.025925925925925925],[0.019791666666666666,0.025925925925925925],[0.019791666666666666,0.025925925925925925],[0.019791666666666666,0.025925925925925925],[0.019791666666666666,0.025925925925925925],[0.019791666666666666,0.025925925925925925],[0.019791666666666666,0.025925925925925925],[0.019791666666666666,0.025925925925925925],[0.019791666666666666,0.025925925925925925],[0.019791666666666666,0.025925925925925925],[0.019791666666666666,0.025925925925925925],[0.019791666666666666,0.025925925925925925],[0.019791666666666666,0.025925925925925925],[0.019791666666666666,0.025925925925925925],[0.019791666666666666,0.025925925925925925],[0.019791666666666666,0.025925925925925925],[0.019791666666666666,0.025925925925925925],[0.019791666666666666,0.025925925925925925],[0.019791666666666666,0.025925925925925925],[0.019791666666666666,0.025925925925925925],[0.019791666666666666,0.025925925925925925],[0.019791666666666666,0.025925925925925925],[0.019791666666666666,0.025925925925925925],[0.019791666666666666,0.025925925925925925],[0.019791666666666666,0.025925925925925925],[0.019791666666666666,0.025925925925925925],[0.019791666666666666,0.025925925925925925],[0.019791666666666666,0.025925925925925925],[0.019791666666666666,0.025925925925925925],[0.019791666666666666,0.025925925925925925],[0.019791666666666666,0.025925925925925925],[0.019791666666666666,0.025925925925925925],[0.019791666666666666,0.025925925925925925],[0.019791666666666666,0.025925925925925925],[0.019791666666666666,0.025925925925925925],[0.019791666666666666,0.025925925925925925],[0.019791666666666666,0.025925925925925925],[0.019791666666666666,0.025925925925925925],[0.019791666666666666,0.025925925925925925],[0.019791666666666666,0.025925925925925925],[0.019791666666666666,0.025925925925925925],[0.019791666666666666,0.025925925925925925],[0.019791666666666666,0.025925925925925925],[0.019791666666666666,0.025925925925925925],[0.019791666666666666,0.025925925925925925],[0.019791666666666666,0.025925925925925925],[0.019791666666666666,0.025925925925925925],[0.019791666666666666,0.025925925925925925],[0.019791666666666666,0.025925925925925925],[0.019791666666666666,0.025925925925925925],[0.019791666666666666,0.025925925925925925],[0.019791666666666666,0.025925925925925925],[0.019791666666666666,0.025925925925925925],[0.019791666666666666,0.025925925925925925],[0.019791666666666666,0.025925925925925925],[0.019791666666666666,0.025925925925925925],[0.019791666666666666,0.025925925925925925],[0.019791666666666666,0.025925925925925925],[0.019791666666666666,0.025925925925925925],[0.019791666666666666,0.025925925925925925],[0.019791666666666666,0.025925925925925925],[0.019791666666666666,0.025925925925925925],[0.019791666666666666,0.025925925925925925],[0.019791666666666666,0.025925925925925925],[0.019791666666666666,0.025925925925925925],[0.019791666666666666,0.025925925925925925],[0.019791666666666666,0.025925925925925925],[0.019791666666666666,0.025925925925925925],[0.019791666666666666,0.025925925925925925],[0.019791666666666666,0.025925925925925925],[0.019791666666666666,0.025925925925925925],[0.019791666666666666,0.025925925925925925],[0.019791666666666666,0.025925925925925925],[0.019791666666666666,0.025925925925925925],[0.019791666666666666,0.025925925925925925],[0.019791666666666666,0.025925925925925925],[0.019791666666666666,0.025925925925925925],[0.019791666666666666,0.025925925925925925],[0.019791666666666666,0.025925925925925925],[0.019791666666666666,0.025925925925925925],[0.019791666666666666,0.025925925925925925],[0.019791666666666666,0.025925925925925925],[0.019791666666666666,0.025925925925925925],[0.019791666666666666,0.025925925925925925],[0.019791666666666666,0.025925925925925925],[0.019791666666666666,0.025925925925925925],[0.019791666666666666,0.025925925925925925],[0.019791666666666666,0.025925925925925925],[0.019791666666666666,0.025925925925925925],[0.019791666666666666,0.025925925925925925],[0.019791666666666666,0.025925925925925925],[0.019791666666666666,0.025925925925925925],[0.019791666666666666,0.025925925925925925],[0.019791666666666666,0.025925925925925925],[0.019791666666666666,0.025925925925925925],[0.019791666666666666,0.025925925925925925],[0.019791666666666666,0.025925925925925925],[0.019791666666666666,0.025925925925925925],[0.019791666666666666,0.025925925925925925],[0.019791666666666666,0.025925925925925925],[0.019791666666666666,0.025925925925925925],[0.019791666666666666,0.025925925925925925],[0.019791666666666666,0.025925925925925925],[0.019791666666666666,0.025925925925925925],[0.019791666666666666,0.025925925925925925],[0.019791666666666666,0.025925925925925925],[0.019791666666666666,0.025925925925925925],[0.019791666666666666,0.025925925925925925],[0.019791666666666666,0.025925925925925925],[0.019791666666666666,0.025925925925925925],[0.019791666666666666,0.025925925925925925],[0.019791666666666666,0.025925925925925925],[0.019791666666666666,0.025925925925925925],[0.019791666666666666,0.025925925925925925],[0.019791666666666666,0.025925925925925925],[0.019791666666666666,0.025925925925925925],[0.019791666666666666,0.025925925925925925],[0.019791666666666666,0.025925925925925925],[0.019791666666666666,0.025925925925925925],[0.019791666666666666,0.025925925925925925],[0.019791666666666666,0.025925925925925925],[0.019791666666666666,0.025925925925925925],[0.019791666666666666,0.025925925925925925],[0.019791666666666666,0.025925925925925925],[0.019791666666666666,0.025925925925925925],[0.019791666666666666,0.025925925925925925],[0.019791666666666666,0.025925925925925925],[0.019791666666666666,0.025925925925925925],[0.019791666666666666,0.025925925925925925],[0.019791666666666666,0.025925925925925925],[0.019791666666666666,0.025925925925925925],[0.019791666666666666,0.025925925925925925],[0.019791666666666666,0.025925925925925925],[0.019791666666666666,0.025925925925925925],[0.019791666666666666,0.025925925925925925],[0.019791666666666666,0.025925925925925925],[0.019791666666666666,0.025925925925925925],[0.019791666666666666,0.025925925925925925],[0.019791666666666666,0.025925925925925925],[0.019791666666666666,0.025925925925925925],[0.019791666666666666,0.025925925925925925],[0.019791666666666666,0.025925925925925925],[0.019791666666666666,0.025925925925925925],[0.019791666666666666,0.025925925925925925],[0.019791666666666666,0.025925925925925925],[0.019791666666666666,0.025925925925925925],[0.019791666666666666,0.025925925925925925],[0.019791666666666666,0.025925925925925925],[0.019791666666666666,0.025925925925925925],[0.019791666666666666,0.025925925925925925],[0.019791666666666666,0.025925925925925925],[0.019791666666666666,0.025925925925925925],[0.019791666666666666,0.025925925925925925],[0.019791666666666666,0.025925925925925925],[0.019791666666666666,0.025925925925925925],[0.019791666666666666,0.025925925925925925],[0.019791666666666666,0.025925925925925925],[0.019791666666666666,0.025925925925925925],[0.019791666666666666,0.025925925925925925],[0.019791666666666666,0.025925925925925925],[0.019791666666666666,0.025925925925925925],[0.019791666666666666,0.025925925925925925],[0.019791666666666666,0.025925925925925925],[0.019791666666666666,0.025925925925925925],[0.019791666666666666,0.025925925925925925],[0.019791666666666666,0.025925925925925925],[0.019791666666666666,0.025925925925925925],[0.019791666666666666,0.025925925925925925],[0.019791666666666666,0.025925925925925925],[0.019791666666666666,0.025925925925925925],[0.019791666666666666,0.025925925925925925],[0.019791666666666666,0.025925925925925925],[0.019791666666666666,0.025925925925925925],[0.019791666666666666,0.025925925925925925],[0.019791666666666666,0.025925925925925925],[0.019791666666666666,0.025925925925925925],[0.019791666666666666,0.025925925925925925],[0.019791666666666666,0.025925925925925925],[0.019791666666666666,0.025925925925925925],[0.019791666666666666,0.025925925925925925],[0.019791666666666666,0.025925925925925925],[0.019791666666666666,0.025925925925925925],[0.019791666666666666,0.025925925925925925],[0.019791666666666666,0.025925925925925925],[0.019791666666666666,0.025925925925925925],[0.019791666666666666,0.025925925925925925],[0.019791666666666666,0.025925925925925925],[0.019791666666666666,0.025925925925925925],[0.019791666666666666,0.025925925925925925],[0.019791666666666666,0.025925925925925925],[0.019791666666666666,0.025925925925925925],[0.019791666666666666,0.025925925925925925],[0.019791666666666666,0.025925925925925925],[0.019791666666666666,0.025925925925925925],[0.019791666666666666,0.025925925925925925],[0.019791666666666666,0.025925925925925925],[0.019791666666666666,0.025925925925925925],[0.019791666666666666,0.025925925925925925],[0.019791666666666666,0.025925925925925925],[0.019791666666666666,0.025925925925925925],[0.019791666666666666,0.025925925925925925],[0.019791666666666666,0.025925925925925925],[0.019791666666666666,0.025925925925925925],[0.019791666666666666,0.025925925925925925],[0.019791666666666666,0.025925925925925925],[0.019791666666666666,0.025925925925925925],[0.019791666666666666,0.025925925925925925],[0.019791666666666666,0.025925925925925925],[0.019791666666666666,0.025925925925925925],[0.019791666666666666,0.025925925925925925],[0.019791666666666666,0.025925925925925925],[0.019791666666666666,0.025925925925925925],[0.019791666666666666,0.025925925925925925],[0.019791666666666666,0.025925925925925925],[0.019791666666666666,0.025925925925925925],[0.019791666666666666,0.025925925925925925],[0.019791666666666666,0.025925925925925925],[0.019791666666666666,0.025925925925925925],[0.019791666666666666,0.025925925925925925],[0.019791666666666666,0.025925925925925925],[0.019791666666666666,0.025925925925925925],[0.019791666666666666,0.025925925925925925],[0.019791666666666666,0.025925925925925925],[0.019791666666666666,0.025925925925925925],[0.019791666666666666,0.025925925925925925],[0.019791666666666666,0.025925925925925925],[0.019791666666666666,0.025925925925925925],[0.019791666666666666,0.025925925925925925],[0.019791666666666666,0.025925925925925925],[0.019791666666666666,0.025925925925925925],[0.019791666666666666,0.025925925925925925],[0.019791666666666666,0.025925925925925925],[0.019791666666666666,0.025925925925925925],[0.019791666666666666,0.025925925925925925],[0.019791666666666666,0.025925925925925925],[0.019791666666666666,0.025925925925925925],[0.019791666666666666,0.025925925925925925],[0.019791666666666666,0.025925925925925925],[0.019791666666666666,0.025925925925925925],[0.019791666666666666,0.025925925925925925],[0.019791666666666666,0.025925925925925925],[0.019791666666666666,0.025925925925925925],[0.019791666666666666,0.025925925925925925],[0.019791666666666666,0.025925925925925925],[0.019791666666666666,0.025925925925925925],[0.019791666666666666,0.025925925925925925],[0.019791666666666666,0.025925925925925925],[0.019791666666666666,0.025925925925925925],[0.019791666666666666,0.025925925925925925],[0.019791666666666666,0.025925925925925925],[0.019791666666666666,0.025925925925925925],[0.019791666666666666,0.025925925925925925],[0.019791666666666666,0.025925925925925925],[0.019791666666666666,0.025925925925925925],[0.019791666666666666,0.025925925925925925],[0.019791666666666666,0.025925925925925925],[0.019791666666666666,0.025925925925925925],[0.019791666666666666,0.025925925925925925],[0.019791666666666666,0.025925925925925925],[0.019791666666666666,0.025925925925925925],[0.019791666666666666,0.025925925925925925],[0.019791666666666666,0.025925925925925925],[0.019791666666666666,0.025925925925925925],[0.019791666666666666,0.025925925925925925],[0.019791666666666666,0.025925925925925925],[0.019791666666666666,0.025925925925925925],[0.019791666666666666,0.025925925925925925],[0.019791666666666666,0.025925925925925925],[0.019791666666666666,0.025925925925925925],[0.019791666666666666,0.025925925925925925],[0.019791666666666666,0.025925925925925925],[0.019791666666666666,0.025925925925925925],[0.019791666666666666,0.03148148148148148],[0.020833333333333332,0.03333333333333333],[0.020833333333333332,0.03333333333333333],[0.020833333333333332,0.03333333333333333],[0.020833333333333332,0.03333333333333333],[0.020833333333333332,0.03333333333333333],[0.020833333333333332,0.03333333333333333],[0.021875,0.037037037037037035],[0.022916666666666665,0.037037037037037035],[0.023958333333333335,0.04259259259259259],[0.027083333333333334,0.04814814814814815],[0.03125,0.05925925925925926],[0.036458333333333336,0.07037037037037037],[0.04895833333333333,0.09444444444444444],[0.0625,0.12037037037037036],[0.08958333333333333,0.17407407407407408],[0.10729166666666666,0.20555555555555555],[0.121875,0.23703703703703705],[0.13333333333333333,0.2611111111111111],[0.13958333333333334,0.2759259259259259],[0.14479166666666668,0.28888888888888886],[0.15,0.3],[0.15625,0.31296296296296294],[0.1625,0.32407407407407407],[0.16979166666666667,0.3351851851851852],[0.17916666666666667,0.34629629629629627],[0.20208333333333334,0.362962962962963],[0.21354166666666666,0.36666666666666664],[0.23645833333333333,0.37777777777777777],[0.27291666666666664,0.39444444444444443],[0.3072916666666667,0.3962962962962963],[0.3385416666666667,0.39814814814814814],[0.365625,0.39814814814814814],[0.38645833333333335,0.39814814814814814],[0.4,0.39814814814814814],[0.409375,0.40185185185185185],[0.415625,0.40185185185185185],[0.42083333333333334,0.40370370370370373],[0.4270833333333333,0.40555555555555556],[0.43125,0.40925925925925927],[0.43333333333333335,0.40925925925925927],[0.434375,0.4111111111111111],[0.434375,0.4111111111111111],[0.434375,0.4111111111111111],[0.434375,0.4111111111111111],[0.434375,0.4111111111111111],[0.434375,0.4111111111111111],[0.434375,0.4111111111111111],[0.434375,0.4111111111111111],[0.434375,0.4111111111111111],[0.434375,0.4111111111111111],[0.434375,0.4111111111111111],[0.434375,0.4111111111111111],[0.434375,0.4111111111111111],[0.434375,0.4111111111111111],[0.434375,0.4111111111111111],[0.434375,0.4111111111111111],[0.434375,0.4111111111111111],[0.434375,0.4111111111111111],[0.434375,0.4111111111111111],[0.434375,0.4111111111111111],[0.434375,0.4111111111111111],[0.434375,0.4111111111111111],[0.434375,0.4111111111111111],[0.434375,0.4111111111111111],[0.434375,0.4111111111111111],[0.434375,0.4111111111111111],[0.43333333333333335,0.4111111111111111],[0.42916666666666664,0.4111111111111111],[0.4239583333333333,0.40925925925925927],[0.421875,0.4074074074074074],[0.41875,0.4074074074074074],[0.415625,0.40555555555555556],[0.409375,0.40185185185185185],[0.39375,0.3907407407407407],[0.38333333333333336,0.37962962962962965],[0.3645833333333333,0.3592592592592593],[0.3333333333333333,0.31851851851851853],[0.3125,0.29074074074074074],[0.28125,0.2574074074074074],[0.25,0.22037037037037038],[0.225,0.1962962962962963],[0.20104166666666667,0.1685185185185185],[0.18125,0.13518518518518519],[0.16458333333333333,0.10740740740740741],[0.15104166666666666,0.07777777777777778],[0.1375,0.046296296296296294],[0.125,0.016666666666666666],[0.11875,-0.007407407407407408],[0.115625,-0.014814814814814815],[0.115625,-0.018518518518518517],[0.115625,-0.020370370370370372],[0.115625,-0.024074074074074074],[0.11458333333333333,-0.025925925925925925],[0.11458333333333333,-0.027777777777777776],[0.11458333333333333,-0.02962962962962963],[0.11458333333333333,-0.03148148148148148],[0.11458333333333333,-0.03148148148148148],[0.11458333333333333,-0.03148148148148148],[0.11458333333333333,-0.03148148148148148],[0.11458333333333333,-0.03148148148148148],[0.11354166666666667,-0.03333333333333333],[0.11354166666666667,-0.03333333333333333],[0.11354166666666667,-0.03333333333333333],[0.11354166666666667,-0.03333333333333333],[0.11354166666666667,-0.03333333333333333],[0.11354166666666667,-0.03333333333333333],[0.11354166666666667,-0.03333333333333333],[0.11354166666666667,-0.03333333333333333],[0.11354166666666667,-0.03333333333333333],[0.11354166666666667,-0.03333333333333333],[0.11354166666666667,-0.03333333333333333]]","[[0.0728125000000001,0.2627777777777777],[0.0728125000000001,0.2627777777777777],[0.058958333333333356,0.2596296296296297],[0.058958333333333356,0.2596296296296297],[0.06916666666666677,0.24740740740740744],[0.06916666666666677,0.24740740740740744],[0.071875,0.23777777777777773],[0.0734375,0.26351851851851843],[0.0734375,0.26351851851851843],[0.059375,0.2920370370370371],[0.05499999999999995,0.29444444444444445],[0.084375,0.28462962962962973],[0.07718749999999991,0.33611111111111114],[0.08447916666666658,0.3242592592592593],[0.08499999999999991,0.325],[0.08552083333333324,0.3257407407407407],[0.06447916666666664,0.37592592592592594],[0.051145833333333356,0.384074074074074],[0.0578125,0.3516666666666666],[0.05427083333333336,0.37166666666666676],[0.051770833333333384,0.4016666666666666],[0.051770833333333384,0.4016666666666666],[0.04885416666666664,0.4301851851851851],[0.04781249999999997,0.4050000000000001],[0.029999999999999954,0.40796296296296286],[0.03218749999999997,0.4107407407407407],[0.03604166666666669,0.40018518518518525],[0.03260416666666662,0.4053703703703703],[0.02833333333333338,0.397037037037037],[0.013437499999999976,0.4124074074074075],[0.01572916666666669,0.3861111111111111],[0.007291666666666667,0.37592592592592594],[0.0003124999999999526,0.344074074074074],[0.01072916666666662,0.31370370370370365],[0.022916666666666665,0.30999999999999994],[0.02010416666666662,0.2838888888888888],[0.01854166666666662,0.25999999999999995],[0.01854166666666662,0.25999999999999995],[0.026250000000000048,0.2074074074074074],[0.026250000000000048,0.2074074074074074],[0.016875000000000046,0.16314814814814818],[0.016875000000000046,0.16314814814814818],[0.011874999999999976,0.1264814814814814],[0.011874999999999976,0.1264814814814814],[0.019791666666666666,0.0794444444444444],[0.027708333333333356,0.032407407407407406],[0.027708333333333356,0.032407407407407406],[0.02364583333333338,0.02814814814814823],[0.02364583333333338,0.02814814814814823],[0.019895833333333356,0.020370370370370372],[0.02312500000000005,0.031111111111111027],[0.028125,0.05185185185185185],[0.028125,0.05185185185185185],[0.04135416666666671,0.03537037037037041],[0.044479166666666715,0.034444444444444486],[0.06760416666666676,0.041111111111111195],[0.08072916666666667,0.07314814814814814],[0.07520833333333338,0.11888888888888897],[0.07395833333333333,0.1868518518518518],[0.06906249999999996,0.2403703703703703],[0.0609375,0.31925925925925924],[0.050625000000000024,0.3712962962962963],[0.03927083333333338,0.39444444444444443],[0.011562500000000024,0.4759259259259259],[-0.01114583333333338,0.507037037037037],[-0.0359375,0.5357407407407406],[-0.0359375,0.5357407407407406],[-0.08156249999999995,0.5335185185185186],[-0.11822916666666666,0.5287037037037037],[-0.15916666666666662,0.5016666666666666],[-0.18802083333333333,0.487962962962963],[-0.22614583333333335,0.39277777777777784],[-0.25197916666666664,0.3253703703703705],[-0.27677083333333335,0.2868518518518518],[-0.3021875,0.23833333333333342],[-0.32843749999999994,0.20277777777777778],[-0.35031249999999997,0.1655555555555555],[-0.3416666666666667,0.15925925925925927],[-0.32229166666666664,0.11740740740740736],[-0.3029166666666666,0.07555555555555547],[-0.3029166666666666,0.07555555555555547],[-0.2877083333333334,0.04277777777777782],[-0.27072916666666663,0.08481481481481473],[-0.2660416666666666,0.09907407407407408],[-0.2607291666666666,0.11055555555555564],[-0.24635416666666668,0.13703703703703704],[-0.2311458333333333,0.1757407407407407],[-0.2203125,0.2161111111111112],[-0.21833333333333335,0.22555555555555548],[-0.23052083333333329,0.2774074074074073],[-0.23645833333333333,0.30944444444444447],[-0.23041666666666671,0.30685185185185193],[-0.2326041666666666,0.28648148148148156],[-0.23479166666666665,0.2661111111111112],[-0.2376041666666667,0.2485185185185186],[-0.25656249999999997,0.2101851851851852],[-0.25656249999999997,0.2101851851851852],[-0.27010416666666665,0.20259259259259255],[-0.26510416666666664,0.14740740740740746],[-0.25541666666666674,0.08962962962962959],[-0.2646875,0.036481481481481566],[-0.2782291666666667,0.02111111111111107],[-0.29229166666666667,-0.009629629629629714],[-0.3077083333333333,-0.03481481481481473],[-0.3077083333333333,-0.042407407407407366],[-0.3077083333333333,-0.05],[-0.30041666666666667,-0.05851851851851856],[-0.2934375000000001,-0.08814814814814818],[-0.3116666666666667,-0.06740740740740736],[-0.3297916666666667,-0.04611111111111107],[-0.28406250000000005,0.018333333333333292],[-0.24031250000000004,0.06481481481481481],[-0.20729166666666668,0.09722222222222222],[-0.16520833333333335,0.12222222222222222],[-0.1482291666666666,0.1551851851851851],[-0.12385416666666664,0.1933333333333333],[-0.08364583333333328,0.25277777777777777],[-0.043437500000000046,0.3122222222222223],[0.0034374999999999527,0.368888888888889],[0.02020833333333331,0.368888888888889],[0.007083333333333286,0.34222222222222215],[-0.00604166666666662,0.31555555555555553],[-0.024166666666666715,0.31055555555555564],[-0.04229166666666669,0.3055555555555556],[-0.03791666666666664,0.2831481481481481],[-0.03791666666666664,0.2831481481481481],[-0.027187500000000024,0.2770370370370371],[-0.027187500000000024,0.2770370370370371],[-0.02666666666666669,0.25629629629629624],[-0.02833333333333338,0.25],[-0.02833333333333338,0.25],[-0.016770833333333356,0.22444444444444453],[-0.016770833333333356,0.22444444444444453],[0.0171875,0.26740740740740737],[0.021875,0.2653703703703703],[0.0265625,0.2633333333333334],[0.051770833333333384,0.2772222222222223],[0.07697916666666677,0.2911111111111112],[0.08406250000000005,0.2825925925925926],[0.07739583333333329,0.25259259259259254],[0.07937500000000004,0.21648148148148144],[0.08354166666666671,0.16592592592592598],[0.06135416666666664,0.144074074074074],[0.058854166666666666,0.12444444444444452],[0.06822916666666666,0.10333333333333325],[0.07802083333333343,0.127962962962963],[0.08499999999999991,0.11629629629629622],[0.08312499999999995,0.1259259259259259],[0.08114583333333343,0.16055555555555565],[0.08114583333333343,0.16055555555555565],[0.07916666666666666,0.19518518518518516],[0.05666666666666664,0.20888888888888882],[0.05666666666666664,0.20888888888888882],[0.043333333333333356,0.2490740740740741],[0.04041666666666662,0.25925925925925924],[0.025520833333333333,0.2553703703703703],[0.020937500000000022,0.2855555555555556],[0.020937500000000022,0.2855555555555556],[0.0203125,0.2881481481481482],[0.0203125,0.2881481481481482],[0.012916666666666642,0.32592592592592595],[0.012916666666666642,0.32592592592592595],[0.011041666666666691,0.3357407407407407],[-0.003541666666666643,0.33666666666666656],[-0.018124999999999978,0.3375925925925925],[-0.018124999999999978,0.3375925925925925],[-0.020833333333333332,0.3655555555555555],[-0.020833333333333332,0.3655555555555555],[-0.02822916666666669,0.35111111111111115],[-0.03187500000000002,0.3661111111111112],[-0.020833333333333332,0.4244444444444445],[-0.03239583333333336,0.44074074074074077],[-0.03989583333333328,0.3998148148148148],[-0.03812500000000003,0.3683333333333333],[-0.04708333333333338,0.32703703703703707],[-0.041666666666666664,0.325],[-0.0171875,0.30944444444444447],[-0.002708333333333357,0.28296296296296286],[0.011249999999999953,0.2322222222222222],[0.024166666666666715,0.1725925925925927],[0.022291666666666644,0.09370370370370375],[0.035104166666666714,0.04814814814814815],[0.02958333333333331,0.028518518518518478],[0.014791666666666713,-0.0005555555555554713],[0.014791666666666713,-0.0005555555555554713],[0.036458333333333336,0.010185185185185186],[0.036458333333333336,0.010185185185185186],[0.08562500000000005,-0.002407407407407323],[0.10895833333333324,-0.009074074074074031],[0.14229166666666657,-0.004814814814814857],[0.14229166666666657,-0.004814814814814857],[0.1678124999999999,0.03592592592592588],[0.2015625,0.04518518518518514],[0.23541666666666666,0.03037037037037033],[0.27677083333333335,0.04611111111111107],[0.32802083333333343,0.075],[0.32802083333333343,0.075],[0.3732291666666666,0.12240740740740745],[0.38791666666666674,0.12129629629629629],[0.3788541666666667,0.10240740740740732],[0.4009375000000001,0.12537037037037047],[0.42302083333333323,0.14833333333333337],[0.42916666666666664,0.13740740740740748],[0.4270833333333333,0.1579629629629629],[0.43760416666666657,0.19166666666666668],[0.440625,0.1948148148148149],[0.4462500000000001,0.19129629629629621],[0.4579166666666666,0.16925925925925922],[0.46875,0.1566666666666667],[0.46729166666666655,0.11018518518518519],[0.4602083333333333,0.10870370370370379],[0.453125,0.10722222222222218],[0.4318749999999999,0.12148148148148152],[0.4106250000000001,0.13574074074074066],[0.3967708333333334,0.1596296296296297],[0.3692708333333333,0.13666666666666658],[0.34260416666666677,0.11259259259259251],[0.3159374999999999,0.08851851851851844],[0.29500000000000004,0.08944444444444435],[0.28635416666666674,0.1242592592592593],[0.28635416666666674,0.1242592592592593],[0.25197916666666675,0.08000000000000008],[0.22354166666666658,0.0418518518518519],[0.22906250000000009,0.02555555555555547],[0.23479166666666676,0.027407407407407325],[0.23479166666666676,0.027407407407407325],[0.2205208333333334,0.006481481481481481],[0.2205208333333334,0.006481481481481481],[0.2349999999999999,0.0485185185185186],[0.24604166666666671,0.09833333333333337],[0.26052083333333326,0.125],[0.2782291666666666,0.14240740740740737],[0.28312499999999996,0.1633333333333334],[0.29500000000000004,0.18407407407407403],[0.29625000000000007,0.21148148148148158],[0.3067708333333333,0.2505555555555555],[0.3008333333333333,0.21777777777777782],[0.3210416666666667,0.22314814814814815],[0.3095833333333334,0.21203703703703702],[0.303125,0.1705555555555556],[0.28395833333333326,0.1507407407407407],[0.2647916666666667,0.130925925925926],[0.26062500000000005,0.12185185185185177],[0.2564583333333334,0.11277777777777774],[0.24968750000000003,0.08648148148148156],[0.23364583333333327,0.0485185185185186],[0.23364583333333327,0.0485185185185186],[0.20083333333333328,0.07518518518518523],[0.20083333333333328,0.07518518518518523],[0.15729166666666666,0.06277777777777774],[0.12010416666666662,0.017592592592592594],[0.12010416666666662,0.017592592592592594],[0.09166666666666666,0.007777777777777862],[0.06760416666666676,0.014259259259259343],[0.049374999999999974,0.03333333333333333],[0.026041666666666668,0.02444444444444453],[0.026041666666666668,0.02444444444444453],[0.007291666666666667,0.027407407407407325],[-0.04791666666666667,-0.010185185185185186],[-0.09968750000000005,-0.03185185185185194],[-0.12989583333333338,-0.052037037037037076],[-0.17052083333333337,-0.07759259259259255],[-0.20385416666666673,-0.07703703703703708],[-0.2509375,-0.08148148148148149],[-0.2955208333333334,-0.10351851851851848],[-0.3459375,-0.1381481481481482],[-0.38562500000000005,-0.13277777777777774],[-0.42989583333333337,-0.13925925925925925],[-0.43635416666666665,-0.13240740740740742],[-0.44625,-0.14148148148148143],[-0.4444791666666667,-0.1522222222222222],[-0.44645833333333335,-0.14629629629629629],[-0.4467708333333333,-0.14518518518518514],[-0.4452083333333333,-0.1603703703703704],[-0.43854166666666666,-0.18129629629629626],[-0.44197916666666665,-0.1955555555555556],[-0.453125,-0.20092592592592592],[-0.453125,-0.20092592592592592],[-0.453125,-0.20092592592592592],[-0.46468750000000003,-0.20092592592592592],[-0.46468750000000003,-0.20092592592592592],[-0.4373958333333333,-0.14888888888888885],[-0.4373958333333333,-0.14888888888888885],[-0.39083333333333337,-0.07222222222222222],[-0.39083333333333337,-0.07222222222222222],[-0.33229166666666665,-0.056296296296296254],[-0.33229166666666665,-0.056296296296296254],[-0.33229166666666665,-0.056296296296296254],[-0.28406250000000005,0.003333333333333249],[-0.28406250000000005,0.003333333333333249],[-0.23010416666666664,0.03777777777777774],[-0.23010416666666664,0.03777777777777774],[-0.17770833333333336,0.08944444444444435],[-0.17770833333333336,0.08944444444444435],[-0.12635416666666663,0.11037037037037041],[-0.12635416666666663,0.11037037037037041],[-0.05947916666666669,0.19462962962962968],[-0.05947916666666669,0.19462962962962968],[0.005416666666666714,0.2270370370370371],[0.005416666666666714,0.2270370370370371],[0.06677083333333324,0.28648148148148156],[0.06677083333333324,0.28648148148148156],[0.09520833333333342,0.3255555555555555],[0.09520833333333342,0.3255555555555555],[0.0984375,0.3374074074074075],[0.0984375,0.3374074074074075],[0.08833333333333329,0.3683333333333333],[0.08833333333333329,0.3683333333333333],[0.08729166666666661,0.34518518518518515],[0.08729166666666661,0.34518518518518515],[0.10427083333333324,0.3412962962962962],[0.13427083333333342,0.3574074074074074],[0.17447916666666666,0.41148148148148156],[0.20927083333333343,0.3955555555555556],[0.24114583333333334,0.3851851851851852],[0.2769791666666668,0.3424074074074074],[0.31145833333333334,0.30629629629629623],[0.35187499999999994,0.2727777777777777],[0.38385416666666666,0.25388888888888894],[0.4158333333333334,0.23499999999999996],[0.42843749999999997,0.252962962962963],[0.42770833333333325,0.25],[0.43125,0.2542592592592592],[0.38260416666666663,0.21851851851851853],[0.33864583333333326,0.21074074074074065],[0.2946875000000001,0.202962962962963],[0.24333333333333323,0.18370370370370379],[0.19197916666666662,0.16444444444444437],[0.13875000000000004,0.1581481481481481],[0.08552083333333324,0.15185185185185185],[0.050625000000000024,0.13203703703703695],[0.01572916666666669,0.11222222222222226],[-0.035312499999999976,0.08648148148148156],[-0.03791666666666664,0.10018518518518522],[-0.03968750000000002,0.08722222222222227],[-0.0296875,0.09370370370370375],[-0.017708333333333333,0.09870370370370361],[0.026979166666666644,0.16537037037037028],[0.03125,0.25203703703703706],[0.035520833333333356,0.3387037037037037],[0.03791666666666664,0.277962962962963],[0.03791666666666664,0.277962962962963],[0.04822916666666662,0.21888888888888897],[0.06385416666666661,0.1287037037037037],[0.06385416666666661,0.1287037037037037],[0.08041666666666672,0.15703703703703695],[0.07260416666666672,0.2051851851851851],[0.05302083333333331,0.2338888888888888],[0.07260416666666672,0.24092592592592596],[0.07260416666666672,0.24092592592592596],[0.05427083333333336,0.19611111111111107],[0.07489583333333343,0.09537037037037037],[0.09239583333333339,-0.0448148148148149],[0.09239583333333339,-0.0448148148148149],[0.07927083333333323,-0.012962962962962963],[0.07927083333333323,-0.012962962962962963],[0.09052083333333343,-0.013518518518518435],[0.09416666666666676,0.04277777777777782],[0.09416666666666676,0.04277777777777782],[0.10541666666666671,-0.06351851851851854],[0.13385416666666666,-0.15833333333333333],[0.1622916666666666,-0.2531481481481481],[0.17833333333333337,-0.34148148148148144],[0.19260416666666677,-0.41444444444444445],[0.19260416666666677,-0.41444444444444445],[0.21531250000000005,-0.5116666666666667],[0.21531250000000005,-0.5116666666666667],[0.2599999999999999,-0.5301851851851852],[0.2599999999999999,-0.5301851851851852],[0.30104166666666665,-0.6262962962962962],[0.31010416666666674,-0.582037037037037],[0.3094791666666666,-0.6187037037037038],[0.32822916666666657,-0.6525925925925925],[0.35343749999999996,-0.707962962962963],[0.3818749999999999,-0.7281481481481481],[0.39031250000000006,-0.7268518518518519],[0.4025000000000001,-0.7646296296296295],[0.4099999999999999,-0.6988888888888889],[0.4227083333333333,-0.6948148148148148],[0.43864583333333323,-0.6311111111111112],[0.4657291666666666,-0.6892592592592592],[0.4864583333333333,-0.7053703703703703],[0.4869791666666667,-0.6181481481481482],[0.47937500000000005,-0.5762962962962963],[0.4599999999999999,-0.5133333333333333],[0.4554166666666667,-0.5144444444444445],[0.44416666666666677,-0.4507407407407407],[0.4470833333333334,-0.47259259259259256],[0.42156250000000006,-0.4264814814814815],[0.4158333333333334,-0.41648148148148145],[0.3551041666666668,-0.37092592592592594],[0.2984375,-0.25999999999999995],[0.2491666666666667,-0.2235185185185185],[0.1898958333333333,-0.11888888888888886],[0.16572916666666657,-0.11185185185185181],[0.1560416666666666,-0.08148148148148149],[0.13031249999999991,-0.058333333333333334],[0.13031249999999991,-0.058333333333333334],[0.12302083333333323,-0.02296296296296292],[0.12302083333333323,-0.02296296296296292],[0.10302083333333342,-0.032777777777777864],[0.11479166666666671,-0.02833333333333325],[0.1701041666666666,-0.04722222222222222],[0.23968749999999991,-0.11833333333333329],[0.23968749999999991,-0.11833333333333329],[0.27677083333333335,-0.18518518518518517],[0.34041666666666665,-0.24351851851851852],[0.3732291666666666,-0.2957407407407407],[0.3640625,-0.2766666666666666],[0.3940624999999999,-0.31722222222222224],[0.3927083333333333,-0.29500000000000004],[0.4202083333333334,-0.3085185185185186],[0.35479166666666656,-0.29444444444444445],[0.30802083333333335,-0.26722222222222225],[0.2508333333333333,-0.28351851851851856],[0.2525000000000001,-0.227962962962963],[0.27364583333333337,-0.2375925925925926],[0.2627083333333334,-0.1655555555555555],[0.28968749999999993,-0.14500000000000002],[0.28968749999999993,-0.14500000000000002],[0.2647916666666667,-0.08203703703703706],[0.2647916666666667,-0.08203703703703706],[0.2795833333333334,-0.056851851851851834],[0.2795833333333334,-0.056851851851851834],[0.27218749999999997,0.01185185185185181],[0.27218749999999997,0.01185185185185181],[0.33229166666666665,0.04333333333333329],[0.33229166666666665,0.04333333333333329],[0.3849999999999999,0.04407407407407399],[0.3849999999999999,0.04407407407407399],[0.43250000000000005,0.13037037037037033],[0.43250000000000005,0.13037037037037033],[0.4235416666666666,0.1264814814814814],[0.38864583333333325,0.1646296296296296]]","[[0.0728125000000001,0.2627777777777777,0.0003000001907338401],[0.0728125000000001,0.2627777777777777,0.04580000019073793],[0.058958333333333356,0.2596296296296297,0.07159999990463461],[0.058958333333333356,0.2596296296296297,0.08180000019073219],[0.06916666666666677,0.24740740740740744,0.09390000009536692],[0.06916666666666677,0.24740740740740744,0.11050000000000182],[0.071875,0.23777777777777773,0.12709999990463672],[0.0734375,0.26351851851851843,0.14790000009536897],[0.0734375,0.26351851851851843,0.16159999990463092],[0.059375,0.2920370370370371,0.17690000009536533],[0.05499999999999995,0.29444444444444445,0.1935999999046345],[0.084375,0.28462962962962973,0.2103000001907347],[0.07718749999999991,0.33611111111111114,0.22700000000000387],[0.08447916666666658,0.3242592592592593,0.24369999980926593],[0.08499999999999991,0.325,0.26030000019073896],[0.08552083333333324,0.3257407407407407,0.27690000009536675],[0.06447916666666664,0.37592592592592594,0.2950000000000017],[0.051145833333333356,0.384074074074074,0.31230000019073856],[0.0578125,0.3516666666666666,0.3269999999999982],[0.05427083333333336,0.37166666666666676,0.34380000019073265],[0.051770833333333384,0.4016666666666666,0.36250000000000426],[0.051770833333333384,0.4016666666666666,0.3770999999046367],[0.04885416666666664,0.4301851851851851,0.3939000000953712],[0.04781249999999997,0.4050000000000001,0.410499999999999],[0.029999999999999954,0.40796296296296286,0.4290999999046363],[0.03218749999999997,0.4107407407407407,0.4436999998092688],[0.03604166666666669,0.40018518518518525,0.46050000000000324],[0.03260416666666662,0.4053703703703703,0.4794000000953673],[0.02833333333333338,0.397037037037037,0.4969999999999999],[0.013437499999999976,0.4124074074074075,0.5105999999046347],[0.01572916666666669,0.3861111111111111,0.5270999999046353],[0.007291666666666667,0.37592592592592594,0.5460999999046336],[0.0003124999999999526,0.344074074074074,0.5605999999046318],[0.01072916666666662,0.31370370370370365,0.5771999998092596],[0.022916666666666665,0.30999999999999994,0.5970000000000013],[0.02010416666666662,0.2838888888888888,0.6104999999999947],[0.01854166666666662,0.25999999999999995,0.6270999999046367],[0.01854166666666662,0.25999999999999995,0.6438000001907298],[0.026250000000000048,0.2074074074074074,0.665300000190733],[0.026250000000000048,0.2074074074074074,0.6770999999046339],[0.016875000000000046,0.16314814814814818,0.6939000000953612],[0.016875000000000046,0.16314814814814818,0.7105000000000032],[0.011874999999999976,0.1264814814814814,0.7340000000000018],[0.011874999999999976,0.1264814814814814,0.7435999999046388],[0.019791666666666666,0.0794444444444444,0.7603000001907319],[0.027708333333333356,0.032407407407407406,0.7769000000953739],[0.027708333333333356,0.032407407407407406,0.7941999998092726],[0.02364583333333338,0.02814814814814823,0.810300000190729],[0.02364583333333338,0.02814814814814823,0.8270000000000053],[0.019895833333333356,0.020370370370370372,0.845000000000006],[0.02312500000000005,0.031111111111111027,0.8604000000953747],[0.028125,0.05185185185185185,0.8770000000000024],[0.028125,0.05185185185185185,0.8935999999046302],[0.04135416666666671,0.03537037037037041,0.9103000001907375],[0.044479166666666715,0.034444444444444486,0.9269000000953653],[0.06760416666666676,0.041111111111111195,0.9435999999046274],[0.08072916666666667,0.07314814814814814,0.9601999998092694],[0.07520833333333338,0.11888888888888897,0.9769999999999968],[0.07395833333333333,0.1868518518518518,0.9965999999046389],[0.06906249999999996,0.2403703703703703,1.0101999998092666],[0.0609375,0.31925925925925924,1.028500000000001],[0.050625000000000024,0.3712962962962963,1.0439000000953698],[0.03927083333333338,0.39444444444444443,1.060300000190729],[0.011562500000000024,0.4759259259259259,1.0770000000000053],[-0.01114583333333338,0.507037037037037,1.0975000000000037],[-0.0359375,0.5357407407407406,1.113599999904629],[-0.0359375,0.5357407407407406,1.1270000000000024],[-0.08156249999999995,0.5335185185185186,1.1436999998092645],[-0.11822916666666666,0.5287037037037037,1.161599999904631],[-0.15916666666666662,0.5016666666666666,1.1769000000953653],[-0.18802083333333333,0.487962962962963,1.1950999999046346],[-0.22614583333333335,0.39277777777777784,1.2103000001907347],[-0.25197916666666664,0.3253703703703705,1.2298000001907425],[-0.27677083333333335,0.2868518518518518,1.2454999999999998],[-0.3021875,0.23833333333333342,1.2603000001907319],[-0.32843749999999994,0.20277777777777778,1.2774999999999963],[-0.35031249999999997,0.1655555555555555,1.2968000001907356],[-0.3416666666666667,0.15925925925925927,1.3104000000953633],[-0.32229166666666664,0.11740740740740736,1.326900000095371],[-0.3029166666666666,0.07555555555555547,1.343599999904633],[-0.3029166666666666,0.07555555555555547,1.3601999998092609],[-0.2877083333333334,0.04277777777777782,1.3769000000953682],[-0.27072916666666663,0.08481481481481473,1.3961999998092622],[-0.2660416666666666,0.09907407407407408,1.4124000000953671],[-0.2607291666666666,0.11055555555555564,1.4269000000953653],[-0.24635416666666668,0.13703703703703704,1.4435999999046274],[-0.2311458333333333,0.1757407407407407,1.4630999999046352],[-0.2203125,0.2161111111111112,1.4769000000953625],[-0.21833333333333335,0.22555555555555548,1.4943000001907407],[-0.23052083333333329,0.2774074074074073,1.5101999998092666],[-0.23645833333333333,0.30944444444444447,1.531099999904633],[-0.23041666666666671,0.30685185185185193,1.546599999904636],[-0.2326041666666666,0.28648148148148156,1.562099999904639],[-0.23479166666666665,0.2661111111111112,1.576900000095371],[-0.2376041666666667,0.2485185185185186,1.5954999999999941],[-0.25656249999999997,0.2101851851851852,1.613199999809261],[-0.25656249999999997,0.2101851851851852,1.6281999998092616],[-0.27010416666666665,0.20259259259259255,1.6435999999046302],[-0.26510416666666664,0.14740740740740746,1.6603000001907375],[-0.25541666666666674,0.08962962962962959,1.6773000001907334],[-0.2646875,0.036481481481481566,1.6965999999046275],[-0.2782291666666667,0.02111111111111107,1.7103000001907347],[-0.29229166666666667,-0.009629629629629714,1.7269999999999968],[-0.3077083333333333,-0.03481481481481473,1.7435999999046388],[-0.3077083333333333,-0.042407407407407366,1.7605000000000004],[-0.3077083333333333,-0.05,1.7769000000953739],[-0.30041666666666667,-0.05851851851851856,1.7964000000953675],[-0.2934375000000001,-0.08814814814814818,1.8115999999046366],[-0.3116666666666667,-0.06740740740740736,1.8270000000000053],[-0.3297916666666667,-0.04611111111111107,1.843599999904633],[-0.28406250000000005,0.018333333333333292,1.8603000001907404],[-0.24031250000000004,0.06481481481481481,1.8769000000953682],[-0.20729166666666668,0.09722222222222222,1.896099999904628],[-0.16520833333333335,0.12222222222222222,1.9103000001907375],[-0.1482291666666666,0.1551851851851851,1.9269999999999996],[-0.12385416666666664,0.1933333333333333,1.9450000000000003],[-0.08364583333333328,0.25277777777777777,1.9603000001907347],[-0.043437500000000046,0.3122222222222223,1.9773000001907306],[0.0034374999999999527,0.368888888888889,1.9961999998092708],[0.02020833333333331,0.368888888888889,2.0105999999046347],[0.007083333333333286,0.34222222222222215,2.0283000001907325],[-0.00604166666666662,0.31555555555555553,2.043599999904636],[-0.024166666666666715,0.31055555555555564,2.061],[-0.04229166666666669,0.3055555555555556,2.0774000000953734],[-0.03791666666666664,0.2831481481481481,2.108300000190731],[-0.03791666666666664,0.2831481481481481,2.119499999999995],[-0.027187500000000024,0.2770370370370371,2.127599999904639],[-0.027187500000000024,0.2770370370370371,2.14380000019073],[-0.02666666666666669,0.25629629629629624,2.160400000095372],[-0.02833333333333338,0.25,2.179699999809266],[-0.02833333333333338,0.25,2.1935999999046274],[-0.016770833333333356,0.22444444444444453,2.2103000001907347],[-0.016770833333333356,0.22444444444444453,2.227099999904631],[0.0171875,0.26740740740740737,2.2435999999046388],[0.021875,0.2653703703703703,2.2624000000953615],[0.0265625,0.2633333333333334,2.276900000095374],[0.051770833333333384,0.2772222222222223,2.2970999999046384],[0.07697916666666677,0.2911111111111112,2.312500000000007],[0.08406250000000005,0.2825925925925926,2.3289000000953664],[0.07739583333333329,0.25259259259259254,2.343599999904633],[0.07937500000000004,0.21648148148148144,2.362099999904636],[0.08354166666666671,0.16592592592592598,2.376900000095368],[0.06135416666666664,0.144074074074074,2.39859999990464],[0.058854166666666666,0.12444444444444452,2.4144000000953625],[0.06822916666666666,0.10333333333333325,2.429400000095363],[0.07802083333333343,0.127962962962963,2.4436999998092617],[0.08499999999999991,0.11629629629629622,2.4630999999046352],[0.08312499999999995,0.1259259259259259,2.4795999999046288],[0.08114583333333343,0.16055555555555565,2.5013000001907315],[0.08114583333333343,0.16055555555555565,2.510400000095366],[0.07916666666666666,0.19518518518518516,2.526999999999994],[0.05666666666666664,0.20888888888888882,2.54690000009537],[0.05666666666666664,0.20888888888888882,2.560300000190729],[0.043333333333333356,0.2490740740740741,2.5770000000000053],[0.04041666666666662,0.25925925925925924,2.5978000001907375],[0.025520833333333333,0.2553703703703703,2.613900000095363],[0.020937500000000022,0.2855555555555556,2.6415000000000006],[0.020937500000000022,0.2855555555555556,2.64869999980926],[0.0203125,0.2881481481481482,2.6603000001907375],[0.0203125,0.2881481481481482,2.6769000000953653],[0.012916666666666642,0.32592592592592595,2.693800000190741],[0.012916666666666642,0.32592592592592595,2.7103000001907347],[0.011041666666666691,0.3357407407407407,2.7269999999999968],[-0.003541666666666643,0.33666666666666656,2.7490999999046366],[-0.018124999999999978,0.3375925925925925,2.767400000095371],[-0.018124999999999978,0.3375925925925925,2.776900000095374],[-0.020833333333333332,0.3655555555555555,2.79369999980927],[-0.020833333333333332,0.3655555555555555,2.810300000190729],[-0.02822916666666669,0.35111111111111115,2.8270000000000053],[-0.03187500000000002,0.3661111111111112,2.845499999999994],[-0.020833333333333332,0.4244444444444445,2.8608000001907286],[-0.03239583333333336,0.44074074074074077,2.8774000000953706],[-0.03989583333333328,0.3998148148148148,2.8961999998092622],[-0.03812500000000003,0.3683333333333333,2.9103000001907375],[-0.04708333333333338,0.32703703703703707,2.9294999999999973],[-0.041666666666666664,0.325,2.9475999999046323],[-0.0171875,0.30944444444444447,2.963300000190735],[-0.002708333333333357,0.28296296296296286,2.977400000095365],[0.011249999999999953,0.2322222222222222,2.997300000190741],[0.024166666666666715,0.1725925925925927,3.0116999998092595],[0.022291666666666644,0.09370370370370375,3.02969999980926],[0.035104166666666714,0.04814814814814815,3.0449999999999946],[0.02958333333333331,0.028518518518518478,3.0615999999046366],[0.014791666666666713,-0.0005555555555554713,3.076900000095371],[0.014791666666666713,-0.0005555555555554713,3.093599999904633],[0.036458333333333336,0.010185185185185186,3.1103000001907404],[0.036458333333333336,0.010185185185185186,3.1270999999046367],[0.08562500000000005,-0.002407407407407323,3.1435999999046302],[0.10895833333333324,-0.009074074074074031,3.164199999809263],[0.14229166666666657,-0.004814814814814857,3.179099999904629],[0.14229166666666657,-0.004814814814814857,3.1935999999046274],[0.1678124999999999,0.03592592592592588,3.2103000001907347],[0.2015625,0.04518518518518514,3.2295999999046288],[0.23541666666666666,0.03037037037037033,3.2435999999046388],[0.27677083333333335,0.04611111111111107,3.2628000001907296],[0.32802083333333343,0.075,3.277099999904628],[0.32802083333333343,0.075,3.29369999980927],[0.3732291666666666,0.12240740740740745,3.310300000190729],[0.38791666666666674,0.12129629629629629,3.328699999809267],[0.3788541666666667,0.10240740740740732,3.343599999904633],[0.4009375000000001,0.12537037037037047,3.360199999809261],[0.42302083333333323,0.14833333333333337,3.376900000095368],[0.42916666666666664,0.13740740740740748,3.3974000000953666],[0.4270833333333333,0.1579629629629629,3.41269999980927],[0.43760416666666657,0.19166666666666668,3.429099999904629],[0.440625,0.1948148148148149,3.443800000190741],[0.4462500000000001,0.19129629629629621,3.460400000095369],[0.4579166666666666,0.16925925925925922,3.4769000000953625],[0.46875,0.1566666666666667,3.494099999904627],[0.46729166666666655,0.11018518518518519,3.510699999809269],[0.4602083333333333,0.10870370370370379,3.5286999998092696],[0.453125,0.10722222222222218,3.543599999904636],[0.4318749999999999,0.12148148148148152,3.563900000095366],[0.4106250000000001,0.13574074074074066,3.5795999999046373],[0.3967708333333334,0.1596296296296297,3.59719999980927],[0.3692708333333333,0.13666666666666658,3.6130999999046267],[0.34260416666666677,0.11259259259259251,3.630800000190739],[0.3159374999999999,0.08851851851851844,3.646900000095364],[0.29500000000000004,0.08944444444444435,3.6633000001907376],[0.28635416666666674,0.1242592592592593,3.6769000000953653],[0.28635416666666674,0.1242592592592593,3.6935000000000073],[0.25197916666666675,0.08000000000000008,3.7103000001907347],[0.22354166666666658,0.0418518518518519,3.7269000000953625],[0.22906250000000009,0.02555555555555547,3.743699999809259],[0.23479166666666676,0.027407407407407325,3.7624000000953615],[0.23479166666666676,0.027407407407407325,3.7869000000953648],[0.2205208333333334,0.006481481481481481,3.8035000000000068],[0.2205208333333334,0.006481481481481481,3.810300000190729],[0.2349999999999999,0.0485185185185186,3.8270000000000053],[0.24604166666666671,0.09833333333333337,3.8436999998092674],[0.26052083333333326,0.125,3.8621999998092704],[0.2782291666666666,0.14240740740740737,3.876900000095368],[0.28312499999999996,0.1633333333333334,3.8935999999046302],[0.29500000000000004,0.18407407407407403,3.9101999998092722],[0.29625000000000007,0.21148148148148158,3.9269000000953653],[0.3067708333333333,0.2505555555555555,3.9435000000000073],[0.3008333333333333,0.21777777777777782,3.9603000001907347],[0.3210416666666667,0.22314814814814815,3.9768000001907424],[0.3095833333333334,0.21203703703703702,3.993699999809259],[0.303125,0.1705555555555556,4.010199999809267],[0.28395833333333326,0.1507407407407407,4.026900000095374],[0.2647916666666667,0.130925925925926,4.043500000000002],[0.26062500000000005,0.12185185185185177,4.060199999809264],[0.2564583333333334,0.11277777777777774,4.076900000095371],[0.24968750000000003,0.08648148148148156,4.095400000095374],[0.23364583333333327,0.0485185185185186,4.112000000000002],[0.23364583333333327,0.0485185185185186,4.126900000095368],[0.20083333333333328,0.07518518518518523,4.14359999990463],[0.20083333333333328,0.07518518518518523,4.1603000001907375],[0.15729166666666666,0.06277777777777774,4.176900000095365],[0.12010416666666662,0.017592592592592594,4.193500000000007],[0.12010416666666662,0.017592592592592594,4.210199999809269],[0.09166666666666666,0.007777777777777862,4.226999999999997],[0.06760416666666676,0.014259259259259343,4.2435000000000045],[0.049374999999999974,0.03333333333333333,4.260300000190732],[0.026041666666666668,0.02444444444444453,4.276900000095374],[0.026041666666666668,0.02444444444444453,4.293599999904636],[0.007291666666666667,0.027407407407407325,4.310300000190729],[-0.04791666666666667,-0.010185185185185186,4.327300000190739],[-0.09968750000000005,-0.03185185185185194,4.343499999999999],[-0.12989583333333338,-0.052037037037037076,4.360199999809261],[-0.17052083333333337,-0.07759259259259255,4.376900000095368],[-0.20385416666666673,-0.07703703703703708,4.39659999990463],[-0.2509375,-0.08148148148148149,4.411699999809265],[-0.2955208333333334,-0.10351851851851848,4.427199999809268],[-0.3459375,-0.1381481481481482,4.4465000000000074],[-0.38562500000000005,-0.13277777777777774,4.460199999809269],[-0.42989583333333337,-0.13925925925925925,4.4769000000953625],[-0.43635416666666665,-0.13240740740740742,4.49640000009537],[-0.44625,-0.14148148148148143,4.510199999809267],[-0.4444791666666667,-0.1522222222222222,4.52869999980927],[-0.44645833333333335,-0.14629629629629629,4.544000000000004],[-0.4467708333333333,-0.14518518518518514,4.562199999809259],[-0.4452083333333333,-0.1603703703703704,4.576900000095371],[-0.43854166666666666,-0.18129629629629626,4.593800000190733],[-0.44197916666666665,-0.1955555555555556,4.61030000019074],[-0.453125,-0.20092592592592592,4.626900000095368],[-0.453125,-0.20092592592592592,4.64359999990463],[-0.453125,-0.20092592592592592,4.661900000095365],[-0.46468750000000003,-0.20092592592592592,4.697699999809267],[-0.46468750000000003,-0.20092592592592592,4.721900000095367],[-0.4373958333333333,-0.14888888888888885,4.748900000095368],[-0.4373958333333333,-0.14888888888888885,4.756699999809264],[-0.39083333333333337,-0.07222222222222222,4.78280000019074],[-0.39083333333333337,-0.07222222222222222,4.793300000190733],[-0.33229166666666665,-0.056296296296296254,4.8156999998092616],[-0.33229166666666665,-0.056296296296296254,4.8249000000953615],[-0.33229166666666665,-0.056296296296296254,4.832500000000003],[-0.28406250000000005,0.003333333333333249,4.865599999904639],[-0.28406250000000005,0.003333333333333249,4.872800000190729],[-0.23010416666666664,0.03777777777777774,4.899300000190742],[-0.23010416666666664,0.03777777777777774,4.9065999999046355],[-0.17770833333333336,0.08944444444444435,4.932599999904632],[-0.17770833333333336,0.08944444444444435,4.9414000000953635],[-0.12635416666666663,0.11037037037037041,4.9658000001907325],[-0.12635416666666663,0.11037037037037041,4.97309999990464],[-0.05947916666666669,0.19462962962962968,4.999199999809271],[-0.05947916666666669,0.19462962962962968,5.0064999999999955],[0.005416666666666714,0.2270370370370371,5.033999999999999],[0.005416666666666714,0.2270370370370371,5.042099999904629],[0.06677083333333324,0.28648148148148156,5.065199999809259],[0.06677083333333324,0.28648148148148156,5.072800000190732],[0.09520833333333342,0.3255555555555555,5.099699999809268],[0.09520833333333342,0.3255555555555555,5.110199999809261],[0.0984375,0.3374074074074075,5.1270000000000024],[0.0984375,0.3374074074074075,5.14359999990463],[0.08833333333333329,0.3683333333333333,5.1603000001907375],[0.08833333333333329,0.3683333333333333,5.176900000095365],[0.08729166666666661,0.34518518518518515,5.193699999809262],[0.08729166666666661,0.34518518518518515,5.210300000190735],[0.10427083333333324,0.3412962962962962,5.2269000000953625],[0.13427083333333342,0.3574074074074074,5.243800000190738],[0.17447916666666666,0.41148148148148156,5.261900000095373],[0.20927083333333343,0.3955555555555556,5.276900000095374],[0.24114583333333334,0.3851851851851852,5.296599999904636],[0.2769791666666668,0.3424074074074074,5.311800000190736],[0.31145833333333334,0.30629629629629623,5.326900000095371],[0.35187499999999994,0.2727777777777777,5.343499999999999],[0.38385416666666666,0.25388888888888894,5.360499999999995],[0.4158333333333334,0.23499999999999996,5.376900000095368],[0.42843749999999997,0.252962962962963,5.395099999904637],[0.42770833333333325,0.25,5.4103000001907375],[0.43125,0.2542592592592592,5.429400000095363],[0.38260416666666663,0.21851851851851853,5.444300000190729],[0.33864583333333326,0.21074074074074065,5.460199999809269],[0.2946875000000001,0.202962962962963,5.4769000000953625],[0.24333333333333323,0.18370370370370379,5.496599999904639],[0.19197916666666662,0.16444444444444437,5.510300000190732],[0.13875000000000004,0.1581481481481481,5.52680000019074],[0.08552083333333324,0.15185185185185185,5.547199999809273],[0.050625000000000024,0.13203703703703695,5.563900000095366],[0.01572916666666669,0.11222222222222226,5.577000000000005],[-0.035312499999999976,0.08648148148148156,5.593699999809267],[-0.03791666666666664,0.10018518518518522,5.6133000001907405],[-0.03968750000000002,0.08722222222222227,5.627400000095371],[-0.0296875,0.09370370370370375,5.6436999998092645],[-0.017708333333333333,0.09870370370370361,5.663300000190738],[0.026979166666666644,0.16537037037037028,5.680599999904636],[0.03125,0.25203703703703706,5.698199999809269],[0.035520833333333356,0.3387037037037037,5.715599999904633],[0.03791666666666664,0.277962962962963,5.730699999809268],[0.03791666666666664,0.277962962962963,5.743699999809259],[0.04822916666666662,0.21888888888888897,5.760400000095366],[0.06385416666666661,0.1287037037037037,5.780599999904631],[0.06385416666666661,0.1287037037037037,5.7938000001907355],[0.08041666666666672,0.15703703703703695,5.810400000095363],[0.07260416666666672,0.2051851851851851,5.827000000000005],[0.05302083333333331,0.2338888888888888,5.846099999904631],[0.07260416666666672,0.24092592592592596,5.862699999809273],[0.07260416666666672,0.24092592592592596,5.8770000000000024],[0.05427083333333336,0.19611111111111107,5.897400000095367],[0.07489583333333343,0.09537037037037037,5.913000000000004],[0.09239583333333339,-0.0448148148148149,5.930400000095368],[0.09239583333333339,-0.0448148148148149,5.943599999904627],[0.07927083333333323,-0.012962962962962963,5.963800000190737],[0.07927083333333323,-0.012962962962962963,5.977099999904631],[0.09052083333333343,-0.013518518518518435,5.993699999809259],[0.09416666666666676,0.04277777777777782,6.013599999904635],[0.09416666666666676,0.04277777777777782,6.027099999904628],[0.10541666666666671,-0.06351851851851854,6.043599999904636],[0.13385416666666666,-0.15833333333333333,6.060400000095363],[0.1622916666666666,-0.2531481481481481,6.08009999990464],[0.17833333333333337,-0.34148148148148144,6.0966999998092675],[0.19260416666666677,-0.41444444444444445,6.113999999999997],[0.19260416666666677,-0.41444444444444445,6.126900000095368],[0.21531250000000005,-0.5116666666666667,6.143499999999996],[0.21531250000000005,-0.5116666666666667,6.1603000001907375],[0.2599999999999999,-0.5301851851851852,6.176800000190731],[0.2599999999999999,-0.5301851851851852,6.193599999904627],[0.30104166666666665,-0.6262962962962962,6.210199999809269],[0.31010416666666674,-0.582037037037037,6.227099999904631],[0.3094791666666666,-0.6187037037037038,6.243699999809259],[0.32822916666666657,-0.6525925925925925,6.261000000000003],[0.35343749999999996,-0.707962962962963,6.27680000019074],[0.3818749999999999,-0.7281481481481481,6.297099999904638],[0.39031250000000006,-0.7268518518518519,6.312900000095375],[0.4025000000000001,-0.7646296296296295,6.328199999809264],[0.4099999999999999,-0.6988888888888889,6.343599999904633],[0.4227083333333333,-0.6948148148148148,6.3625999999046385],[0.43864583333333323,-0.6311111111111112,6.376900000095368],[0.4657291666666666,-0.6892592592592592,6.397099999904633],[0.4864583333333333,-0.7053703703703703,6.413500000000006],[0.4869791666666667,-0.6181481481481482,6.429699999809266],[0.47937500000000005,-0.5762962962962963,6.444199999809264],[0.4599999999999999,-0.5133333333333333,6.461599999904628],[0.4554166666666667,-0.5144444444444445,6.476800000190742],[0.44416666666666677,-0.4507407407407407,6.495599999904634],[0.4470833333333334,-0.47259259259259256,6.510199999809267],[0.42156250000000006,-0.4264814814814815,6.5271999998092625],[0.4158333333333334,-0.41648148148148145,6.54690000009537],[0.3551041666666668,-0.37092592592592594,6.563199999809264],[0.2984375,-0.25999999999999995,6.577400000095373],[0.2491666666666667,-0.2235185185185185,6.593800000190733],[0.1898958333333333,-0.11888888888888886,6.612500000000004],[0.16572916666666657,-0.11185185185185181,6.629199999809266],[0.1560416666666666,-0.08148148148148149,6.644699999809269],[0.13031249999999991,-0.058333333333333334,6.668599999904636],[0.13031249999999991,-0.058333333333333334,6.677300000190733],[0.12302083333333323,-0.02296296296296292,6.693900000095361],[0.12302083333333323,-0.02296296296296292,6.7105999999046375],[0.10302083333333342,-0.032777777777777864,6.7313000001907355],[0.11479166666666671,-0.02833333333333325,6.746900000095373],[0.1701041666666666,-0.04722222222222222,6.763800000190734],[0.23968749999999991,-0.11833333333333329,6.7809000000953645],[0.23968749999999991,-0.11833333333333329,6.79369999980927],[0.27677083333333335,-0.18518518518518517,6.810400000095363],[0.34041666666666665,-0.24351851851851852,6.83109999990463],[0.3732291666666666,-0.2957407407407407,6.845599999904628],[0.3640625,-0.2766666666666666,6.860400000095375],[0.3940624999999999,-0.31722222222222224,6.877099999904637],[0.3927083333333333,-0.29500000000000004,6.898300000190737],[0.4202083333333334,-0.3085185185185186,6.913199999809272],[0.35479166666666656,-0.29444444444444445,6.928599999904627],[0.30802083333333335,-0.26722222222222225,6.943699999809262],[0.2508333333333333,-0.28351851851851856,6.963500000000003],[0.2525000000000001,-0.227962962962963,6.976999999999997],[0.27364583333333337,-0.2375925925925926,6.993699999809259],[0.2627083333333334,-0.1655555555555555,7.010300000190732],[0.28968749999999993,-0.14500000000000002,7.032099999904638],[0.28968749999999993,-0.14500000000000002,7.043500000000002],[0.2647916666666667,-0.08203703703703706,7.060199999809264],[0.2647916666666667,-0.08203703703703706,7.076900000095371],[0.2795833333333334,-0.056851851851851834,7.093699999809267],[0.2795833333333334,-0.056851851851851834,7.117199999809266],[0.27218749999999997,0.01185185185185181,7.126900000095368],[0.27218749999999997,0.01185185185185181,7.14359999990463],[0.33229166666666665,0.04333333333333329,7.1603000001907375],[0.33229166666666665,0.04333333333333329,7.176900000095365],[0.3849999999999999,0.04407407407407399,7.193599999904627],[0.3849999999999999,0.04407407407407399,7.210199999809269],[0.43250000000000005,0.13037037037037033,7.2331999998092655],[0.43250000000000005,0.13037037037037033,7.243599999904639],[0.4235416666666666,0.1264814814814814,7.260199999809267],[0.38864583333333325,0.1646296296296296,7.2771999998092625]]","[0.0003000001907338401,0.04580000019073793,0.07159999990463461,0.08180000019073219,0.09390000009536692,0.11050000000000182,0.12709999990463672,0.14790000009536897,0.16159999990463092,0.17690000009536533,0.1935999999046345,0.2103000001907347,0.22700000000000387,0.24369999980926593,0.26030000019073896,0.27690000009536675,0.2950000000000017,0.31230000019073856,0.3269999999999982,0.34380000019073265,0.36250000000000426,0.3770999999046367,0.3939000000953712,0.410499999999999,0.4290999999046363,0.4436999998092688,0.46050000000000324,0.4794000000953673,0.4969999999999999,0.5105999999046347,0.5270999999046353,0.5460999999046336,0.5605999999046318,0.5771999998092596,0.5970000000000013,0.6104999999999947,0.6270999999046367,0.6438000001907298,0.665300000190733,0.6770999999046339,0.6939000000953612,0.7105000000000032,0.7340000000000018,0.7435999999046388,0.7603000001907319,0.7769000000953739,0.7941999998092726,0.810300000190729,0.8270000000000053,0.845000000000006,0.8604000000953747,0.8770000000000024,0.8935999999046302,0.9103000001907375,0.9269000000953653,0.9435999999046274,0.9601999998092694,0.9769999999999968,0.9965999999046389,1.0101999998092666,1.028500000000001,1.0439000000953698,1.060300000190729,1.0770000000000053,1.0975000000000037,1.113599999904629,1.1270000000000024,1.1436999998092645,1.161599999904631,1.1769000000953653,1.1950999999046346,1.2103000001907347,1.2298000001907425,1.2454999999999998,1.2603000001907319,1.2774999999999963,1.2968000001907356,1.3104000000953633,1.326900000095371,1.343599999904633,1.3601999998092609,1.3769000000953682,1.3961999998092622,1.4124000000953671,1.4269000000953653,1.4435999999046274,1.4630999999046352,1.4769000000953625,1.4943000001907407,1.5101999998092666,1.531099999904633,1.546599999904636,1.562099999904639,1.576900000095371,1.5954999999999941,1.613199999809261,1.6281999998092616,1.6435999999046302,1.6603000001907375,1.6773000001907334,1.6965999999046275,1.7103000001907347,1.7269999999999968,1.7435999999046388,1.7605000000000004,1.7769000000953739,1.7964000000953675,1.8115999999046366,1.8270000000000053,1.843599999904633,1.8603000001907404,1.8769000000953682,1.896099999904628,1.9103000001907375,1.9269999999999996,1.9450000000000003,1.9603000001907347,1.9773000001907306,1.9961999998092708,2.0105999999046347,2.0283000001907325,2.043599999904636,2.061,2.0774000000953734,2.108300000190731,2.119499999999995,2.127599999904639,2.14380000019073,2.160400000095372,2.179699999809266,2.1935999999046274,2.2103000001907347,2.227099999904631,2.2435999999046388,2.2624000000953615,2.276900000095374,2.2970999999046384,2.312500000000007,2.3289000000953664,2.343599999904633,2.362099999904636,2.376900000095368,2.39859999990464,2.4144000000953625,2.429400000095363,2.4436999998092617,2.4630999999046352,2.4795999999046288,2.5013000001907315,2.510400000095366,2.526999999999994,2.54690000009537,2.560300000190729,2.5770000000000053,2.5978000001907375,2.613900000095363,2.6415000000000006,2.64869999980926,2.6603000001907375,2.6769000000953653,2.693800000190741,2.7103000001907347,2.7269999999999968,2.7490999999046366,2.767400000095371,2.776900000095374,2.79369999980927,2.810300000190729,2.8270000000000053,2.845499999999994,2.8608000001907286,2.8774000000953706,2.8961999998092622,2.9103000001907375,2.9294999999999973,2.9475999999046323,2.963300000190735,2.977400000095365,2.997300000190741,3.0116999998092595,3.02969999980926,3.0449999999999946,3.0615999999046366,3.076900000095371,3.093599999904633,3.1103000001907404,3.1270999999046367,3.1435999999046302,3.164199999809263,3.179099999904629,3.1935999999046274,3.2103000001907347,3.2295999999046288,3.2435999999046388,3.2628000001907296,3.277099999904628,3.29369999980927,3.310300000190729,3.328699999809267,3.343599999904633,3.360199999809261,3.376900000095368,3.3974000000953666,3.41269999980927,3.429099999904629,3.443800000190741,3.460400000095369,3.4769000000953625,3.494099999904627,3.510699999809269,3.5286999998092696,3.543599999904636,3.563900000095366,3.5795999999046373,3.59719999980927,3.6130999999046267,3.630800000190739,3.646900000095364,3.6633000001907376,3.6769000000953653,3.6935000000000073,3.7103000001907347,3.7269000000953625,3.743699999809259,3.7624000000953615,3.7869000000953648,3.8035000000000068,3.810300000190729,3.8270000000000053,3.8436999998092674,3.8621999998092704,3.876900000095368,3.8935999999046302,3.9101999998092722,3.9269000000953653,3.9435000000000073,3.9603000001907347,3.9768000001907424,3.993699999809259,4.010199999809267,4.026900000095374,4.043500000000002,4.060199999809264,4.076900000095371,4.095400000095374,4.112000000000002,4.126900000095368,4.14359999990463,4.1603000001907375,4.176900000095365,4.193500000000007,4.210199999809269,4.226999999999997,4.2435000000000045,4.260300000190732,4.276900000095374,4.293599999904636,4.310300000190729,4.327300000190739,4.343499999999999,4.360199999809261,4.376900000095368,4.39659999990463,4.411699999809265,4.427199999809268,4.4465000000000074,4.460199999809269,4.4769000000953625,4.49640000009537,4.510199999809267,4.52869999980927,4.544000000000004,4.562199999809259,4.576900000095371,4.593800000190733,4.61030000019074,4.626900000095368,4.64359999990463,4.661900000095365,4.697699999809267,4.721900000095367,4.748900000095368,4.756699999809264,4.78280000019074,4.793300000190733,4.8156999998092616,4.8249000000953615,4.832500000000003,4.865599999904639,4.872800000190729,4.899300000190742,4.9065999999046355,4.932599999904632,4.9414000000953635,4.9658000001907325,4.97309999990464,4.999199999809271,5.0064999999999955,5.033999999999999,5.042099999904629,5.065199999809259,5.072800000190732,5.099699999809268,5.110199999809261,5.1270000000000024,5.14359999990463,5.1603000001907375,5.176900000095365,5.193699999809262,5.210300000190735,5.2269000000953625,5.243800000190738,5.261900000095373,5.276900000095374,5.296599999904636,5.311800000190736,5.326900000095371,5.343499999999999,5.360499999999995,5.376900000095368,5.395099999904637,5.4103000001907375,5.429400000095363,5.444300000190729,5.460199999809269,5.4769000000953625,5.496599999904639,5.510300000190732,5.52680000019074,5.547199999809273,5.563900000095366,5.577000000000005,5.593699999809267,5.6133000001907405,5.627400000095371,5.6436999998092645,5.663300000190738,5.680599999904636,5.698199999809269,5.715599999904633,5.730699999809268,5.743699999809259,5.760400000095366,5.780599999904631,5.7938000001907355,5.810400000095363,5.827000000000005,5.846099999904631,5.862699999809273,5.8770000000000024,5.897400000095367,5.913000000000004,5.930400000095368,5.943599999904627,5.963800000190737,5.977099999904631,5.993699999809259,6.013599999904635,6.027099999904628,6.043599999904636,6.060400000095363,6.08009999990464,6.0966999998092675,6.113999999999997,6.126900000095368,6.143499999999996,6.1603000001907375,6.176800000190731,6.193599999904627,6.210199999809269,6.227099999904631,6.243699999809259,6.261000000000003,6.27680000019074,6.297099999904638,6.312900000095375,6.328199999809264,6.343599999904633,6.3625999999046385,6.376900000095368,6.397099999904633,6.413500000000006,6.429699999809266,6.444199999809264,6.461599999904628,6.476800000190742,6.495599999904634,6.510199999809267,6.5271999998092625,6.54690000009537,6.563199999809264,6.577400000095373,6.593800000190733,6.612500000000004,6.629199999809266,6.644699999809269,6.668599999904636,6.677300000190733,6.693900000095361,6.7105999999046375,6.7313000001907355,6.746900000095373,6.763800000190734,6.7809000000953645,6.79369999980927,6.810400000095363,6.83109999990463,6.845599999904628,6.860400000095375,6.877099999904637,6.898300000190737,6.913199999809272,6.928599999904627,6.943699999809262,6.963500000000003,6.976999999999997,6.993699999809259,7.010300000190732,7.032099999904638,7.043500000000002,7.060199999809264,7.076900000095371,7.093699999809267,7.117199999809266,7.126900000095368,7.14359999990463,7.1603000001907375,7.176900000095365,7.193599999904627,7.210199999809269,7.2331999998092655,7.243599999904639,7.260199999809267,7.2771999998092625]","[1731922745003,1731922745039,1731922745065,1731922745075,1731922745087,1731922745103,1731922745120,1731922745141,1731922745155,1731922745170,1731922745186,1731922745203,1731922745220,1731922745237,1731922745253,1731922745270,1731922745288,1731922745305,1731922745320,1731922745337,1731922745355,1731922745370,1731922745387,1731922745403,1731922745422,1731922745437,1731922745453,1731922745472,1731922745490,1731922745503,1731922745520,1731922745539,1731922745553,1731922745570,1731922745590,1731922745603,1731922745620,1731922745637,1731922745658,1731922745670,1731922745687,1731922745703,1731922745727,1731922745736,1731922745753,1731922745770,1731922745787,1731922745803,1731922745820,1731922745838,1731922745853,1731922745870,1731922745886,1731922745903,1731922745920,1731922745936,1731922745953,1731922745970,1731922745989,1731922746003,1731922746021,1731922746037,1731922746053,1731922746070,1731922746090,1731922746106,1731922746120,1731922746137,1731922746155,1731922746170,1731922746188,1731922746203,1731922746223,1731922746238,1731922746253,1731922746270,1731922746290,1731922746303,1731922746320,1731922746336,1731922746353,1731922746370,1731922746389,1731922746405,1731922746420,1731922746436,1731922746456,1731922746470,1731922746487,1731922746503,1731922746524,1731922746539,1731922746555,1731922746570,1731922746588,1731922746606,1731922746621,1731922746636,1731922746653,1731922746670,1731922746689,1731922746703,1731922746720,1731922746736,1731922746753,1731922746770,1731922746789,1731922746805,1731922746820,1731922746836,1731922746853,1731922746870,1731922746889,1731922746903,1731922746920,1731922746938,1731922746953,1731922746970,1731922746989,1731922747004,1731922747021,1731922747036,1731922747054,1731922747070,1731922747101,1731922747112,1731922747121,1731922747137,1731922747153,1731922747173,1731922747186,1731922747203,1731922747220,1731922747236,1731922747255,1731922747270,1731922747290,1731922747305,1731922747322,1731922747336,1731922747355,1731922747370,1731922747391,1731922747407,1731922747422,1731922747437,1731922747456,1731922747472,1731922747494,1731922747503,1731922747520,1731922747540,1731922747553,1731922747570,1731922747591,1731922747607,1731922747634,1731922747642,1731922747653,1731922747670,1731922747687,1731922747703,1731922747720,1731922747742,1731922747760,1731922747770,1731922747787,1731922747803,1731922747820,1731922747838,1731922747854,1731922747870,1731922747889,1731922747903,1731922747922,1731922747940,1731922747956,1731922747970,1731922747990,1731922748004,1731922748023,1731922748038,1731922748054,1731922748070,1731922748086,1731922748103,1731922748120,1731922748137,1731922748157,1731922748172,1731922748186,1731922748203,1731922748222,1731922748236,1731922748256,1731922748270,1731922748287,1731922748303,1731922748322,1731922748336,1731922748353,1731922748370,1731922748390,1731922748406,1731922748422,1731922748437,1731922748453,1731922748470,1731922748487,1731922748504,1731922748522,1731922748536,1731922748557,1731922748573,1731922748590,1731922748606,1731922748624,1731922748640,1731922748656,1731922748670,1731922748686,1731922748703,1731922748720,1731922748737,1731922748755,1731922748780,1731922748796,1731922748803,1731922748820,1731922748837,1731922748855,1731922748870,1731922748886,1731922748903,1731922748920,1731922748936,1731922748953,1731922748970,1731922748987,1731922749003,1731922749020,1731922749036,1731922749053,1731922749070,1731922749088,1731922749105,1731922749120,1731922749136,1731922749153,1731922749170,1731922749186,1731922749203,1731922749220,1731922749236,1731922749253,1731922749270,1731922749286,1731922749303,1731922749320,1731922749336,1731922749353,1731922749370,1731922749390,1731922749405,1731922749420,1731922749439,1731922749453,1731922749470,1731922749489,1731922749503,1731922749522,1731922749537,1731922749555,1731922749570,1731922749587,1731922749603,1731922749620,1731922749637,1731922749655,1731922749691,1731922749715,1731922749742,1731922749750,1731922749776,1731922749786,1731922749809,1731922749818,1731922749825,1731922749858,1731922749866,1731922749892,1731922749899,1731922749925,1731922749934,1731922749959,1731922749966,1731922749992,1731922749999,1731922750027,1731922750035,1731922750058,1731922750066,1731922750093,1731922750103,1731922750120,1731922750136,1731922750153,1731922750170,1731922750186,1731922750203,1731922750220,1731922750237,1731922750255,1731922750270,1731922750290,1731922750305,1731922750320,1731922750336,1731922750353,1731922750370,1731922750388,1731922750403,1731922750422,1731922750437,1731922750453,1731922750470,1731922750489,1731922750503,1731922750520,1731922750540,1731922750557,1731922750570,1731922750587,1731922750606,1731922750620,1731922750637,1731922750656,1731922750674,1731922750691,1731922750708,1731922750724,1731922750737,1731922750753,1731922750773,1731922750787,1731922750803,1731922750820,1731922750839,1731922750856,1731922750870,1731922750890,1731922750906,1731922750923,1731922750937,1731922750957,1731922750970,1731922750987,1731922751006,1731922751020,1731922751037,1731922751053,1731922751073,1731922751089,1731922751107,1731922751120,1731922751136,1731922751153,1731922751170,1731922751186,1731922751203,1731922751220,1731922751237,1731922751254,1731922751270,1731922751290,1731922751306,1731922751321,1731922751336,1731922751355,1731922751370,1731922751390,1731922751406,1731922751423,1731922751437,1731922751454,1731922751470,1731922751488,1731922751503,1731922751520,1731922751540,1731922751556,1731922751570,1731922751587,1731922751605,1731922751622,1731922751638,1731922751661,1731922751670,1731922751687,1731922751703,1731922751724,1731922751740,1731922751757,1731922751774,1731922751787,1731922751803,1731922751824,1731922751838,1731922751853,1731922751870,1731922751891,1731922751906,1731922751921,1731922751937,1731922751956,1731922751970,1731922751987,1731922752003,1731922752025,1731922752036,1731922752053,1731922752070,1731922752087,1731922752110,1731922752120,1731922752136,1731922752153,1731922752170,1731922752186,1731922752203,1731922752226,1731922752236,1731922752253,1731922752270]","[[1029.9,681.9],[1029.9,681.9],[1016.6,680.2],[1016.6,680.2],[1026.4,673.6],[1026.4,673.6],[1029,668.4],[1030.5,682.3],[1030.5,682.3],[1017,697.7],[1012.8,699],[1041,693.7],[1034.1,721.5],[1041.1,715.1],[1041.6,715.5],[1042.1,715.9],[1021.9,743],[1009.1,747.4],[1015.5,729.9],[1012.1,740.7],[1009.7,756.9],[1009.7,756.9],[1006.9,772.3],[1005.9,758.7],[988.8,760.3],[990.9,761.8],[994.6,756.1],[991.3,758.9],[987.2,754.4],[972.9,762.7],[975.1,748.5],[967,743],[960.3,725.8],[970.3,709.4],[982,707.4],[979.3,693.3],[977.8,680.4],[977.8,680.4],[985.2,652],[985.2,652],[976.2,628.1],[976.2,628.1],[971.4,608.3],[971.4,608.3],[979,582.9],[986.6,557.5],[986.6,557.5],[982.7,555.2],[982.7,555.2],[979.1,551],[982.2,556.8],[987,568],[987,568],[999.7,559.1],[1002.7,558.6],[1024.9,562.2],[1037.5,579.5],[1032.2,604.2],[1031,640.9],[1026.3,669.8],[1018.5,712.4],[1008.6,740.5],[997.7,753],[971.1,797],[949.3,813.8],[925.5,829.3],[925.5,829.3],[881.7,828.1],[846.5,825.5],[807.2,810.9],[779.5,803.5],[742.9,752.1],[718.1,715.7],[694.3,694.9],[669.9,668.7],[644.7,649.5],[623.7,629.4],[632,626],[650.6,603.4],[669.2,580.8],[669.2,580.8],[683.8,563.1],[700.1,585.8],[704.6,593.5],[709.7,599.7],[723.5,614],[738.1,634.9],[748.5,656.7],[750.4,661.8],[738.7,689.8],[733,707.1],[738.8,705.7],[736.7,694.7],[734.6,683.7],[731.9,674.2],[713.7,653.5],[713.7,653.5],[700.7,649.4],[705.5,619.6],[714.8,588.4],[705.9,559.7],[692.9,551.4],[679.4,534.8],[664.6,521.2],[664.6,517.1],[664.6,513],[671.6,508.4],[678.3,492.4],[660.8,503.6],[643.4,515.1],[687.3,549.9],[729.3,575],[761,592.5],[801.4,606],[817.7,623.8],[841.1,644.4],[879.7,676.5],[918.3,708.6],[963.3,739.2],[979.4,739.2],[966.8,724.8],[954.2,710.4],[936.8,707.7],[919.4,705],[923.6,692.9],[923.6,692.9],[933.9,689.6],[933.9,689.6],[934.4,678.4],[932.8,675],[932.8,675],[943.9,661.2],[943.9,661.2],[976.5,684.4],[981,683.3],[985.5,682.2],[1009.7,689.7],[1033.9,697.2],[1040.7,692.6],[1034.3,676.4],[1036.2,656.9],[1040.2,629.6],[1018.9,617.8],[1016.5,607.2],[1025.5,595.8],[1034.9,609.1],[1041.6,602.8],[1039.8,608],[1037.9,626.7],[1037.9,626.7],[1036,645.4],[1014.4,652.8],[1014.4,652.8],[1001.6,674.5],[998.8,680],[984.5,677.9],[980.1,694.2],[980.1,694.2],[979.5,695.6],[979.5,695.6],[972.4,716],[972.4,716],[970.6,721.3],[956.6,721.8],[942.6,722.3],[942.6,722.3],[940,737.4],[940,737.4],[932.9,729.6],[929.4,737.7],[940,769.2],[928.9,778],[921.7,755.9],[923.4,738.9],[914.8,716.6],[920,715.5],[943.5,707.1],[957.4,692.8],[970.8,665.4],[983.2,633.2],[981.4,590.6],[993.7,566],[988.4,555.4],[974.2,539.7],[974.2,539.7],[995,545.5],[995,545.5],[1042.2,538.7],[1064.6,535.1],[1096.6,537.4],[1096.6,537.4],[1121.1,559.4],[1153.5,564.4],[1186,556.4],[1225.7,564.9],[1274.9,580.5],[1274.9,580.5],[1318.3,606.1],[1332.4,605.5],[1323.7,595.3],[1344.9,607.7],[1366.1,620.1],[1372,614.2],[1370,625.3],[1380.1,643.5],[1383,645.2],[1388.4,643.3],[1399.6,631.4],[1410,624.6],[1408.6,599.5],[1401.8,598.7],[1395,597.9],[1374.6,605.6],[1354.2,613.3],[1340.9,626.2],[1314.5,613.8],[1288.9,600.8],[1263.3,587.8],[1243.2,588.3],[1234.9,607.1],[1234.9,607.1],[1201.9,583.2],[1174.6,562.6],[1179.9,553.8],[1185.4,554.8],[1185.4,554.8],[1171.7,543.5],[1171.7,543.5],[1185.6,566.2],[1196.2,593.1],[1210.1,607.5],[1227.1,616.9],[1231.8,628.2],[1243.2,639.4],[1244.4,654.2],[1254.5,675.3],[1248.8,657.6],[1268.2,660.5],[1257.2,654.5],[1251,632.1],[1232.6,621.4],[1214.2,610.7],[1210.2,605.8],[1206.2,600.9],[1199.7,586.7],[1184.3,566.2],[1184.3,566.2],[1152.8,580.6],[1152.8,580.6],[1111,573.9],[1075.3,549.5],[1075.3,549.5],[1048,544.2],[1024.9,547.7],[1007.4,558],[985,553.2],[985,553.2],[967,554.8],[914,534.5],[864.3,522.8],[835.3,511.9],[796.3,498.1],[764.3,498.4],[719.1,496],[676.3,484.1],[627.9,465.4],[589.8,468.3],[547.3,464.8],[541.1,468.5],[531.6,463.6],[533.3,457.8],[531.4,461],[531.1,461.6],[532.6,453.4],[539,442.1],[535.7,434.4],[525,431.5],[525,431.5],[525,431.5],[513.9,431.5],[513.9,431.5],[540.1,459.6],[540.1,459.6],[584.8,501],[584.8,501],[641,509.6],[641,509.6],[641,509.6],[687.3,541.8],[687.3,541.8],[739.1,560.4],[739.1,560.4],[789.4,588.3],[789.4,588.3],[838.7,599.6],[838.7,599.6],[902.9,645.1],[902.9,645.1],[965.2,662.6],[965.2,662.6],[1024.1,694.7],[1024.1,694.7],[1051.4,715.8],[1051.4,715.8],[1054.5,722.2],[1054.5,722.2],[1044.8,738.9],[1044.8,738.9],[1043.8,726.4],[1043.8,726.4],[1060.1,724.3],[1088.9,733],[1127.5,762.2],[1160.9,753.6],[1191.5,748],[1225.9,724.9],[1259,705.4],[1297.8,687.3],[1328.5,677.1],[1359.2,666.9],[1371.3,676.6],[1370.6,675],[1374,677.3],[1327.3,658],[1285.1,653.8],[1242.9,649.6],[1193.6,639.2],[1144.3,628.8],[1093.2,625.4],[1042.1,622],[1008.6,611.3],[975.1,600.6],[926.1,586.7],[923.6,594.1],[921.9,587.1],[931.5,590.6],[943,593.3],[985.9,629.3],[990,676.1],[994.1,722.9],[996.4,690.1],[996.4,690.1],[1006.3,658.2],[1021.3,609.5],[1021.3,609.5],[1037.2,624.8],[1029.7,650.8],[1010.9,666.3],[1029.7,670.1],[1029.7,670.1],[1012.1,645.9],[1031.9,591.5],[1048.7,515.8],[1048.7,515.8],[1036.1,533],[1036.1,533],[1046.9,532.7],[1050.4,563.1],[1050.4,563.1],[1061.2,505.7],[1088.5,454.5],[1115.8,403.3],[1131.2,355.6],[1144.9,316.2],[1144.9,316.2],[1166.7,263.7],[1166.7,263.7],[1209.6,253.7],[1209.6,253.7],[1249,201.8],[1257.7,225.7],[1257.1,205.9],[1275.1,187.6],[1299.3,157.7],[1326.6,146.8],[1334.7,147.5],[1346.4,127.1],[1353.6,162.6],[1365.8,164.8],[1381.1,199.2],[1407.1,167.8],[1427,159.1],[1427.5,206.2],[1420.2,228.8],[1401.6,262.8],[1397.2,262.2],[1386.4,296.6],[1389.2,284.8],[1364.7,309.7],[1359.2,315.1],[1300.9,339.7],[1246.5,399.6],[1199.2,419.3],[1142.3,475.8],[1119.1,479.6],[1109.8,496],[1085.1,508.5],[1085.1,508.5],[1078.1,527.6],[1078.1,527.6],[1058.9,522.3],[1070.2,524.7],[1123.3,514.5],[1190.1,476.1],[1190.1,476.1],[1225.7,440],[1286.8,408.5],[1318.3,380.3],[1309.5,390.6],[1338.3,368.7],[1337,380.7],[1363.4,373.4],[1300.6,381],[1255.7,395.7],[1200.8,386.9],[1202.4,416.9],[1222.7,411.7],[1212.2,450.6],[1238.1,461.7],[1238.1,461.7],[1214.2,495.7],[1214.2,495.7],[1228.4,509.3],[1228.4,509.3],[1221.3,546.4],[1221.3,546.4],[1279,563.4],[1279,563.4],[1329.6,563.8],[1329.6,563.8],[1375.2,610.4],[1375.2,610.4],[1366.6,608.3],[1333.1,628.9]]","[-0.142,0.42599999999999993]","[0.142,0.42599999999999993]","[0.42599999999999993,0.42599999999999993]","[-0.42599999999999993,-0.42599999999999993]","[-0.42599999999999993,0.142]","[-0.42599999999999993,-0.142]","[-0.142,-0.42599999999999993]","[0.142,-0.42599999999999993]","[0.42599999999999993,-0.42599999999999993]","[-0.142,0.142]","[0.142,0.142]","[0.42599999999999993,0.142]","[-0.142,-0.142]","[0.142,-0.142]","[0.42599999999999993,-0.142]",0,0,0,0,1,2,Laptop,15,20,8,3,70,4,3,60,4
