inst1_resp.keys,inst1_resp.rt,calibrationMouse.x,calibrationMouse.y,calibrationMouse.leftButton,calibrationMouse.midButton,calibrationMouse.rightButton,calibrationClick.x,calibrationClick.y,calibrationClick.leftButton,calibrationClick.midButton,calibrationClick.rightButton,calibrationClick.clicked_name,trialsc.thisRepN,trialsc.thisTrialN,trialsc.thisN,trialsc.thisIndex,trialsc.ran,calibration_x,calibration_y,participant,session,date,expName,psychopyVersion,OS,frameRate,ScreenRes_pixels,mouse_2.x,mouse_2.y,mouse_2.leftButton,mouse_2.midButton,mouse_2.rightButton,mouse_2.time,mouse_2.clicked_name,Camera_pixels,mouse.x,mouse.y,mouse.leftButton,mouse.midButton,mouse.rightButton,mouse.time,mouse.clicked_name,Choice,Trial,TrialDuration,MOUSE_GAZE,ET_GAZE,ET_GAZE_x_T,time,unixTime,ET_GAZE_NF,Loc_Bus_label,Loc_Metro_label,Loc_RH_label,Loc_Cost_label,Loc_Travel_label,Loc_Comfort_label,Loc_Bus_cost,Loc_Metro_cost,Loc_RH_cost,Loc_Bus_travel,Loc_Metro_travel,Loc_RH_travel,Loc_Bus_comfort,Loc_Metro_comfort,Loc_RH_comfort,trials.thisRepN,trials.thisTrialN,trials.thisN,trials.thisIndex,trials.ran,Block,Device,RH_cost,RH_travel_time,RH_Comfort,metro_cost,metro_travel_time,metro_Comfort,Bus_cost,Bus_travel_time,Bus_Comfort
space,1.9798,-0.1875,-0.301851852,1,0,0,0.003125,0.32037037,1,0,0,calibration_square,0,0,0,12,1,0,0.33,30,001,2024-11-18_17h42.16.371,Attention_exp_legacy,2023.1.0,Win32,59.88023952,,,,,,,,,,,,,,,,,,,,,,,,,,,,,,,,,,,,,,,,,,,,,,,,,,,,,,,,
,,,,,,,-0.330208333,-0.007407407,1,0,0,calibration_square,0,1,1,6,1,-0.33,0,30,001,2024-11-18_17h42.16.371,Attention_exp_legacy,2023.1.0,Win32,59.88023952,,,,,,,,,,,,,,,,,,,,,,,,,,,,,,,,,,,,,,,,,,,,,,,,,,,,,,,,
,,,,,,,-0.672916667,-0.325925926,1,0,0,calibration_square,0,2,2,1,1,-0.67,-0.33,30,001,2024-11-18_17h42.16.371,Attention_exp_legacy,2023.1.0,Win32,59.88023952,,,,,,,,,,,,,,,,,,,,,,,,,,,,,,,,,,,,,,,,,,,,,,,,,,,,,,,,
,,,,,,,-0.004166667,0.672222222,1,0,0,calibration_square,0,3,3,13,1,0,0.67,30,001,2024-11-18_17h42.16.371,Attention_exp_legacy,2023.1.0,Win32,59.88023952,,,,,,,,,,,,,,,,,,,,,,,,,,,,,,,,,,,,,,,,,,,,,,,,,,,,,,,,
,,,,,,,-0.666666667,-0.005555556,1,0,0,calibration_square,0,4,4,2,1,-0.67,0,30,001,2024-11-18_17h42.16.371,Attention_exp_legacy,2023.1.0,Win32,59.88023952,,,,,,,,,,,,,,,,,,,,,,,,,,,,,,,,,,,,,,,,,,,,,,,,,,,,,,,,
,,,,,,,-0.333333333,0.685185185,1,0,0,,0,5,5,8,1,-0.33,0.67,30,001,2024-11-18_17h42.16.371,Attention_exp_legacy,2023.1.0,Win32,59.88023952,,,,,,,,,,,,,,,,,,,,,,,,,,,,,,,,,,,,,,,,,,,,,,,,,,,,,,,,
,,,,,,,0.001041667,0.007407407,1,0,0,calibration_square,0,6,6,11,1,0,0,30,001,2024-11-18_17h42.16.371,Attention_exp_legacy,2023.1.0,Win32,59.88023952,,,,,,,,,,,,,,,,,,,,,,,,,,,,,,,,,,,,,,,,,,,,,,,,,,,,,,,,
,,,,,,,0.327083333,0.346296296,1,0,0,,0,7,7,17,1,0.33,0.33,30,001,2024-11-18_17h42.16.371,Attention_exp_legacy,2023.1.0,Win32,59.88023952,,,,,,,,,,,,,,,,,,,,,,,,,,,,,,,,,,,,,,,,,,,,,,,,,,,,,,,,
,,,,,,,-0.004166667,-0.674074074,1,0,0,calibration_square,0,8,8,9,1,0,-0.67,30,001,2024-11-18_17h42.16.371,Attention_exp_legacy,2023.1.0,Win32,59.88023952,,,,,,,,,,,,,,,,,,,,,,,,,,,,,,,,,,,,,,,,,,,,,,,,,,,,,,,,
,,,,,,,-0.680208333,0.346296296,1,0,0,,0,9,9,3,1,-0.67,0.33,30,001,2024-11-18_17h42.16.371,Attention_exp_legacy,2023.1.0,Win32,59.88023952,,,,,,,,,,,,,,,,,,,,,,,,,,,,,,,,,,,,,,,,,,,,,,,,,,,,,,,,
,,,,,,,-0.008333333,-0.327777778,1,0,0,calibration_square,0,10,10,10,1,0,-0.33,30,001,2024-11-18_17h42.16.371,Attention_exp_legacy,2023.1.0,Win32,59.88023952,,,,,,,,,,,,,,,,,,,,,,,,,,,,,,,,,,,,,,,,,,,,,,,,,,,,,,,,
,,,,,,,-0.332291667,-0.324074074,1,0,0,calibration_square,0,11,11,5,1,-0.33,-0.33,30,001,2024-11-18_17h42.16.371,Attention_exp_legacy,2023.1.0,Win32,59.88023952,,,,,,,,,,,,,,,,,,,,,,,,,,,,,,,,,,,,,,,,,,,,,,,,,,,,,,,,
,,,,,,,-0.328125,0.318518519,1,0,0,,0,12,12,7,1,-0.33,0.33,30,001,2024-11-18_17h42.16.371,Attention_exp_legacy,2023.1.0,Win32,59.88023952,,,,,,,,,,,,,,,,,,,,,,,,,,,,,,,,,,,,,,,,,,,,,,,,,,,,,,,,
,,,,,,,0.319791667,0.009259259,1,0,0,,0,13,13,16,1,0.33,0,30,001,2024-11-18_17h42.16.371,Attention_exp_legacy,2023.1.0,Win32,59.88023952,,,,,,,,,,,,,,,,,,,,,,,,,,,,,,,,,,,,,,,,,,,,,,,,,,,,,,,,
,,,,,,,0.679166667,0.694444444,1,0,0,,0,14,14,19,1,0.67,0.67,30,001,2024-11-18_17h42.16.371,Attention_exp_legacy,2023.1.0,Win32,59.88023952,,,,,,,,,,,,,,,,,,,,,,,,,,,,,,,,,,,,,,,,,,,,,,,,,,,,,,,,
,,,,,,,0.326041667,-0.662962963,1,0,0,calibration_square,0,15,15,14,1,0.33,-0.67,30,001,2024-11-18_17h42.16.371,Attention_exp_legacy,2023.1.0,Win32,59.88023952,,,,,,,,,,,,,,,,,,,,,,,,,,,,,,,,,,,,,,,,,,,,,,,,,,,,,,,,
,,,,,,,-0.667708333,-0.655555556,1,0,0,,0,16,16,0,1,-0.67,-0.67,30,001,2024-11-18_17h42.16.371,Attention_exp_legacy,2023.1.0,Win32,59.88023952,,,,,,,,,,,,,,,,,,,,,,,,,,,,,,,,,,,,,,,,,,,,,,,,,,,,,,,,
,,,,,,,0.338541667,0.677777778,1,0,0,calibration_square,0,17,17,18,1,0.33,0.67,30,001,2024-11-18_17h42.16.371,Attention_exp_legacy,2023.1.0,Win32,59.88023952,,,,,,,,,,,,,,,,,,,,,,,,,,,,,,,,,,,,,,,,,,,,,,,,,,,,,,,,
,,,,,,,0.327083333,-0.340740741,1,0,0,,0,18,18,15,1,0.33,-0.33,30,001,2024-11-18_17h42.16.371,Attention_exp_legacy,2023.1.0,Win32,59.88023952,,,,,,,,,,,,,,,,,,,,,,,,,,,,,,,,,,,,,,,,,,,,,,,,,,,,,,,,
,,,,,,,-0.330208333,-0.661111111,1,0,0,calibration_square,0,19,19,4,1,-0.33,-0.67,30,001,2024-11-18_17h42.16.371,Attention_exp_legacy,2023.1.0,Win32,59.88023952,,,,,,,,,,,,,,,,,,,,,,,,,,,,,,,,,,,,,,,,,,,,,,,,,,,,,,,,
,,,,,,,0.660416667,-0.661111111,1,0,0,calibration_square,0,20,20,20,1,0.67,-0.67,30,001,2024-11-18_17h42.16.371,Attention_exp_legacy,2023.1.0,Win32,59.88023952,,,,,,,,,,,,,,,,,,,,,,,,,,,,,,,,,,,,,,,,,,,,,,,,,,,,,,,,
,,,,,,,,,,,,,,,,,,,,30,001,2024-11-18_17h42.16.371,Attention_exp_legacy,2023.1.0,Win32,59.88023952,"[1920,1080]",[0.096875],[-0.4777777777777778],[1],[0],[0],[0.9789999999999992],"[""StartButton""]","[640,480]",[-0.03333333333333333],[0.16111111111111112],[1],[0],[0],[5.982099999904634],"[""Bus_label""]",Bus_label,1,7.0078,"[[0.48333333333333334,0.4444444444444444],[0.48333333333333334,0.4444444444444444],[0.48333333333333334,0.4444444444444444],[0.48333333333333334,0.4444444444444444],[0.48333333333333334,0.4444444444444444],[0.48333333333333334,0.4444444444444444],[0.48333333333333334,0.4444444444444444],[0.48333333333333334,0.4444444444444444],[0.48333333333333334,0.4444444444444444],[0.48333333333333334,0.4444444444444444],[0.48333333333333334,0.4444444444444444],[0.48333333333333334,0.4444444444444444],[0.48333333333333334,0.4444444444444444],[0.48333333333333334,0.4444444444444444],[0.48333333333333334,0.4444444444444444],[0.48333333333333334,0.4444444444444444],[0.48333333333333334,0.4444444444444444],[0.48333333333333334,0.4444444444444444],[0.48333333333333334,0.4444444444444444],[0.48333333333333334,0.4444444444444444],[0.48333333333333334,0.4444444444444444],[0.48333333333333334,0.4444444444444444],[0.48333333333333334,0.4444444444444444],[0.48333333333333334,0.4444444444444444],[0.48333333333333334,0.4444444444444444],[0.48333333333333334,0.4444444444444444],[0.48333333333333334,0.4444444444444444],[0.48333333333333334,0.4444444444444444],[0.48333333333333334,0.4444444444444444],[0.48333333333333334,0.4444444444444444],[0.48333333333333334,0.4444444444444444],[0.48333333333333334,0.4444444444444444],[0.48333333333333334,0.4444444444444444],[0.48333333333333334,0.4444444444444444],[0.48333333333333334,0.4444444444444444],[0.48333333333333334,0.4444444444444444],[0.48333333333333334,0.4444444444444444],[0.48333333333333334,0.4444444444444444],[0.48333333333333334,0.4444444444444444],[0.48333333333333334,0.4444444444444444],[0.48333333333333334,0.4444444444444444],[0.48333333333333334,0.4444444444444444],[0.48333333333333334,0.4444444444444444],[0.48333333333333334,0.4444444444444444],[0.48333333333333334,0.4444444444444444],[0.48333333333333334,0.4444444444444444],[0.48333333333333334,0.4444444444444444],[0.47291666666666665,0.4444444444444444],[0.4510416666666667,0.4444444444444444],[0.4239583333333333,0.4388888888888889],[0.38229166666666664,0.42407407407407405],[0.3489583333333333,0.4111111111111111],[0.3260416666666667,0.4],[0.309375,0.387037037037037],[0.28854166666666664,0.37222222222222223],[0.25729166666666664,0.35185185185185186],[0.234375,0.34074074074074073],[0.21458333333333332,0.3314814814814815],[0.19791666666666666,0.31666666666666665],[0.18333333333333332,0.3037037037037037],[0.16979166666666667,0.29074074074074074],[0.14895833333333333,0.27037037037037037],[0.13125,0.2537037037037037],[0.11145833333333334,0.23333333333333334],[0.096875,0.21851851851851853],[0.08333333333333333,0.20555555555555555],[0.06666666666666667,0.18703703703703703],[0.04895833333333333,0.1685185185185185],[0.04375,0.16296296296296298],[0.03958333333333333,0.15925925925925927],[0.036458333333333336,0.15555555555555556],[0.03229166666666667,0.15185185185185185],[0.03125,0.15],[0.030208333333333334,0.14814814814814814],[0.030208333333333334,0.14814814814814814],[0.030208333333333334,0.14814814814814814],[0.030208333333333334,0.14814814814814814],[0.030208333333333334,0.14814814814814814],[0.030208333333333334,0.14814814814814814],[0.030208333333333334,0.14814814814814814],[0.030208333333333334,0.14814814814814814],[0.030208333333333334,0.14814814814814814],[0.030208333333333334,0.14814814814814814],[0.030208333333333334,0.14814814814814814],[0.030208333333333334,0.14814814814814814],[0.030208333333333334,0.14814814814814814],[0.030208333333333334,0.14814814814814814],[0.030208333333333334,0.14814814814814814],[0.030208333333333334,0.14814814814814814],[0.030208333333333334,0.14814814814814814],[0.030208333333333334,0.14814814814814814],[0.030208333333333334,0.14814814814814814],[0.030208333333333334,0.14814814814814814],[0.030208333333333334,0.14814814814814814],[0.030208333333333334,0.14814814814814814],[0.030208333333333334,0.14814814814814814],[0.030208333333333334,0.14814814814814814],[0.030208333333333334,0.14814814814814814],[0.03125,0.14814814814814814],[0.03229166666666667,0.14814814814814814],[0.03333333333333333,0.15],[0.034375,0.15185185185185185],[0.034375,0.1537037037037037],[0.035416666666666666,0.1537037037037037],[0.035416666666666666,0.1537037037037037],[0.035416666666666666,0.1537037037037037],[0.035416666666666666,0.1537037037037037],[0.036458333333333336,0.1537037037037037],[0.036458333333333336,0.1537037037037037],[0.036458333333333336,0.15555555555555556],[0.0375,0.15555555555555556],[0.03854166666666667,0.15555555555555556],[0.040625,0.1574074074074074],[0.040625,0.1574074074074074],[0.04375,0.15925925925925927],[0.04375,0.15925925925925927],[0.04375,0.15925925925925927],[0.04583333333333333,0.15925925925925927],[0.046875,0.15925925925925927],[0.046875,0.15925925925925927],[0.046875,0.15925925925925927],[0.04895833333333333,0.15925925925925927],[0.05,0.15925925925925927],[0.05,0.15925925925925927],[0.05,0.15925925925925927],[0.05,0.15925925925925927],[0.052083333333333336,0.15925925925925927],[0.053125,0.16111111111111112],[0.053125,0.16111111111111112],[0.053125,0.16111111111111112],[0.053125,0.16111111111111112],[0.053125,0.16111111111111112],[0.05520833333333333,0.16111111111111112],[0.05520833333333333,0.16111111111111112],[0.05520833333333333,0.16111111111111112],[0.05625,0.16111111111111112],[0.05625,0.16111111111111112],[0.05625,0.16111111111111112],[0.05625,0.16111111111111112],[0.058333333333333334,0.16111111111111112],[0.058333333333333334,0.16111111111111112],[0.058333333333333334,0.16111111111111112],[0.058333333333333334,0.16111111111111112],[0.058333333333333334,0.16111111111111112],[0.058333333333333334,0.16111111111111112],[0.058333333333333334,0.16111111111111112],[0.058333333333333334,0.16111111111111112],[0.058333333333333334,0.16111111111111112],[0.058333333333333334,0.16111111111111112],[0.058333333333333334,0.16111111111111112],[0.058333333333333334,0.16111111111111112],[0.058333333333333334,0.16111111111111112],[0.058333333333333334,0.16111111111111112],[0.058333333333333334,0.16111111111111112],[0.058333333333333334,0.16111111111111112],[0.058333333333333334,0.16111111111111112],[0.058333333333333334,0.16111111111111112],[0.058333333333333334,0.16111111111111112],[0.058333333333333334,0.16111111111111112],[0.058333333333333334,0.16111111111111112],[0.058333333333333334,0.16111111111111112],[0.058333333333333334,0.16111111111111112],[0.058333333333333334,0.16111111111111112],[0.058333333333333334,0.16111111111111112],[0.058333333333333334,0.16111111111111112],[0.058333333333333334,0.16111111111111112],[0.058333333333333334,0.16111111111111112],[0.058333333333333334,0.16111111111111112],[0.058333333333333334,0.16111111111111112],[0.058333333333333334,0.16111111111111112],[0.058333333333333334,0.16111111111111112],[0.058333333333333334,0.16111111111111112],[0.058333333333333334,0.16111111111111112],[0.058333333333333334,0.16111111111111112],[0.058333333333333334,0.16111111111111112],[0.058333333333333334,0.16111111111111112],[0.058333333333333334,0.16111111111111112],[0.058333333333333334,0.16111111111111112],[0.058333333333333334,0.16111111111111112],[0.058333333333333334,0.16111111111111112],[0.058333333333333334,0.16111111111111112],[0.058333333333333334,0.16111111111111112],[0.058333333333333334,0.16111111111111112],[0.058333333333333334,0.16111111111111112],[0.058333333333333334,0.16111111111111112],[0.058333333333333334,0.16111111111111112],[0.058333333333333334,0.16111111111111112],[0.058333333333333334,0.16111111111111112],[0.058333333333333334,0.16111111111111112],[0.058333333333333334,0.16111111111111112],[0.058333333333333334,0.16111111111111112],[0.058333333333333334,0.16111111111111112],[0.058333333333333334,0.16111111111111112],[0.058333333333333334,0.16111111111111112],[0.058333333333333334,0.16111111111111112],[0.058333333333333334,0.16111111111111112],[0.058333333333333334,0.16111111111111112],[0.058333333333333334,0.16111111111111112],[0.058333333333333334,0.16111111111111112],[0.058333333333333334,0.16111111111111112],[0.058333333333333334,0.16111111111111112],[0.058333333333333334,0.16111111111111112],[0.058333333333333334,0.16111111111111112],[0.058333333333333334,0.16111111111111112],[0.058333333333333334,0.16111111111111112],[0.058333333333333334,0.16111111111111112],[0.058333333333333334,0.16111111111111112],[0.058333333333333334,0.16111111111111112],[0.058333333333333334,0.16111111111111112],[0.058333333333333334,0.16111111111111112],[0.058333333333333334,0.16111111111111112],[0.058333333333333334,0.16111111111111112],[0.058333333333333334,0.16111111111111112],[0.058333333333333334,0.16111111111111112],[0.058333333333333334,0.16111111111111112],[0.058333333333333334,0.16111111111111112],[0.058333333333333334,0.16111111111111112],[0.058333333333333334,0.16111111111111112],[0.058333333333333334,0.16111111111111112],[0.058333333333333334,0.16111111111111112],[0.058333333333333334,0.16111111111111112],[0.058333333333333334,0.16111111111111112],[0.058333333333333334,0.16111111111111112],[0.058333333333333334,0.16111111111111112],[0.058333333333333334,0.16111111111111112],[0.058333333333333334,0.16111111111111112],[0.058333333333333334,0.16111111111111112],[0.058333333333333334,0.16111111111111112],[0.058333333333333334,0.16111111111111112],[0.058333333333333334,0.16111111111111112],[0.058333333333333334,0.16111111111111112],[0.058333333333333334,0.16111111111111112],[0.058333333333333334,0.16111111111111112],[0.058333333333333334,0.16111111111111112],[0.058333333333333334,0.16111111111111112],[0.058333333333333334,0.16111111111111112],[0.058333333333333334,0.16111111111111112],[0.058333333333333334,0.16111111111111112],[0.058333333333333334,0.16111111111111112],[0.058333333333333334,0.16111111111111112],[0.058333333333333334,0.16111111111111112],[0.058333333333333334,0.16111111111111112],[0.058333333333333334,0.16111111111111112],[0.058333333333333334,0.16111111111111112],[0.058333333333333334,0.16111111111111112],[0.058333333333333334,0.16111111111111112],[0.058333333333333334,0.16111111111111112],[0.058333333333333334,0.16111111111111112],[0.058333333333333334,0.16111111111111112],[0.058333333333333334,0.16111111111111112],[0.058333333333333334,0.16111111111111112],[0.058333333333333334,0.16111111111111112],[0.058333333333333334,0.16111111111111112],[0.058333333333333334,0.16111111111111112],[0.058333333333333334,0.16111111111111112],[0.058333333333333334,0.16111111111111112],[0.058333333333333334,0.16111111111111112],[0.058333333333333334,0.16111111111111112],[0.058333333333333334,0.16111111111111112],[0.058333333333333334,0.16111111111111112],[0.058333333333333334,0.16111111111111112],[0.058333333333333334,0.16111111111111112],[0.058333333333333334,0.16111111111111112],[0.058333333333333334,0.16111111111111112],[0.058333333333333334,0.16111111111111112],[0.058333333333333334,0.16111111111111112],[0.058333333333333334,0.16111111111111112],[0.058333333333333334,0.16111111111111112],[0.058333333333333334,0.16111111111111112],[0.058333333333333334,0.16111111111111112],[0.058333333333333334,0.16111111111111112],[0.058333333333333334,0.16111111111111112],[0.058333333333333334,0.16111111111111112],[0.058333333333333334,0.16111111111111112],[0.058333333333333334,0.16111111111111112],[0.058333333333333334,0.16111111111111112],[0.058333333333333334,0.16111111111111112],[0.058333333333333334,0.16111111111111112],[0.058333333333333334,0.16111111111111112],[0.058333333333333334,0.16111111111111112],[0.058333333333333334,0.16111111111111112],[0.058333333333333334,0.16111111111111112],[0.058333333333333334,0.16111111111111112],[0.058333333333333334,0.16111111111111112],[0.058333333333333334,0.16111111111111112],[0.058333333333333334,0.16111111111111112],[0.058333333333333334,0.16111111111111112],[0.058333333333333334,0.16111111111111112],[0.058333333333333334,0.16111111111111112],[0.058333333333333334,0.16111111111111112],[0.058333333333333334,0.16111111111111112],[0.058333333333333334,0.16111111111111112],[0.058333333333333334,0.16111111111111112],[0.058333333333333334,0.16111111111111112],[0.058333333333333334,0.16111111111111112],[0.058333333333333334,0.16111111111111112],[0.058333333333333334,0.16111111111111112],[0.058333333333333334,0.16111111111111112],[0.058333333333333334,0.16111111111111112],[0.058333333333333334,0.16111111111111112],[0.058333333333333334,0.16111111111111112],[0.058333333333333334,0.16111111111111112],[0.058333333333333334,0.16111111111111112],[0.058333333333333334,0.16111111111111112],[0.058333333333333334,0.16111111111111112],[0.058333333333333334,0.16111111111111112],[0.058333333333333334,0.16111111111111112],[0.058333333333333334,0.16111111111111112],[0.058333333333333334,0.16111111111111112],[0.058333333333333334,0.16111111111111112],[0.058333333333333334,0.16111111111111112],[0.058333333333333334,0.16111111111111112],[0.058333333333333334,0.16111111111111112],[0.058333333333333334,0.16111111111111112],[0.058333333333333334,0.16111111111111112],[0.058333333333333334,0.16111111111111112],[0.058333333333333334,0.16111111111111112],[0.058333333333333334,0.16111111111111112],[0.058333333333333334,0.16111111111111112],[0.058333333333333334,0.16111111111111112],[0.058333333333333334,0.16111111111111112],[0.058333333333333334,0.16111111111111112],[0.058333333333333334,0.16111111111111112],[0.058333333333333334,0.16111111111111112],[0.058333333333333334,0.16111111111111112],[0.058333333333333334,0.16111111111111112],[0.058333333333333334,0.16111111111111112],[0.058333333333333334,0.16111111111111112],[0.058333333333333334,0.16111111111111112],[0.058333333333333334,0.16111111111111112],[0.058333333333333334,0.16111111111111112],[0.052083333333333336,0.16111111111111112],[0.03333333333333333,0.16111111111111112],[0.020833333333333332,0.16111111111111112],[0.008333333333333333,0.16111111111111112],[-0.0010416666666666667,0.16111111111111112],[-0.008333333333333333,0.16111111111111112],[-0.014583333333333334,0.16111111111111112],[-0.019791666666666666,0.16111111111111112],[-0.022916666666666665,0.16111111111111112],[-0.023958333333333335,0.16111111111111112],[-0.025,0.16111111111111112],[-0.027083333333333334,0.16111111111111112],[-0.028125,0.16111111111111112],[-0.029166666666666667,0.16111111111111112],[-0.029166666666666667,0.16111111111111112],[-0.029166666666666667,0.16111111111111112],[-0.029166666666666667,0.16111111111111112],[-0.029166666666666667,0.16111111111111112],[-0.030208333333333334,0.16111111111111112],[-0.03125,0.16111111111111112],[-0.03229166666666667,0.16111111111111112],[-0.03333333333333333,0.16111111111111112],[-0.03333333333333333,0.16111111111111112],[-0.03333333333333333,0.16111111111111112],[-0.03333333333333333,0.16111111111111112],[-0.03333333333333333,0.16111111111111112],[-0.03333333333333333,0.16111111111111112],[-0.03333333333333333,0.16111111111111112],[-0.03333333333333333,0.16111111111111112],[-0.03333333333333333,0.16111111111111112],[-0.03333333333333333,0.16111111111111112],[-0.03333333333333333,0.16111111111111112],[-0.03333333333333333,0.16111111111111112],[-0.03333333333333333,0.16111111111111112],[-0.03333333333333333,0.16111111111111112],[-0.03333333333333333,0.16111111111111112],[-0.03333333333333333,0.16111111111111112],[-0.03333333333333333,0.16111111111111112],[-0.03333333333333333,0.16111111111111112],[-0.03333333333333333,0.16111111111111112],[-0.03333333333333333,0.16111111111111112],[-0.03333333333333333,0.16111111111111112],[-0.03333333333333333,0.16111111111111112],[-0.03333333333333333,0.16111111111111112],[-0.03333333333333333,0.16111111111111112],[-0.03333333333333333,0.16111111111111112],[-0.03333333333333333,0.16111111111111112],[-0.03333333333333333,0.16111111111111112],[-0.03333333333333333,0.16111111111111112],[-0.03333333333333333,0.16111111111111112],[-0.03333333333333333,0.16111111111111112],[-0.03333333333333333,0.16111111111111112],[-0.03333333333333333,0.16111111111111112],[-0.03333333333333333,0.16111111111111112],[-0.03333333333333333,0.16111111111111112],[-0.03333333333333333,0.16111111111111112],[-0.03333333333333333,0.16111111111111112],[-0.03333333333333333,0.16111111111111112],[-0.03333333333333333,0.16111111111111112],[-0.03333333333333333,0.16111111111111112],[-0.03333333333333333,0.16111111111111112],[-0.03333333333333333,0.16111111111111112],[-0.03333333333333333,0.16111111111111112],[-0.03333333333333333,0.16111111111111112],[-0.03333333333333333,0.16111111111111112],[-0.03333333333333333,0.16111111111111112],[-0.03333333333333333,0.16111111111111112],[-0.03333333333333333,0.16111111111111112],[-0.03333333333333333,0.16111111111111112],[-0.03333333333333333,0.16111111111111112],[-0.03333333333333333,0.16111111111111112],[-0.03333333333333333,0.16111111111111112],[-0.03333333333333333,0.16111111111111112],[-0.03333333333333333,0.16111111111111112],[-0.03333333333333333,0.16111111111111112],[-0.03333333333333333,0.16111111111111112],[-0.03333333333333333,0.16111111111111112],[-0.03333333333333333,0.16111111111111112],[-0.03333333333333333,0.16111111111111112],[-0.03333333333333333,0.16111111111111112],[-0.03333333333333333,0.16111111111111112],[-0.03333333333333333,0.16111111111111112],[-0.03333333333333333,0.16111111111111112],[-0.03333333333333333,0.16111111111111112],[-0.03333333333333333,0.16111111111111112],[-0.03333333333333333,0.16111111111111112],[-0.03333333333333333,0.16111111111111112],[-0.03333333333333333,0.16111111111111112],[-0.03333333333333333,0.16111111111111112]]","[[-0.1016666666666667,1.1401851851851852],[-0.1016666666666667,1.1401851851851852],[-0.08229166666666667,1.0733333333333333],[-0.07666666666666669,1.0062962962962965],[-0.07250000000000002,0.9177777777777776],[-0.07229166666666664,0.8664814814814814],[-0.06833333333333336,0.8244444444444445],[-0.06364583333333336,0.7518518518518519],[-0.06364583333333336,0.7518518518518519],[-0.05343749999999995,0.6727777777777777],[-0.05343749999999995,0.6727777777777777],[-0.008645833333333287,0.552962962962963],[0.009583333333333381,0.49666666666666676],[0.013750000000000047,0.45203703703703707],[0.005416666666666714,0.46148148148148155],[0.0140625,0.44000000000000006],[0.008854166666666666,0.4662962962962962],[0.013437499999999976,0.4196296296296297],[0.007083333333333286,0.3737037037037036],[0.010208333333333286,0.3387037037037037],[0.010208333333333286,0.3387037037037037],[0.004791666666666691,0.34666666666666673],[0.002291666666666714,0.3596296296296297],[0.001145833333333357,0.3651851851851853],[-0.013854166666666619,0.3931481481481481],[-0.024479166666666666,0.39203703703703713],[-0.03687499999999998,0.41500000000000004],[-0.041770833333333354,0.39888888888888885],[-0.05249999999999998,0.4185185185185185],[-0.04572916666666664,0.4305555555555556],[-0.04572916666666664,0.4305555555555556],[-0.04750000000000002,0.43870370370370365],[-0.04624999999999998,0.4103703703703704],[-0.04624999999999998,0.4103703703703704],[-0.050625000000000024,0.42407407407407405],[-0.07010416666666662,0.459074074074074],[-0.08031250000000002,0.48574074074074064],[-0.08468749999999996,0.5027777777777778],[-0.08468749999999996,0.5027777777777778],[-0.09052083333333331,0.5268518518518519],[-0.09156249999999998,0.5492592592592593],[-0.09260416666666664,0.5716666666666668],[-0.09760416666666671,0.5894444444444443],[-0.09750000000000002,0.6266666666666666],[-0.09750000000000002,0.6266666666666666],[-0.09874999999999995,0.6657407407407407],[-0.10833333333333334,0.6822222222222222],[-0.10281250000000004,0.6774074074074073],[-0.058958333333333356,0.5877777777777777],[-0.020937500000000022,0.5077777777777779],[0.02052083333333338,0.44833333333333336],[0.043958333333333384,0.3864814814814816],[0.06739583333333338,0.32462962962962955],[0.07312500000000005,0.26648148148148143],[0.10979166666666676,0.16018518518518518],[0.10322916666666657,0.1235185185185186],[0.10041666666666677,0.08870370370370366],[0.10041666666666677,0.08870370370370366],[0.09541666666666657,0.026481481481481398],[0.09541666666666657,0.026481481481481398],[0.06364583333333336,0.05129629629629638],[0.035312499999999976,0.07962962962962963],[0.003541666666666643,0.08740740740740749],[-0.019375000000000024,0.09685185185185177],[-0.034166666666666616,0.10129629629629638],[-0.034791666666666644,0.08092592592592601],[-0.058958333333333356,0.1270370370370371],[-0.03854166666666667,0.10166666666666663],[-0.03854166666666667,0.10166666666666663],[0.00604166666666662,0.011296296296296339],[0.00604166666666662,0.011296296296296339],[0.03979166666666671,-0.052962962962963],[0.03427083333333331,-0.062407407407407384],[0.03291666666666669,-0.08759259259259261],[0.05239583333333329,-0.14888888888888885],[0.07218749999999995,-0.18499999999999997],[0.08385416666666666,-0.2161111111111111],[0.07604166666666666,-0.1655555555555555],[0.06083333333333331,-0.13333333333333333],[0.06083333333333331,-0.13333333333333333],[0.08229166666666667,-0.1853703703703704],[0.08229166666666667,-0.1853703703703704],[0.06302083333333333,-0.13277777777777774],[0.06302083333333333,-0.13277777777777774],[0.07104166666666671,-0.0977777777777778],[0.07104166666666671,-0.0977777777777778],[0.07385416666666676,-0.06462962962962959],[0.07385416666666676,-0.06462962962962959],[0.05697916666666671,-0.009444444444444486],[0.05697916666666671,-0.009444444444444486],[0.019270833333333334,0.08185185185185194],[0.019270833333333334,0.08185185185185194],[0.0020833333333333333,0.08555555555555563],[0.0020833333333333333,0.08555555555555563],[-0.0006250000000000236,0.07592592592592592],[-0.0006250000000000236,0.07592592592592592],[0.010416666666666666,-0.01185185185185181],[0.010416666666666666,-0.01185185185185181],[0.009687499999999953,-0.053148148148148125],[0.009687499999999953,-0.053148148148148125],[-0.02958333333333331,-0.020185185185185143],[-0.02958333333333331,-0.020185185185185143],[-0.04572916666666664,-0.03851851851851843],[-0.06510416666666667,-0.02833333333333325],[-0.0515625,-0.07333333333333338],[-0.030624999999999975,-0.09074074074074075],[-0.009687499999999953,-0.1081481481481481],[0.008541666666666715,-0.08574074074074076],[0.0067708333333333336,-0.0727777777777778],[-0.0012500000000000473,-0.011296296296296339],[0.002499999999999976,0.003703703703703704],[0.018124999999999978,0.014259259259259343],[0.027187500000000024,0.036481481481481566],[0.02520833333333338,0.049074074074074076],[0.017604166666666643,0.06277777777777774],[0.02010416666666662,0.023148148148148147],[0.011458333333333333,0.021851851851851768],[0.011458333333333333,0.021851851851851768],[0.0002083333333333807,0.026851851851851852],[0.0125,0.00851851851851856],[0.033958333333333354,-0.03851851851851843],[0.05416666666666667,-0.05555555555555555],[0.05458333333333331,-0.07037037037037037],[0.03322916666666664,-0.03370370370370379],[0.015208333333333357,-0.024629629629629547],[0.041979166666666616,-0.05462962962962963],[0.042812500000000024,-0.051111111111111156],[0.036666666666666715,-0.04351851851851852],[0.036666666666666715,-0.04351851851851852],[0.025833333333333285,-0.04592592592592584],[0.019375000000000024,0.01962962962962967],[0.03697916666666667,0.06740740740740736],[0.05583333333333336,0.08518518518518518],[0.06604166666666664,0.1037037037037037],[0.09802083333333324,0.07074074074074083],[0.13760416666666658,0.062407407407407495],[0.11760416666666676,0.07629629629629638],[0.11812500000000009,0.07259259259259268],[0.1330208333333334,0.03129629629629625],[0.1478125000000001,0.009999999999999959],[0.14802083333333324,-0.06722222222222224],[0.11291666666666676,-0.11555555555555551],[0.07416666666666671,-0.12759259259259256],[0.07249999999999991,-0.17611111111111116],[0.05562499999999997,-0.22333333333333338],[0.03770833333333338,-0.22388888888888886],[0.04020833333333336,-0.20870370370370367],[0.043437500000000046,-0.23166666666666672],[0.050416666666666644,-0.2594444444444445],[0.06083333333333331,-0.2494444444444444],[0.06343749999999998,-0.20537037037037034],[0.06791666666666671,-0.15407407407407406],[0.07604166666666666,-0.13907407407407413],[0.07041666666666657,-0.08111111111111113],[0.07999999999999995,-0.02444444444444453],[0.0884375000000001,-0.052037037037037076],[0.08927083333333338,-0.03185185185185194],[0.0828125,0.08648148148148156],[0.07072916666666676,0.2155555555555555],[0.06364583333333336,0.26074074074074066],[0.05656249999999995,0.305925925925926],[0.058854166666666666,0.33277777777777784],[0.058854166666666666,0.33277777777777784],[0.07177083333333342,0.35407407407407415],[0.07020833333333343,0.34333333333333327],[0.06729166666666657,0.3494444444444445],[0.05531250000000002,0.4222222222222222],[0.050937499999999976,0.44722222222222224],[0.0546875,0.384074074074074],[0.06385416666666661,0.32888888888888895],[0.06385416666666661,0.32888888888888895],[0.06458333333333334,0.3198148148148149],[0.08322916666666676,0.2661111111111112],[0.08583333333333343,0.22685185185185186],[0.07781250000000005,0.19314814814814807],[0.08135416666666657,0.19296296296296306],[0.08624999999999995,0.17592592592592593],[0.09729166666666676,0.1455555555555556],[0.10197916666666676,0.1242592592592593],[0.10197916666666676,0.1242592592592593],[0.11677083333333324,0.09259259259259259],[0.12989583333333338,0.08148148148148149],[0.1430208333333333,0.07018518518518514],[0.12052083333333338,0.08555555555555563],[0.12052083333333338,0.08555555555555563],[0.1140625,0.08648148148148156],[0.10989583333333333,0.08499999999999996],[0.10322916666666657,0.08740740740740749],[0.10322916666666657,0.08740740740740749],[0.10666666666666676,0.0772222222222223],[0.09229166666666658,0.04296296296296305],[0.09229166666666658,0.04296296296296305],[0.11291666666666676,0.03037037037037033],[0.121875,0.05592592592592601],[0.12083333333333333,0.07240740740740745],[0.11687500000000005,0.0544444444444444],[0.13322916666666676,0.060370370370370414],[0.1352083333333333,0.055740740740740785],[0.13489583333333333,0.05351851851851848],[0.14520833333333344,0.054074074074074156],[0.14520833333333344,0.054074074074074156],[0.14614583333333328,0.06111111111111111],[0.13531250000000009,0.13777777777777775],[0.08291666666666657,0.1896296296296296],[0.05020833333333338,0.23666666666666658],[0.022083333333333382,0.2192592592592592],[-0.003125,0.23648148148148157],[-0.027604166666666666,0.2905555555555555],[-0.027604166666666666,0.2905555555555555],[-0.03770833333333338,0.3551851851851851],[-0.03770833333333338,0.3551851851851851],[-0.035625000000000046,0.430925925925926],[-0.051145833333333356,0.4883333333333334],[-0.051145833333333356,0.4883333333333334],[-0.06020833333333329,0.5257407407407407],[-0.057291666666666664,0.5285185185185185],[-0.057291666666666664,0.5285185185185185],[-0.03322916666666664,0.49000000000000005],[-0.03322916666666664,0.49000000000000005],[-0.028750000000000022,0.45259259259259255],[-0.028750000000000022,0.45259259259259255],[-0.012916666666666642,0.4281481481481482],[-0.012916666666666642,0.4281481481481482],[-0.002812500000000047,0.4083333333333333],[-0.002812500000000047,0.4083333333333333],[0.01593749999999995,0.32981481481481484],[0.01593749999999995,0.32981481481481484],[0.029270833333333357,0.25703703703703695],[0.029270833333333357,0.25703703703703695],[0.026979166666666644,0.1816666666666667],[0.026979166666666644,0.1816666666666667],[0.04114583333333333,0.10407407407407415],[0.04114583333333333,0.10407407407407415],[0.03697916666666667,0.07666666666666662],[0.052291666666666715,0.0198148148148149],[0.059895833333333336,0.014259259259259343],[0.07135416666666666,-0.04425925925925922],[0.0787499999999999,-0.08148148148148149],[0.09406249999999995,-0.1037037037037037],[0.08031249999999991,-0.09462962962962967],[0.0821875000000001,-0.11074074074074076],[0.0875,-0.13537037037037042],[0.08854166666666667,-0.12833333333333335],[0.09583333333333334,-0.15851851851851856],[0.08822916666666672,-0.17370370370370372],[0.08562500000000005,-0.18870370370370365],[0.07906250000000009,-0.14666666666666664],[0.07958333333333342,-0.11981481481481479],[0.07958333333333342,-0.11981481481481479],[0.07427083333333329,-0.11518518518518517],[0.07249999999999991,-0.11500000000000005],[0.07249999999999991,-0.11500000000000005],[0.07072916666666676,-0.09907407407407408],[0.06510416666666667,-0.04333333333333329],[0.05479166666666669,-0.001851851851851852],[0.043333333333333356,0.022592592592592678],[0.03999999999999997,0.06185185185185181],[0.03114583333333331,0.08499999999999996],[-0.0002083333333333807,0.11833333333333329],[-0.03864583333333336,0.1668518518518519],[-0.07114583333333328,0.24277777777777781],[-0.09010416666666667,0.3077777777777779],[-0.1310416666666666,0.3903703703703703],[-0.16812499999999997,0.4331481481481481],[-0.19375,0.45999999999999996],[-0.2141666666666667,0.5566666666666668],[-0.2141666666666667,0.5566666666666668],[-0.24343750000000006,0.5746296296296295],[-0.26916666666666667,0.593888888888889],[-0.2548958333333334,0.5755555555555555],[-0.24604166666666671,0.5753703703703704],[-0.2485416666666667,0.5594444444444445],[-0.25104166666666666,0.5435185185185185],[-0.2079166666666667,0.49074074074074076],[-0.16479166666666673,0.43796296296296294],[-0.14427083333333332,0.4244444444444445],[-0.12291666666666666,0.3712962962962963],[-0.0782291666666667,0.3346296296296297],[-0.03927083333333338,0.3290740740740742],[-0.019895833333333356,0.3568518518518519],[-0.003333333333333381,0.3588888888888888],[0.022291666666666644,0.35185185185185186],[0.022291666666666644,0.35185185185185186],[0.0765625,0.3266666666666666],[0.0734375,0.3253703703703705],[0.07041666666666657,0.32333333333333336],[0.07239583333333334,0.2964814814814815],[0.0743750000000001,0.26962962962962966],[0.06541666666666662,0.2903703703703703],[0.058645833333333286,0.27870370370370373],[0.058645833333333286,0.27870370370370373],[0.05541666666666671,0.247037037037037],[0.05541666666666671,0.247037037037037],[0.04375,0.19407407407407398],[0.041666666666666664,0.1633333333333334],[0.020624999999999952,0.14240740740740737],[0.013437499999999976,0.1398148148148148],[0.018437500000000048,0.11185185185185181],[0.02958333333333331,0.08537037037037042],[0.043333333333333356,0.06925925925925921],[0.05260416666666667,0.043703703703703745],[0.07229166666666677,-0.02092592592592584],[0.07229166666666677,-0.02092592592592584],[0.07218749999999995,-0.024074074074074074],[0.09239583333333339,-0.03537037037037041],[0.08927083333333338,-0.048333333333333374],[0.08416666666666663,-0.06462962962962959],[0.08875000000000005,-0.10018518518518522],[0.08875000000000005,-0.10018518518518522],[0.06895833333333339,-0.08444444444444449],[0.06489583333333329,-0.09666666666666665],[0.06489583333333329,-0.09666666666666665],[0.03958333333333333,-0.07296296296296292],[0.01427083333333338,-0.0492592592592593],[-0.026979166666666644,0.008148148148148106],[-0.05395833333333329,0.03888888888888889],[-0.08458333333333339,0.10666666666666672],[-0.1078125,0.1814814814814815],[-0.13875000000000004,0.26796296296296307],[-0.16749999999999995,0.35],[-0.16927083333333334,0.3883333333333334],[-0.1889583333333333,0.46277777777777773],[-0.18999999999999997,0.490925925925926],[-0.19312499999999996,0.49796296296296294],[-0.19312499999999996,0.49796296296296294],[-0.18968750000000004,0.5287037037037037],[-0.17718750000000003,0.5375925925925925],[-0.16989583333333336,0.5409259259259259],[-0.1632291666666667,0.5122222222222222],[-0.14958333333333335,0.487962962962963],[-0.13843749999999996,0.4542592592592592],[-0.14874999999999997,0.44462962962962965],[-0.14874999999999997,0.3955555555555556],[-0.13864583333333336,0.3653703703703703],[-0.115625,0.29740740740740745],[-0.10083333333333329,0.22925925925925916],[-0.10083333333333329,0.22925925925925916],[-0.10093749999999997,0.1794444444444444],[-0.10093749999999997,0.1794444444444444],[-0.0907291666666667,0.12814814814814823],[-0.06468750000000002,0.06129629629629634],[-0.036562500000000026,-0.018148148148148063],[-0.008124999999999953,-0.08370370370370368],[-0.008124999999999953,-0.08370370370370368],[0.015312500000000047,-0.14648148148148152],[0.015312500000000047,-0.14648148148148152],[0.014687500000000023,-0.1574074074074074],[0.014687500000000023,-0.1574074074074074],[0.010416666666666666,-0.17907407407407405],[0.010416666666666666,-0.17907407407407405],[-0.014583333333333334,-0.1455555555555556],[-0.014583333333333334,-0.1455555555555556],[-0.04666666666666662,-0.10999999999999996],[-0.04666666666666662,-0.10999999999999996],[-0.0296875,-0.13037037037037033],[-0.0296875,-0.13037037037037033],[-0.017812500000000023,-0.14370370370370375],[-0.017812500000000023,-0.14370370370370375],[-0.01395833333333331,-0.13962962962962958],[-0.01395833333333331,-0.13962962962962958],[-0.033645833333333285,-0.10611111111111113],[-0.033645833333333285,-0.10611111111111113],[-0.04666666666666662,-0.10018518518518522],[-0.04666666666666662,-0.10018518518518522],[-0.053125,-0.06574074074074074],[-0.033645833333333285,-0.08888888888888889],[-0.02333333333333331,-0.12018518518518514],[-0.0021875000000000236,-0.16777777777777783],[-0.0021875000000000236,-0.16777777777777783],[0.03322916666666664,-0.23555555555555555],[0.03322916666666664,-0.23555555555555555],[0.029062499999999977,-0.2322222222222222],[0.03135416666666669,-0.2322222222222222],[0.018020833333333285,-0.21629629629629632],[0.019166666666666644,-0.22166666666666665],[0.05239583333333329,-0.20185185185185187],[0.08937499999999995,-0.23129629629629625],[0.12239583333333333,-0.25203703703703706],[0.12822916666666656,-0.2607407407407408],[0.13312499999999997,-0.2494444444444444],[0.1384375000000001,-0.1905555555555555],[0.14416666666666675,-0.16407407407407412],[0.1492708333333333,-0.17629629629629628],[0.15302083333333344,-0.15870370370370368],[0.16854166666666662,-0.16870370370370374],[0.1453125,-0.17629629629629628],[0.12177083333333343,-0.16500000000000004],[0.09270833333333334,-0.10462962962962963],[0.1046875,-0.09296296296296294],[0.11645833333333329,-0.07148148148148152],[0.12781250000000005,-0.09759259259259258],[0.1462500000000001,-0.1418518518518519],[0.1490624999999999,-0.10981481481481484],[0.1642708333333334,-0.10888888888888891],[0.1694791666666667,-0.0948148148148148],[0.19656250000000006,-0.06333333333333331],[0.2165625000000001,-0.06777777777777783],[0.22583333333333327,-0.10944444444444448],[0.21843750000000003,-0.11203703703703703],[0.21239583333333342,-0.10259259259259255],[0.20635416666666656,-0.09314814814814817],[0.19322916666666667,-0.06555555555555552],[0.19322916666666667,-0.06555555555555552],[0.17822916666666658,-0.08481481481481483],[0.17822916666666658,-0.08481481481481483],[0.15812499999999996,-0.09388888888888887],[0.13541666666666666,-0.10666666666666672],[0.09083333333333338,-0.1368518518518518],[0.07291666666666667,-0.16074074074074077],[0.06802083333333328,-0.15629629629629627],[0.06927083333333334,-0.1566666666666667],[0.07156250000000004,-0.18462962962962962],[0.0740624999999999,-0.20851851851851855],[0.07583333333333328,-0.23981481481481481],[0.08927083333333338,-0.25851851851851854],[0.08822916666666672,-0.2485185185185185],[0.08802083333333334,-0.22037037037037038],[0.08802083333333334,-0.22037037037037038],[0.10447916666666662,-0.19611111111111107],[0.090625,-0.1757407407407407]]","[[-0.1016666666666667,1.1401851851851852,0.00020000028609956644],[-0.1016666666666667,1.1401851851851852,0.047200000286103716],[-0.08229166666666667,1.0733333333333333,0.0580999999046341],[-0.07666666666666669,1.0062962962962965,0.0748000001907343],[-0.07250000000000002,0.9177777777777776,0.09130000019073492],[-0.07229166666666664,0.8664814814814814,0.11080000019073566],[-0.06833333333333336,0.8244444444444445,0.1254000000953681],[-0.06364583333333336,0.7518518518518519,0.14130000019073208],[-0.06364583333333336,0.7518518518518519,0.15809999990462842],[-0.05343749999999995,0.6727777777777777,0.17470000028610144],[-0.05343749999999995,0.6727777777777777,0.19130000019073634],[-0.008645833333333287,0.552962962962963,0.2079999999999984],[0.009583333333333381,0.49666666666666676,0.22449999999999903],[0.013750000000000047,0.45203703703703707,0.24140000009536777],[0.005416666666666714,0.46148148148148155,0.26200000000000045],[0.0140625,0.44000000000000006,0.2774999999999963],[0.008854166666666666,0.4662962962962962,0.29259999990463115],[0.013437499999999976,0.4196296296296297,0.31099999999999994],[0.007083333333333286,0.3737037037037036,0.3283000001907368],[0.010208333333333286,0.3387037037037037,0.34330000019073026],[0.010208333333333286,0.3387037037037037,0.357999999999997],[0.004791666666666691,0.34666666666666673,0.3744999999999976],[0.002291666666666714,0.3596296296296297,0.3912000002860978],[0.001145833333333357,0.3651851851851853,0.4080999999046284],[-0.013854166666666619,0.3931481481481481,0.425300000190731],[-0.024479166666666666,0.39203703703703713,0.44299999999999784],[-0.03687499999999998,0.41500000000000004,0.461900000095369],[-0.041770833333333354,0.39888888888888885,0.47790000009536726],[-0.05249999999999998,0.4185185185185185,0.49540000009536556],[-0.04572916666666664,0.4305555555555556,0.5229999999999961],[-0.04572916666666664,0.4305555555555556,0.5320999999046307],[-0.04750000000000002,0.43870370370370365,0.5412000002861035],[-0.04624999999999998,0.4103703703703704,0.5629000000953681],[-0.04624999999999998,0.4103703703703704,0.5788000001907321],[-0.050625000000000024,0.42407407407407405,0.5914000000953692],[-0.07010416666666662,0.459074074074074,0.6079000000953698],[-0.08031250000000002,0.48574074074074064,0.6245999999046319],[-0.08468749999999996,0.5027777777777778,0.6413000001907321],[-0.08468749999999996,0.5027777777777778,0.6580000000000013],[-0.09052083333333331,0.5268518518518519,0.674599999904629],[-0.09156249999999998,0.5492592592592593,0.6917000002861045],[-0.09260416666666664,0.5716666666666668,0.7079999999999984],[-0.09760416666666671,0.5894444444444443,0.7245999999046333],[-0.09750000000000002,0.6266666666666666,0.7413000001907335],[-0.09750000000000002,0.6266666666666666,0.7580999999046298],[-0.09874999999999995,0.6657407407407407,0.7745999999046305],[-0.10833333333333334,0.6822222222222222,0.7913000001907307],[-0.10281250000000004,0.6774074074074073,0.8097000002860995],[-0.058958333333333356,0.5877777777777777,0.8248000001907343],[-0.020937500000000022,0.5077777777777779,0.8414000000953692],[0.02052083333333338,0.44833333333333336,0.8609999999999971],[0.043958333333333384,0.3864814814814816,0.8747000002861043],[0.06739583333333338,0.32462962962962955,0.8915999999046349],[0.07312500000000005,0.26648148148148143,0.9104000000953647],[0.10979166666666676,0.16018518518518518,0.9255999999046338],[0.10322916666666657,0.1235185185185186,0.9414000000953635],[0.10041666666666677,0.08870370370370366,0.9639000000953644],[0.10041666666666677,0.08870370370370366,0.9747000002860986],[0.09541666666666657,0.026481481481481398,0.9914000000953678],[0.09541666666666657,0.026481481481481398,1.0080999999046298],[0.06364583333333336,0.05129629629629638,1.0275999999046306],[0.035312499999999976,0.07962962962962963,1.041400000095365],[0.003541666666666643,0.08740740740740749,1.0583000001907337],[-0.019375000000000024,0.09685185185185177,1.0748000001907343],[-0.034166666666666616,0.10129629629629638,1.0940999999046284],[-0.034791666666666644,0.08092592592592601,1.1080999999046313],[-0.058958333333333356,0.1270370370370371,1.1247000002861043],[-0.03854166666666667,0.10166666666666663,1.1437000002861026],[-0.03854166666666667,0.10166666666666663,1.158999999999999],[0.00604166666666662,0.011296296296296339,1.1749999999999972],[0.00604166666666662,0.011296296296296339,1.1954999999999956],[0.03979166666666671,-0.052962962962963,1.2080999999046327],[0.03427083333333331,-0.062407407407407384,1.2248000001907329],[0.03291666666666669,-0.08759259259259261,1.2414000000953678],[0.05239583333333329,-0.14888888888888885,1.2624999999999957],[0.07218749999999995,-0.18499999999999997,1.2774000000953691],[0.08385416666666666,-0.2161111111111111,1.2945999999046336],[0.07604166666666666,-0.1655555555555555,1.3093000001907313],[0.06083333333333331,-0.13333333333333333,1.3245999999046347],[0.06083333333333331,-0.13333333333333333,1.341300000190735],[0.08229166666666667,-0.1853703703703704,1.357999999999997],[0.08229166666666667,-0.1853703703703704,1.3744999999999976],[0.06302083333333333,-0.13277777777777774,1.391300000190732],[0.06302083333333333,-0.13277777777777774,1.407900000095367],[0.07104166666666671,-0.0977777777777778,1.424599999904629],[0.07104166666666671,-0.0977777777777778,1.441200000286102],[0.07385416666666676,-0.06462962962962959,1.4579999999999984],[0.07385416666666676,-0.06462962962962959,1.4745999999046333],[0.05697916666666671,-0.009444444444444486,1.4912000002860992],[0.05697916666666671,-0.009444444444444486,1.5082000002861022],[0.019270833333333334,0.08185185185185194,1.5244999999999962],[0.019270833333333334,0.08185185185185194,1.5413000001907307],[0.0020833333333333333,0.08555555555555563,1.5579999999999998],[0.0020833333333333333,0.08555555555555563,1.5745999999046347],[-0.0006250000000000236,0.07592592592592592,1.5912000002861006],[-0.0006250000000000236,0.07592592592592592,1.607999999999997],[0.010416666666666666,-0.01185185185185181,1.6245999999046319],[0.010416666666666666,-0.01185185185185181,1.6414000000953664],[0.009687499999999953,-0.053148148148148125,1.6624000000953671],[0.009687499999999953,-0.053148148148148125,1.6747000002861014],[-0.02958333333333331,-0.020185185185185143,1.691599999904632],[-0.02958333333333331,-0.020185185185185143,1.7080999999046327],[-0.04572916666666664,-0.03851851851851843,1.7272000002861034],[-0.06510416666666667,-0.02833333333333325,1.7414000000953678],[-0.0515625,-0.07333333333333338,1.7579000000953684],[-0.030624999999999975,-0.09074074074074075,1.7744999999999962],[-0.009687499999999953,-0.1081481481481481,1.7913000001907307],[0.008541666666666715,-0.08574074074074076,1.8108000001907314],[0.0067708333333333336,-0.0727777777777778,1.8249000000953686],[-0.0012500000000000473,-0.011296296296296339,1.8429000000953693],[0.002499999999999976,0.003703703703703704,1.864300000190731],[0.018124999999999978,0.014259259259259343,1.8785999999046297],[0.027187500000000024,0.036481481481481566,1.8939999999999984],[0.02520833333333338,0.049074074074074076,1.907900000095367],[0.017604166666666643,0.06277777777777774,1.9277000002861016],[0.02010416666666662,0.023148148148148147,1.944499999999998],[0.011458333333333333,0.021851851851851768,1.9609999999999985],[0.011458333333333333,0.021851851851851768,1.9747000002860986],[0.0002083333333333807,0.026851851851851852,1.9964999999999975],[0.0125,0.00851851851851856,2.011499999999998],[0.033958333333333354,-0.03851851851851843,2.0283000001907325],[0.05416666666666667,-0.05555555555555555,2.044099999904631],[0.05458333333333331,-0.07037037037037037,2.0624000000953657],[0.03322916666666664,-0.03370370370370379,2.0767000002861025],[0.015208333333333357,-0.024629629629629547,2.092800000190735],[0.041979166666666616,-0.05462962962962963,2.108400000095365],[0.042812500000000024,-0.051111111111111156,2.1269999999999953],[0.036666666666666715,-0.04351851851851852,2.1414000000953664],[0.036666666666666715,-0.04351851851851852,2.1580000000000013],[0.025833333333333285,-0.04592592592592584,2.1747000002861014],[0.019375000000000024,0.01962962962962967,2.195300000190734],[0.03697916666666667,0.06740740740740736,2.210700000286103],[0.05583333333333336,0.08518518518518518,2.2269999999999968],[0.06604166666666664,0.1037037037037037,2.2412000002860992],[0.09802083333333324,0.07074074074074083,2.2615999999046323],[0.13760416666666658,0.062407407407407495,2.278500000000001],[0.11760416666666676,0.07629629629629638,2.2942000002861036],[0.11812500000000009,0.07259259259259268,2.3085999999046294],[0.1330208333333334,0.03129629629629625,2.3249000000953686],[0.1478125000000001,0.009999999999999959,2.3445999999046307],[0.14802083333333324,-0.06722222222222224,2.360999999999997],[0.11291666666666676,-0.11555555555555551,2.376800000190734],[0.07416666666666671,-0.12759259259259256,2.391200000286098],[0.07249999999999991,-0.17611111111111116,2.407900000095367],[0.05562499999999997,-0.22333333333333338,2.427200000286099],[0.03770833333333338,-0.22388888888888886,2.4433000001907317],[0.04020833333333336,-0.20870370370370367,2.458200000286098],[0.043437500000000046,-0.23166666666666672,2.475999999999999],[0.050416666666666644,-0.2594444444444445,2.4934999999999974],[0.06083333333333331,-0.2494444444444444,2.511499999999998],[0.06343749999999998,-0.20537037037037034,2.5274999999999963],[0.06791666666666671,-0.15407407407407406,2.542599999904631],[0.07604166666666666,-0.13907407407407413,2.5615000000000023],[0.07041666666666657,-0.08111111111111113,2.576999999999998],[0.07999999999999995,-0.02444444444444453,2.5927000002861007],[0.0884375000000001,-0.052037037037037076,2.6078000001907355],[0.08927083333333338,-0.03185185185185194,2.6248000001907315],[0.0828125,0.08648148148148156,2.641200000286098],[0.07072916666666676,0.2155555555555555,2.6617000002861033],[0.06364583333333336,0.26074074074074066,2.6780999999046315],[0.05656249999999995,0.305925925925926,2.6937000002861],[0.058854166666666666,0.33277777777777784,2.7154999999999987],[0.058854166666666666,0.33277777777777784,2.730700000286099],[0.07177083333333342,0.35407407407407415,2.7412000002860992],[0.07020833333333343,0.34333333333333327,2.76109999990463],[0.06729166666666657,0.3494444444444445,2.776200000286103],[0.05531250000000002,0.4222222222222222,2.7915999999046335],[0.050937499999999976,0.44722222222222224,2.8079000000953656],[0.0546875,0.384074074074074,2.8245999999046347],[0.06385416666666661,0.32888888888888895,2.8414999999999964],[0.06385416666666661,0.32888888888888895,2.857999999999997],[0.06458333333333334,0.3198148148148149,2.8744999999999976],[0.08322916666666676,0.2661111111111112,2.891300000190732],[0.08583333333333343,0.22685185185185186,2.907900000095367],[0.07781250000000005,0.19314814814814807,2.9248000001907357],[0.08135416666666657,0.19296296296296306,2.941200000286102],[0.08624999999999995,0.17592592592592593,2.9595999999046327],[0.09729166666666676,0.1455555555555556,2.9745999999046333],[0.10197916666666676,0.1242592592592593,2.9912000002860992],[0.10197916666666676,0.1242592592592593,3.0079000000953684],[0.11677083333333324,0.09259259259259259,3.024499999999996],[0.12989583333333338,0.08148148148148149,3.0427000002861035],[0.1430208333333333,0.07018518518518514,3.0607000002861042],[0.12052083333333338,0.08555555555555563,3.0772000002860977],[0.12052083333333338,0.08555555555555563,3.091300000190735],[0.1140625,0.08648148148148156,3.107999999999997],[0.10989583333333333,0.08499999999999996,3.1274000000953635],[0.10322916666666657,0.08740740740740749,3.1439999999999984],[0.10322916666666657,0.08740740740740749,3.1584999999999965],[0.10666666666666676,0.0772222222222223,3.1747000002861014],[0.09229166666666658,0.04296296296296305,3.1952000002861],[0.09229166666666658,0.04296296296296305,3.207900000095364],[0.11291666666666676,0.03037037037037033,3.2247000002860986],[0.121875,0.05592592592592601,3.2412000002860992],[0.12083333333333333,0.07240740740740745,3.26109999990463],[0.11687500000000005,0.0544444444444444,3.2749999999999986],[0.13322916666666676,0.060370370370370414,3.2912000002861035],[0.1352083333333333,0.055740740740740785,3.3078000001907313],[0.13489583333333333,0.05351851851851848,3.3245000000000005],[0.14520833333333344,0.054074074074074156,3.3412000002861006],[0.14520833333333344,0.054074074074074156,3.357999999999997],[0.14614583333333328,0.06111111111111111,3.3744999999999976],[0.13531250000000009,0.13777777777777775,3.391200000286098],[0.08291666666666657,0.1896296296296296,3.4107000002860985],[0.05020833333333338,0.23666666666666658,3.424599999904629],[0.022083333333333382,0.2192592592592592,3.441200000286102],[-0.003125,0.23648148148148157,3.462300000190737],[-0.027604166666666666,0.2905555555555555,3.4768000001907353],[-0.027604166666666666,0.2905555555555555,3.4913000001907335],[-0.03770833333333338,0.3551851851851851,3.5079999999999956],[-0.03770833333333338,0.3551851851851851,3.5245999999046305],[-0.035625000000000046,0.430925925925926,3.5413000001907307],[-0.051145833333333356,0.4883333333333334,3.5657000002860997],[-0.051145833333333356,0.4883333333333334,3.5745999999046347],[-0.06020833333333329,0.5257407407407407,3.591300000190735],[-0.057291666666666664,0.5285185185185185,3.612000000000002],[-0.057291666666666664,0.5285185185185185,3.624599999904632],[-0.03322916666666664,0.49000000000000005,3.641200000286098],[-0.03322916666666664,0.49000000000000005,3.6580000000000013],[-0.028750000000000022,0.45259259259259255,3.674599999904629],[-0.028750000000000022,0.45259259259259255,3.6913000001907363],[-0.012916666666666642,0.4281481481481482,3.707900000095364],[-0.012916666666666642,0.4281481481481482,3.7245999999046333],[-0.002812500000000047,0.4083333333333333,3.7413000001907335],[-0.002812500000000047,0.4083333333333333,3.7583000001907365],[0.01593749999999995,0.32981481481481484,3.7745999999046305],[0.01593749999999995,0.32981481481481484,3.7913000001907307],[0.029270833333333357,0.25703703703703695,3.8079000000953656],[0.029270833333333357,0.25703703703703695,3.8245999999046347],[0.026979166666666644,0.1816666666666667,3.8412000002861006],[0.026979166666666644,0.1816666666666667,3.85790000009537],[0.04114583333333333,0.10407407407407415,3.8744999999999976],[0.04114583333333333,0.10407407407407415,3.891200000286098],[0.03697916666666667,0.07666666666666662,3.907900000095367],[0.052291666666666715,0.0198148148148149,3.927099999904634],[0.059895833333333336,0.014259259259259343,3.941599999904632],[0.07135416666666666,-0.04425925925925922,3.960099999904628],[0.0787499999999999,-0.08148148148148149,3.974499999999999],[0.09406249999999995,-0.1037037037037037,3.9917000002861016],[0.08031249999999991,-0.09462962962962967,4.007900000095368],[0.0821875000000001,-0.11074074074074076,4.0245999999046305],[0.0875,-0.13537037037037042,4.042499999999997],[0.08854166666666667,-0.12833333333333335,4.058800000190736],[0.09583333333333334,-0.15851851851851856,4.074599999904635],[0.08822916666666672,-0.17370370370370372,4.093499999999999],[0.08562500000000005,-0.18870370370370365,4.10790000009537],[0.07906250000000009,-0.14666666666666664,4.124900000095366],[0.07958333333333342,-0.11981481481481479,4.141599999904635],[0.07958333333333342,-0.11981481481481479,4.158000000000001],[0.07427083333333329,-0.11518518518518517,4.174700000286101],[0.07249999999999991,-0.11500000000000005,4.195900000095364],[0.07249999999999991,-0.11500000000000005,4.207900000095364],[0.07072916666666676,-0.09907407407407408,4.224599999904633],[0.06510416666666667,-0.04333333333333329,4.241200000286099],[0.05479166666666669,-0.001851851851851852,4.2592000002861],[0.043333333333333356,0.022592592592592678,4.2745999999046305],[0.03999999999999997,0.06185185185185181,4.291300000190731],[0.03114583333333331,0.08499999999999996,4.3079000000953656],[-0.0002083333333333807,0.11833333333333329,4.3245000000000005],[-0.03864583333333336,0.1668518518518519,4.341099999904628],[-0.07114583333333328,0.24277777777777781,4.3604000000953675],[-0.09010416666666667,0.3077777777777779,4.375900000095363],[-0.1310416666666666,0.3903703703703703,4.391200000286098],[-0.16812499999999997,0.4331481481481481,4.407800000190733],[-0.19375,0.45999999999999996,4.424500000000002],[-0.2141666666666667,0.5566666666666668,4.4414000000953635],[-0.2141666666666667,0.5566666666666668,4.457999999999998],[-0.24343750000000006,0.5746296296296295,4.474499999999999],[-0.26916666666666667,0.593888888888889,4.4913000001907335],[-0.2548958333333334,0.5755555555555555,4.507900000095368],[-0.24604166666666671,0.5753703703703704,4.524499999999996],[-0.2485416666666667,0.5594444444444445,4.5412000002861035],[-0.25104166666666666,0.5435185185185185,4.558800000190736],[-0.2079166666666667,0.49074074074074076,4.5745000000000005],[-0.16479166666666673,0.43796296296296294,4.592900000095369],[-0.14427083333333332,0.4244444444444445,4.608499999999999],[-0.12291666666666666,0.3712962962962963,4.627200000286102],[-0.0782291666666667,0.3346296296296297,4.641200000286098],[-0.03927083333333338,0.3290740740740742,4.662599999904629],[-0.019895833333333356,0.3568518518518519,4.677700000286102],[-0.003333333333333381,0.3588888888888888,4.693099999904632],[0.022291666666666644,0.35185185185185186,4.707999999999998],[0.022291666666666644,0.35185185185185186,4.724900000095367],[0.0765625,0.3266666666666666,4.741400000095368],[0.0734375,0.3253703703703705,4.75809999990463],[0.07041666666666657,0.32333333333333336,4.7745999999046305],[0.07239583333333334,0.2964814814814815,4.7912000002861035],[0.0743750000000001,0.26962962962962966,4.808],[0.06541666666666662,0.2903703703703703,4.8245000000000005],[0.058645833333333286,0.27870370370370373,4.841099999904628],[0.058645833333333286,0.27870370370370373,4.857999999999997],[0.05541666666666671,0.247037037037037,4.874499999999998],[0.05541666666666671,0.247037037037037,4.891200000286098],[0.04375,0.19407407407407398,4.907900000095367],[0.041666666666666664,0.1633333333333334,4.924500000000002],[0.020624999999999952,0.14240740740740737,4.94109999990463],[0.013437499999999976,0.1398148148148148,4.9609999999999985],[0.018437500000000048,0.11185185185185181,4.974599999904633],[0.02958333333333331,0.08537037037037042,4.991200000286099],[0.043333333333333356,0.06925925925925921,5.007900000095368],[0.05260416666666667,0.043703703703703745,5.024499999999996],[0.07229166666666677,-0.02092592592592584,5.0412000002861035],[0.07229166666666677,-0.02092592592592584,5.058],[0.07218749999999995,-0.024074074074074074,5.074599999904635],[0.09239583333333339,-0.03537037037037041,5.092500000000001],[0.08927083333333338,-0.048333333333333374,5.10790000009537],[0.08416666666666663,-0.06462962962962959,5.124499999999998],[0.08875000000000005,-0.10018518518518522,5.1417000002861],[0.08875000000000005,-0.10018518518518522,5.159800000190735],[0.06895833333333339,-0.08444444444444449,5.174599999904629],[0.06489583333333329,-0.09666666666666665,5.194800000190732],[0.06489583333333329,-0.09666666666666665,5.2084000000953665],[0.03958333333333333,-0.07296296296296292,5.224599999904633],[0.01427083333333338,-0.0492592592592593,5.241200000286099],[-0.026979166666666644,0.008148148148148106,5.257900000095368],[-0.05395833333333329,0.03888888888888889,5.274499999999996],[-0.08458333333333339,0.10666666666666672,5.291300000190731],[-0.1078125,0.1814814814814815,5.308599999904629],[-0.13875000000000004,0.26796296296296307,5.324999999999996],[-0.16749999999999995,0.35,5.341200000286101],[-0.16927083333333334,0.3883333333333334,5.358300000190731],[-0.1889583333333333,0.46277777777777773,5.374499999999998],[-0.18999999999999997,0.490925925925926,5.391200000286098],[-0.19312499999999996,0.49796296296296294,5.407800000190733],[-0.19312499999999996,0.49796296296296294,5.424599999904629],[-0.18968750000000004,0.5287037037037037,5.441200000286102],[-0.17718750000000003,0.5375925925925925,5.459300000190737],[-0.16989583333333336,0.5409259259259259,5.474499999999999],[-0.1632291666666667,0.5122222222222222,5.491200000286099],[-0.14958333333333335,0.487962962962963,5.507900000095368],[-0.13843749999999996,0.4542592592592592,5.524499999999996],[-0.14874999999999997,0.44462962962962965,5.544099999904631],[-0.14874999999999997,0.3955555555555556,5.561400000095368],[-0.13864583333333336,0.3653703703703703,5.575400000095364],[-0.115625,0.29740740740740745,5.593599999904633],[-0.10083333333333329,0.22925925925925916,5.607999999999997],[-0.10083333333333329,0.22925925925925916,5.624599999904632],[-0.10093749999999997,0.1794444444444444,5.641400000095366],[-0.10093749999999997,0.1794444444444444,5.661499999999997],[-0.0907291666666667,0.12814814814814823,5.674599999904629],[-0.06468750000000002,0.06129629629629634,5.6914000000953635],[-0.036562500000000026,-0.018148148148148063,5.707999999999998],[-0.008124999999999953,-0.08370370370370368,5.730800000190733],[-0.008124999999999953,-0.08370370370370368,5.741400000095368],[0.015312500000000047,-0.14648148148148152,5.758200000286102],[0.015312500000000047,-0.14648148148148152,5.774499999999996],[0.014687500000000023,-0.1574074074074074,5.7912000002861035],[0.014687500000000023,-0.1574074074074074,5.8079000000953656],[0.010416666666666666,-0.17907407407407405,5.824599999904635],[0.010416666666666666,-0.17907407407407405,5.844999999999999],[-0.014583333333333334,-0.1455555555555556,5.858400000095365],[-0.014583333333333334,-0.1455555555555556,5.874700000286104],[-0.04666666666666662,-0.10999999999999996,5.898800000190732],[-0.04666666666666662,-0.10999999999999996,5.907800000190733],[-0.0296875,-0.13037037037037033,5.924500000000002],[-0.0296875,-0.13037037037037033,5.941200000286102],[-0.017812500000000023,-0.14370370370370375,5.957900000095364],[-0.017812500000000023,-0.14370370370370375,5.974499999999999],[-0.01395833333333331,-0.13962962962962958,5.9913000001907335],[-0.01395833333333331,-0.13962962962962958,6.007900000095368],[-0.033645833333333285,-0.10611111111111113,6.024499999999996],[-0.033645833333333285,-0.10611111111111113,6.041099999904631],[-0.04666666666666662,-0.10018518518518522,6.057999999999993],[-0.04666666666666662,-0.10018518518518522,6.074599999904635],[-0.053125,-0.06574074074074074,6.091300000190728],[-0.033645833333333285,-0.08888888888888889,6.1129999999999995],[-0.02333333333333331,-0.12018518518518514,6.128300000190734],[-0.0021875000000000236,-0.16777777777777783,6.142900000095366],[-0.0021875000000000236,-0.16777777777777783,6.158000000000001],[0.03322916666666664,-0.23555555555555555,6.174599999904629],[0.03322916666666664,-0.23555555555555555,6.191300000190736],[0.029062499999999977,-0.2322222222222222,6.207900000095364],[0.03135416666666669,-0.2322222222222222,6.224499999999992],[0.018020833333333285,-0.21629629629629632,6.241200000286099],[0.019166666666666644,-0.22166666666666665,6.258200000286095],[0.05239583333333329,-0.20185185185185187,6.274500000000003],[0.08937499999999995,-0.23129629629629625,6.291800000190733],[0.12239583333333333,-0.25203703703703706,6.307900000095373],[0.12822916666666656,-0.2607407407407408,6.3245000000000005],[0.13312499999999997,-0.2494444444444444,6.341200000286108],[0.1384375000000001,-0.1905555555555555,6.360300000190733],[0.14416666666666675,-0.16407407407407412,6.374499999999998],[0.1492708333333333,-0.17629629629629628,6.391700000286107],[0.15302083333333344,-0.15870370370370368,6.407900000095367],[0.16854166666666662,-0.16870370370370374,6.424499999999995],[0.1453125,-0.17629629629629628,6.4424999999999955],[0.12177083333333343,-0.16500000000000004,6.463700000286096],[0.09270833333333334,-0.10462962962962963,6.477999999999994],[0.1046875,-0.09296296296296294,6.494099999904634],[0.11645833333333329,-0.07148148148148152,6.507800000190727],[0.12781250000000005,-0.09759259259259258,6.525200000286105],[0.1462500000000001,-0.1418518518518519,6.5442000002860965],[0.1490624999999999,-0.10981481481481484,6.560500000000005],[0.1642708333333334,-0.10888888888888891,6.574599999904635],[0.1694791666666667,-0.0948148148148148,6.591200000286108],[0.19656250000000006,-0.06333333333333331,6.60790000009537],[0.2165625000000001,-0.06777777777777783,6.624499999999998],[0.22583333333333327,-0.10944444444444448,6.641400000095359],[0.21843750000000003,-0.11203703703703703,6.659700000286108],[0.21239583333333342,-0.10259259259259255,6.674499999999995],[0.20635416666666656,-0.09314814814814817,6.693300000190732],[0.19322916666666667,-0.06555555555555552,6.717300000190733],[0.19322916666666667,-0.06555555555555552,6.724499999999992],[0.17822916666666658,-0.08481481481481483,6.7413000001907335],[0.17822916666666658,-0.08481481481481483,6.757900000095361],[0.15812499999999996,-0.09388888888888887,6.774599999904638],[0.13541666666666666,-0.10666666666666672,6.791300000190731],[0.09083333333333338,-0.1368518518518518,6.807800000190738],[0.07291666666666667,-0.16074074074074077,6.8245000000000005],[0.06802083333333328,-0.15629629629629627,6.841300000190728],[0.06927083333333334,-0.1566666666666667,6.8585999999046265],[0.07156250000000004,-0.18462962962962962,6.8748000001907315],[0.0740624999999999,-0.20851851851851855,6.891099999904625],[0.07583333333333328,-0.23981481481481481,6.907800000190733],[0.08927083333333338,-0.25851851851851854,6.924599999904629],[0.08822916666666672,-0.2485185185185185,6.941099999904637],[0.08802083333333334,-0.22037037037037038,6.964200000286098],[0.08802083333333334,-0.22037037037037038,6.974499999999992],[0.10447916666666662,-0.19611111111111107,6.991200000286099],[0.090625,-0.1757407407407407,7.007800000190727]]","[0.00020000028609956644,0.047200000286103716,0.0580999999046341,0.0748000001907343,0.09130000019073492,0.11080000019073566,0.1254000000953681,0.14130000019073208,0.15809999990462842,0.17470000028610144,0.19130000019073634,0.2079999999999984,0.22449999999999903,0.24140000009536777,0.26200000000000045,0.2774999999999963,0.29259999990463115,0.31099999999999994,0.3283000001907368,0.34330000019073026,0.357999999999997,0.3744999999999976,0.3912000002860978,0.4080999999046284,0.425300000190731,0.44299999999999784,0.461900000095369,0.47790000009536726,0.49540000009536556,0.5229999999999961,0.5320999999046307,0.5412000002861035,0.5629000000953681,0.5788000001907321,0.5914000000953692,0.6079000000953698,0.6245999999046319,0.6413000001907321,0.6580000000000013,0.674599999904629,0.6917000002861045,0.7079999999999984,0.7245999999046333,0.7413000001907335,0.7580999999046298,0.7745999999046305,0.7913000001907307,0.8097000002860995,0.8248000001907343,0.8414000000953692,0.8609999999999971,0.8747000002861043,0.8915999999046349,0.9104000000953647,0.9255999999046338,0.9414000000953635,0.9639000000953644,0.9747000002860986,0.9914000000953678,1.0080999999046298,1.0275999999046306,1.041400000095365,1.0583000001907337,1.0748000001907343,1.0940999999046284,1.1080999999046313,1.1247000002861043,1.1437000002861026,1.158999999999999,1.1749999999999972,1.1954999999999956,1.2080999999046327,1.2248000001907329,1.2414000000953678,1.2624999999999957,1.2774000000953691,1.2945999999046336,1.3093000001907313,1.3245999999046347,1.341300000190735,1.357999999999997,1.3744999999999976,1.391300000190732,1.407900000095367,1.424599999904629,1.441200000286102,1.4579999999999984,1.4745999999046333,1.4912000002860992,1.5082000002861022,1.5244999999999962,1.5413000001907307,1.5579999999999998,1.5745999999046347,1.5912000002861006,1.607999999999997,1.6245999999046319,1.6414000000953664,1.6624000000953671,1.6747000002861014,1.691599999904632,1.7080999999046327,1.7272000002861034,1.7414000000953678,1.7579000000953684,1.7744999999999962,1.7913000001907307,1.8108000001907314,1.8249000000953686,1.8429000000953693,1.864300000190731,1.8785999999046297,1.8939999999999984,1.907900000095367,1.9277000002861016,1.944499999999998,1.9609999999999985,1.9747000002860986,1.9964999999999975,2.011499999999998,2.0283000001907325,2.044099999904631,2.0624000000953657,2.0767000002861025,2.092800000190735,2.108400000095365,2.1269999999999953,2.1414000000953664,2.1580000000000013,2.1747000002861014,2.195300000190734,2.210700000286103,2.2269999999999968,2.2412000002860992,2.2615999999046323,2.278500000000001,2.2942000002861036,2.3085999999046294,2.3249000000953686,2.3445999999046307,2.360999999999997,2.376800000190734,2.391200000286098,2.407900000095367,2.427200000286099,2.4433000001907317,2.458200000286098,2.475999999999999,2.4934999999999974,2.511499999999998,2.5274999999999963,2.542599999904631,2.5615000000000023,2.576999999999998,2.5927000002861007,2.6078000001907355,2.6248000001907315,2.641200000286098,2.6617000002861033,2.6780999999046315,2.6937000002861,2.7154999999999987,2.730700000286099,2.7412000002860992,2.76109999990463,2.776200000286103,2.7915999999046335,2.8079000000953656,2.8245999999046347,2.8414999999999964,2.857999999999997,2.8744999999999976,2.891300000190732,2.907900000095367,2.9248000001907357,2.941200000286102,2.9595999999046327,2.9745999999046333,2.9912000002860992,3.0079000000953684,3.024499999999996,3.0427000002861035,3.0607000002861042,3.0772000002860977,3.091300000190735,3.107999999999997,3.1274000000953635,3.1439999999999984,3.1584999999999965,3.1747000002861014,3.1952000002861,3.207900000095364,3.2247000002860986,3.2412000002860992,3.26109999990463,3.2749999999999986,3.2912000002861035,3.3078000001907313,3.3245000000000005,3.3412000002861006,3.357999999999997,3.3744999999999976,3.391200000286098,3.4107000002860985,3.424599999904629,3.441200000286102,3.462300000190737,3.4768000001907353,3.4913000001907335,3.5079999999999956,3.5245999999046305,3.5413000001907307,3.5657000002860997,3.5745999999046347,3.591300000190735,3.612000000000002,3.624599999904632,3.641200000286098,3.6580000000000013,3.674599999904629,3.6913000001907363,3.707900000095364,3.7245999999046333,3.7413000001907335,3.7583000001907365,3.7745999999046305,3.7913000001907307,3.8079000000953656,3.8245999999046347,3.8412000002861006,3.85790000009537,3.8744999999999976,3.891200000286098,3.907900000095367,3.927099999904634,3.941599999904632,3.960099999904628,3.974499999999999,3.9917000002861016,4.007900000095368,4.0245999999046305,4.042499999999997,4.058800000190736,4.074599999904635,4.093499999999999,4.10790000009537,4.124900000095366,4.141599999904635,4.158000000000001,4.174700000286101,4.195900000095364,4.207900000095364,4.224599999904633,4.241200000286099,4.2592000002861,4.2745999999046305,4.291300000190731,4.3079000000953656,4.3245000000000005,4.341099999904628,4.3604000000953675,4.375900000095363,4.391200000286098,4.407800000190733,4.424500000000002,4.4414000000953635,4.457999999999998,4.474499999999999,4.4913000001907335,4.507900000095368,4.524499999999996,4.5412000002861035,4.558800000190736,4.5745000000000005,4.592900000095369,4.608499999999999,4.627200000286102,4.641200000286098,4.662599999904629,4.677700000286102,4.693099999904632,4.707999999999998,4.724900000095367,4.741400000095368,4.75809999990463,4.7745999999046305,4.7912000002861035,4.808,4.8245000000000005,4.841099999904628,4.857999999999997,4.874499999999998,4.891200000286098,4.907900000095367,4.924500000000002,4.94109999990463,4.9609999999999985,4.974599999904633,4.991200000286099,5.007900000095368,5.024499999999996,5.0412000002861035,5.058,5.074599999904635,5.092500000000001,5.10790000009537,5.124499999999998,5.1417000002861,5.159800000190735,5.174599999904629,5.194800000190732,5.2084000000953665,5.224599999904633,5.241200000286099,5.257900000095368,5.274499999999996,5.291300000190731,5.308599999904629,5.324999999999996,5.341200000286101,5.358300000190731,5.374499999999998,5.391200000286098,5.407800000190733,5.424599999904629,5.441200000286102,5.459300000190737,5.474499999999999,5.491200000286099,5.507900000095368,5.524499999999996,5.544099999904631,5.561400000095368,5.575400000095364,5.593599999904633,5.607999999999997,5.624599999904632,5.641400000095366,5.661499999999997,5.674599999904629,5.6914000000953635,5.707999999999998,5.730800000190733,5.741400000095368,5.758200000286102,5.774499999999996,5.7912000002861035,5.8079000000953656,5.824599999904635,5.844999999999999,5.858400000095365,5.874700000286104,5.898800000190732,5.907800000190733,5.924500000000002,5.941200000286102,5.957900000095364,5.974499999999999,5.9913000001907335,6.007900000095368,6.024499999999996,6.041099999904631,6.057999999999993,6.074599999904635,6.091300000190728,6.1129999999999995,6.128300000190734,6.142900000095366,6.158000000000001,6.174599999904629,6.191300000190736,6.207900000095364,6.224499999999992,6.241200000286099,6.258200000286095,6.274500000000003,6.291800000190733,6.307900000095373,6.3245000000000005,6.341200000286108,6.360300000190733,6.374499999999998,6.391700000286107,6.407900000095367,6.424499999999995,6.4424999999999955,6.463700000286096,6.477999999999994,6.494099999904634,6.507800000190727,6.525200000286105,6.5442000002860965,6.560500000000005,6.574599999904635,6.591200000286108,6.60790000009537,6.624499999999998,6.641400000095359,6.659700000286108,6.674499999999995,6.693300000190732,6.717300000190733,6.724499999999992,6.7413000001907335,6.757900000095361,6.774599999904638,6.791300000190731,6.807800000190738,6.8245000000000005,6.841300000190728,6.8585999999046265,6.8748000001907315,6.891099999904625,6.907800000190733,6.924599999904629,6.941099999904637,6.964200000286098,6.974499999999992,6.991200000286099,7.007800000190727]","[1731922984837,1731922984875,1731922984886,1731922984903,1731922984919,1731922984939,1731922984953,1731922984969,1731922984986,1731922985002,1731922985019,1731922985036,1731922985052,1731922985069,1731922985090,1731922985105,1731922985120,1731922985139,1731922985156,1731922985171,1731922985186,1731922985202,1731922985219,1731922985236,1731922985253,1731922985271,1731922985290,1731922985306,1731922985323,1731922985351,1731922985360,1731922985369,1731922985391,1731922985407,1731922985419,1731922985436,1731922985452,1731922985469,1731922985486,1731922985502,1731922985519,1731922985536,1731922985552,1731922985569,1731922985586,1731922985602,1731922985619,1731922985637,1731922985653,1731922985669,1731922985689,1731922985702,1731922985719,1731922985738,1731922985753,1731922985769,1731922985792,1731922985802,1731922985819,1731922985836,1731922985855,1731922985869,1731922985886,1731922985902,1731922985922,1731922985936,1731922985953,1731922985971,1731922985987,1731922986003,1731922986023,1731922986036,1731922986052,1731922986069,1731922986090,1731922986105,1731922986122,1731922986137,1731922986152,1731922986169,1731922986186,1731922986202,1731922986219,1731922986236,1731922986252,1731922986269,1731922986286,1731922986302,1731922986319,1731922986336,1731922986352,1731922986369,1731922986386,1731922986402,1731922986419,1731922986436,1731922986452,1731922986469,1731922986490,1731922986503,1731922986519,1731922986536,1731922986555,1731922986569,1731922986586,1731922986602,1731922986619,1731922986639,1731922986653,1731922986671,1731922986692,1731922986706,1731922986722,1731922986736,1731922986755,1731922986772,1731922986789,1731922986802,1731922986824,1731922986839,1731922986856,1731922986872,1731922986890,1731922986905,1731922986920,1731922986936,1731922986955,1731922986969,1731922986986,1731922987002,1731922987023,1731922987038,1731922987055,1731922987069,1731922987089,1731922987106,1731922987122,1731922987136,1731922987153,1731922987172,1731922987189,1731922987204,1731922987219,1731922987236,1731922987255,1731922987271,1731922987286,1731922987304,1731922987321,1731922987339,1731922987355,1731922987370,1731922987389,1731922987405,1731922987420,1731922987436,1731922987453,1731922987469,1731922987489,1731922987506,1731922987521,1731922987543,1731922987558,1731922987569,1731922987589,1731922987604,1731922987619,1731922987636,1731922987652,1731922987669,1731922987686,1731922987702,1731922987719,1731922987736,1731922987753,1731922987769,1731922987787,1731922987802,1731922987819,1731922987836,1731922987852,1731922987870,1731922987889,1731922987905,1731922987919,1731922987936,1731922987955,1731922987972,1731922987986,1731922988002,1731922988023,1731922988036,1731922988052,1731922988069,1731922988089,1731922988103,1731922988119,1731922988136,1731922988152,1731922988169,1731922988186,1731922988202,1731922988219,1731922988238,1731922988252,1731922988269,1731922988290,1731922988305,1731922988319,1731922988336,1731922988352,1731922988369,1731922988393,1731922988402,1731922988419,1731922988440,1731922988452,1731922988469,1731922988486,1731922988502,1731922988519,1731922988536,1731922988552,1731922988569,1731922988586,1731922988602,1731922988619,1731922988636,1731922988652,1731922988669,1731922988686,1731922988702,1731922988719,1731922988736,1731922988755,1731922988769,1731922988788,1731922988802,1731922988819,1731922988836,1731922988852,1731922988870,1731922988887,1731922988902,1731922988921,1731922988936,1731922988953,1731922988969,1731922988986,1731922989002,1731922989024,1731922989036,1731922989052,1731922989069,1731922989087,1731922989102,1731922989119,1731922989136,1731922989152,1731922989169,1731922989188,1731922989204,1731922989219,1731922989236,1731922989252,1731922989269,1731922989286,1731922989302,1731922989319,1731922989336,1731922989352,1731922989369,1731922989387,1731922989402,1731922989421,1731922989436,1731922989455,1731922989469,1731922989490,1731922989505,1731922989521,1731922989536,1731922989553,1731922989569,1731922989586,1731922989602,1731922989619,1731922989636,1731922989652,1731922989669,1731922989686,1731922989702,1731922989719,1731922989736,1731922989752,1731922989769,1731922989789,1731922989802,1731922989819,1731922989836,1731922989852,1731922989869,1731922989886,1731922989902,1731922989920,1731922989936,1731922989952,1731922989969,1731922989988,1731922990002,1731922990023,1731922990036,1731922990052,1731922990069,1731922990086,1731922990102,1731922990119,1731922990136,1731922990153,1731922990169,1731922990186,1731922990202,1731922990219,1731922990236,1731922990252,1731922990269,1731922990287,1731922990302,1731922990319,1731922990336,1731922990352,1731922990372,1731922990389,1731922990403,1731922990421,1731922990436,1731922990452,1731922990469,1731922990489,1731922990502,1731922990519,1731922990536,1731922990559,1731922990569,1731922990586,1731922990602,1731922990619,1731922990636,1731922990652,1731922990673,1731922990686,1731922990702,1731922990727,1731922990736,1731922990752,1731922990769,1731922990786,1731922990802,1731922990819,1731922990836,1731922990852,1731922990869,1731922990886,1731922990902,1731922990919,1731922990941,1731922990956,1731922990971,1731922990986,1731922991002,1731922991019,1731922991036,1731922991052,1731922991069,1731922991086,1731922991102,1731922991120,1731922991136,1731922991152,1731922991169,1731922991188,1731922991202,1731922991219,1731922991236,1731922991252,1731922991270,1731922991291,1731922991306,1731922991322,1731922991336,1731922991353,1731922991372,1731922991388,1731922991402,1731922991419,1731922991436,1731922991452,1731922991469,1731922991487,1731922991502,1731922991521,1731922991545,1731922991552,1731922991569,1731922991586,1731922991602,1731922991619,1731922991636,1731922991652,1731922991669,1731922991686,1731922991702,1731922991719,1731922991736,1731922991752,1731922991769,1731922991792,1731922991802,1731922991819,1731922991836]","[[862.4,1155.7],[862.4,1155.7],[881,1119.6],[886.4,1083.4],[890.4,1035.6],[890.6,1007.9],[894.4,985.2],[898.9,946],[898.9,946],[908.7,903.3],[908.7,903.3],[951.7,838.6],[969.2,808.2],[973.2,784.1],[965.2,789.2],[973.5,777.6],[968.5,791.8],[972.9,766.6],[966.8,741.8],[969.8,722.9],[969.8,722.9],[964.6,727.2],[962.2,734.2],[961.1,737.2],[946.7,752.3],[936.5,751.7],[924.6,764.1],[919.9,755.4],[909.6,766],[916.1,772.5],[916.1,772.5],[914.4,776.9],[915.6,761.6],[915.6,761.6],[911.4,769],[892.7,787.9],[882.9,802.3],[878.7,811.5],[878.7,811.5],[873.1,824.5],[872.1,836.6],[871.1,848.7],[866.3,858.3],[866.4,878.4],[866.4,878.4],[865.2,899.5],[856,908.4],[861.3,905.8],[903.4,857.4],[939.9,814.2],[979.7,782.1],[1002.2,748.7],[1024.7,715.3],[1030.2,683.9],[1065.4,626.5],[1059.1,606.7],[1056.4,587.9],[1056.4,587.9],[1051.6,554.3],[1051.6,554.3],[1021.1,567.7],[993.9,583],[963.4,587.2],[941.4,592.3],[927.2,594.7],[926.6,583.7],[903.4,608.6],[923,594.9],[923,594.9],[965.8,546.1],[965.8,546.1],[998.2,511.4],[992.9,506.3],[991.6,492.7],[1010.3,459.6],[1029.3,440.1],[1040.5,423.3],[1033,450.6],[1018.4,468],[1018.4,468],[1039,439.9],[1039,439.9],[1020.5,468.3],[1020.5,468.3],[1028.2,487.2],[1028.2,487.2],[1030.9,505.1],[1030.9,505.1],[1014.7,534.9],[1014.7,534.9],[978.5,584.2],[978.5,584.2],[962,586.2],[962,586.2],[959.4,581],[959.4,581],[970,533.6],[970,533.6],[969.3,511.3],[969.3,511.3],[931.6,529.1],[931.6,529.1],[916.1,519.2],[897.5,524.7],[910.5,500.4],[930.6,491],[950.7,481.6],[968.2,493.7],[966.5,500.7],[958.8,533.9],[962.4,542],[977.4,547.7],[986.1,559.7],[984.2,566.5],[976.9,573.9],[979.3,552.5],[971,551.8],[971,551.8],[960.2,554.5],[972,544.6],[992.6,519.2],[1012,510],[1012.4,502],[991.9,521.8],[974.6,526.7],[1000.3,510.5],[1001.1,512.4],[995.2,516.5],[995.2,516.5],[984.8,515.2],[978.6,550.6],[995.5,576.4],[1013.6,586],[1023.4,596],[1054.1,578.2],[1092.1,573.7],[1072.9,581.2],[1073.4,579.2],[1087.7,556.9],[1101.9,545.4],[1102.1,503.7],[1068.4,477.6],[1031.2,471.1],[1029.6,444.9],[1013.4,419.4],[996.2,419.1],[998.6,427.3],[1001.7,414.9],[1008.4,399.9],[1018.4,405.3],[1020.9,429.1],[1025.2,456.8],[1033,464.9],[1027.6,496.2],[1036.8,526.8],[1044.9,511.9],[1045.7,522.8],[1039.5,586.7],[1027.9,656.4],[1021.1,680.8],[1014.3,705.2],[1016.5,719.7],[1016.5,719.7],[1028.9,731.2],[1027.4,725.4],[1024.6,728.7],[1013.1,768],[1008.9,781.5],[1012.5,747.4],[1021.3,717.6],[1021.3,717.6],[1022,712.7],[1039.9,683.7],[1042.4,662.5],[1034.7,644.3],[1038.1,644.2],[1042.8,635],[1053.4,618.6],[1057.9,607.1],[1057.9,607.1],[1072.1,590],[1084.7,584],[1097.3,577.9],[1075.7,586.2],[1075.7,586.2],[1069.5,586.7],[1065.5,585.9],[1059.1,587.2],[1059.1,587.2],[1062.4,581.7],[1048.6,563.2],[1048.6,563.2],[1068.4,556.4],[1077,570.2],[1076,579.1],[1072.2,569.4],[1087.9,572.6],[1089.8,570.1],[1089.5,568.9],[1099.4,569.2],[1099.4,569.2],[1100.3,573],[1089.9,614.4],[1039.6,642.4],[1008.2,667.8],[981.2,658.4],[957,667.7],[933.5,696.9],[933.5,696.9],[923.8,731.8],[923.8,731.8],[925.8,772.7],[910.9,803.7],[910.9,803.7],[902.2,823.9],[905,825.4],[905,825.4],[928.1,804.6],[928.1,804.6],[932.4,784.4],[932.4,784.4],[947.6,771.2],[947.6,771.2],[957.3,760.5],[957.3,760.5],[975.3,718.1],[975.3,718.1],[988.1,678.8],[988.1,678.8],[985.9,638.1],[985.9,638.1],[999.5,596.2],[999.5,596.2],[995.5,581.4],[1010.2,550.7],[1017.5,547.7],[1028.5,516.1],[1035.6,496],[1050.3,484],[1037.1,488.9],[1038.9,480.2],[1044,466.9],[1045,470.7],[1052,454.4],[1044.7,446.2],[1042.2,438.1],[1035.9,460.8],[1036.4,475.3],[1036.4,475.3],[1031.3,477.8],[1029.6,477.9],[1029.6,477.9],[1027.9,486.5],[1022.5,516.6],[1012.6,539],[1001.6,552.2],[998.4,573.4],[989.9,585.9],[959.8,603.9],[922.9,630.1],[891.7,671.1],[873.5,706.2],[834.2,750.8],[798.6,773.9],[774,788.4],[754.4,840.6],[754.4,840.6],[726.3,850.3],[701.6,860.7],[715.3,850.8],[723.8,850.7],[721.4,842.1],[719,833.5],[760.4,805],[801.8,776.5],[821.5,769.2],[842,740.5],[884.9,720.7],[922.3,717.7],[940.9,732.7],[956.8,733.8],[981.4,730],[981.4,730],[1033.5,716.4],[1030.5,715.7],[1027.6,714.6],[1029.5,700.1],[1031.4,685.6],[1022.8,696.8],[1016.3,690.5],[1016.3,690.5],[1013.2,673.4],[1013.2,673.4],[1002,644.8],[1000,628.2],[979.8,616.9],[972.9,615.5],[977.7,600.4],[988.4,586.1],[1001.6,577.4],[1010.5,563.6],[1029.4,528.7],[1029.4,528.7],[1029.3,527],[1048.7,520.9],[1045.7,513.9],[1040.8,505.1],[1045.2,485.9],[1045.2,485.9],[1026.2,494.4],[1022.3,487.8],[1022.3,487.8],[998,500.6],[973.7,513.4],[934.1,544.4],[908.2,561],[878.8,597.6],[856.5,638],[826.8,684.7],[799.2,729],[797.5,749.7],[778.6,789.9],[777.6,805.1],[774.6,808.9],[774.6,808.9],[777.9,825.5],[789.9,830.3],[796.9,832.1],[803.3,816.6],[816.4,803.5],[827.1,785.3],[817.2,780.1],[817.2,753.6],[826.9,737.3],[849,700.6],[863.2,663.8],[863.2,663.8],[863.1,636.9],[863.1,636.9],[872.9,609.2],[897.9,573.1],[924.9,530.2],[952.2,494.8],[952.2,494.8],[974.7,460.9],[974.7,460.9],[974.1,455],[974.1,455],[970,443.3],[970,443.3],[946,461.4],[946,461.4],[915.2,480.6],[915.2,480.6],[931.5,469.6],[931.5,469.6],[942.9,462.4],[942.9,462.4],[946.6,464.6],[946.6,464.6],[927.7,482.7],[927.7,482.7],[915.2,485.9],[915.2,485.9],[909,504.5],[927.7,492],[937.6,475.1],[957.9,449.4],[957.9,449.4],[991.9,412.8],[991.9,412.8],[987.9,414.6],[990.1,414.6],[977.3,423.2],[978.4,420.3],[1010.3,431],[1045.8,415.1],[1077.5,403.9],[1083.1,399.2],[1087.8,405.3],[1092.9,437.1],[1098.4,451.4],[1103.3,444.8],[1106.9,454.3],[1121.8,448.9],[1099.5,444.8],[1076.9,450.9],[1049,483.5],[1060.5,489.8],[1071.8,501.4],[1082.7,487.3],[1100.4,463.4],[1103.1,480.7],[1117.7,481.2],[1122.7,488.8],[1148.7,505.8],[1167.9,503.4],[1176.8,480.9],[1169.7,479.5],[1163.9,484.6],[1158.1,489.7],[1145.5,504.6],[1145.5,504.6],[1131.1,494.2],[1131.1,494.2],[1111.8,489.3],[1090,482.4],[1047.2,466.1],[1030,453.2],[1025.3,455.6],[1026.5,455.4],[1028.7,440.3],[1031.1,427.4],[1032.8,410.5],[1045.7,400.4],[1044.7,405.8],[1044.5,421],[1044.5,421],[1060.3,434.1],[1047,445.1]]","[-0.056692,0.170076]","[0.056692,0.170076]","[0.170076,0.170076]","[-0.170076,-0.056692]","[-0.170076,-0.170076]","[-0.170076,0.056692]","[-0.056692,-0.056692]","[0.056692,-0.056692]","[0.170076,-0.056692]","[-0.056692,-0.170076]","[0.056692,-0.170076]","[0.170076,-0.170076]","[-0.056692,0.056692]","[0.056692,0.056692]","[0.170076,0.056692]",0,0,0,0,1,2,Smartphone,15,20,8,3,70,4,3,60,4
