inst1_resp.keys,inst1_resp.rt,calibrationMouse.x,calibrationMouse.y,calibrationMouse.leftButton,calibrationMouse.midButton,calibrationMouse.rightButton,calibrationClick.x,calibrationClick.y,calibrationClick.leftButton,calibrationClick.midButton,calibrationClick.rightButton,calibrationClick.clicked_name,trialsc.thisRepN,trialsc.thisTrialN,trialsc.thisN,trialsc.thisIndex,trialsc.ran,calibration_x,calibration_y,participant,session,date,expName,psychopyVersion,OS,frameRate,ScreenRes_pixels,Camera_pixels,mouse_2.x,mouse_2.y,mouse_2.leftButton,mouse_2.midButton,mouse_2.rightButton,mouse_2.time,mouse_2.clicked_name,mouse.x,mouse.y,mouse.leftButton,mouse.midButton,mouse.rightButton,mouse.time,mouse.clicked_name,Choice,Trial,TrialDuration,MOUSE_GAZE,ET_GAZE,ET_GAZE_x_T,time,unixTime,ET_GAZE_NF,Loc_Bus_label,Loc_Metro_label,Loc_RH_label,Loc_Cost_label,Loc_Travel_label,Loc_Comfort_label,Loc_Bus_cost,Loc_Metro_cost,Loc_RH_cost,Loc_Bus_travel,Loc_Metro_travel,Loc_RH_travel,Loc_Bus_comfort,Loc_Metro_comfort,Loc_RH_comfort,trials.thisRepN,trials.thisTrialN,trials.thisN,trials.thisIndex,trials.ran,Block,Device,RH_cost,RH_travel_time,RH_Comfort,metro_cost,metro_travel_time,metro_Comfort,Bus_cost,Bus_travel_time,Bus_Comfort
space,5.203,-0.077083333,-0.412962963,1,0,0,-0.663541667,0.335185185,1,0,0,calibration_square,0,0,0,3,1,-0.67,0.33,28,001,2024-11-18_17h32.12.821,Attention_exp_legacy,2023.1.0,Win32,59.88023952,,,,,,,,,,,,,,,,,,,,,,,,,,,,,,,,,,,,,,,,,,,,,,,,,,,,,,,,
,,,,,,,-0.327083333,0.325925926,1,0,0,calibration_square,0,1,1,7,1,-0.33,0.33,28,001,2024-11-18_17h32.12.821,Attention_exp_legacy,2023.1.0,Win32,59.88023952,,,,,,,,,,,,,,,,,,,,,,,,,,,,,,,,,,,,,,,,,,,,,,,,,,,,,,,,
,,,,,,,0.333333333,0.351851852,1,0,0,,0,2,2,17,1,0.33,0.33,28,001,2024-11-18_17h32.12.821,Attention_exp_legacy,2023.1.0,Win32,59.88023952,,,,,,,,,,,,,,,,,,,,,,,,,,,,,,,,,,,,,,,,,,,,,,,,,,,,,,,,
,,,,,,,0.011458333,0.672222222,1,0,0,,0,3,3,13,1,0,0.67,28,001,2024-11-18_17h32.12.821,Attention_exp_legacy,2023.1.0,Win32,59.88023952,,,,,,,,,,,,,,,,,,,,,,,,,,,,,,,,,,,,,,,,,,,,,,,,,,,,,,,,
,,,,,,,-0.673958333,-0.314814815,1,0,0,,0,4,4,1,1,-0.67,-0.33,28,001,2024-11-18_17h32.12.821,Attention_exp_legacy,2023.1.0,Win32,59.88023952,,,,,,,,,,,,,,,,,,,,,,,,,,,,,,,,,,,,,,,,,,,,,,,,,,,,,,,,
,,,,,,,0.328125,-0.331481481,1,0,0,calibration_square,0,5,5,15,1,0.33,-0.33,28,001,2024-11-18_17h32.12.821,Attention_exp_legacy,2023.1.0,Win32,59.88023952,,,,,,,,,,,,,,,,,,,,,,,,,,,,,,,,,,,,,,,,,,,,,,,,,,,,,,,,
,,,,,,,-0.339583333,-0.659259259,1,0,0,,0,6,6,4,1,-0.33,-0.67,28,001,2024-11-18_17h32.12.821,Attention_exp_legacy,2023.1.0,Win32,59.88023952,,,,,,,,,,,,,,,,,,,,,,,,,,,,,,,,,,,,,,,,,,,,,,,,,,,,,,,,
,,,,,,,-0.004166667,-0.001851852,1,0,0,calibration_square,0,7,7,11,1,0,0,28,001,2024-11-18_17h32.12.821,Attention_exp_legacy,2023.1.0,Win32,59.88023952,,,,,,,,,,,,,,,,,,,,,,,,,,,,,,,,,,,,,,,,,,,,,,,,,,,,,,,,
,,,,,,,-0.666666667,-0.003703704,1,0,0,calibration_square,0,8,8,2,1,-0.67,0,28,001,2024-11-18_17h32.12.821,Attention_exp_legacy,2023.1.0,Win32,59.88023952,,,,,,,,,,,,,,,,,,,,,,,,,,,,,,,,,,,,,,,,,,,,,,,,,,,,,,,,
,,,,,,,0.001041667,-0.322222222,1,0,0,calibration_square,0,9,9,10,1,0,-0.33,28,001,2024-11-18_17h32.12.821,Attention_exp_legacy,2023.1.0,Win32,59.88023952,,,,,,,,,,,,,,,,,,,,,,,,,,,,,,,,,,,,,,,,,,,,,,,,,,,,,,,,
,,,,,,,0.677083333,-0.672222222,1,0,0,calibration_square,0,10,10,20,1,0.67,-0.67,28,001,2024-11-18_17h32.12.821,Attention_exp_legacy,2023.1.0,Win32,59.88023952,,,,,,,,,,,,,,,,,,,,,,,,,,,,,,,,,,,,,,,,,,,,,,,,,,,,,,,,
,,,,,,,0.335416667,0.02962963,1,0,0,,0,11,11,16,1,0.33,0,28,001,2024-11-18_17h32.12.821,Attention_exp_legacy,2023.1.0,Win32,59.88023952,,,,,,,,,,,,,,,,,,,,,,,,,,,,,,,,,,,,,,,,,,,,,,,,,,,,,,,,
,,,,,,,-0.340625,-0.312962963,1,0,0,,0,12,12,5,1,-0.33,-0.33,28,001,2024-11-18_17h32.12.821,Attention_exp_legacy,2023.1.0,Win32,59.88023952,,,,,,,,,,,,,,,,,,,,,,,,,,,,,,,,,,,,,,,,,,,,,,,,,,,,,,,,
,,,,,,,-0.002083333,0.35,1,0,0,,0,13,13,12,1,0,0.33,28,001,2024-11-18_17h32.12.821,Attention_exp_legacy,2023.1.0,Win32,59.88023952,,,,,,,,,,,,,,,,,,,,,,,,,,,,,,,,,,,,,,,,,,,,,,,,,,,,,,,,
,,,,,,,-0.672916667,-0.674074074,1,0,0,calibration_square,0,14,14,0,1,-0.67,-0.67,28,001,2024-11-18_17h32.12.821,Attention_exp_legacy,2023.1.0,Win32,59.88023952,,,,,,,,,,,,,,,,,,,,,,,,,,,,,,,,,,,,,,,,,,,,,,,,,,,,,,,,
,,,,,,,0.322916667,0.688888889,1,0,0,,0,15,15,18,1,0.33,0.67,28,001,2024-11-18_17h32.12.821,Attention_exp_legacy,2023.1.0,Win32,59.88023952,,,,,,,,,,,,,,,,,,,,,,,,,,,,,,,,,,,,,,,,,,,,,,,,,,,,,,,,
,,,,,,,0.666666667,0.683333333,1,0,0,,0,16,16,19,1,0.67,0.67,28,001,2024-11-18_17h32.12.821,Attention_exp_legacy,2023.1.0,Win32,59.88023952,,,,,,,,,,,,,,,,,,,,,,,,,,,,,,,,,,,,,,,,,,,,,,,,,,,,,,,,
,,,,,,,-0.0125,-0.67037037,1,0,0,,0,17,17,9,1,0,-0.67,28,001,2024-11-18_17h32.12.821,Attention_exp_legacy,2023.1.0,Win32,59.88023952,,,,,,,,,,,,,,,,,,,,,,,,,,,,,,,,,,,,,,,,,,,,,,,,,,,,,,,,
,,,,,,,0.340625,-0.677777778,1,0,0,,0,18,18,14,1,0.33,-0.67,28,001,2024-11-18_17h32.12.821,Attention_exp_legacy,2023.1.0,Win32,59.88023952,,,,,,,,,,,,,,,,,,,,,,,,,,,,,,,,,,,,,,,,,,,,,,,,,,,,,,,,
,,,,,,,-0.326041667,-0.007407407,1,0,0,calibration_square,0,19,19,6,1,-0.33,0,28,001,2024-11-18_17h32.12.821,Attention_exp_legacy,2023.1.0,Win32,59.88023952,,,,,,,,,,,,,,,,,,,,,,,,,,,,,,,,,,,,,,,,,,,,,,,,,,,,,,,,
,,,,,,,-0.321875,0.675925926,1,0,0,calibration_square,0,20,20,8,1,-0.33,0.67,28,001,2024-11-18_17h32.12.821,Attention_exp_legacy,2023.1.0,Win32,59.88023952,,,,,,,,,,,,,,,,,,,,,,,,,,,,,,,,,,,,,,,,,,,,,,,,,,,,,,,,
,,,,,,,,,,,,,,,,,,,,28,001,2024-11-18_17h32.12.821,Attention_exp_legacy,2023.1.0,Win32,59.88023952,"[1920,1080]","[640,480]",[-0.0125],[-0.5055555555555555],[1],[0],[0],[6.350100000381467],"[""StartButton""]",[-0.17604166666666668],[0.6166666666666667],[1],[0],[0],[7.608199999809273],"[""Bus_label""]",Bus_label,1,8.6232,"[[0.16875,0.018518518518518517],[0.16875,0.018518518518518517],[0.16875,0.018518518518518517],[0.16875,0.018518518518518517],[0.16875,0.018518518518518517],[0.16875,0.018518518518518517],[0.16875,0.018518518518518517],[0.16875,0.018518518518518517],[0.16875,0.018518518518518517],[0.16875,0.018518518518518517],[0.16875,0.018518518518518517],[0.16875,0.018518518518518517],[0.16875,0.018518518518518517],[0.16875,0.018518518518518517],[0.16875,0.018518518518518517],[0.16875,0.018518518518518517],[0.16875,0.018518518518518517],[0.16875,0.018518518518518517],[0.16875,0.018518518518518517],[0.16875,0.018518518518518517],[0.16875,0.018518518518518517],[0.16875,0.018518518518518517],[0.16875,0.018518518518518517],[0.16875,0.018518518518518517],[0.16875,0.018518518518518517],[0.16875,0.018518518518518517],[0.16875,0.018518518518518517],[0.16875,0.018518518518518517],[0.16875,0.018518518518518517],[0.16875,0.018518518518518517],[0.16875,0.018518518518518517],[0.16875,0.018518518518518517],[0.16875,0.018518518518518517],[0.16875,0.018518518518518517],[0.16875,0.018518518518518517],[0.16875,0.018518518518518517],[0.16875,0.018518518518518517],[0.16875,0.018518518518518517],[0.16875,0.018518518518518517],[0.16875,0.018518518518518517],[0.16875,0.018518518518518517],[0.16875,0.018518518518518517],[0.16875,0.018518518518518517],[0.16875,0.018518518518518517],[0.16875,0.018518518518518517],[0.16875,0.018518518518518517],[0.16875,0.018518518518518517],[0.16875,0.018518518518518517],[0.16875,0.018518518518518517],[0.16875,0.018518518518518517],[0.16875,0.018518518518518517],[0.16875,0.018518518518518517],[0.16875,0.018518518518518517],[0.16875,0.018518518518518517],[0.16875,0.018518518518518517],[0.16875,0.018518518518518517],[0.16875,0.018518518518518517],[0.16875,0.016666666666666666],[0.1625,0.012962962962962963],[0.159375,0.009259259259259259],[0.15208333333333332,0.007407407407407408],[0.14270833333333333,0.003703703703703704],[0.134375,0.001851851851851852],[0.11770833333333333,0.001851851851851852],[0.10625,0.001851851851851852],[0.09166666666666666,0.001851851851851852],[0.06979166666666667,0.001851851851851852],[0.04583333333333333,0.001851851851851852],[0.021875,0.001851851851851852],[-0.021875,0.011111111111111112],[-0.04791666666666667,0.020370370370370372],[-0.07083333333333333,0.03333333333333333],[-0.08958333333333333,0.04259259259259259],[-0.1,0.05],[-0.10416666666666667,0.05],[-0.11145833333333334,0.05555555555555555],[-0.115625,0.05740740740740741],[-0.11979166666666667,0.06111111111111111],[-0.12604166666666666,0.06296296296296296],[-0.13333333333333333,0.06851851851851852],[-0.13854166666666667,0.07037037037037037],[-0.14583333333333334,0.07777777777777778],[-0.15208333333333332,0.08333333333333333],[-0.15833333333333333,0.08888888888888889],[-0.16041666666666668,0.09074074074074075],[-0.16145833333333334,0.09259259259259259],[-0.1625,0.09259259259259259],[-0.1625,0.0962962962962963],[-0.16354166666666667,0.0962962962962963],[-0.16354166666666667,0.09814814814814815],[-0.16458333333333333,0.10185185185185185],[-0.165625,0.1037037037037037],[-0.16770833333333332,0.10740740740740741],[-0.16979166666666667,0.1111111111111111],[-0.17291666666666666,0.11481481481481481],[-0.17604166666666668,0.11851851851851852],[-0.17916666666666667,0.12037037037037036],[-0.18333333333333332,0.12407407407407407],[-0.190625,0.12777777777777777],[-0.20729166666666668,0.12777777777777777],[-0.21979166666666666,0.12777777777777777],[-0.23229166666666667,0.12222222222222222],[-0.24270833333333333,0.11481481481481481],[-0.2552083333333333,0.0962962962962963],[-0.2604166666666667,0.09074074074074075],[-0.26666666666666666,0.07407407407407407],[-0.2708333333333333,0.06296296296296296],[-0.275,0.040740740740740744],[-0.27708333333333335,0.025925925925925925],[-0.27708333333333335,0.011111111111111112],[-0.27708333333333335,-0.011111111111111112],[-0.27708333333333335,-0.03148148148148148],[-0.27291666666666664,-0.053703703703703705],[-0.2635416666666667,-0.07592592592592592],[-0.25,-0.0962962962962963],[-0.23645833333333333,-0.11296296296296296],[-0.21979166666666666,-0.1259259259259259],[-0.20416666666666666,-0.13333333333333333],[-0.17708333333333334,-0.13703703703703704],[-0.16666666666666666,-0.14074074074074075],[-0.14583333333333334,-0.14074074074074075],[-0.11875,-0.14074074074074075],[-0.09270833333333334,-0.1388888888888889],[-0.05625,-0.12222222222222222],[-0.03333333333333333,-0.1111111111111111],[-0.011458333333333333,-0.1],[0.0125,-0.08703703703703704],[0.035416666666666666,-0.06666666666666667],[0.057291666666666664,-0.04814814814814815],[0.07604166666666666,-0.027777777777777776],[0.0875,-0.014814814814814815],[0.096875,-0.001851851851851852],[0.10104166666666667,0.003703703703703704],[0.10520833333333333,0.011111111111111112],[0.10833333333333334,0.014814814814814815],[0.1125,0.024074074074074074],[0.115625,0.03333333333333333],[0.11770833333333333,0.040740740740740744],[0.121875,0.04814814814814815],[0.125,0.05555555555555555],[0.12604166666666666,0.05925925925925926],[0.128125,0.06481481481481481],[0.128125,0.06481481481481481],[0.12916666666666668,0.06666666666666667],[0.12916666666666668,0.06851851851851852],[0.12916666666666668,0.06851851851851852],[0.12916666666666668,0.06851851851851852],[0.12916666666666668,0.06851851851851852],[0.12916666666666668,0.06851851851851852],[0.12916666666666668,0.06851851851851852],[0.12916666666666668,0.06851851851851852],[0.12916666666666668,0.06851851851851852],[0.12916666666666668,0.06851851851851852],[0.13020833333333334,0.06851851851851852],[0.13333333333333333,0.06851851851851852],[0.140625,0.06851851851851852],[0.16041666666666668,0.06851851851851852],[0.16666666666666666,0.06851851851851852],[0.18020833333333333,0.06851851851851852],[0.19583333333333333,0.06851851851851852],[0.209375,0.06851851851851852],[0.225,0.06851851851851852],[0.24583333333333332,0.06851851851851852],[0.2708333333333333,0.06851851851851852],[0.296875,0.06851851851851852],[0.321875,0.06851851851851852],[0.35104166666666664,0.06851851851851852],[0.3802083333333333,0.06851851851851852],[0.42916666666666664,0.06111111111111111],[0.46041666666666664,0.053703703703703705],[0.48125,0.046296296296296294],[0.5270833333333333,0.037037037037037035],[0.5520833333333334,0.03333333333333333],[0.5770833333333333,0.025925925925925925],[0.5979166666666667,0.025925925925925925],[0.6114583333333333,0.025925925925925925],[0.6208333333333333,0.025925925925925925],[0.6260416666666667,0.025925925925925925],[0.628125,0.025925925925925925],[0.628125,0.025925925925925925],[0.628125,0.025925925925925925],[0.628125,0.025925925925925925],[0.628125,0.025925925925925925],[0.628125,0.025925925925925925],[0.628125,0.025925925925925925],[0.628125,0.025925925925925925],[0.628125,0.025925925925925925],[0.628125,0.025925925925925925],[0.628125,0.025925925925925925],[0.628125,0.025925925925925925],[0.628125,0.025925925925925925],[0.628125,0.025925925925925925],[0.628125,0.025925925925925925],[0.628125,0.025925925925925925],[0.628125,0.025925925925925925],[0.628125,0.025925925925925925],[0.628125,0.025925925925925925],[0.628125,0.025925925925925925],[0.628125,0.025925925925925925],[0.628125,0.025925925925925925],[0.628125,0.025925925925925925],[0.628125,0.025925925925925925],[0.628125,0.025925925925925925],[0.628125,0.025925925925925925],[0.628125,0.025925925925925925],[0.628125,0.025925925925925925],[0.628125,0.025925925925925925],[0.628125,0.025925925925925925],[0.628125,0.025925925925925925],[0.628125,0.025925925925925925],[0.628125,0.025925925925925925],[0.628125,0.025925925925925925],[0.628125,0.025925925925925925],[0.628125,0.025925925925925925],[0.628125,0.025925925925925925],[0.628125,0.025925925925925925],[0.628125,0.025925925925925925],[0.628125,0.025925925925925925],[0.6291666666666667,0.025925925925925925],[0.6291666666666667,0.025925925925925925],[0.6291666666666667,0.025925925925925925],[0.6291666666666667,0.025925925925925925],[0.6291666666666667,0.025925925925925925],[0.6291666666666667,0.025925925925925925],[0.6291666666666667,0.025925925925925925],[0.6291666666666667,0.025925925925925925],[0.6291666666666667,0.025925925925925925],[0.6291666666666667,0.025925925925925925],[0.6291666666666667,0.025925925925925925],[0.6291666666666667,0.025925925925925925],[0.6291666666666667,0.025925925925925925],[0.6291666666666667,0.025925925925925925],[0.6291666666666667,0.025925925925925925],[0.6291666666666667,0.025925925925925925],[0.6291666666666667,0.025925925925925925],[0.6291666666666667,0.025925925925925925],[0.6291666666666667,0.025925925925925925],[0.6291666666666667,0.025925925925925925],[0.6291666666666667,0.025925925925925925],[0.6291666666666667,0.025925925925925925],[0.6291666666666667,0.025925925925925925],[0.6291666666666667,0.025925925925925925],[0.6291666666666667,0.025925925925925925],[0.6291666666666667,0.025925925925925925],[0.6291666666666667,0.025925925925925925],[0.6291666666666667,0.025925925925925925],[0.6291666666666667,0.025925925925925925],[0.6291666666666667,0.025925925925925925],[0.6291666666666667,0.025925925925925925],[0.6291666666666667,0.025925925925925925],[0.6291666666666667,0.025925925925925925],[0.6291666666666667,0.025925925925925925],[0.6291666666666667,0.025925925925925925],[0.6291666666666667,0.025925925925925925],[0.6291666666666667,0.025925925925925925],[0.6291666666666667,0.025925925925925925],[0.6291666666666667,0.025925925925925925],[0.6291666666666667,0.025925925925925925],[0.6291666666666667,0.025925925925925925],[0.6291666666666667,0.025925925925925925],[0.6291666666666667,0.025925925925925925],[0.6291666666666667,0.024074074074074074],[0.628125,0.024074074074074074],[0.628125,0.022222222222222223],[0.6270833333333333,0.020370370370370372],[0.6270833333333333,0.020370370370370372],[0.6270833333333333,0.020370370370370372],[0.6270833333333333,0.020370370370370372],[0.6270833333333333,0.020370370370370372],[0.6270833333333333,0.020370370370370372],[0.6270833333333333,0.020370370370370372],[0.6260416666666667,0.018518518518518517],[0.6260416666666667,0.018518518518518517],[0.6260416666666667,0.018518518518518517],[0.625,0.014814814814814815],[0.625,0.014814814814814815],[0.625,0.014814814814814815],[0.625,0.014814814814814815],[0.625,0.014814814814814815],[0.625,0.014814814814814815],[0.625,0.014814814814814815],[0.625,0.014814814814814815],[0.625,0.014814814814814815],[0.625,0.014814814814814815],[0.625,0.014814814814814815],[0.625,0.014814814814814815],[0.625,0.014814814814814815],[0.625,0.014814814814814815],[0.625,0.014814814814814815],[0.625,0.014814814814814815],[0.625,0.014814814814814815],[0.625,0.014814814814814815],[0.625,0.014814814814814815],[0.625,0.014814814814814815],[0.625,0.014814814814814815],[0.625,0.014814814814814815],[0.625,0.014814814814814815],[0.625,0.014814814814814815],[0.625,0.014814814814814815],[0.625,0.014814814814814815],[0.625,0.014814814814814815],[0.625,0.014814814814814815],[0.625,0.014814814814814815],[0.625,0.014814814814814815],[0.625,0.014814814814814815],[0.625,0.014814814814814815],[0.625,0.014814814814814815],[0.625,0.014814814814814815],[0.625,0.014814814814814815],[0.625,0.014814814814814815],[0.625,0.014814814814814815],[0.625,0.014814814814814815],[0.6239583333333333,0.014814814814814815],[0.6239583333333333,0.014814814814814815],[0.6239583333333333,0.014814814814814815],[0.6239583333333333,0.014814814814814815],[0.6239583333333333,0.014814814814814815],[0.6239583333333333,0.014814814814814815],[0.6239583333333333,0.014814814814814815],[0.6239583333333333,0.014814814814814815],[0.6239583333333333,0.014814814814814815],[0.6239583333333333,0.014814814814814815],[0.6239583333333333,0.014814814814814815],[0.6239583333333333,0.014814814814814815],[0.6239583333333333,0.014814814814814815],[0.6239583333333333,0.014814814814814815],[0.6239583333333333,0.014814814814814815],[0.6239583333333333,0.014814814814814815],[0.6239583333333333,0.014814814814814815],[0.6239583333333333,0.014814814814814815],[0.6229166666666667,0.011111111111111112],[0.61875,0.003703703703703704],[0.6135416666666667,-0.003703703703703704],[0.6020833333333333,-0.014814814814814815],[0.584375,-0.03148148148148148],[0.578125,-0.03518518518518519],[0.5635416666666667,-0.04259259259259259],[0.55,-0.05],[0.5322916666666667,-0.05925925925925926],[0.503125,-0.06481481481481481],[0.471875,-0.07407407407407407],[0.43333333333333335,-0.07592592592592592],[0.39791666666666664,-0.07962962962962963],[0.36354166666666665,-0.07962962962962963],[0.33229166666666665,-0.07962962962962963],[0.30625,-0.07962962962962963],[0.28541666666666665,-0.07962962962962963],[0.26666666666666666,-0.08518518518518518],[0.24895833333333334,-0.09074074074074075],[0.23125,-0.0962962962962963],[0.20833333333333334,-0.1037037037037037],[0.19270833333333334,-0.11296296296296296],[0.18020833333333333,-0.12222222222222222],[0.16666666666666666,-0.13333333333333333],[0.15,-0.14629629629629629],[0.13958333333333334,-0.1574074074074074],[0.13125,-0.16666666666666666],[0.12083333333333333,-0.17592592592592593],[0.11770833333333333,-0.18333333333333332],[0.11458333333333333,-0.18888888888888888],[0.11354166666666667,-0.19444444444444445],[0.11354166666666667,-0.19444444444444445],[0.11145833333333334,-0.2],[0.11041666666666666,-0.2074074074074074],[0.11041666666666666,-0.21481481481481482],[0.11041666666666666,-0.21666666666666667],[0.11041666666666666,-0.2222222222222222],[0.11041666666666666,-0.22962962962962963],[0.11041666666666666,-0.23333333333333334],[0.11041666666666666,-0.23703703703703705],[0.11041666666666666,-0.24074074074074073],[0.11041666666666666,-0.24259259259259258],[0.11041666666666666,-0.24259259259259258],[0.11041666666666666,-0.24444444444444444],[0.11041666666666666,-0.2462962962962963],[0.11041666666666666,-0.2462962962962963],[0.11041666666666666,-0.2462962962962963],[0.11041666666666666,-0.2462962962962963],[0.11041666666666666,-0.2462962962962963],[0.11041666666666666,-0.2462962962962963],[0.11041666666666666,-0.2462962962962963],[0.11041666666666666,-0.2462962962962963],[0.11041666666666666,-0.2462962962962963],[0.11041666666666666,-0.2462962962962963],[0.11041666666666666,-0.2462962962962963],[0.11041666666666666,-0.2462962962962963],[0.11041666666666666,-0.2462962962962963],[0.11041666666666666,-0.2462962962962963],[0.11041666666666666,-0.2462962962962963],[0.11041666666666666,-0.2462962962962963],[0.11041666666666666,-0.2462962962962963],[0.11041666666666666,-0.2462962962962963],[0.11041666666666666,-0.2462962962962963],[0.11041666666666666,-0.2462962962962963],[0.11041666666666666,-0.2462962962962963],[0.11041666666666666,-0.2462962962962963],[0.11041666666666666,-0.2462962962962963],[0.11041666666666666,-0.2462962962962963],[0.11041666666666666,-0.2462962962962963],[0.11979166666666667,-0.21666666666666667],[0.13020833333333334,-0.1574074074074074],[0.140625,-0.03518518518518519],[0.14791666666666667,0.08888888888888889],[0.14791666666666667,0.20925925925925926],[0.14583333333333334,0.31666666666666665],[0.13958333333333334,0.39814814814814814],[0.134375,0.4666666666666667],[0.13333333333333333,0.5055555555555555],[0.13229166666666667,0.512962962962963],[0.13125,0.5203703703703704],[0.13125,0.5203703703703704],[0.13125,0.524074074074074],[0.13125,0.524074074074074],[0.13125,0.524074074074074],[0.13125,0.524074074074074],[0.13125,0.524074074074074],[0.13125,0.524074074074074],[0.13125,0.524074074074074],[0.13125,0.524074074074074],[0.13125,0.524074074074074],[0.13125,0.524074074074074],[0.13125,0.524074074074074],[0.13125,0.524074074074074],[0.13125,0.524074074074074],[0.13125,0.524074074074074],[0.13125,0.524074074074074],[0.13125,0.524074074074074],[0.13125,0.524074074074074],[0.13125,0.524074074074074],[0.13125,0.524074074074074],[0.13125,0.524074074074074],[0.13125,0.524074074074074],[0.13125,0.524074074074074],[0.13125,0.524074074074074],[0.13125,0.524074074074074],[0.13020833333333334,0.5259259259259259],[0.11875,0.5259259259259259],[0.0875,0.5259259259259259],[0.021875,0.5277777777777778],[-0.05,0.5537037037037037],[-0.103125,0.5740740740740741],[-0.13854166666666667,0.5925925925925926],[-0.16041666666666668,0.6055555555555555],[-0.16979166666666667,0.6129629629629629],[-0.17395833333333333,0.6166666666666667],[-0.17604166666666668,0.6166666666666667],[-0.17604166666666668,0.6166666666666667],[-0.17604166666666668,0.6166666666666667],[-0.17604166666666668,0.6166666666666667],[-0.17604166666666668,0.6166666666666667],[-0.17604166666666668,0.6166666666666667],[-0.17604166666666668,0.6166666666666667],[-0.17604166666666668,0.6166666666666667],[-0.17604166666666668,0.6166666666666667],[-0.17604166666666668,0.6166666666666667],[-0.17604166666666668,0.6166666666666667],[-0.17604166666666668,0.6166666666666667],[-0.17604166666666668,0.6166666666666667],[-0.17604166666666668,0.6166666666666667],[-0.17604166666666668,0.6166666666666667],[-0.17604166666666668,0.6166666666666667],[-0.17604166666666668,0.6166666666666667],[-0.17604166666666668,0.6166666666666667],[-0.17604166666666668,0.6166666666666667],[-0.17604166666666668,0.6166666666666667],[-0.17604166666666668,0.6166666666666667],[-0.17604166666666668,0.6166666666666667],[-0.17604166666666668,0.6166666666666667],[-0.17604166666666668,0.6166666666666667],[-0.17604166666666668,0.6166666666666667],[-0.17604166666666668,0.6166666666666667],[-0.17604166666666668,0.6166666666666667],[-0.17604166666666668,0.6166666666666667],[-0.17604166666666668,0.6166666666666667],[-0.17604166666666668,0.6166666666666667],[-0.17604166666666668,0.6166666666666667],[-0.17604166666666668,0.6166666666666667],[-0.17604166666666668,0.6166666666666667],[-0.17604166666666668,0.6166666666666667],[-0.17604166666666668,0.6166666666666667],[-0.17604166666666668,0.6166666666666667],[-0.17604166666666668,0.6166666666666667],[-0.17604166666666668,0.6166666666666667],[-0.17604166666666668,0.6166666666666667],[-0.17604166666666668,0.6166666666666667],[-0.17604166666666668,0.6148148148148148],[-0.17604166666666668,0.6129629629629629],[-0.17604166666666668,0.6092592592592593],[-0.17604166666666668,0.6092592592592593],[-0.17604166666666668,0.6074074074074074],[-0.17604166666666668,0.6037037037037037],[-0.175,0.6037037037037037],[-0.17395833333333333,0.6018518518518519],[-0.17395833333333333,0.6018518518518519],[-0.17395833333333333,0.6018518518518519],[-0.17291666666666666,0.5981481481481481],[-0.17291666666666666,0.5962962962962963],[-0.171875,0.5944444444444444],[-0.17083333333333334,0.5944444444444444],[-0.17083333333333334,0.5925925925925926],[-0.16979166666666667,0.5907407407407408],[-0.16875,0.587037037037037],[-0.16770833333333332,0.5851851851851851],[-0.16666666666666666,0.5833333333333334],[-0.165625,0.5796296296296296],[-0.16458333333333333,0.5777777777777777],[-0.1625,0.5740740740740741],[-0.16145833333333334,0.5722222222222222],[-0.16041666666666668,0.5722222222222222],[-0.16041666666666668,0.5703703703703704],[-0.159375,0.5685185185185185],[-0.15833333333333333,0.5685185185185185],[-0.15833333333333333,0.5666666666666667],[-0.15833333333333333,0.5666666666666667],[-0.15729166666666666,0.5666666666666667],[-0.15625,0.5648148148148148]]","[[0.21145833333333333,0.2861111111111111],[0.21145833333333333,0.2861111111111111],[0.20020833333333338,0.2818518518518519],[0.20020833333333338,0.2818518518518519],[0.19729166666666675,0.2640740740740741],[0.17927083333333324,0.2862962962962963],[0.17927083333333324,0.2862962962962963],[0.13791666666666677,0.2887037037037037],[0.13791666666666677,0.2887037037037037],[0.12989583333333338,0.202962962962963],[0.12989583333333338,0.202962962962963],[0.12750000000000009,0.16444444444444437],[0.12750000000000009,0.16444444444444437],[0.1146874999999999,0.13925925925925933],[0.14052083333333343,0.1337037037037038],[0.12364583333333339,0.18611111111111112],[0.1178124999999999,0.20314814814814824],[0.10031249999999996,0.2270370370370371],[0.09354166666666662,0.21370370370370367],[0.10322916666666657,0.1787037037037037],[0.11510416666666666,0.144074074074074],[0.10020833333333339,0.14648148148148152],[0.09604166666666672,0.11574074074074074],[0.11635416666666672,0.05925925925925926],[0.12354166666666658,-0.01777777777777782],[0.15510416666666677,-0.11777777777777781],[0.17062499999999994,-0.2161111111111111],[0.19833333333333342,-0.2962962962962963],[0.20697916666666671,-0.3257407407407407],[0.20697916666666671,-0.3257407407407407],[0.2165625000000001,-0.3635185185185185],[0.22177083333333342,-0.41092592592592586],[0.22999999999999995,-0.42962962962962964],[0.2361458333333334,-0.4485185185185185],[0.23270833333333343,-0.4390740740740741],[0.23322916666666677,-0.452962962962963],[0.24104166666666677,-0.47537037037037033],[0.24177083333333324,-0.46166666666666667],[0.2490624999999999,-0.4772222222222222],[0.2730208333333332,-0.4935185185185185],[0.2960416666666667,-0.5014814814814815],[0.2960416666666667,-0.5014814814814815],[0.32083333333333336,-0.5059259259259259],[0.32083333333333336,-0.5059259259259259],[0.33083333333333326,-0.5451851851851851],[0.31875,-0.4818518518518518],[0.30322916666666655,-0.4475925925925926],[0.26875,-0.3633333333333333],[0.23427083333333343,-0.27907407407407403],[0.23427083333333343,-0.27907407407407403],[0.20541666666666672,-0.18666666666666668],[0.1779166666666666,-0.09129629629629632],[0.1287499999999999,-0.014814814814814815],[0.07541666666666676,0.0764814814814814],[0.02781250000000005,0.1801851851851851],[-0.010312499999999976,0.32518518518518524],[-0.036249999999999956,0.41],[-0.03177083333333333,0.42240740740740745],[-0.0068750000000000235,0.4177777777777778],[0.04718749999999995,0.3448148148148149],[0.103125,0.2324074074074074],[0.1515625,0.125],[0.16927083333333334,0.0948148148148149],[0.17468750000000005,0.08981481481481482],[0.17437500000000009,0.07240740740740745],[0.16218750000000004,0.08092592592592601],[0.16197916666666667,0.04722222222222222],[0.13479166666666675,0.11500000000000005],[0.05677083333333333,0.19870370370370363],[-0.019479166666666714,0.29499999999999993],[-0.0828125,0.3772222222222223],[-0.1716666666666666,0.47537037037037044],[-0.19145833333333329,0.48351851851851857],[-0.190625,0.4327777777777779],[-0.20802083333333338,0.412962962962963],[-0.19302083333333328,0.3416666666666667],[-0.19302083333333328,0.3416666666666667],[-0.19572916666666665,0.31296296296296294],[-0.18083333333333335,0.22018518518518515],[-0.18083333333333335,0.22018518518518515],[-0.13145833333333337,0.12962962962962962],[-0.12322916666666663,0.12851851851851848],[-0.1310416666666666,0.14611111111111108],[-0.08510416666666672,0.08555555555555563],[-0.07864583333333333,0.05277777777777778],[-0.07718750000000002,0.06388888888888888],[-0.0702083333333333,0.041666666666666664],[-0.05531250000000002,0.01777777777777782],[-0.034791666666666644,-0.05092592592592592],[-0.016354166666666715,-0.006296296296296254],[-0.019583333333333286,-0.004444444444444402],[-0.022604166666666713,0.009629629629629714],[-0.0015625,-0.041111111111111195],[-0.02666666666666669,0.027222222222222307],[-0.03229166666666667,0.07611111111111116],[-0.03229166666666667,0.07611111111111116],[-0.03583333333333331,0.07759259259259255],[-0.02666666666666669,0.10851851851851856],[-0.05499999999999995,0.09666666666666675],[-0.07250000000000002,0.09833333333333337],[-0.09760416666666671,0.07314814814814814],[-0.09760416666666671,0.07314814814814814],[-0.11937500000000002,0.06574074074074074],[-0.12916666666666668,0.021851851851851768],[-0.12916666666666668,0.021851851851851768],[-0.16072916666666662,0.02907407407407416],[-0.13770833333333338,-0.01648148148148144],[-0.13270833333333332,-0.06314814814814819],[-0.15677083333333333,-0.06870370370370374],[-0.16906249999999995,-0.04981481481481477],[-0.17177083333333332,-0.003333333333333249],[-0.17177083333333332,-0.003333333333333249],[-0.16239583333333332,0.0235185185185186],[-0.17999999999999997,-0.005185185185185101],[-0.16072916666666662,0.002962962962963005],[-0.16072916666666662,-0.005370370370370328],[-0.16302083333333334,0],[-0.18010416666666665,-0.01648148148148144],[-0.20083333333333328,0.01962962962962967],[-0.18385416666666668,0.020185185185185143],[-0.17864583333333334,-0.030740740740740784],[-0.1609375,-0.0485185185185186],[-0.1609375,-0.0485185185185186],[-0.16312500000000002,-0.03759259259259251],[-0.16312500000000002,-0.03759259259259251],[-0.13677083333333329,-0.0242592592592593],[-0.13677083333333329,-0.0242592592592593],[-0.1273958333333333,-0.003888888888888931],[-0.1273958333333333,-0.003888888888888931],[-0.11885416666666669,0.02962962962962963],[-0.11885416666666669,0.02962962962962963],[-0.09947916666666666,0.0020370370370370794],[-0.09947916666666666,0.0020370370370370794],[-0.0953125,0.03481481481481473],[-0.06270833333333338,-0.02240740740740745],[-0.021145833333333287,-0.05611111111111113],[-0.021145833333333287,-0.05611111111111113],[0.0006250000000000236,-0.05499999999999998],[0.02354166666666669,-0.0816666666666667],[0.07010416666666662,-0.16888888888888887],[0.09854166666666657,-0.15537037037037033],[0.1310416666666666,-0.17592592592592593],[0.1310416666666666,-0.17592592592592593],[0.18166666666666675,-0.20259259259259255],[0.20625,-0.15777777777777777],[0.20750000000000005,-0.1418518518518519],[0.17333333333333342,-0.072037037037037],[0.14947916666666666,-0.021851851851851768],[0.14541666666666658,-0.006481481481481481],[0.153125,0.03629629629629634],[0.1462500000000001,0.11925925925925922],[0.13385416666666666,0.127962962962963],[0.1109375,0.15314814814814823],[0.09802083333333324,0.1705555555555556],[0.09802083333333324,0.1705555555555556],[0.09489583333333323,0.15092592592592594],[0.13083333333333325,0.10388888888888893],[0.13083333333333325,0.10388888888888893],[0.17583333333333329,0.08499999999999996],[0.196875,0.08000000000000008],[0.196875,0.08000000000000008],[0.21124999999999997,0.06574074074074074],[0.2131249999999999,0.02555555555555547],[0.21375000000000005,-0.03092592592592601],[0.21375000000000005,-0.03092592592592601],[0.21083333333333343,-0.013518518518518435],[0.21083333333333343,-0.013518518518518435],[0.22989583333333338,-0.05537037037037033],[0.21833333333333324,-0.05129629629629638],[0.2303124999999999,-0.004629629629629629],[0.22604166666666667,0.0477777777777777],[0.21552083333333344,0.062037037037037036],[0.23989583333333328,0.05055555555555547],[0.2561458333333334,0.056666666666666705],[0.2642708333333334,0.09185185185185189],[0.2642708333333334,0.09185185185185189],[0.29010416666666666,0.1633333333333334],[0.3164583333333333,0.15759259259259265],[0.3164583333333333,0.15759259259259265],[0.35145833333333343,0.16925925925925922],[0.3966666666666666,0.13629629629629633],[0.4379166666666668,0.1081481481481481],[0.4379166666666668,0.1081481481481481],[0.4791666666666667,0.08000000000000008],[0.5052083333333334,0.0712962962962963],[0.48489583333333336,0.06222222222222226],[0.46895833333333337,0.08574074074074066],[0.45302083333333343,0.10925925925925926],[0.44333333333333325,0.08518518518518518],[0.4502083333333334,0.07333333333333338],[0.43166666666666675,0.08111111111111102],[0.4317708333333333,0.08425925925925926],[0.41875,0.069074074074074],[0.4009375000000001,0.05740740740740741],[0.3948958333333332,0.051666666666666625],[0.41822916666666665,0.08481481481481473],[0.4276041666666667,0.0992592592592593],[0.4632291666666667,0.09796296296296292],[0.4571875000000001,0.12388888888888884],[0.4827083333333334,0.14462962962962966],[0.47937500000000005,0.1625925925925925],[0.48427083333333343,0.1655555555555555],[0.48427083333333343,0.1655555555555555],[0.46812500000000007,0.21907407407407398],[0.4635416666666667,0.23203703703703696],[0.4752083333333334,0.26296296296296295],[0.4740624999999999,0.2479629629629629],[0.47645833333333343,0.22407407407407406],[0.47062499999999996,0.21851851851851853],[0.4704166666666666,0.23259259259259263],[0.4322916666666667,0.21055555555555563],[0.42302083333333323,0.19129629629629621],[0.39249999999999996,0.20888888888888882],[0.3788541666666667,0.1844444444444445],[0.3589583333333332,0.19685185185185178],[0.3556250000000001,0.15999999999999995],[0.3394791666666668,0.14907407407407408],[0.36781249999999993,0.17518518518518522],[0.35812499999999997,0.17240740740740745],[0.3563541666666666,0.13444444444444448],[0.37437500000000007,0.11481481481481481],[0.3927083333333333,0.11074074074074065],[0.3927083333333333,0.11074074074074065],[0.4096874999999999,0.06870370370370374],[0.43510416666666674,0.04296296296296305],[0.45625,0.018148148148148063],[0.45625,0.005370370370370328],[0.43250000000000005,0.012407407407407492],[0.3902083333333332,-0.03222222222222218],[0.3054166666666667,-0.05092592592592592],[0.22604166666666667,-0.053703703703703705],[0.12666666666666657,-0.04611111111111107],[0.02833333333333338,-0.05537037037037033],[0.02833333333333338,-0.05537037037037033],[-0.06385416666666661,-0.03740740740740749],[-0.16270833333333337,-0.04611111111111107],[-0.259375,-0.01777777777777782],[-0.35395833333333326,-0.0001851851851852273],[-0.42614583333333333,-0.0011111111111111532],[-0.5204166666666666,0.027962962962963005],[-0.5514583333333333,0.052962962962963],[-0.5690624999999999,0.04685185185185177],[-0.5690624999999999,0.04685185185185177],[-0.5632291666666667,0.08203703703703695],[-0.5632291666666667,0.08203703703703695],[-0.5786458333333333,0.09018518518518527],[-0.5786458333333333,0.09018518518518527],[-0.5894791666666667,0.13240740740740742],[-0.5894791666666667,0.13240740740740742],[-0.5917708333333334,0.13925925925925933],[-0.5917708333333334,0.13925925925925933],[-0.5958333333333333,0.12611111111111115],[-0.5958333333333333,0.12611111111111115],[-0.5902083333333333,0.12685185185185185],[-0.5836458333333333,0.16870370370370374],[-0.5502083333333334,0.21592592592592597],[-0.5336458333333333,0.26222222222222225],[-0.514375,0.3449999999999999],[-0.5140625,0.40555555555555556],[-0.5038541666666666,0.4674074074074074],[-0.49822916666666667,0.4951851851851851],[-0.49937499999999996,0.5575925925925926],[-0.49937499999999996,0.5575925925925926],[-0.38093750000000004,0.5394444444444444],[-0.3054166666666667,0.5592592592592592],[-0.24479166666666666,0.5351851851851852],[-0.19406249999999994,0.4770370370370371],[-0.12166666666666662,0.41333333333333344],[-0.12166666666666662,0.41333333333333344],[-0.06541666666666662,0.3442592592592592],[-0.003541666666666643,0.2772222222222223],[0.08031249999999991,0.21592592592592597],[0.19666666666666663,0.15351851851851847],[0.2976041666666667,0.11666666666666667],[0.28229166666666666,0.1425925925925926],[0.32958333333333345,0.09574074074074082],[0.38218750000000007,0.07148148148148152],[0.38218750000000007,0.07148148148148152],[0.4476041666666667,0.03888888888888889],[0.503125,-0.001851851851851852],[0.5443749999999999,-0.019444444444444445],[0.5443749999999999,-0.019444444444444445],[0.5892708333333334,-0.04277777777777782],[0.6221875,-0.0448148148148149],[0.6221875,-0.0448148148148149],[0.6597916666666668,-0.0868518518518518],[0.6805208333333332,-0.10925925925925926],[0.7212500000000001,-0.14500000000000002],[0.7203125,-0.12314814814814815],[0.7423958333333334,-0.1161111111111111],[0.7423958333333334,-0.1161111111111111],[0.7516666666666666,-0.1007407407407407],[0.7516666666666666,-0.07296296296296292],[0.7516666666666666,-0.07296296296296292],[0.7756249999999999,-0.06259259259259262],[0.7769791666666668,-0.05018518518518523],[0.7783333333333334,-0.03777777777777774],[0.7482291666666666,0.025185185185185227],[0.7482291666666666,0.025185185185185227],[0.75,0.04314814814814806],[0.7527083333333332,0.02814814814814823],[0.7628125,-0.004259259259259175],[0.7623958333333334,-0.036666666666666584],[0.7923958333333334,-0.10759259259259263],[0.8236458333333334,-0.1522222222222222],[0.8576041666666666,-0.2222222222222222],[0.8846875,-0.2862962962962963],[0.9322916666666666,-0.3881481481481482],[0.9420833333333334,-0.4309259259259259],[0.9864583333333333,-0.5312962962962963],[0.9541666666666667,-0.5442592592592592],[0.9576041666666666,-0.5555555555555556],[0.9610416666666666,-0.5668518518518519],[0.9077083333333335,-0.46166666666666667],[0.8572916666666667,-0.3653703703703704],[0.8194791666666668,-0.302962962962963],[0.7912499999999999,-0.22296296296296292],[0.7420833333333334,-0.07814814814814813],[0.7420833333333334,-0.07814814814814813],[0.725,-0.001851851851851852],[0.6998958333333334,0.07666666666666662],[0.7104166666666667,0.152962962962963],[0.6858333333333334,0.23370370370370377],[0.666875,0.3116666666666666],[0.6742708333333333,0.3116666666666666],[0.6755208333333333,0.31296296296296294],[0.6517708333333334,0.3677777777777778],[0.6205208333333334,0.380925925925926],[0.5896874999999999,0.3670370370370371],[0.5588541666666667,0.3531481481481482],[0.4726041666666667,0.3877777777777777],[0.45906250000000004,0.3616666666666666],[0.4354166666666667,0.3396296296296296],[0.3865624999999999,0.3538888888888889],[0.38468749999999996,0.32407407407407407],[0.3555208333333333,0.32314814814814813],[0.3224999999999999,0.33907407407407414],[0.32010416666666663,0.3501851851851852],[0.3177083333333333,0.36129629629629634],[0.3099999999999999,0.35185185185185186],[0.3099999999999999,0.35185185185185186],[0.3441666666666668,0.3464814814814815],[0.3441666666666668,0.3464814814814815],[0.29583333333333334,0.36648148148148146],[0.24375,0.40259259259259256],[0.234375,0.39203703703703713],[0.234375,0.39203703703703713],[0.1984375,0.39444444444444443],[0.16135416666666677,0.3790740740740742],[0.1568749999999999,0.3177777777777778],[0.12302083333333323,0.31129629629629635],[0.11895833333333337,0.2755555555555555],[0.14260416666666675,0.22074074074074082],[0.14260416666666675,0.22074074074074082],[0.10208333333333333,0.24833333333333338],[0.09822916666666662,0.2553703703703703],[0.06072916666666662,0.2572222222222222],[0.04093749999999995,0.26425925925925936],[0.010312499999999976,0.28277777777777785],[0.035104166666666714,0.2838888888888888],[0.02510416666666669,0.3161111111111112],[0.035312499999999976,0.3012962962962964],[0.035312499999999976,0.3012962962962964],[0.034895833333333334,0.29370370370370374],[0.034895833333333334,0.29370370370370374],[-0.003958333333333286,0.3077777777777779],[-0.003958333333333286,0.3077777777777779],[-0.004270833333333357,0.27259259259259266],[0.04458333333333329,0.23444444444444448],[0.04458333333333329,0.23444444444444448],[0.17770833333333325,0.22351851851851862],[0.2700000000000001,0.1962962962962963],[0.2700000000000001,0.1962962962962963],[0.2882291666666667,0.20833333333333334],[0.30499999999999994,0.1955555555555556],[0.29177083333333326,0.20203703703703707],[0.27791666666666665,0.21425925925925934],[0.27791666666666665,0.21425925925925934],[0.24489583333333323,0.2485185185185186],[0.26593749999999994,0.27518518518518525],[0.2952083333333334,0.2935185185185185],[0.2685416666666666,0.33185185185185195],[0.221875,0.3168518518518519],[0.221875,0.3168518518518519],[0.1446875000000001,0.35759259259259263],[0.18312499999999995,0.31666666666666665],[0.21166666666666673,0.2948148148148149],[0.2553124999999999,0.18481481481481474],[0.2989583333333333,0.07481481481481478],[0.3393749999999999,-0.007037037037036953],[0.34177083333333325,-0.06333333333333331],[0.3609375,-0.14944444444444444],[0.38010416666666674,-0.23555555555555555],[0.3697916666666667,-0.28851851851851856],[0.4,-0.39296296296296296],[0.35427083333333326,-0.38055555555555554],[0.31927083333333334,-0.3544444444444444],[0.32822916666666657,-0.2994444444444444],[0.33718750000000003,-0.24444444444444444],[0.37510416666666657,-0.21444444444444447],[0.37510416666666657,-0.21444444444444447],[0.3546875,-0.15185185185185185],[0.3182291666666667,-0.11500000000000005],[0.3182291666666667,-0.11500000000000005],[0.2847916666666668,-0.03222222222222218],[0.2529166666666666,0.012592592592592508],[0.2025000000000001,0.08666666666666659],[0.2025000000000001,0.08666666666666659],[0.1788541666666667,0.08185185185185194],[0.12041666666666657,0.07462962962962955],[0.041875000000000044,0.10240740740740732],[-0.03156249999999995,0.11166666666666658],[-0.08885416666666662,0.07037037037037037],[-0.09635416666666667,-0.014074074074074116],[-0.10020833333333339,-0.06500000000000004],[-0.08708333333333336,-0.1661111111111111],[-0.05635416666666669,-0.25333333333333335],[-0.05010416666666669,-0.3316666666666667],[-0.04583333333333333,-0.3859259259259259],[-0.013020833333333334,-0.4485185185185185],[0.01593749999999995,-0.5059259259259259],[0.06020833333333329,-0.553888888888889],[0.0626041666666667,-0.5544444444444444],[0.06385416666666661,-0.5464814814814816],[0.05802083333333338,-0.5344444444444445],[0.03218749999999997,-0.5181481481481481],[0.0037500000000000237,-0.48944444444444446],[0.013333333333333286,-0.46148148148148144],[0.0018749999999999527,-0.44722222222222224],[-0.011354166666666643,-0.39277777777777784],[-0.02364583333333338,-0.3405555555555555],[-0.04781249999999997,-0.2796296296296296],[-0.07083333333333333,-0.2103703703703704],[-0.08395833333333336,-0.1766666666666666],[-0.08999999999999998,-0.147037037037037],[-0.08197916666666671,-0.12907407407407406],[-0.08197916666666671,-0.12907407407407406],[-0.06510416666666667,-0.14314814814814816],[-0.06916666666666664,-0.14203703703703702],[-0.04718749999999995,-0.10444444444444441],[-0.034895833333333334,-0.16814814814814816],[-0.017083333333333308,-0.1766666666666666],[-0.0078125,-0.18481481481481485],[-0.01427083333333338,-0.2505555555555556],[-0.020937500000000022,-0.27870370370370373],[-0.016666666666666666,-0.2887037037037037],[-0.02802083333333331,-0.33259259259259266],[-0.06052083333333336,-0.33055555555555555],[-0.07697916666666664,-0.3725925925925926],[-0.0984375,-0.4374074074074074],[-0.10083333333333329,-0.4383333333333333],[-0.10552083333333329,-0.49148148148148146],[-0.12854166666666664,-0.5494444444444444],[-0.13708333333333336,-0.5053703703703704],[-0.1359375,-0.48703703703703705],[-0.14312499999999997,-0.5122222222222222],[-0.14874999999999997,-0.4918518518518519],[-0.12718750000000004,-0.49074074074074076],[-0.10989583333333333,-0.4711111111111111],[-0.09249999999999996,-0.4196296296296297],[-0.08656250000000003,-0.3755555555555556],[-0.08656250000000003,-0.3755555555555556],[-0.08614583333333338,-0.3066666666666667],[-0.08614583333333338,-0.3066666666666667],[-0.07614583333333336,-0.2668518518518519],[-0.06364583333333336,-0.3362962962962963],[-0.06083333333333331,-0.38],[-0.01572916666666669,-0.42462962962962963],[0.029375000000000047,-0.4692592592592592],[0.06489583333333329,-0.5268518518518519],[0.10593750000000005,-0.5561111111111111],[0.14958333333333323,-0.6481481481481481],[0.17395833333333333,-0.732037037037037],[0.1993750000000001,-0.8572222222222222],[0.2335416666666667,-0.9485185185185186],[0.2335416666666667,-0.9485185185185186],[0.28666666666666674,-0.9448148148148148],[0.28666666666666674,-0.9448148148148148],[0.3232291666666666,-0.9587037037037038],[0.32177083333333345,-0.9344444444444445],[0.3203125,-0.9101851851851852],[0.2685416666666666,-0.8611111111111112],[0.22604166666666667,-0.8890740740740741],[0.22604166666666667,-0.8890740740740741],[0.15635416666666657,-0.8537037037037037],[0.15635416666666657,-0.8537037037037037],[0.11322916666666671,-0.8524074074074074],[0.11322916666666671,-0.8524074074074074],[0.06020833333333329,-0.855],[0.06020833333333329,-0.855],[0.022395833333333334,-0.8527777777777777],[0.022395833333333334,-0.8527777777777777],[-0.059375,-0.8],[-0.059375,-0.8],[-0.1123958333333333,-0.7316666666666667],[-0.16614583333333333,-0.6761111111111111],[-0.2326041666666666,-0.6305555555555555],[-0.2326041666666666,-0.6305555555555555],[-0.23624999999999996,-0.6472222222222223],[-0.24781249999999996,-0.6081481481481481],[-0.234375,-0.5994444444444444],[-0.23656250000000004,-0.5531481481481482],[-0.23656250000000004,-0.5531481481481482],[-0.22218749999999995,-0.49962962962962965],[-0.20364583333333333,-0.45314814814814813],[-0.15291666666666662,-0.48222222222222216],[-0.14281250000000004,-0.5196296296296297],[-0.1234375,-0.5744444444444444],[-0.08427083333333331,-0.597037037037037],[-0.08427083333333331,-0.597037037037037],[-0.07635416666666663,-0.6083333333333333],[-0.06124999999999995,-0.5992592592592593],[-0.04666666666666662,-0.5922222222222222],[-0.035312499999999976,-0.5442592592592592],[-0.029375000000000047,-0.4861111111111111],[-0.05625,-0.4514814814814815]]","[[0.21145833333333333,0.2861111111111111,0.0003000001907338401],[0.21145833333333333,0.2861111111111111,0.05200000000000671],[0.20020833333333338,0.2818518518518519,0.06790000009536357],[0.20020833333333338,0.2818518518518519,0.08950000000000102],[0.19729166666666675,0.2640740740740741,0.10510000038146927],[0.17927083333333324,0.2862962962962963,0.12270000028610184],[0.17927083333333324,0.2862962962962963,0.13440000009536845],[0.13791666666666677,0.2887037037037037,0.1513000001907443],[0.13791666666666677,0.2887037037037037,0.16780000019073782],[0.12989583333333338,0.202962962962963,0.1844999999999999],[0.12989583333333338,0.202962962962963,0.2011000003814729],[0.12750000000000009,0.16444444444444437,0.2177000002861007],[0.12750000000000009,0.16444444444444437,0.23440000009537698],[0.1146874999999999,0.13925925925925933,0.2513000001907386],[0.14052083333333343,0.1337037037037038,0.2679000000953664],[0.12364583333333339,0.18611111111111112,0.28440000009537414],[0.1178124999999999,0.20314814814814824,0.30360000038147916],[0.10031249999999996,0.2270370370370371,0.3204000000953755],[0.09354166666666662,0.21370370370370367,0.33460000038147086],[0.10322916666666657,0.1787037037037037,0.3511000003814786],[0.11510416666666666,0.144074074074074,0.3677000002861064],[0.10020833333333339,0.14648148148148152,0.38440000009536845],[0.09604166666666672,0.11574074074074074,0.402000000000001],[0.11635416666666672,0.05925925925925926,0.4194999999999993],[0.12354166666666658,-0.01777777777777782,0.4344000000953656],[0.15510416666666677,-0.11777777777777781,0.4511000003814729],[0.17062499999999994,-0.2161111111111111,0.4677000002861007],[0.19833333333333342,-0.2962962962962963,0.4843000001907427],[0.20697916666666671,-0.3257407407407407,0.5038000001907363],[0.20697916666666671,-0.3257407407407407,0.5177000002860979],[0.2165625000000001,-0.3635185185185185,0.5343000001907399],[0.22177083333333342,-0.41092592592592586,0.5511000003814672],[0.22999999999999995,-0.42962962962962964,0.5677000002861092],[0.2361458333333334,-0.4485185185185185,0.584300000190737],[0.23270833333333343,-0.4390740740740741,0.6025000000000063],[0.23322916666666677,-0.452962962962963,0.6179000000953749],[0.24104166666666677,-0.47537037037037033,0.6350000000000051],[0.24177083333333324,-0.46166666666666667,0.6511000003814758],[0.2490624999999999,-0.4772222222222222,0.6679000000953721],[0.2730208333333332,-0.4935185185185185,0.6844000000953656],[0.2960416666666667,-0.5014814814814815,0.7039000000953735],[0.2960416666666667,-0.5014814814814815,0.717800000190735],[0.32083333333333336,-0.5059259259259259,0.734400000095377],[0.32083333333333336,-0.5059259259259259,0.7511000003814701],[0.33083333333333326,-0.5451851851851851,0.7679000000953664],[0.31875,-0.4818518518518518,0.7849000000953765],[0.30322916666666655,-0.4475925925925926,0.8016000003814696],[0.26875,-0.3633333333333333,0.8199000000953731],[0.23427083333333343,-0.27907407407407403,0.8344000000953713],[0.23427083333333343,-0.27907407407407403,0.8511000003814786],[0.20541666666666672,-0.18666666666666668,0.8677000002861064],[0.1779166666666666,-0.09129629629629632,0.8843000001907342],[0.1287499999999999,-0.014814814814814815,0.9035000000000082],[0.07541666666666676,0.0764814814814814,0.9177000002861035],[0.02781250000000005,0.1801851851851851,0.9344000000953656],[-0.010312499999999976,0.32518518518518524,0.9511000003814729],[-0.036249999999999956,0.41,0.9677000002861007],[-0.03177083333333333,0.42240740740740745,0.9894000000953724],[-0.0068750000000000235,0.4177777777777778,1.004400000095373],[0.04718749999999995,0.3448148148148149,1.0186000003814684],[0.103125,0.2324074074074074,1.0345000000000084],[0.1515625,0.125,1.0536000003814792],[0.16927083333333334,0.0948148148148149,1.0686000003814655],[0.17468750000000005,0.08981481481481482,1.085000000000008],[0.17437500000000009,0.07240740740740745,1.106499999999997],[0.16218750000000004,0.08092592592592601,1.1210000000000093],[0.16197916666666667,0.04722222222222222,1.1350000000000051],[0.13479166666666675,0.11500000000000005,1.15120000028611],[0.05677083333333333,0.19870370370370363,1.1711000003814718],[-0.019479166666666714,0.29499999999999993,1.1898000001907434],[-0.0828125,0.3772222222222223,1.2053000001907321],[-0.1716666666666666,0.47537037037037044,1.2224000000953765],[-0.19145833333333329,0.48351851851851857,1.2386000003814672],[-0.190625,0.4327777777777779,1.2529000000953658],[-0.20802083333333338,0.412962962962963,1.2679000000953664],[-0.19302083333333328,0.3416666666666667,1.2878000001907424],[-0.19302083333333328,0.3416666666666667,1.3011000003814672],[-0.19572916666666665,0.31296296296296294,1.3179000000953636],[-0.18083333333333335,0.22018518518518515,1.3345000000000056],[-0.18083333333333335,0.22018518518518515,1.3537000002861106],[-0.13145833333333337,0.12962962962962962,1.367900000095375],[-0.12322916666666663,0.12851851851851848,1.384600000381468],[-0.1310416666666666,0.14611111111111108,1.4055000000000035],[-0.08510416666666672,0.08555555555555563,1.421200000286106],[-0.07864583333333333,0.05277777777777778,1.4365000000000094],[-0.07718750000000002,0.06388888888888888,1.4527000002861001],[-0.0702083333333333,0.041666666666666664,1.4709000000953694],[-0.05531250000000002,0.01777777777777782,1.4882000002860991],[-0.034791666666666644,-0.05092592592592592,1.5053000001907435],[-0.016354166666666715,-0.006296296296296254,1.5224000000953737],[-0.019583333333333286,-0.004444444444444402,1.536600000381469],[-0.022604166666666713,0.009629629629629714,1.5517000002861039],[-0.0015625,-0.041111111111111195,1.5679000000953636],[-0.02666666666666669,0.027222222222222307,1.5889999999999986],[-0.03229166666666667,0.07611111111111116,1.6053000001907378],[-0.03229166666666667,0.07611111111111116,1.617900000095375],[-0.03583333333333331,0.07759259259259255,1.6345000000000027],[-0.02666666666666669,0.10851851851851856,1.6536000003814735],[-0.05499999999999995,0.09666666666666675,1.6684000000953745],[-0.07250000000000002,0.09833333333333337,1.6851000003814676],[-0.09760416666666671,0.07314814814814814,1.7073000001907417],[-0.09760416666666671,0.07314814814814814,1.718900000095374],[-0.11937500000000002,0.06574074074074074,1.7347000002861108],[-0.12916666666666668,0.021851851851851768,1.7576000003814727],[-0.12916666666666668,0.021851851851851768,1.7678000001907321],[-0.16072916666666662,0.02907407407407416,1.7846000003814737],[-0.13770833333333338,-0.01648148148148144,1.802800000190743],[-0.13270833333333332,-0.06314814814814819,1.8222000002861023],[-0.15677083333333333,-0.06870370370370374,1.8374000000953714],[-0.16906249999999995,-0.04981481481481477,1.8529000000953744],[-0.17177083333333332,-0.003333333333333249,1.8746000003814771],[-0.17177083333333332,-0.003333333333333249,1.8845000000000027],[-0.16239583333333332,0.0235185185185186,1.9013000001907443],[-0.17999999999999997,-0.005185185185185101,1.9196000003814788],[-0.16072916666666662,0.002962962962963005,1.9385000000000048],[-0.16072916666666662,-0.005370370370370328,1.9538000001907392],[-0.16302083333333334,0,1.9679000000953693],[-0.18010416666666665,-0.01648148148148144,1.9892000002861039],[-0.20083333333333328,0.01962962962962967,2.0053000001907435],[-0.18385416666666668,0.020185185185185143,2.0198000001907417],[-0.17864583333333334,-0.030740740740740784,2.035100000381476],[-0.1609375,-0.0485185185185186,2.0545000000000044],[-0.1609375,-0.0485185185185186,2.0679000000953636],[-0.16312500000000002,-0.03759259259259251,2.084600000381471],[-0.16312500000000002,-0.03759259259259251,2.1012000002860987],[-0.13677083333333329,-0.0242592592592593,2.121300000190743],[-0.13677083333333329,-0.0242592592592593,2.1345000000000027],[-0.1273958333333333,-0.003888888888888931,2.1514999999999986],[-0.1273958333333333,-0.003888888888888931,2.1733000001907357],[-0.11885416666666669,0.02962962962962963,2.184600000381465],[-0.11885416666666669,0.02962962962962963,2.201100000381473],[-0.09947916666666666,0.0020370370370370794,2.2180000000000035],[-0.09947916666666666,0.0020370370370370794,2.2428000001907407],[-0.0953125,0.03481481481481473,2.2513000001907386],[-0.06270833333333338,-0.02240740740740745,2.267800000190732],[-0.021145833333333287,-0.05611111111111113,2.289600000381469],[-0.021145833333333287,-0.05611111111111113,2.3012000002861015],[0.0006250000000000236,-0.05499999999999998,2.3179000000953636],[0.02354166666666669,-0.0816666666666667,2.3345000000000056],[0.07010416666666662,-0.16888888888888887,2.354600000381467],[0.09854166666666657,-0.15537037037037033,2.368700000286111],[0.1310416666666666,-0.17592592592592593,2.3897000002860977],[0.1310416666666666,-0.17592592592592593,2.4011000003814758],[0.18166666666666675,-0.20259259259259255,2.4207000002861037],[0.20625,-0.15777777777777777,2.4354000000953704],[0.20750000000000005,-0.1418518518518519,2.451100000381473],[0.17333333333333342,-0.072037037037037,2.4679000000953693],[0.14947916666666666,-0.021851851851851768,2.4843000001907427],[0.14541666666666658,-0.006481481481481481,2.5035000000000025],[0.153125,0.03629629629629634,2.5197000002861074],[0.1462500000000001,0.11925925925925922,2.534400000095374],[0.13385416666666666,0.127962962962963,2.5520000000000067],[0.1109375,0.15314814814814823,2.5694000000953707],[0.09802083333333324,0.1705555555555556,2.5922000002860983],[0.09802083333333324,0.1705555555555556,2.601400000095367],[0.09489583333333323,0.15092592592592594,2.6181000003814745],[0.13083333333333325,0.10388888888888893,2.6421000003814754],[0.13083333333333325,0.10388888888888893,2.65120000028611],[0.17583333333333329,0.08499999999999996,2.668200000286106],[0.196875,0.08000000000000008,2.691500000000005],[0.196875,0.08000000000000008,2.701200000286107],[0.21124999999999997,0.06574074074074074,2.7180000000000035],[0.2131249999999999,0.02555555555555547,2.735500000000002],[0.21375000000000005,-0.03092592592592601,2.757000000000005],[0.21375000000000005,-0.03092592592592601,2.767800000190732],[0.21083333333333343,-0.013518518518518435,2.7846000003814737],[0.21083333333333343,-0.013518518518518435,2.8013000001907358],[0.22989583333333338,-0.05537037037037033,2.8209000000953637],[0.21833333333333324,-0.05129629629629638,2.836900000095369],[0.2303124999999999,-0.004629629629629629,2.8533000001907425],[0.22604166666666667,0.0477777777777777,2.867900000095375],[0.21552083333333344,0.062037037037037036,2.887900000095371],[0.23989583333333328,0.05055555555555547,2.9046000003814783],[0.2561458333333334,0.056666666666666705,2.921500000000009],[0.2642708333333334,0.09185185185185189,2.9399999999999977],[0.2642708333333334,0.09185185185185189,2.951200000286107],[0.29010416666666666,0.1633333333333334,2.9679000000953693],[0.3164583333333333,0.15759259259259265,2.991800000190736],[0.3164583333333333,0.15759259259259265,3.0013000001907386],[0.35145833333333343,0.16925925925925922,3.017700000286098],[0.3966666666666666,0.13629629629629633,3.0374000000953743],[0.4379166666666668,0.1081481481481481,3.055500000000009],[0.4379166666666668,0.1081481481481481,3.073200000286107],[0.4791666666666667,0.08000000000000008,3.086600000381466],[0.5052083333333334,0.0712962962962963,3.1038000001907307],[0.48489583333333336,0.06222222222222226,3.117900000095375],[0.46895833333333337,0.08574074074074066,3.134300000190734],[0.45302083333333343,0.10925925925925926,3.15420000028611],[0.44333333333333325,0.08518518518518518,3.1676000003814693],[0.4502083333333334,0.07333333333333338,3.1847000002860995],[0.43166666666666675,0.08111111111111102,3.2025000000000006],[0.4317708333333333,0.08425925925925926,3.2180000000000035],[0.41875,0.069074074074074,3.234400000095377],[0.4009375000000001,0.05740740740740741,3.25110000038147],[0.3948958333333332,0.051666666666666625,3.267700000286098],[0.41822916666666665,0.08481481481481473,3.2845000000000084],[0.4276041666666667,0.0992592592592593,3.3011000003814672],[0.4632291666666667,0.09796296296296292,3.3177000002861092],[0.4571875000000001,0.12388888888888884,3.3344000000953713],[0.4827083333333334,0.14462962962962966,3.3511000003814786],[0.47937500000000005,0.1625925925925925,3.3677000002861064],[0.48427083333333343,0.1655555555555555,3.3844000000953685],[0.48427083333333343,0.1655555555555555,3.4099000000953765],[0.46812500000000007,0.21907407407407398,3.4177000002861035],[0.4635416666666667,0.23203703703703696,3.4344000000953656],[0.4752083333333334,0.26296296296296295,3.451100000381473],[0.4740624999999999,0.2479629629629629,3.4677000002861007],[0.47645833333333343,0.22407407407407406,3.4846000003814765],[0.47062499999999996,0.21851851851851853,3.5039000000953706],[0.4704166666666666,0.23259259259259263,3.517800000190732],[0.4322916666666667,0.21055555555555563,3.534400000095374],[0.42302083333333323,0.19129629629629621,3.5511000003814672],[0.39249999999999996,0.20888888888888882,3.5677000002861092],[0.3788541666666667,0.1844444444444445,3.584600000381471],[0.3589583333333332,0.19685185185185178,3.6025000000000063],[0.3556250000000001,0.15999999999999995,3.617600000381472],[0.3394791666666668,0.14907407407407408,3.634300000190734],[0.36781249999999993,0.17518518518518522,3.6513000001907443],[0.35812499999999997,0.17240740740740745,3.669700000286099],[0.3563541666666666,0.13444444444444448,3.6843000001907313],[0.37437500000000007,0.11481481481481481,3.7047000002861097],[0.3927083333333333,0.11074074074074065,3.7217000002861056],[0.3927083333333333,0.11074074074074065,3.734400000095377],[0.4096874999999999,0.06870370370370374,3.75110000038147],[0.43510416666666674,0.04296296296296305,3.770300000190744],[0.45625,0.018148148148148063,3.784400000095374],[0.45625,0.005370370370370328,3.8013000001907358],[0.43250000000000005,0.012407407407407492,3.8177000002861092],[0.3902083333333332,-0.03222222222222218,3.834300000190737],[0.3054166666666667,-0.05092592592592592,3.850999999999999],[0.22604166666666667,-0.053703703703703705,3.8681000003814745],[0.12666666666666657,-0.04611111111111107,3.884300000190734],[0.02833333333333338,-0.05537037037037033,3.9044999999999987],[0.02833333333333338,-0.05537037037037033,3.9177000002861035],[-0.06385416666666661,-0.03740740740740749,3.9344000000953656],[-0.16270833333333337,-0.04611111111111107,3.951100000381473],[-0.259375,-0.01777777777777782,3.9677000002861007],[-0.35395833333333326,-0.0001851851851852273,3.984900000095365],[-0.42614583333333333,-0.0011111111111111532,4.004600000381473],[-0.5204166666666666,0.027962962962963005,4.020700000286098],[-0.5514583333333333,0.052962962962963,4.03530000019073],[-0.5690624999999999,0.04685185185185177,4.051000000000002],[-0.5690624999999999,0.04685185185185177,4.067700000286109],[-0.5632291666666667,0.08203703703703695,4.084500000000006],[-0.5632291666666667,0.08203703703703695,4.101200000286099],[-0.5786458333333333,0.09018518518518527,4.117800000190741],[-0.5786458333333333,0.09018518518518527,4.1344000000953685],[-0.5894791666666667,0.13240740740740742,4.151100000381476],[-0.5894791666666667,0.13240740740740742,4.1677000002861035],[-0.5917708333333334,0.13925925925925933,4.184600000381465],[-0.5917708333333334,0.13925925925925933,4.201000000000008],[-0.5958333333333333,0.12611111111111115,4.217800000190735],[-0.5958333333333333,0.12611111111111115,4.234400000095377],[-0.5902083333333333,0.12685185185185185,4.25110000038147],[-0.5836458333333333,0.16870370370370374,4.268100000381466],[-0.5502083333333334,0.21592592592592597,4.284400000095374],[-0.5336458333333333,0.26222222222222225,4.301300000190736],[-0.514375,0.3449999999999999,4.317700000286109],[-0.5140625,0.40555555555555556,4.3367000002861005],[-0.5038541666666666,0.4674074074074074,4.352400000095372],[-0.49822916666666667,0.4951851851851851,4.367700000286106],[-0.49937499999999996,0.5575925925925926,4.390300000190734],[-0.49937499999999996,0.5575925925925926,4.4018000001907325],[-0.38093750000000004,0.5394444444444444,4.418000000000006],[-0.3054166666666667,0.5592592592592592,4.4347000002860995],[-0.24479166666666666,0.5351851851851852,4.453700000286105],[-0.19406249999999994,0.4770370370370371,4.467700000286101],[-0.12166666666666662,0.41333333333333344,4.484400000095377],[-0.12166666666666662,0.41333333333333344,4.50110000038147],[-0.06541666666666662,0.3442592592592592,4.517700000286098],[-0.003541666666666643,0.2772222222222223,4.5357000002860985],[0.08031249999999991,0.21592592592592597,4.554700000286104],[0.19666666666666663,0.15351851851851847,4.5704000000953755],[0.2976041666666667,0.11666666666666667,4.585800000190744],[0.28229166666666666,0.1425925925925926,4.606600000381476],[0.32958333333333345,0.09574074074074082,4.621300000190743],[0.38218750000000007,0.07148148148148152,4.636800000190732],[0.38218750000000007,0.07148148148148152,4.650999999999996],[0.4476041666666667,0.03888888888888889,4.667600000381469],[0.503125,-0.001851851851851852,4.684300000190731],[0.5443749999999999,-0.019444444444444445,4.70470000028611],[0.5443749999999999,-0.019444444444444445,4.7180000000000035],[0.5892708333333334,-0.04277777777777782,4.734400000095377],[0.6221875,-0.0448148148148149,4.755700000286112],[0.6221875,-0.0448148148148149,4.767700000286098],[0.6597916666666668,-0.0868518518518518,4.784400000095374],[0.6805208333333332,-0.10925925925925926,4.8038000001907335],[0.7212500000000001,-0.14500000000000002,4.820200000286107],[0.7203125,-0.12314814814814815,4.835600000381476],[0.7423958333333334,-0.1161111111111111,4.851100000381479],[0.7423958333333334,-0.1161111111111111,4.867700000286106],[0.7516666666666666,-0.1007407407407407,4.8844000000953685],[0.7516666666666666,-0.07296296296296292,4.904800000190733],[0.7516666666666666,-0.07296296296296292,4.9177000002861035],[0.7756249999999999,-0.06259259259259262,4.934300000190731],[0.7769791666666668,-0.05018518518518523,4.951000000000008],[0.7783333333333334,-0.03777777777777774,4.967800000190735],[0.7482291666666666,0.025185185185185227,4.9846000003814765],[0.7482291666666666,0.025185185185185227,5.0027000002861115],[0.75,0.04314814814814806,5.017800000190732],[0.7527083333333332,0.02814814814814823,5.034700000286108],[0.7628125,-0.004259259259259175,5.051000000000002],[0.7623958333333334,-0.036666666666666584,5.067900000095364],[0.7923958333333334,-0.10759259259259263,5.084300000190737],[0.8236458333333334,-0.1522222222222222,5.104200000286099],[0.8576041666666666,-0.2222222222222222,5.119100000381479],[0.8846875,-0.2862962962962963,5.134300000190734],[0.9322916666666666,-0.3881481481481482,5.151100000381476],[0.9420833333333334,-0.4309259259259259,5.167600000381469],[0.9864583333333333,-0.5312962962962963,5.184400000095366],[0.9541666666666667,-0.5442592592592592,5.203600000381471],[0.9576041666666666,-0.5555555555555556,5.218300000190737],[0.9610416666666666,-0.5668518518518519,5.236700000286106],[0.9077083333333335,-0.46166666666666667,5.251000000000005],[0.8572916666666667,-0.3653703703703704,5.267600000381478],[0.8194791666666668,-0.302962962962963,5.28430000019074],[0.7912499999999999,-0.22296296296296292,5.301100000381467],[0.7420833333333334,-0.07814814814814813,5.317700000286109],[0.7420833333333334,-0.07814814814814813,5.334200000286103],[0.725,-0.001851851851851852,5.350999999999999],[0.6998958333333334,0.07666666666666662,5.367600000381472],[0.7104166666666667,0.152962962962963,5.384300000190734],[0.6858333333333334,0.23370370370370377,5.402500000000003],[0.666875,0.3116666666666666,5.417600000381469],[0.6742708333333333,0.3116666666666666,5.434400000095366],[0.6755208333333333,0.31296296296296294,5.451000000000008],[0.6517708333333334,0.3677777777777778,5.467600000381466],[0.6205208333333334,0.380925925925926,5.485100000381479],[0.5896874999999999,0.3670370370370371,5.501800000190741],[0.5588541666666667,0.3531481481481482,5.517600000381478],[0.4726041666666667,0.3877777777777777,5.537200000286106],[0.45906250000000004,0.3616666666666666,5.553200000286111],[0.4354166666666667,0.3396296296296296,5.5678000001907435],[0.3865624999999999,0.3538888888888889,5.588499999999996],[0.38468749999999996,0.32407407407407407,5.604700000286101],[0.3555208333333333,0.32314814814814813,5.619700000286102],[0.3224999999999999,0.33907407407407414,5.637400000095369],[0.32010416666666663,0.3501851851851852,5.651900000095367],[0.3177083333333333,0.36129629629629634,5.667900000095372],[0.3099999999999999,0.35185185185185186,5.688500000000005],[0.3099999999999999,0.35185185185185186,5.7013000001907415],[0.3441666666666668,0.3464814814814815,5.7180000000000035],[0.3441666666666668,0.3464814814814815,5.737800000190731],[0.29583333333333334,0.36648148148148146,5.751400000095373],[0.24375,0.40259259259259256,5.7709000000953665],[0.234375,0.39203703703703713,5.788800000190733],[0.234375,0.39203703703703713,5.801800000190738],[0.1984375,0.39444444444444443,5.817900000095364],[0.16135416666666677,0.3790740740740742,5.8352000002861075],[0.1568749999999999,0.3177777777777778,5.855100000381469],[0.12302083333333323,0.31129629629629635,5.870300000190738],[0.11895833333333337,0.2755555555555555,5.886499999999998],[0.14260416666666675,0.22074074074074082,5.9069999999999965],[0.14260416666666675,0.22074074074074082,5.917900000095372],[0.10208333333333333,0.24833333333333338,5.934600000381465],[0.09822916666666662,0.2553703703703703,5.951200000286107],[0.06072916666666662,0.2572222222222222,5.97180000019074],[0.04093749999999995,0.26425925925925936,5.988800000190736],[0.010312499999999976,0.28277777777777785,6.004700000286107],[0.035104166666666714,0.2838888888888888,6.022600000381473],[0.02510416666666669,0.3161111111111112,6.037200000286106],[0.035312499999999976,0.3012962962962964,6.052000000000007],[0.035312499999999976,0.3012962962962964,6.067999999999998],[0.034895833333333334,0.29370370370370374,6.098400000095367],[0.034895833333333334,0.29370370370370374,6.108700000286106],[-0.003958333333333286,0.3077777777777779,6.117800000190741],[-0.003958333333333286,0.3077777777777779,6.134500000000003],[-0.004270833333333357,0.27259259259259266,6.156000000000006],[0.04458333333333329,0.23444444444444448,6.171400000095375],[0.04458333333333329,0.23444444444444448,6.1845],[0.17770833333333325,0.22351851851851862,6.201100000381473],[0.2700000000000001,0.1962962962962963,6.223600000381467],[0.2700000000000001,0.1962962962962963,6.234400000095377],[0.2882291666666667,0.20833333333333334,6.251200000286104],[0.30499999999999994,0.1955555555555556,6.267800000190732],[0.29177083333333326,0.20203703703703707,6.28430000019074],[0.27791666666666665,0.21425925925925934,6.303600000381479],[0.27791666666666665,0.21425925925925934,6.317600000381475],[0.24489583333333323,0.2485185185185186,6.334400000095371],[0.26593749999999994,0.27518518518518525,6.351300000190733],[0.2952083333333334,0.2935185185185185,6.367600000381472],[0.2685416666666666,0.33185185185185195,6.3844000000953685],[0.221875,0.3168518518518519,6.404100000381476],[0.221875,0.3168518518518519,6.4177000002861035],[0.1446875000000001,0.35759259259259263,6.434300000190731],[0.18312499999999995,0.31666666666666665,6.4513000001907415],[0.21166666666666673,0.2948148148148149,6.467600000381466],[0.2553124999999999,0.18481481481481474,6.486500000000007],[0.2989583333333333,0.07481481481481478,6.5042000002861045],[0.3393749999999999,-0.007037037037036953,6.521100000381466],[0.34177083333333325,-0.06333333333333331,6.534500000000008],[0.3609375,-0.14944444444444444,6.5512000002861015],[0.38010416666666674,-0.23555555555555555,6.567600000381475],[0.3697916666666667,-0.28851851851851856,6.584300000190737],[0.4,-0.39296296296296296,6.602700000286106],[0.35427083333333326,-0.38055555555555554,6.621000000000009],[0.31927083333333334,-0.3544444444444444,6.635700000286107],[0.32822916666666657,-0.2994444444444444,6.650900000095376],[0.33718750000000003,-0.24444444444444444,6.668200000286106],[0.37510416666666657,-0.21444444444444447,6.688900000095373],[0.37510416666666657,-0.21444444444444447,6.701400000095376],[0.3546875,-0.15185185185185185,6.7180000000000035],[0.3182291666666667,-0.11500000000000005,6.7398000001907405],[0.3182291666666667,-0.11500000000000005,6.751300000190739],[0.2847916666666668,-0.03222222222222218,6.767900000095366],[0.2529166666666666,0.012592592592592508,6.7864000000953695],[0.2025000000000001,0.08666666666666659,6.813800000190739],[0.2025000000000001,0.08666666666666659,6.829200000286107],[0.1788541666666667,0.08185185185185194,6.839100000381478],[0.12041666666666657,0.07462962962962955,6.854100000381479],[0.041875000000000044,0.10240740740740732,6.867600000381472],[-0.03156249999999995,0.11166666666666658,6.888200000286105],[-0.08885416666666662,0.07037037037037037,6.90420000028611],[-0.09635416666666667,-0.014074074074074116,6.919100000381476],[-0.10020833333333339,-0.06500000000000004,6.934300000190731],[-0.08708333333333336,-0.1661111111111111,6.951000000000008],[-0.05635416666666669,-0.25333333333333335,6.967600000381466],[-0.05010416666666669,-0.3316666666666667,6.984300000190743],[-0.04583333333333333,-0.3859259259259259,7.001300000190739],[-0.013020833333333334,-0.4485185185185185,7.017700000286098],[0.01593749999999995,-0.5059259259259259,7.03430000019074],[0.06020833333333329,-0.553888888888889,7.051000000000002],[0.0626041666666667,-0.5544444444444444,7.067600000381475],[0.06385416666666661,-0.5464814814814816,7.084300000190737],[0.05802083333333338,-0.5344444444444445,7.1015000000000015],[0.03218749999999997,-0.5181481481481481,7.117700000286106],[0.0037500000000000237,-0.48944444444444446,7.1342000002861],[0.013333333333333286,-0.46148148148148144,7.150999999999996],[0.0018749999999999527,-0.44722222222222224,7.167600000381469],[-0.011354166666666643,-0.39277777777777784,7.184300000190731],[-0.02364583333333338,-0.3405555555555555,7.201100000381473],[-0.04781249999999997,-0.2796296296296296,7.217600000381466],[-0.07083333333333333,-0.2103703703703704,7.234200000286108],[-0.08395833333333336,-0.1766666666666666,7.251000000000005],[-0.08999999999999998,-0.147037037037037,7.267600000381478],[-0.08197916666666671,-0.12907407407407406,7.292200000286101],[-0.08197916666666671,-0.12907407407407406,7.301100000381467],[-0.06510416666666667,-0.14314814814814816,7.317900000095364],[-0.06916666666666664,-0.14203703703703702,7.334600000381471],[-0.04718749999999995,-0.10444444444444441,7.353000000000009],[-0.034895833333333334,-0.16814814814814816,7.368000000000009],[-0.017083333333333308,-0.1766666666666666,7.385000000000005],[-0.0078125,-0.18481481481481485,7.4044000000953645],[-0.01427083333333338,-0.2505555555555556,7.419400000095365],[-0.020937500000000022,-0.27870370370370373,7.434400000095366],[-0.016666666666666666,-0.2887037037037037,7.451200000286107],[-0.02802083333333331,-0.33259259259259266,7.467600000381466],[-0.06052083333333336,-0.33055555555555555,7.48910000038147],[-0.07697916666666664,-0.3725925925925926,7.5035000000000025],[-0.0984375,-0.4374074074074074,7.517700000286098],[-0.10083333333333329,-0.4383333333333333,7.53430000019074],[-0.10552083333333329,-0.49148148148148146,7.550900000095368],[-0.12854166666666664,-0.5494444444444444,7.567600000381475],[-0.13708333333333336,-0.5053703703703704,7.584700000286105],[-0.1359375,-0.48703703703703705,7.602300000190738],[-0.14312499999999997,-0.5122222222222222,7.6181000003814745],[-0.14874999999999997,-0.4918518518518519,7.6342000002861],[-0.12718750000000004,-0.49074074074074076,7.650999999999996],[-0.10989583333333333,-0.4711111111111111,7.667600000381469],[-0.09249999999999996,-0.4196296296296297,7.684300000190731],[-0.08656250000000003,-0.3755555555555556,7.7057000002861],[-0.08656250000000003,-0.3755555555555556,7.717800000190735],[-0.08614583333333338,-0.3066666666666667,7.734400000095377],[-0.08614583333333338,-0.3066666666666667,7.7542000002861045],[-0.07614583333333336,-0.2668518518518519,7.767600000381478],[-0.06364583333333336,-0.3362962962962963,7.784400000095374],[-0.06083333333333331,-0.38,7.8023000001907405],[-0.01572916666666669,-0.42462962962962963,7.817999999999998],[0.029375000000000047,-0.4692592592592592,7.834200000286103],[0.06489583333333329,-0.5268518518518519,7.850900000095365],[0.10593750000000005,-0.5561111111111111,7.867600000381472],[0.14958333333333323,-0.6481481481481481,7.884300000190734],[0.17395833333333333,-0.732037037037037,7.904700000286098],[0.1993750000000001,-0.8572222222222222,7.922499999999999],[0.2335416666666667,-0.9485185185185186,7.9395000000000095],[0.2335416666666667,-0.9485185185185186,7.950900000095373],[0.28666666666666674,-0.9448148148148148,7.967600000381466],[0.28666666666666674,-0.9448148148148148,7.984300000190743],[0.3232291666666666,-0.9587037037037038,8.001000000000005],[0.32177083333333345,-0.9344444444444445,8.018900000095371],[0.3203125,-0.9101851851851852,8.034600000381474],[0.2685416666666666,-0.8611111111111112,8.051200000286101],[0.22604166666666667,-0.8890740740740741,8.071300000190732],[0.22604166666666667,-0.8890740740740741,8.084300000190737],[0.15635416666666657,-0.8537037037037037,8.100900000095365],[0.15635416666666657,-0.8537037037037037,8.121600000381477],[0.11322916666666671,-0.8524074074074074,8.134500000000003],[0.11322916666666671,-0.8524074074074074,8.151100000381476],[0.06020833333333329,-0.855,8.16760000038147],[0.06020833333333329,-0.855,8.1907000002861],[0.022395833333333334,-0.8527777777777777,8.201200000286107],[0.022395833333333334,-0.8527777777777777,8.217800000190735],[-0.059375,-0.8,8.239500000000007],[-0.059375,-0.8,8.25110000038147],[-0.1123958333333333,-0.7316666666666667,8.267600000381478],[-0.16614583333333333,-0.6761111111111111,8.288700000286099],[-0.2326041666666666,-0.6305555555555555,8.305600000381475],[-0.2326041666666666,-0.6305555555555555,8.318400000095366],[-0.23624999999999996,-0.6472222222222223,8.338200000286108],[-0.24781249999999996,-0.6081481481481481,8.354100000381479],[-0.234375,-0.5994444444444444,8.371600000381477],[-0.23656250000000004,-0.5531481481481482,8.39220000028611],[-0.23656250000000004,-0.5531481481481482,8.401100000381476],[-0.22218749999999995,-0.49962962962962965,8.417800000190738],[-0.20364583333333333,-0.45314814814814813,8.436300000190741],[-0.15291666666666662,-0.48222222222222216,8.454800000190744],[-0.14281250000000004,-0.5196296296296297,8.469999999999999],[-0.1234375,-0.5744444444444444,8.487100000381474],[-0.08427083333333331,-0.597037037037037,8.506800000190736],[-0.08427083333333331,-0.597037037037037,8.517800000190732],[-0.07635416666666663,-0.6083333333333333,8.534500000000008],[-0.06124999999999995,-0.5992592592592593,8.55160000038147],[-0.04666666666666662,-0.5922222222222222,8.570200000286107],[-0.035312499999999976,-0.5442592592592592,8.58480000019074],[-0.029375000000000047,-0.4861111111111111,8.603600000381476],[-0.05625,-0.4514814814814815,8.623200000286104]]","[0.0003000001907338401,0.05200000000000671,0.06790000009536357,0.08950000000000102,0.10510000038146927,0.12270000028610184,0.13440000009536845,0.1513000001907443,0.16780000019073782,0.1844999999999999,0.2011000003814729,0.2177000002861007,0.23440000009537698,0.2513000001907386,0.2679000000953664,0.28440000009537414,0.30360000038147916,0.3204000000953755,0.33460000038147086,0.3511000003814786,0.3677000002861064,0.38440000009536845,0.402000000000001,0.4194999999999993,0.4344000000953656,0.4511000003814729,0.4677000002861007,0.4843000001907427,0.5038000001907363,0.5177000002860979,0.5343000001907399,0.5511000003814672,0.5677000002861092,0.584300000190737,0.6025000000000063,0.6179000000953749,0.6350000000000051,0.6511000003814758,0.6679000000953721,0.6844000000953656,0.7039000000953735,0.717800000190735,0.734400000095377,0.7511000003814701,0.7679000000953664,0.7849000000953765,0.8016000003814696,0.8199000000953731,0.8344000000953713,0.8511000003814786,0.8677000002861064,0.8843000001907342,0.9035000000000082,0.9177000002861035,0.9344000000953656,0.9511000003814729,0.9677000002861007,0.9894000000953724,1.004400000095373,1.0186000003814684,1.0345000000000084,1.0536000003814792,1.0686000003814655,1.085000000000008,1.106499999999997,1.1210000000000093,1.1350000000000051,1.15120000028611,1.1711000003814718,1.1898000001907434,1.2053000001907321,1.2224000000953765,1.2386000003814672,1.2529000000953658,1.2679000000953664,1.2878000001907424,1.3011000003814672,1.3179000000953636,1.3345000000000056,1.3537000002861106,1.367900000095375,1.384600000381468,1.4055000000000035,1.421200000286106,1.4365000000000094,1.4527000002861001,1.4709000000953694,1.4882000002860991,1.5053000001907435,1.5224000000953737,1.536600000381469,1.5517000002861039,1.5679000000953636,1.5889999999999986,1.6053000001907378,1.617900000095375,1.6345000000000027,1.6536000003814735,1.6684000000953745,1.6851000003814676,1.7073000001907417,1.718900000095374,1.7347000002861108,1.7576000003814727,1.7678000001907321,1.7846000003814737,1.802800000190743,1.8222000002861023,1.8374000000953714,1.8529000000953744,1.8746000003814771,1.8845000000000027,1.9013000001907443,1.9196000003814788,1.9385000000000048,1.9538000001907392,1.9679000000953693,1.9892000002861039,2.0053000001907435,2.0198000001907417,2.035100000381476,2.0545000000000044,2.0679000000953636,2.084600000381471,2.1012000002860987,2.121300000190743,2.1345000000000027,2.1514999999999986,2.1733000001907357,2.184600000381465,2.201100000381473,2.2180000000000035,2.2428000001907407,2.2513000001907386,2.267800000190732,2.289600000381469,2.3012000002861015,2.3179000000953636,2.3345000000000056,2.354600000381467,2.368700000286111,2.3897000002860977,2.4011000003814758,2.4207000002861037,2.4354000000953704,2.451100000381473,2.4679000000953693,2.4843000001907427,2.5035000000000025,2.5197000002861074,2.534400000095374,2.5520000000000067,2.5694000000953707,2.5922000002860983,2.601400000095367,2.6181000003814745,2.6421000003814754,2.65120000028611,2.668200000286106,2.691500000000005,2.701200000286107,2.7180000000000035,2.735500000000002,2.757000000000005,2.767800000190732,2.7846000003814737,2.8013000001907358,2.8209000000953637,2.836900000095369,2.8533000001907425,2.867900000095375,2.887900000095371,2.9046000003814783,2.921500000000009,2.9399999999999977,2.951200000286107,2.9679000000953693,2.991800000190736,3.0013000001907386,3.017700000286098,3.0374000000953743,3.055500000000009,3.073200000286107,3.086600000381466,3.1038000001907307,3.117900000095375,3.134300000190734,3.15420000028611,3.1676000003814693,3.1847000002860995,3.2025000000000006,3.2180000000000035,3.234400000095377,3.25110000038147,3.267700000286098,3.2845000000000084,3.3011000003814672,3.3177000002861092,3.3344000000953713,3.3511000003814786,3.3677000002861064,3.3844000000953685,3.4099000000953765,3.4177000002861035,3.4344000000953656,3.451100000381473,3.4677000002861007,3.4846000003814765,3.5039000000953706,3.517800000190732,3.534400000095374,3.5511000003814672,3.5677000002861092,3.584600000381471,3.6025000000000063,3.617600000381472,3.634300000190734,3.6513000001907443,3.669700000286099,3.6843000001907313,3.7047000002861097,3.7217000002861056,3.734400000095377,3.75110000038147,3.770300000190744,3.784400000095374,3.8013000001907358,3.8177000002861092,3.834300000190737,3.850999999999999,3.8681000003814745,3.884300000190734,3.9044999999999987,3.9177000002861035,3.9344000000953656,3.951100000381473,3.9677000002861007,3.984900000095365,4.004600000381473,4.020700000286098,4.03530000019073,4.051000000000002,4.067700000286109,4.084500000000006,4.101200000286099,4.117800000190741,4.1344000000953685,4.151100000381476,4.1677000002861035,4.184600000381465,4.201000000000008,4.217800000190735,4.234400000095377,4.25110000038147,4.268100000381466,4.284400000095374,4.301300000190736,4.317700000286109,4.3367000002861005,4.352400000095372,4.367700000286106,4.390300000190734,4.4018000001907325,4.418000000000006,4.4347000002860995,4.453700000286105,4.467700000286101,4.484400000095377,4.50110000038147,4.517700000286098,4.5357000002860985,4.554700000286104,4.5704000000953755,4.585800000190744,4.606600000381476,4.621300000190743,4.636800000190732,4.650999999999996,4.667600000381469,4.684300000190731,4.70470000028611,4.7180000000000035,4.734400000095377,4.755700000286112,4.767700000286098,4.784400000095374,4.8038000001907335,4.820200000286107,4.835600000381476,4.851100000381479,4.867700000286106,4.8844000000953685,4.904800000190733,4.9177000002861035,4.934300000190731,4.951000000000008,4.967800000190735,4.9846000003814765,5.0027000002861115,5.017800000190732,5.034700000286108,5.051000000000002,5.067900000095364,5.084300000190737,5.104200000286099,5.119100000381479,5.134300000190734,5.151100000381476,5.167600000381469,5.184400000095366,5.203600000381471,5.218300000190737,5.236700000286106,5.251000000000005,5.267600000381478,5.28430000019074,5.301100000381467,5.317700000286109,5.334200000286103,5.350999999999999,5.367600000381472,5.384300000190734,5.402500000000003,5.417600000381469,5.434400000095366,5.451000000000008,5.467600000381466,5.485100000381479,5.501800000190741,5.517600000381478,5.537200000286106,5.553200000286111,5.5678000001907435,5.588499999999996,5.604700000286101,5.619700000286102,5.637400000095369,5.651900000095367,5.667900000095372,5.688500000000005,5.7013000001907415,5.7180000000000035,5.737800000190731,5.751400000095373,5.7709000000953665,5.788800000190733,5.801800000190738,5.817900000095364,5.8352000002861075,5.855100000381469,5.870300000190738,5.886499999999998,5.9069999999999965,5.917900000095372,5.934600000381465,5.951200000286107,5.97180000019074,5.988800000190736,6.004700000286107,6.022600000381473,6.037200000286106,6.052000000000007,6.067999999999998,6.098400000095367,6.108700000286106,6.117800000190741,6.134500000000003,6.156000000000006,6.171400000095375,6.1845,6.201100000381473,6.223600000381467,6.234400000095377,6.251200000286104,6.267800000190732,6.28430000019074,6.303600000381479,6.317600000381475,6.334400000095371,6.351300000190733,6.367600000381472,6.3844000000953685,6.404100000381476,6.4177000002861035,6.434300000190731,6.4513000001907415,6.467600000381466,6.486500000000007,6.5042000002861045,6.521100000381466,6.534500000000008,6.5512000002861015,6.567600000381475,6.584300000190737,6.602700000286106,6.621000000000009,6.635700000286107,6.650900000095376,6.668200000286106,6.688900000095373,6.701400000095376,6.7180000000000035,6.7398000001907405,6.751300000190739,6.767900000095366,6.7864000000953695,6.813800000190739,6.829200000286107,6.839100000381478,6.854100000381479,6.867600000381472,6.888200000286105,6.90420000028611,6.919100000381476,6.934300000190731,6.951000000000008,6.967600000381466,6.984300000190743,7.001300000190739,7.017700000286098,7.03430000019074,7.051000000000002,7.067600000381475,7.084300000190737,7.1015000000000015,7.117700000286106,7.1342000002861,7.150999999999996,7.167600000381469,7.184300000190731,7.201100000381473,7.217600000381466,7.234200000286108,7.251000000000005,7.267600000381478,7.292200000286101,7.301100000381467,7.317900000095364,7.334600000381471,7.353000000000009,7.368000000000009,7.385000000000005,7.4044000000953645,7.419400000095365,7.434400000095366,7.451200000286107,7.467600000381466,7.48910000038147,7.5035000000000025,7.517700000286098,7.53430000019074,7.550900000095368,7.567600000381475,7.584700000286105,7.602300000190738,7.6181000003814745,7.6342000002861,7.650999999999996,7.667600000381469,7.684300000190731,7.7057000002861,7.717800000190735,7.734400000095377,7.7542000002861045,7.767600000381478,7.784400000095374,7.8023000001907405,7.817999999999998,7.834200000286103,7.850900000095365,7.867600000381472,7.884300000190734,7.904700000286098,7.922499999999999,7.9395000000000095,7.950900000095373,7.967600000381466,7.984300000190743,8.001000000000005,8.018900000095371,8.034600000381474,8.051200000286101,8.071300000190732,8.084300000190737,8.100900000095365,8.121600000381477,8.134500000000003,8.151100000381476,8.16760000038147,8.1907000002861,8.201200000286107,8.217800000190735,8.239500000000007,8.25110000038147,8.267600000381478,8.288700000286099,8.305600000381475,8.318400000095366,8.338200000286108,8.354100000381479,8.371600000381477,8.39220000028611,8.401100000381476,8.417800000190738,8.436300000190741,8.454800000190744,8.469999999999999,8.487100000381474,8.506800000190736,8.517800000190732,8.534500000000008,8.55160000038147,8.570200000286107,8.58480000019074,8.603600000381476,8.623200000286104]","[1731922389296,1731922389338,1731922389354,1731922389376,1731922389391,1731922389409,1731922389420,1731922389437,1731922389454,1731922389471,1731922389487,1731922389504,1731922389520,1731922389537,1731922389554,1731922389571,1731922389590,1731922389606,1731922389621,1731922389637,1731922389654,1731922389671,1731922389688,1731922389706,1731922389720,1731922389737,1731922389754,1731922389771,1731922389790,1731922389804,1731922389820,1731922389837,1731922389854,1731922389871,1731922389889,1731922389904,1731922389921,1731922389937,1731922389954,1731922389971,1731922389990,1731922390004,1731922390021,1731922390037,1731922390054,1731922390071,1731922390088,1731922390106,1731922390120,1731922390137,1731922390154,1731922390170,1731922390190,1731922390204,1731922390220,1731922390237,1731922390254,1731922390275,1731922390291,1731922390305,1731922390321,1731922390340,1731922390355,1731922390371,1731922390393,1731922390407,1731922390421,1731922390437,1731922390457,1731922390476,1731922390491,1731922390508,1731922390525,1731922390539,1731922390554,1731922390574,1731922390587,1731922390604,1731922390621,1731922390640,1731922390654,1731922390671,1731922390692,1731922390707,1731922390723,1731922390739,1731922390757,1731922390774,1731922390791,1731922390809,1731922390823,1731922390838,1731922390854,1731922390875,1731922390891,1731922390904,1731922390921,1731922390940,1731922390954,1731922390971,1731922390993,1731922391005,1731922391021,1731922391044,1731922391054,1731922391071,1731922391089,1731922391108,1731922391124,1731922391139,1731922391161,1731922391171,1731922391187,1731922391206,1731922391225,1731922391240,1731922391254,1731922391275,1731922391291,1731922391306,1731922391321,1731922391341,1731922391354,1731922391371,1731922391387,1731922391407,1731922391421,1731922391438,1731922391459,1731922391471,1731922391487,1731922391504,1731922391529,1731922391537,1731922391554,1731922391576,1731922391587,1731922391604,1731922391621,1731922391641,1731922391655,1731922391676,1731922391687,1731922391707,1731922391722,1731922391737,1731922391754,1731922391770,1731922391790,1731922391806,1731922391820,1731922391838,1731922391855,1731922391878,1731922391887,1731922391904,1731922391928,1731922391937,1731922391954,1731922391978,1731922391987,1731922392004,1731922392022,1731922392043,1731922392054,1731922392071,1731922392087,1731922392107,1731922392123,1731922392139,1731922392154,1731922392174,1731922392191,1731922392208,1731922392226,1731922392237,1731922392254,1731922392278,1731922392287,1731922392304,1731922392323,1731922392342,1731922392359,1731922392373,1731922392390,1731922392404,1731922392420,1731922392440,1731922392454,1731922392471,1731922392489,1731922392504,1731922392520,1731922392537,1731922392554,1731922392571,1731922392587,1731922392604,1731922392620,1731922392637,1731922392654,1731922392670,1731922392696,1731922392704,1731922392720,1731922392737,1731922392754,1731922392771,1731922392790,1731922392804,1731922392820,1731922392837,1731922392854,1731922392871,1731922392889,1731922392904,1731922392920,1731922392937,1731922392956,1731922392970,1731922392991,1731922393008,1731922393021,1731922393037,1731922393056,1731922393071,1731922393087,1731922393104,1731922393120,1731922393137,1731922393154,1731922393170,1731922393191,1731922393204,1731922393220,1731922393237,1731922393254,1731922393271,1731922393291,1731922393307,1731922393321,1731922393337,1731922393354,1731922393371,1731922393387,1731922393404,1731922393420,1731922393437,1731922393454,1731922393471,1731922393487,1731922393504,1731922393520,1731922393537,1731922393554,1731922393570,1731922393587,1731922393604,1731922393623,1731922393639,1731922393654,1731922393676,1731922393688,1731922393704,1731922393721,1731922393740,1731922393754,1731922393771,1731922393787,1731922393804,1731922393822,1731922393841,1731922393856,1731922393872,1731922393893,1731922393907,1731922393923,1731922393937,1731922393954,1731922393970,1731922393991,1731922394004,1731922394021,1731922394042,1731922394054,1731922394071,1731922394090,1731922394106,1731922394122,1731922394137,1731922394154,1731922394171,1731922394191,1731922394204,1731922394220,1731922394237,1731922394254,1731922394271,1731922394289,1731922394304,1731922394321,1731922394337,1731922394354,1731922394370,1731922394390,1731922394405,1731922394420,1731922394437,1731922394454,1731922394470,1731922394490,1731922394504,1731922394523,1731922394537,1731922394554,1731922394570,1731922394587,1731922394604,1731922394620,1731922394637,1731922394654,1731922394670,1731922394689,1731922394704,1731922394720,1731922394737,1731922394754,1731922394771,1731922394788,1731922394804,1731922394823,1731922394839,1731922394854,1731922394875,1731922394891,1731922394906,1731922394924,1731922394938,1731922394954,1731922394975,1731922394987,1731922395004,1731922395024,1731922395038,1731922395057,1731922395075,1731922395088,1731922395104,1731922395121,1731922395141,1731922395156,1731922395173,1731922395193,1731922395204,1731922395221,1731922395237,1731922395258,1731922395275,1731922395291,1731922395309,1731922395323,1731922395338,1731922395354,1731922395385,1731922395395,1731922395404,1731922395421,1731922395442,1731922395458,1731922395471,1731922395487,1731922395510,1731922395520,1731922395537,1731922395554,1731922395570,1731922395590,1731922395604,1731922395620,1731922395637,1731922395654,1731922395670,1731922395690,1731922395704,1731922395720,1731922395737,1731922395754,1731922395773,1731922395790,1731922395807,1731922395821,1731922395837,1731922395854,1731922395870,1731922395889,1731922395907,1731922395922,1731922395937,1731922395954,1731922395975,1731922395987,1731922396004,1731922396026,1731922396037,1731922396054,1731922396073,1731922396100,1731922396115,1731922396125,1731922396140,1731922396154,1731922396174,1731922396190,1731922396205,1731922396220,1731922396237,1731922396254,1731922396270,1731922396287,1731922396304,1731922396320,1731922396337,1731922396354,1731922396370,1731922396388,1731922396404,1731922396420,1731922396437,1731922396454,1731922396470,1731922396487,1731922396504,1731922396520,1731922396537,1731922396554,1731922396578,1731922396587,1731922396604,1731922396621,1731922396639,1731922396654,1731922396671,1731922396691,1731922396706,1731922396721,1731922396737,1731922396754,1731922396775,1731922396790,1731922396804,1731922396820,1731922396837,1731922396854,1731922396871,1731922396888,1731922396904,1731922396920,1731922396937,1731922396954,1731922396970,1731922396992,1731922397004,1731922397021,1731922397040,1731922397054,1731922397070,1731922397088,1731922397104,1731922397120,1731922397137,1731922397154,1731922397170,1731922397191,1731922397209,1731922397226,1731922397237,1731922397254,1731922397270,1731922397287,1731922397305,1731922397321,1731922397337,1731922397357,1731922397370,1731922397387,1731922397408,1731922397421,1731922397437,1731922397454,1731922397477,1731922397487,1731922397504,1731922397526,1731922397537,1731922397554,1731922397575,1731922397592,1731922397605,1731922397624,1731922397640,1731922397658,1731922397678,1731922397687,1731922397704,1731922397722,1731922397741,1731922397756,1731922397773,1731922397793,1731922397804,1731922397821,1731922397838,1731922397856,1731922397871,1731922397890,1731922397909]","[[1163,694.5],[1163,694.5],[1152.2,692.2],[1152.2,692.2],[1149.4,682.6],[1132.1,694.6],[1132.1,694.6],[1092.4,695.9],[1092.4,695.9],[1084.7,649.6],[1084.7,649.6],[1082.4,628.8],[1082.4,628.8],[1070.1,615.2],[1094.9,612.2],[1078.7,640.5],[1073.1,649.7],[1056.3,662.6],[1049.8,655.4],[1059.1,636.5],[1070.5,617.8],[1056.2,619.1],[1052.2,602.5],[1071.7,572],[1078.6,530.4],[1108.9,476.4],[1123.8,423.3],[1150.4,380],[1158.7,364.1],[1158.7,364.1],[1167.9,343.7],[1172.9,318.1],[1180.8,308],[1186.7,297.8],[1183.4,302.9],[1183.9,295.4],[1191.4,283.3],[1192.1,290.7],[1199.1,282.3],[1222.1,273.5],[1244.2,269.2],[1244.2,269.2],[1268,266.8],[1268,266.8],[1277.6,245.6],[1266,279.8],[1251.1,298.3],[1218,343.8],[1184.9,389.3],[1184.9,389.3],[1157.2,439.2],[1130.8,490.7],[1083.6,532],[1032.4,581.3],[986.7,637.3],[950.1,715.6],[925.2,761.4],[929.5,768.1],[953.4,765.6],[1005.3,726.2],[1059,665.5],[1105.5,607.5],[1122.5,591.2],[1127.7,588.5],[1127.4,579.1],[1115.7,583.7],[1115.5,565.5],[1089.4,602.1],[1014.5,647.3],[941.3,699.3],[880.5,743.7],[795.2,796.7],[776.2,801.1],[777,773.7],[760.3,763],[774.7,724.5],[774.7,724.5],[772.1,709],[786.4,658.9],[786.4,658.9],[833.8,610],[841.7,609.4],[834.2,618.9],[878.3,586.2],[884.5,568.5],[885.9,574.5],[892.6,562.5],[906.9,549.6],[926.6,512.5],[944.3,536.6],[941.2,537.6],[938.3,545.2],[958.5,517.8],[934.4,554.7],[929,581.1],[929,581.1],[925.6,581.9],[934.4,598.6],[907.2,592.2],[890.4,593.1],[866.3,579.5],[866.3,579.5],[845.4,575.5],[836,551.8],[836,551.8],[805.7,555.7],[827.8,531.1],[832.6,505.9],[809.5,502.9],[797.7,513.1],[795.1,538.2],[795.1,538.2],[804.1,552.7],[787.2,537.2],[805.7,541.6],[805.7,537.1],[803.5,540],[787.1,531.1],[767.2,550.6],[783.5,550.9],[788.5,523.4],[805.5,513.8],[805.5,513.8],[803.4,519.7],[803.4,519.7],[828.7,526.9],[828.7,526.9],[837.7,537.9],[837.7,537.9],[845.9,556],[845.9,556],[864.5,541.1],[864.5,541.1],[868.5,558.8],[899.8,527.9],[939.7,509.7],[939.7,509.7],[960.6,510.3],[982.6,495.9],[1027.3,448.8],[1054.6,456.1],[1085.8,445],[1085.8,445],[1134.4,430.6],[1158,454.8],[1159.2,463.4],[1126.4,501.1],[1103.5,528.2],[1099.6,536.5],[1107,559.6],[1100.4,604.4],[1088.5,609.1],[1066.5,622.7],[1054.1,632.1],[1054.1,632.1],[1051.1,621.5],[1085.6,596.1],[1085.6,596.1],[1128.8,585.9],[1149,583.2],[1149,583.2],[1162.8,575.5],[1164.6,553.8],[1165.2,523.3],[1165.2,523.3],[1162.4,532.7],[1162.4,532.7],[1180.7,510.1],[1169.6,512.3],[1181.1,537.5],[1177,565.8],[1166.9,573.5],[1190.3,567.3],[1205.9,570.6],[1213.7,589.6],[1213.7,589.6],[1238.5,628.2],[1263.8,625.1],[1263.8,625.1],[1297.4,631.4],[1340.8,613.6],[1380.4,598.4],[1380.4,598.4],[1420,583.2],[1445,578.5],[1425.5,573.6],[1410.2,586.3],[1394.9,599],[1385.6,586],[1392.2,579.6],[1374.4,583.8],[1374.5,585.5],[1362,577.3],[1344.9,571],[1339.1,567.9],[1361.5,585.8],[1370.5,593.6],[1404.7,592.9],[1398.9,606.9],[1423.4,618.1],[1420.2,627.8],[1424.9,629.4],[1424.9,629.4],[1409.4,658.3],[1405,665.3],[1416.2,682],[1415.1,673.9],[1417.4,661],[1411.8,658],[1411.6,665.6],[1375,653.7],[1366.1,643.3],[1336.8,652.8],[1323.7,639.6],[1304.6,646.3],[1301.4,626.4],[1285.9,620.5],[1313.1,634.6],[1303.8,633.1],[1302.1,612.6],[1319.4,602],[1337,599.8],[1337,599.8],[1353.3,577.1],[1377.7,563.2],[1398,549.8],[1398,542.9],[1375.2,546.7],[1334.6,522.6],[1253.2,512.5],[1177,511],[1081.6,515.1],[987.2,510.1],[987.2,510.1],[898.7,519.8],[803.8,515.1],[711,530.4],[620.2,539.9],[550.9,539.4],[460.4,555.1],[430.6,568.6],[413.7,565.3],[413.7,565.3],[419.3,584.3],[419.3,584.3],[404.5,588.7],[404.5,588.7],[394.1,611.5],[394.1,611.5],[391.9,615.2],[391.9,615.2],[388,608.1],[388,608.1],[393.4,608.5],[399.7,631.1],[431.8,656.6],[447.7,681.6],[466.2,726.3],[466.5,759],[476.3,792.4],[481.7,807.4],[480.6,841.1],[480.6,841.1],[594.3,831.3],[666.8,842],[725,829],[773.7,797.6],[843.2,763.2],[843.2,763.2],[897.2,725.9],[956.6,689.7],[1037.1,656.6],[1148.8,622.9],[1245.7,603],[1231,617],[1276.4,591.7],[1326.9,578.6],[1326.9,578.6],[1389.7,561],[1443,539],[1482.6,529.5],[1482.6,529.5],[1525.7,516.9],[1557.3,515.8],[1557.3,515.8],[1593.4,493.1],[1613.3,481],[1652.4,461.7],[1651.5,473.5],[1672.7,477.3],[1672.7,477.3],[1681.6,485.6],[1681.6,500.6],[1681.6,500.6],[1704.6,506.2],[1705.9,512.9],[1707.2,519.6],[1678.3,553.6],[1678.3,553.6],[1680,563.3],[1682.6,555.2],[1692.3,537.7],[1691.9,520.2],[1720.7,481.9],[1750.7,457.8],[1783.3,420],[1809.3,385.4],[1855,330.4],[1864.4,307.3],[1907,253.1],[1876,246.1],[1879.3,240],[1882.6,233.9],[1831.4,290.7],[1783,342.7],[1746.7,376.4],[1719.6,419.6],[1672.4,497.8],[1672.4,497.8],[1656,539],[1631.9,581.4],[1642,622.6],[1618.4,666.2],[1600.2,708.3],[1607.3,708.3],[1608.5,709],[1585.7,738.6],[1555.7,745.7],[1526.1,738.2],[1496.5,730.7],[1413.7,749.4],[1400.7,735.3],[1378,723.4],[1331.1,731.1],[1329.3,715],[1301.3,714.5],[1269.6,723.1],[1267.3,729.1],[1265,735.1],[1257.6,730],[1257.6,730],[1290.4,727.1],[1290.4,727.1],[1244,737.9],[1194,757.4],[1185,751.7],[1185,751.7],[1150.5,753],[1114.9,744.7],[1110.6,711.6],[1078.1,708.1],[1074.2,688.8],[1096.9,659.2],[1096.9,659.2],[1058,674.1],[1054.3,677.9],[1018.3,678.9],[999.3,682.7],[969.9,692.7],[993.7,693.3],[984.1,710.7],[993.9,702.7],[993.9,702.7],[993.5,698.6],[993.5,698.6],[956.2,706.2],[956.2,706.2],[955.9,687.2],[1002.8,666.6],[1002.8,666.6],[1130.6,660.7],[1219.2,646],[1219.2,646],[1236.7,652.5],[1252.8,645.6],[1240.1,649.1],[1226.8,655.7],[1226.8,655.7],[1195.1,674.2],[1215.3,688.6],[1243.4,698.5],[1217.8,719.2],[1173,711.1],[1173,711.1],[1098.9,733.1],[1135.8,711],[1163.2,699.2],[1205.1,639.8],[1247,580.4],[1285.8,536.2],[1288.1,505.8],[1306.5,459.3],[1324.9,412.8],[1315,384.2],[1344,327.8],[1300.1,334.5],[1266.5,348.6],[1275.1,378.3],[1283.7,408],[1320.1,424.2],[1320.1,424.2],[1300.5,458],[1265.5,477.9],[1265.5,477.9],[1233.4,522.6],[1202.8,546.8],[1154.4,586.8],[1154.4,586.8],[1131.7,584.2],[1075.6,580.3],[1000.2,595.3],[929.7,600.3],[874.7,578],[867.5,532.4],[863.8,504.9],[876.4,450.3],[905.9,403.2],[911.9,360.9],[916,331.6],[947.5,297.8],[975.3,266.8],[1017.8,240.9],[1020.1,240.6],[1021.3,244.9],[1015.7,251.4],[990.9,260.2],[963.6,275.7],[972.8,290.8],[961.8,298.5],[949.1,327.9],[937.3,356.1],[914.1,389],[892,426.4],[879.4,444.6],[873.6,460.6],[881.3,470.3],[881.3,470.3],[897.5,462.7],[893.6,463.3],[914.7,483.6],[926.5,449.2],[943.6,444.6],[952.5,440.2],[946.3,404.7],[939.9,389.5],[944,384.1],[933.1,360.4],[901.9,361.5],[886.1,338.8],[865.5,303.8],[863.2,303.3],[858.7,274.6],[836.6,243.3],[828.4,267.1],[829.5,277],[822.6,263.4],[817.2,274.4],[837.9,275],[854.5,285.6],[