inst1_resp.keys,inst1_resp.rt,calibrationMouse.x,calibrationMouse.y,calibrationMouse.leftButton,calibrationMouse.midButton,calibrationMouse.rightButton,calibrationClick.x,calibrationClick.y,calibrationClick.leftButton,calibrationClick.midButton,calibrationClick.rightButton,calibrationClick.clicked_name,trialsc.thisRepN,trialsc.thisTrialN,trialsc.thisN,trialsc.thisIndex,trialsc.ran,calibration_x,calibration_y,participant,session,date,expName,psychopyVersion,OS,frameRate,ScreenRes_pixels,Camera_pixels,mouse_2.x,mouse_2.y,mouse_2.leftButton,mouse_2.midButton,mouse_2.rightButton,mouse_2.time,mouse_2.clicked_name,mouse.x,mouse.y,mouse.leftButton,mouse.midButton,mouse.rightButton,mouse.time,mouse.clicked_name,Choice,Trial,TrialDuration,MOUSE_GAZE,ET_GAZE,ET_GAZE_x_T,time,unixTime,ET_GAZE_NF,Loc_Bus_label,Loc_Metro_label,Loc_RH_label,Loc_Cost_label,Loc_Travel_label,Loc_Comfort_label,Loc_Bus_cost,Loc_Metro_cost,Loc_RH_cost,Loc_Bus_travel,Loc_Metro_travel,Loc_RH_travel,Loc_Bus_comfort,Loc_Metro_comfort,Loc_RH_comfort,trials.thisRepN,trials.thisTrialN,trials.thisN,trials.thisIndex,trials.ran,Block,Device,RH_cost,RH_travel_time,RH_Comfort,metro_cost,metro_travel_time,metro_Comfort,Bus_cost,Bus_travel_time,Bus_Comfort
space,4.4919,0.036458333,-0.322222222,1,0,0,-0.329166667,-0.666666667,1,0,0,calibration_square,0,0,0,4,1,-0.33,-0.67,01,001,2024-11-19_11h30.21.829,Attention_exp_legacy,2023.1.0,Win32,59.88023952,,,,,,,,,,,,,,,,,,,,,,,,,,,,,,,,,,,,,,,,,,,,,,,,,,,,,,,,
,,,,,,,-0.334375,0.007407407,1,0,0,calibration_square,0,1,1,6,1,-0.33,0,01,001,2024-11-19_11h30.21.829,Attention_exp_legacy,2023.1.0,Win32,59.88023952,,,,,,,,,,,,,,,,,,,,,,,,,,,,,,,,,,,,,,,,,,,,,,,,,,,,,,,,
,,,,,,,0.335416667,-0.674074074,1,0,0,calibration_square,0,2,2,14,1,0.33,-0.67,01,001,2024-11-19_11h30.21.829,Attention_exp_legacy,2023.1.0,Win32,59.88023952,,,,,,,,,,,,,,,,,,,,,,,,,,,,,,,,,,,,,,,,,,,,,,,,,,,,,,,,
,,,,,,,-0.665625,0,1,0,0,calibration_square,0,3,3,2,1,-0.67,0,01,001,2024-11-19_11h30.21.829,Attention_exp_legacy,2023.1.0,Win32,59.88023952,,,,,,,,,,,,,,,,,,,,,,,,,,,,,,,,,,,,,,,,,,,,,,,,,,,,,,,,
,,,,,,,-0.323958333,0.666666667,1,0,0,calibration_square,0,4,4,8,1,-0.33,0.67,01,001,2024-11-19_11h30.21.829,Attention_exp_legacy,2023.1.0,Win32,59.88023952,,,,,,,,,,,,,,,,,,,,,,,,,,,,,,,,,,,,,,,,,,,,,,,,,,,,,,,,
,,,,,,,0.329166667,-0.324074074,1,0,0,calibration_square,0,5,5,15,1,0.33,-0.33,01,001,2024-11-19_11h30.21.829,Attention_exp_legacy,2023.1.0,Win32,59.88023952,,,,,,,,,,,,,,,,,,,,,,,,,,,,,,,,,,,,,,,,,,,,,,,,,,,,,,,,
,,,,,,,0.675,-0.664814815,1,0,0,calibration_square,0,6,6,20,1,0.67,-0.67,01,001,2024-11-19_11h30.21.829,Attention_exp_legacy,2023.1.0,Win32,59.88023952,,,,,,,,,,,,,,,,,,,,,,,,,,,,,,,,,,,,,,,,,,,,,,,,,,,,,,,,
,,,,,,,-0.665625,0.333333333,1,0,0,calibration_square,0,7,7,3,1,-0.67,0.33,01,001,2024-11-19_11h30.21.829,Attention_exp_legacy,2023.1.0,Win32,59.88023952,,,,,,,,,,,,,,,,,,,,,,,,,,,,,,,,,,,,,,,,,,,,,,,,,,,,,,,,
,,,,,,,0.326041667,0.001851852,1,0,0,calibration_square,0,8,8,16,1,0.33,0,01,001,2024-11-19_11h30.21.829,Attention_exp_legacy,2023.1.0,Win32,59.88023952,,,,,,,,,,,,,,,,,,,,,,,,,,,,,,,,,,,,,,,,,,,,,,,,,,,,,,,,
,,,,,,,-0.670833333,-0.327777778,1,0,0,calibration_square,0,9,9,1,1,-0.67,-0.33,01,001,2024-11-19_11h30.21.829,Attention_exp_legacy,2023.1.0,Win32,59.88023952,,,,,,,,,,,,,,,,,,,,,,,,,,,,,,,,,,,,,,,,,,,,,,,,,,,,,,,,
,,,,,,,0.322916667,0.327777778,1,0,0,calibration_square,0,10,10,17,1,0.33,0.33,01,001,2024-11-19_11h30.21.829,Attention_exp_legacy,2023.1.0,Win32,59.88023952,,,,,,,,,,,,,,,,,,,,,,,,,,,,,,,,,,,,,,,,,,,,,,,,,,,,,,,,
,,,,,,,0.002083333,-0.322222222,1,0,0,calibration_square,0,11,11,10,1,0,-0.33,01,001,2024-11-19_11h30.21.829,Attention_exp_legacy,2023.1.0,Win32,59.88023952,,,,,,,,,,,,,,,,,,,,,,,,,,,,,,,,,,,,,,,,,,,,,,,,,,,,,,,,
,,,,,,,-0.327083333,0.32962963,1,0,0,calibration_square,0,12,12,7,1,-0.33,0.33,01,001,2024-11-19_11h30.21.829,Attention_exp_legacy,2023.1.0,Win32,59.88023952,,,,,,,,,,,,,,,,,,,,,,,,,,,,,,,,,,,,,,,,,,,,,,,,,,,,,,,,
,,,,,,,0.002083333,0.322222222,1,0,0,calibration_square,0,13,13,12,1,0,0.33,01,001,2024-11-19_11h30.21.829,Attention_exp_legacy,2023.1.0,Win32,59.88023952,,,,,,,,,,,,,,,,,,,,,,,,,,,,,,,,,,,,,,,,,,,,,,,,,,,,,,,,
,,,,,,,0.659375,0.672222222,1,0,0,,0,14,14,19,1,0.67,0.67,01,001,2024-11-19_11h30.21.829,Attention_exp_legacy,2023.1.0,Win32,59.88023952,,,,,,,,,,,,,,,,,,,,,,,,,,,,,,,,,,,,,,,,,,,,,,,,,,,,,,,,
,,,,,,,0.005208333,0,1,0,0,calibration_square,0,15,15,11,1,0,0,01,001,2024-11-19_11h30.21.829,Attention_exp_legacy,2023.1.0,Win32,59.88023952,,,,,,,,,,,,,,,,,,,,,,,,,,,,,,,,,,,,,,,,,,,,,,,,,,,,,,,,
,,,,,,,-0.328125,-0.331481481,1,0,0,calibration_square,0,16,16,5,1,-0.33,-0.33,01,001,2024-11-19_11h30.21.829,Attention_exp_legacy,2023.1.0,Win32,59.88023952,,,,,,,,,,,,,,,,,,,,,,,,,,,,,,,,,,,,,,,,,,,,,,,,,,,,,,,,
,,,,,,,0.330208333,0.666666667,1,0,0,calibration_square,0,17,17,18,1,0.33,0.67,01,001,2024-11-19_11h30.21.829,Attention_exp_legacy,2023.1.0,Win32,59.88023952,,,,,,,,,,,,,,,,,,,,,,,,,,,,,,,,,,,,,,,,,,,,,,,,,,,,,,,,
,,,,,,,0.00625,0.67962963,1,0,0,calibration_square,0,18,18,13,1,0,0.67,01,001,2024-11-19_11h30.21.829,Attention_exp_legacy,2023.1.0,Win32,59.88023952,,,,,,,,,,,,,,,,,,,,,,,,,,,,,,,,,,,,,,,,,,,,,,,,,,,,,,,,
,,,,,,,-0.664583333,-0.67037037,1,0,0,calibration_square,0,19,19,0,1,-0.67,-0.67,01,001,2024-11-19_11h30.21.829,Attention_exp_legacy,2023.1.0,Win32,59.88023952,,,,,,,,,,,,,,,,,,,,,,,,,,,,,,,,,,,,,,,,,,,,,,,,,,,,,,,,
,,,,,,,-0.005208333,-0.675925926,1,0,0,calibration_square,0,20,20,9,1,0,-0.67,01,001,2024-11-19_11h30.21.829,Attention_exp_legacy,2023.1.0,Win32,59.88023952,,,,,,,,,,,,,,,,,,,,,,,,,,,,,,,,,,,,,,,,,,,,,,,,,,,,,,,,
,,,,,,,,,,,,,,,,,,,,01,001,2024-11-19_11h30.21.829,Attention_exp_legacy,2023.1.0,Win32,59.88023952,"[1920,1080]","[640,480]",[0.041666666666666664],[-0.4888888888888889],[1],[0],[0],[13.612900000095365],"[""StartButton""]",[-0.06979166666666667],[0.16111111111111112],[1],[0],[0],[5.943300000190732],"[""Bus_label""]",Bus_label,1,6.9752,"[[0.041666666666666664,-0.4888888888888889],[0.041666666666666664,-0.4888888888888889],[0.041666666666666664,-0.4888888888888889],[0.041666666666666664,-0.4888888888888889],[0.041666666666666664,-0.4888888888888889],[0.041666666666666664,-0.4888888888888889],[0.041666666666666664,-0.4888888888888889],[0.041666666666666664,-0.4888888888888889],[0.041666666666666664,-0.4888888888888889],[0.041666666666666664,-0.4888888888888889],[0.041666666666666664,-0.4888888888888889],[0.041666666666666664,-0.4888888888888889],[0.041666666666666664,-0.4888888888888889],[0.041666666666666664,-0.4888888888888889],[0.041666666666666664,-0.4888888888888889],[0.041666666666666664,-0.4888888888888889],[0.041666666666666664,-0.4888888888888889],[0.041666666666666664,-0.4888888888888889],[0.041666666666666664,-0.4888888888888889],[0.041666666666666664,-0.4888888888888889],[0.041666666666666664,-0.4888888888888889],[0.041666666666666664,-0.4888888888888889],[0.041666666666666664,-0.4888888888888889],[0.041666666666666664,-0.4888888888888889],[0.041666666666666664,-0.4888888888888889],[0.041666666666666664,-0.4888888888888889],[0.041666666666666664,-0.4888888888888889],[0.041666666666666664,-0.4888888888888889],[0.041666666666666664,-0.4888888888888889],[0.041666666666666664,-0.4888888888888889],[0.041666666666666664,-0.4888888888888889],[0.041666666666666664,-0.4888888888888889],[0.041666666666666664,-0.4888888888888889],[0.041666666666666664,-0.4888888888888889],[0.041666666666666664,-0.4888888888888889],[0.041666666666666664,-0.4888888888888889],[0.041666666666666664,-0.4888888888888889],[0.041666666666666664,-0.4888888888888889],[0.041666666666666664,-0.4888888888888889],[0.041666666666666664,-0.4888888888888889],[0.041666666666666664,-0.4888888888888889],[0.041666666666666664,-0.4888888888888889],[0.041666666666666664,-0.4888888888888889],[0.041666666666666664,-0.4888888888888889],[0.041666666666666664,-0.4888888888888889],[0.041666666666666664,-0.4888888888888889],[0.041666666666666664,-0.4888888888888889],[0.041666666666666664,-0.4888888888888889],[0.041666666666666664,-0.4888888888888889],[0.041666666666666664,-0.4888888888888889],[0.041666666666666664,-0.4888888888888889],[0.041666666666666664,-0.4888888888888889],[0.041666666666666664,-0.4888888888888889],[0.041666666666666664,-0.4888888888888889],[0.041666666666666664,-0.4888888888888889],[0.041666666666666664,-0.4888888888888889],[0.041666666666666664,-0.4888888888888889],[0.041666666666666664,-0.4888888888888889],[0.041666666666666664,-0.4888888888888889],[0.041666666666666664,-0.4888888888888889],[0.041666666666666664,-0.4888888888888889],[0.041666666666666664,-0.4888888888888889],[0.041666666666666664,-0.4888888888888889],[0.041666666666666664,-0.4888888888888889],[0.041666666666666664,-0.4888888888888889],[0.041666666666666664,-0.4888888888888889],[0.041666666666666664,-0.4888888888888889],[0.041666666666666664,-0.4888888888888889],[0.041666666666666664,-0.4888888888888889],[0.041666666666666664,-0.4888888888888889],[0.041666666666666664,-0.4888888888888889],[0.041666666666666664,-0.4888888888888889],[0.041666666666666664,-0.4888888888888889],[0.041666666666666664,-0.4888888888888889],[0.041666666666666664,-0.4888888888888889],[0.041666666666666664,-0.4888888888888889],[0.041666666666666664,-0.4888888888888889],[0.041666666666666664,-0.4888888888888889],[0.041666666666666664,-0.4888888888888889],[0.041666666666666664,-0.4888888888888889],[0.041666666666666664,-0.4888888888888889],[0.041666666666666664,-0.4888888888888889],[0.04479166666666667,-0.4888888888888889],[0.04895833333333333,-0.48703703703703705],[0.051041666666666666,-0.48518518518518516],[0.053125,-0.47962962962962963],[0.053125,-0.47962962962962963],[0.053125,-0.47962962962962963],[0.053125,-0.4777777777777778],[0.053125,-0.4777777777777778],[0.053125,-0.4777777777777778],[0.053125,-0.4777777777777778],[0.053125,-0.4777777777777778],[0.053125,-0.4777777777777778],[0.053125,-0.4777777777777778],[0.053125,-0.4777777777777778],[0.053125,-0.4777777777777778],[0.053125,-0.4777777777777778],[0.053125,-0.4777777777777778],[0.053125,-0.4777777777777778],[0.053125,-0.4777777777777778],[0.053125,-0.4777777777777778],[0.053125,-0.4777777777777778],[0.053125,-0.4777777777777778],[0.053125,-0.4777777777777778],[0.053125,-0.4777777777777778],[0.053125,-0.4777777777777778],[0.053125,-0.4777777777777778],[0.053125,-0.4777777777777778],[0.053125,-0.4777777777777778],[0.053125,-0.4777777777777778],[0.053125,-0.4777777777777778],[0.053125,-0.4777777777777778],[0.053125,-0.4777777777777778],[0.053125,-0.4777777777777778],[0.053125,-0.4777777777777778],[0.053125,-0.4777777777777778],[0.053125,-0.4777777777777778],[0.053125,-0.4777777777777778],[0.053125,-0.4777777777777778],[0.053125,-0.4777777777777778],[0.053125,-0.4777777777777778],[0.053125,-0.4777777777777778],[0.053125,-0.4777777777777778],[0.053125,-0.4777777777777778],[0.053125,-0.4777777777777778],[0.053125,-0.4777777777777778],[0.053125,-0.4777777777777778],[0.053125,-0.4777777777777778],[0.053125,-0.4777777777777778],[0.053125,-0.4777777777777778],[0.053125,-0.4777777777777778],[0.053125,-0.4777777777777778],[0.053125,-0.4777777777777778],[0.053125,-0.4777777777777778],[0.053125,-0.4777777777777778],[0.053125,-0.4777777777777778],[0.053125,-0.4777777777777778],[0.053125,-0.4777777777777778],[0.053125,-0.4777777777777778],[0.053125,-0.4777777777777778],[0.053125,-0.4777777777777778],[0.053125,-0.4777777777777778],[0.053125,-0.4777777777777778],[0.053125,-0.4777777777777778],[0.053125,-0.4777777777777778],[0.053125,-0.4759259259259259],[0.052083333333333336,-0.4759259259259259],[0.052083333333333336,-0.4759259259259259],[0.052083333333333336,-0.4759259259259259],[0.052083333333333336,-0.4759259259259259],[0.052083333333333336,-0.4759259259259259],[0.052083333333333336,-0.4759259259259259],[0.052083333333333336,-0.4759259259259259],[0.052083333333333336,-0.4759259259259259],[0.052083333333333336,-0.4759259259259259],[0.052083333333333336,-0.4759259259259259],[0.052083333333333336,-0.4759259259259259],[0.052083333333333336,-0.4759259259259259],[0.052083333333333336,-0.4759259259259259],[0.052083333333333336,-0.4759259259259259],[0.052083333333333336,-0.4759259259259259],[0.052083333333333336,-0.4759259259259259],[0.052083333333333336,-0.4759259259259259],[0.052083333333333336,-0.4759259259259259],[0.052083333333333336,-0.4759259259259259],[0.052083333333333336,-0.4759259259259259],[0.052083333333333336,-0.4759259259259259],[0.052083333333333336,-0.4759259259259259],[0.052083333333333336,-0.4759259259259259],[0.052083333333333336,-0.4759259259259259],[0.052083333333333336,-0.4759259259259259],[0.052083333333333336,-0.4759259259259259],[0.052083333333333336,-0.4759259259259259],[0.052083333333333336,-0.4759259259259259],[0.052083333333333336,-0.4759259259259259],[0.052083333333333336,-0.4759259259259259],[0.052083333333333336,-0.4759259259259259],[0.052083333333333336,-0.4759259259259259],[0.052083333333333336,-0.4759259259259259],[0.052083333333333336,-0.4759259259259259],[0.052083333333333336,-0.4759259259259259],[0.052083333333333336,-0.4759259259259259],[0.052083333333333336,-0.4759259259259259],[0.052083333333333336,-0.4759259259259259],[0.052083333333333336,-0.4759259259259259],[0.052083333333333336,-0.4759259259259259],[0.052083333333333336,-0.4759259259259259],[0.052083333333333336,-0.4759259259259259],[0.052083333333333336,-0.4759259259259259],[0.053125,-0.4759259259259259],[0.053125,-0.4759259259259259],[0.053125,-0.4759259259259259],[0.053125,-0.4759259259259259],[0.053125,-0.4759259259259259],[0.053125,-0.4759259259259259],[0.053125,-0.4759259259259259],[0.053125,-0.4759259259259259],[0.053125,-0.4759259259259259],[0.053125,-0.4759259259259259],[0.053125,-0.4759259259259259],[0.053125,-0.4759259259259259],[0.053125,-0.4759259259259259],[0.053125,-0.4759259259259259],[0.053125,-0.4759259259259259],[0.053125,-0.4759259259259259],[0.053125,-0.4759259259259259],[0.053125,-0.4759259259259259],[0.053125,-0.4759259259259259],[0.053125,-0.4759259259259259],[0.053125,-0.4759259259259259],[0.053125,-0.4759259259259259],[0.053125,-0.4759259259259259],[0.053125,-0.4759259259259259],[0.053125,-0.4759259259259259],[0.053125,-0.4759259259259259],[0.053125,-0.4759259259259259],[0.053125,-0.4759259259259259],[0.053125,-0.4759259259259259],[0.053125,-0.4759259259259259],[0.053125,-0.4759259259259259],[0.053125,-0.4759259259259259],[0.053125,-0.4759259259259259],[0.053125,-0.4759259259259259],[0.053125,-0.4759259259259259],[0.053125,-0.4759259259259259],[0.053125,-0.4759259259259259],[0.053125,-0.4759259259259259],[0.053125,-0.4759259259259259],[0.053125,-0.4759259259259259],[0.053125,-0.4759259259259259],[0.053125,-0.4759259259259259],[0.053125,-0.4759259259259259],[0.053125,-0.4759259259259259],[0.053125,-0.4759259259259259],[0.053125,-0.4759259259259259],[0.053125,-0.4759259259259259],[0.053125,-0.4759259259259259],[0.053125,-0.4759259259259259],[0.053125,-0.4759259259259259],[0.053125,-0.4759259259259259],[0.053125,-0.4759259259259259],[0.053125,-0.4759259259259259],[0.053125,-0.4759259259259259],[0.053125,-0.4759259259259259],[0.053125,-0.4759259259259259],[0.053125,-0.4759259259259259],[0.05416666666666667,-0.4777777777777778],[0.05416666666666667,-0.4777777777777778],[0.05416666666666667,-0.4777777777777778],[0.05416666666666667,-0.4777777777777778],[0.05416666666666667,-0.4777777777777778],[0.05416666666666667,-0.4777777777777778],[0.05416666666666667,-0.4777777777777778],[0.05416666666666667,-0.4777777777777778],[0.05416666666666667,-0.4777777777777778],[0.05416666666666667,-0.4777777777777778],[0.05416666666666667,-0.4777777777777778],[0.05416666666666667,-0.4777777777777778],[0.05416666666666667,-0.4777777777777778],[0.05416666666666667,-0.4777777777777778],[0.05416666666666667,-0.4777777777777778],[0.05416666666666667,-0.4722222222222222],[0.052083333333333336,-0.46111111111111114],[0.052083333333333336,-0.45],[0.051041666666666666,-0.44074074074074077],[0.05,-0.43148148148148147],[0.04895833333333333,-0.42777777777777776],[0.04895833333333333,-0.42592592592592593],[0.04895833333333333,-0.4222222222222222],[0.04895833333333333,-0.4222222222222222],[0.04791666666666667,-0.4203703703703704],[0.04791666666666667,-0.4203703703703704],[0.04791666666666667,-0.4203703703703704],[0.04791666666666667,-0.4203703703703704],[0.04791666666666667,-0.4203703703703704],[0.04791666666666667,-0.4203703703703704],[0.04791666666666667,-0.4203703703703704],[0.046875,-0.4166666666666667],[0.046875,-0.4111111111111111],[0.042708333333333334,-0.3962962962962963],[0.03958333333333333,-0.38333333333333336],[0.034375,-0.36666666666666664],[0.023958333333333335,-0.31851851851851853],[0.01875,-0.3037037037037037],[0.014583333333333334,-0.28888888888888886],[0.005208333333333333,-0.2722222222222222],[-0.0010416666666666667,-0.2574074074074074],[-0.003125,-0.24814814814814815],[-0.003125,-0.24814814814814815],[-0.003125,-0.24814814814814815],[-0.003125,-0.24814814814814815],[-0.003125,-0.24814814814814815],[-0.003125,-0.24814814814814815],[-0.003125,-0.24814814814814815],[-0.003125,-0.24814814814814815],[-0.003125,-0.24814814814814815],[0.003125,-0.24814814814814815],[0.003125,-0.24814814814814815],[0.003125,-0.24814814814814815],[0.003125,-0.24814814814814815],[0.003125,-0.2462962962962963],[-0.0010416666666666667,-0.24074074074074073],[-0.008333333333333333,-0.23333333333333334],[-0.013541666666666667,-0.22592592592592592],[-0.017708333333333333,-0.21666666666666667],[-0.026041666666666668,-0.19814814814814816],[-0.03229166666666667,-0.18888888888888888],[-0.040625,-0.17592592592592593],[-0.046875,-0.16666666666666666],[-0.052083333333333336,-0.15925925925925927],[-0.05625,-0.15185185185185185],[-0.057291666666666664,-0.15185185185185185],[-0.057291666666666664,-0.15185185185185185],[-0.057291666666666664,-0.15185185185185185],[-0.057291666666666664,-0.15185185185185185],[-0.057291666666666664,-0.15185185185185185],[-0.057291666666666664,-0.15185185185185185],[-0.057291666666666664,-0.15185185185185185],[-0.059375,-0.14629629629629629],[-0.06041666666666667,-0.13333333333333333],[-0.06041666666666667,-0.12037037037037036],[-0.06145833333333333,-0.08518518518518518],[-0.06354166666666666,-0.04259259259259259],[-0.065625,-0.007407407407407408],[-0.06666666666666667,0.014814814814814815],[-0.06875,0.03518518518518519],[-0.07083333333333333,0.053703703703703705],[-0.071875,0.06481481481481481],[-0.07395833333333333,0.07222222222222222],[-0.075,0.07962962962962963],[-0.075,0.08518518518518518],[-0.075,0.08888888888888889],[-0.075,0.0962962962962963],[-0.075,0.1037037037037037],[-0.075,0.1111111111111111],[-0.075,0.12037037037037036],[-0.075,0.12407407407407407],[-0.075,0.12962962962962962],[-0.075,0.13703703703703704],[-0.07395833333333333,0.15],[-0.07395833333333333,0.15185185185185185],[-0.07395833333333333,0.15555555555555556],[-0.07395833333333333,0.1574074074074074],[-0.07395833333333333,0.1574074074074074],[-0.07395833333333333,0.1574074074074074],[-0.07291666666666667,0.1574074074074074],[-0.071875,0.15925925925925927],[-0.06979166666666667,0.16111111111111112],[-0.06979166666666667,0.16111111111111112],[-0.06979166666666667,0.16111111111111112],[-0.06979166666666667,0.16111111111111112],[-0.06979166666666667,0.16111111111111112],[-0.06979166666666667,0.16111111111111112],[-0.06979166666666667,0.16111111111111112],[-0.06979166666666667,0.16111111111111112],[-0.06979166666666667,0.16111111111111112],[-0.06979166666666667,0.16111111111111112],[-0.06979166666666667,0.16111111111111112],[-0.06979166666666667,0.16111111111111112],[-0.06979166666666667,0.16111111111111112],[-0.06979166666666667,0.16111111111111112],[-0.06979166666666667,0.16111111111111112],[-0.06979166666666667,0.16111111111111112],[-0.06979166666666667,0.16111111111111112],[-0.06979166666666667,0.16111111111111112],[-0.06979166666666667,0.16111111111111112],[-0.06979166666666667,0.16111111111111112],[-0.06979166666666667,0.16111111111111112],[-0.06979166666666667,0.16111111111111112],[-0.06979166666666667,0.16111111111111112],[-0.06979166666666667,0.16111111111111112],[-0.06979166666666667,0.16111111111111112],[-0.06979166666666667,0.16111111111111112],[-0.06979166666666667,0.16111111111111112],[-0.06979166666666667,0.16111111111111112],[-0.06979166666666667,0.16111111111111112],[-0.06979166666666667,0.16111111111111112],[-0.06979166666666667,0.16111111111111112],[-0.06979166666666667,0.16111111111111112],[-0.06979166666666667,0.16111111111111112],[-0.06979166666666667,0.16111111111111112],[-0.06979166666666667,0.16111111111111112],[-0.06979166666666667,0.16111111111111112],[-0.06979166666666667,0.16111111111111112],[-0.06979166666666667,0.16111111111111112],[-0.06979166666666667,0.16111111111111112],[-0.06979166666666667,0.16111111111111112],[-0.06979166666666667,0.16111111111111112],[-0.06979166666666667,0.16111111111111112],[-0.06979166666666667,0.16111111111111112],[-0.06979166666666667,0.16111111111111112],[-0.06979166666666667,0.16111111111111112],[-0.06979166666666667,0.16111111111111112],[-0.06979166666666667,0.16111111111111112],[-0.06979166666666667,0.16111111111111112],[-0.06979166666666667,0.16111111111111112],[-0.06979166666666667,0.16111111111111112],[-0.06979166666666667,0.16111111111111112],[-0.06979166666666667,0.16111111111111112],[-0.06979166666666667,0.16111111111111112],[-0.06979166666666667,0.16111111111111112],[-0.06979166666666667,0.16111111111111112],[-0.06979166666666667,0.16111111111111112],[-0.06979166666666667,0.16111111111111112],[-0.06979166666666667,0.16111111111111112],[-0.06979166666666667,0.16111111111111112],[-0.06979166666666667,0.16111111111111112],[-0.06979166666666667,0.16111111111111112],[-0.06979166666666667,0.16111111111111112],[-0.06979166666666667,0.16111111111111112],[-0.06979166666666667,0.16111111111111112],[-0.06979166666666667,0.16111111111111112],[-0.06979166666666667,0.16111111111111112],[-0.06979166666666667,0.16111111111111112],[-0.06979166666666667,0.16111111111111112],[-0.06979166666666667,0.16111111111111112]]","[[0.11177083333333329,0.24240740740740738],[0.11177083333333329,0.24240740740740738],[0.09416666666666676,0.24574074074074082],[0.09416666666666676,0.24574074074074082],[0.10510416666666676,0.2831481481481481],[0.10510416666666676,0.2831481481481481],[0.10885416666666667,0.23944444444444435],[0.10885416666666667,0.23944444444444435],[0.11145833333333334,0.21777777777777782],[0.11145833333333334,0.21777777777777782],[0.09864583333333338,0.17240740740740745],[0.09864583333333338,0.17240740740740745],[0.09406249999999995,0.20870370370370378],[0.09406249999999995,0.20870370370370378],[0.09010416666666667,0.1764814814814814],[0.08010416666666677,0.1527777777777778],[0.07052083333333338,0.14833333333333337],[0.06375000000000004,0.1492592592592593],[0.06635416666666671,0.12166666666666676],[0.06177083333333329,0.08462962962962971],[0.05333333333333338,0.07074074074074083],[0.05593750000000005,0.09425925925925922],[0.04802083333333336,0.11037037037037041],[0.025625000000000023,0.06999999999999991],[0.014479166666666644,0.054074074074074156],[0.007395833333333357,0.057962962962962876],[-0.005729166666666666,0.0698148148148149],[-0.01885416666666669,0.0816666666666667],[-0.028854166666666715,0.05388888888888893],[-0.03885416666666662,0.026111111111111154],[-0.034687499999999954,0.07574074074074069],[-0.03083333333333336,0.07592592592592592],[-0.010312499999999976,0.0801851851851851],[-0.010312499999999976,0.0801851851851851],[0.010208333333333286,0.08444444444444449],[0.027187500000000024,0.11685185185185189],[0.033958333333333354,0.12129629629629629],[0.04656250000000005,0.10333333333333325],[0.06625000000000002,0.08481481481481473],[0.07541666666666676,0.10537037037037032],[0.08302083333333338,0.122037037037037],[0.08229166666666667,0.09796296296296292],[0.0890625,0.10407407407407415],[0.09479166666666666,0.11907407407407399],[0.09552083333333337,0.09388888888888898],[0.09333333333333324,0.0514814814814814],[0.1068749999999999,0.04888888888888885],[0.12041666666666657,0.046296296296296294],[0.12322916666666663,0.05259259259259255],[0.12604166666666666,0.0588888888888888],[0.1271874999999999,0.06592592592592597],[0.12833333333333338,0.07296296296296292],[0.1171875,0.055000000000000084],[0.10604166666666662,0.037037037037037035],[0.08833333333333329,0.052037037037037076],[0.07062499999999995,0.06703703703703712],[0.06927083333333334,0.0588888888888888],[0.06791666666666671,0.0507407407407407],[0.06156250000000003,0.04296296296296305],[0.05520833333333333,0.03518518518518519],[0.03572916666666662,0.04314814814814806],[0.016250000000000025,0.051111111111111156],[0.005416666666666714,0.02962962962962963],[-0.005416666666666714,0.008148148148148106],[-0.016562499999999977,0.012222222222222264],[-0.027708333333333356,0.01629629629629621],[-0.058333333333333334,0.02907407407407416],[-0.0889583333333333,0.0418518518518519],[-0.11645833333333329,0.02166666666666675],[-0.14395833333333338,0.0014814814814813973],[-0.14947916666666666,-0.010185185185185186],[-0.15499999999999994,-0.021851851851851768],[-0.16479166666666673,-0.011296296296296339],[-0.17458333333333337,-0.0007407407407406986],[-0.1764583333333333,-0.010370370370370412],[-0.17833333333333337,-0.019999999999999917],[-0.1733333333333333,-0.02111111111111107],[-0.16833333333333336,-0.022222222222222223],[-0.16177083333333328,0.02296296296296292],[-0.15520833333333334,0.06814814814814807],[-0.15395833333333328,0.08648148148148156],[-0.15270833333333336,0.10481481481481486],[-0.16062500000000005,0.07074074074074083],[-0.14010416666666667,0.11870370370370374],[-0.11041666666666666,0.19462962962962968],[-0.08072916666666667,0.2705555555555556],[-0.08072916666666667,0.2705555555555556],[-0.08229166666666667,0.3168518518518519],[-0.05479166666666669,0.3557407407407408],[-0.02333333333333331,0.3725925925925927],[-0.02333333333333331,0.3725925925925927],[-0.01427083333333338,0.40111111111111114],[0.007500000000000047,0.40314814814814826],[0.029270833333333357,0.4051851851851851],[0.03604166666666669,0.4933333333333333],[0.014374999999999952,0.4994444444444445],[-0.008854166666666666,0.444074074074074],[-0.03208333333333328,0.38870370370370366],[-0.007395833333333357,0.37111111111111106],[-0.030729166666666665,0.35703703703703693],[-0.04593750000000003,0.3616666666666666],[-0.04885416666666664,0.35425925925925916],[-0.03427083333333331,0.32944444444444443],[-0.036666666666666715,0.3127777777777777],[-0.013854166666666619,0.3001851851851852],[-0.008020833333333382,0.2957407407407408],[-0.010104166666666714,0.3425925925925926],[-0.012187500000000047,0.38944444444444437],[-0.029375000000000047,0.41203703703703703],[-0.027604166666666666,0.4385185185185184],[-0.022708333333333285,0.4101851851851852],[-0.007708333333333309,0.3822222222222222],[-0.013854166666666619,0.4272222222222223],[-0.00302083333333331,0.46407407407407414],[0.00302083333333331,0.44944444444444454],[0.026041666666666668,0.42666666666666664],[0.06458333333333334,0.40370370370370373],[0.10385416666666672,0.39444444444444443],[0.10385416666666672,0.39444444444444443],[0.13229166666666667,0.39537037037037037],[0.15343749999999995,0.34148148148148144],[0.15343749999999995,0.34148148148148144],[0.16333333333333327,0.3237037037037036],[0.16333333333333327,0.3237037037037036],[0.17447916666666666,0.3077777777777779],[0.17447916666666666,0.3077777777777779],[0.17156250000000003,0.31444444444444436],[0.17156250000000003,0.31444444444444436],[0.16072916666666662,0.30166666666666664],[0.16072916666666662,0.30166666666666664],[0.15583333333333324,0.27925925925925915],[0.15583333333333324,0.27925925925925915],[0.1640625,0.28703703703703703],[0.1640625,0.28703703703703703],[0.15145833333333342,0.2935185185185185],[0.15145833333333342,0.2935185185185185],[0.14593749999999991,0.25500000000000006],[0.14593749999999991,0.25500000000000006],[0.1397916666666667,0.22814814814814824],[0.1397916666666667,0.22814814814814824],[0.1400000000000001,0.2351851851851852],[0.1400000000000001,0.2351851851851852],[0.15333333333333338,0.29981481481481476],[0.1502083333333334,0.35259259259259257],[0.1502083333333334,0.35259259259259257],[0.15177083333333338,0.3594444444444445],[0.1556250000000001,0.35777777777777786],[0.15427083333333325,0.4],[0.1384375000000001,0.36018518518518516],[0.134375,0.3118518518518518],[0.12333333333333343,0.3296296296296296],[0.11906249999999995,0.31962962962962965],[0.11906249999999995,0.31962962962962965],[0.10499999999999995,0.3194444444444444],[0.08520833333333329,0.2748148148148148],[0.07114583333333328,0.225],[0.06729166666666657,0.20666666666666672],[0.058229166666666644,0.19074074074074074],[0.058229166666666644,0.19074074074074074],[0.05677083333333333,0.16666666666666666],[0.04729166666666664,0.14203703703703713],[0.04093749999999995,0.12777777777777777],[0.029999999999999954,0.10111111111111115],[0.021562500000000047,0.11203703703703703],[0.02010416666666662,0.10425925925925918],[0.022187499999999954,0.09962962962962954],[0.012187500000000047,0.11833333333333329],[0.00635416666666669,0.12370370370370362],[-0.0014583333333333095,0.0992592592592593],[-0.0014583333333333095,0.0992592592592593],[-0.008958333333333356,0.10277777777777777],[-0.008958333333333356,0.10277777777777777],[-0.011562500000000024,0.1361111111111111],[-0.005833333333333357,0.1875925925925925],[-0.012916666666666642,0.19166666666666668],[-0.019375000000000024,0.16407407407407412],[-0.029375000000000047,0.13703703703703704],[-0.050312499999999954,0.09370370370370375],[-0.06760416666666665,0.0837037037037038],[-0.09322916666666667,0.045740740740740825],[-0.10499999999999995,0.04537037037037037],[-0.11333333333333329,0.010185185185185186],[-0.11604166666666664,0.05537037037037033],[-0.12833333333333338,0.0455555555555556],[-0.11697916666666662,0.015555555555555513],[-0.11437499999999995,0.022222222222222223],[-0.11052083333333336,0.05981481481481473],[-0.1046875,0.09888888888888885],[-0.08250000000000005,0.09277777777777782],[-0.06666666666666667,0.11555555555555551],[-0.06697916666666662,0.1507407407407407],[-0.041458333333333285,0.15981481481481474],[-0.028750000000000022,0.10962962962962972],[-0.008437500000000023,0.08148148148148149],[-0.003125,0.11574074074074074],[0.013125000000000024,0.12222222222222222],[-0.001979166666666643,0.11740740740740736],[0.01572916666666669,0.12833333333333324],[0.010312499999999976,0.1655555555555555],[0.03427083333333331,0.15203703703703708],[0.04614583333333329,0.15092592592592594],[0.029791666666666692,0.15351851851851847],[0.03135416666666669,0.17240740740740745],[0.021249999999999977,0.18981481481481483],[0.027499999999999976,0.2412962962962962],[0.022291666666666644,0.294074074074074],[0.050833333333333286,0.2807407407407408],[0.044062499999999956,0.25388888888888894],[0.06427083333333337,0.2125925925925925],[0.05541666666666671,0.202962962962963],[0.07947916666666661,0.21351851851851844],[0.09802083333333324,0.24296296296296305],[0.10364583333333334,0.2711111111111111],[0.11624999999999991,0.27685185185185185],[0.11572916666666658,0.23111111111111102],[0.12083333333333333,0.17074074074074083],[0.12947916666666662,0.18111111111111103],[0.13864583333333325,0.18777777777777774],[0.14500000000000005,0.20777777777777787],[0.15135416666666662,0.22777777777777777],[0.14385416666666656,0.23296296296296287],[0.13635416666666675,0.2381481481481482],[0.13895833333333343,0.1853703703703704],[0.13541666666666666,0.1485185185185186],[0.13072916666666667,0.15629629629629627],[0.12416666666666672,0.1638888888888889],[0.11843750000000004,0.14240740740740737],[0.1056250000000001,0.14722222222222223],[0.10031249999999996,0.14129629629629623],[0.10031249999999996,0.14129629629629623],[0.08895833333333343,0.13222222222222219],[0.08895833333333343,0.13222222222222219],[0.07822916666666657,0.13407407407407404],[0.0734375,0.11537037037037029],[0.049479166666666664,0.15388888888888894],[0.024687500000000046,0.19888888888888884],[0.015416666666666618,0.14907407407407408],[0.015416666666666618,0.14907407407407408],[-0.000416666666666643,0.0911111111111112],[-0.000416666666666643,0.0911111111111112],[-0.020937500000000022,0.12296296296296293],[-0.03104166666666662,0.11148148148148157],[-0.03104166666666662,0.11148148148148157],[-0.051041666666666666,0.09314814814814806],[-0.04572916666666664,0.09759259259259268],[-0.0421875,0.09592592592592585],[-0.04604166666666672,0.04740740740740745],[-0.03947916666666664,0.016666666666666666],[-0.02374999999999995,-0.000925925925925926],[-0.008645833333333287,0.07740740740740733],[0.000416666666666643,0.10333333333333325],[0.004999999999999952,0.10351851851851848],[0.004999999999999952,0.10351851851851848],[0.02166666666666662,0.10962962962962972],[0.02166666666666662,0.10962962962962972],[0.017812500000000023,0.13240740740740742],[0.017812500000000023,0.13240740740740742],[0.016875000000000046,0.16592592592592598],[0.016875000000000046,0.16592592592592598],[-0.005208333333333333,0.17740740740740732],[-0.005208333333333333,0.17740740740740732],[0.002499999999999976,0.23703703703703705],[0.002499999999999976,0.23703703703703705],[-0.0006250000000000236,0.2594444444444445],[-0.0006250000000000236,0.2594444444444445],[-0.007708333333333309,0.2566666666666667],[-0.007708333333333309,0.2566666666666667],[-0.011354166666666643,0.2537037037037037],[-0.011354166666666643,0.2537037037037037],[-0.019270833333333334,0.31259259259259253],[-0.019270833333333334,0.31259259259259253],[-0.0140625,0.3362962962962963],[-0.0140625,0.3362962962962963],[-0.01729166666666669,0.3816666666666667],[-0.01729166666666669,0.3816666666666667],[-0.013229166666666714,0.3987037037037036],[-0.013229166666666714,0.3987037037037036],[-0.013854166666666619,0.38944444444444437],[0.015625,0.38055555555555554],[0.011041666666666691,0.4074074074074074],[0.013854166666666619,0.41759259259259257],[0.027291666666666714,0.4396296296296296],[0.027291666666666714,0.4396296296296296],[0.02333333333333331,0.43499999999999994],[0.026041666666666668,0.3875925925925925],[0.024062500000000025,0.3453703703703704],[0.02781250000000005,0.3785185185185185],[0.04864583333333338,0.3824074074074074],[0.051979166666666646,0.3822222222222222],[0.051979166666666646,0.3822222222222222],[0.043229166666666666,0.36629629629629623],[0.04229166666666669,0.48333333333333334],[0.04229166666666669,0.48333333333333334],[0.051979166666666646,0.5672222222222222],[0.03916666666666669,0.6896296296296296],[0.03125,0.7933333333333333],[0.02177083333333331,0.9944444444444445],[0.022395833333333334,1.1961111111111113],[0.022500000000000023,1.1644444444444444],[0.02166666666666662,1.1698148148148149],[0.009583333333333381,1.1824074074074074],[0.009895833333333333,1.2151851851851854],[0.024374999999999977,1.1401851851851852],[0.03697916666666667,1.1216666666666668],[0.03270833333333331,1.026111111111111],[0.028437499999999952,0.9305555555555556],[0.042708333333333334,0.7718518518518518],[0.036354166666666646,0.5987037037037036],[0.03822916666666672,0.568888888888889],[0.011041666666666691,0.5416666666666666],[0.019166666666666644,0.5361111111111111],[0.00947916666666669,0.5031481481481482],[-0.007395833333333357,0.4372222222222223],[-0.029375000000000047,0.3531481481481482],[-0.018229166666666668,0.3387037037037037],[-0.0034374999999999527,0.2857407407407407],[-0.008645833333333287,0.2853703703703704],[-0.012187500000000047,0.31074074074074065],[-0.021145833333333287,0.318888888888889],[-0.00614583333333331,0.2964814814814815],[-0.01854166666666662,0.2603703703703704],[-0.01864583333333331,0.26962962962962966],[-0.008333333333333333,0.28833333333333344],[-0.00458333333333331,0.3175925925925926],[-0.00458333333333331,0.3175925925925926],[-0.027499999999999976,0.33611111111111114],[-0.041562499999999974,0.3494444444444445],[-0.041562499999999974,0.3494444444444445],[-0.04666666666666662,0.305925925925926],[-0.04874999999999995,0.24592592592592585],[-0.04874999999999995,0.24592592592592585],[-0.06427083333333337,0.2044444444444444],[-0.07937500000000004,0.19296296296296306],[-0.08385416666666666,0.16999999999999993],[-0.06520833333333335,0.15351851851851847],[-0.08614583333333338,0.11425925925925934],[-0.09666666666666662,0.07814814814814823],[-0.09666666666666662,0.07814814814814823],[-0.08770833333333337,0.007592592592592635],[-0.08510416666666672,-0.03833333333333342],[-0.09031250000000005,0.018148148148148063],[-0.09031250000000005,0.018148148148148063],[-0.08416666666666663,0.020740740740740823],[-0.07072916666666665,0.03333333333333333],[-0.05260416666666667,0.01648148148148144],[-0.041770833333333354,-0.004074074074074159],[-0.05479166666666669,-0.03314814814814811],[-0.050833333333333286,-0.06166666666666669],[-0.03999999999999997,-0.06962962962962967],[-0.03999999999999997,-0.06962962962962967],[-0.03156249999999995,-0.06333333333333331],[-0.03156249999999995,-0.06333333333333331],[-0.027083333333333334,-0.05240740740740743],[-0.015416666666666618,-0.12388888888888884],[-0.0015625,-0.12259259259259257],[-0.0015625,-0.12259259259259257],[0.0034374999999999527,-0.12851851851851848],[-0.005416666666666714,-0.10166666666666663],[-0.008854166666666666,-0.09259259259259259],[-0.00604166666666662,-0.062407407407407384],[0.0078125,-0.027962962962963005],[0.002499999999999976,-0.044444444444444446],[0.004270833333333357,-0.0492592592592593],[0.005208333333333333,-0.02759259259259255],[0.008958333333333356,-0.027777777777777776],[-0.00458333333333331,-0.05240740740740743],[-0.0010416666666666667,-0.09685185185185187],[0.016354166666666715,-0.14666666666666664],[0.03770833333333338,-0.1542592592592593],[0.05916666666666662,-0.19666666666666666],[0.06760416666666676,-0.2822222222222222],[0.08958333333333333,-0.33296296296296296],[0.08635416666666676,-0.34944444444444445],[0.08177083333333333,-0.377962962962963],[0.07666666666666658,-0.3772222222222222],[0.08104166666666662,-0.35611111111111116],[0.07135416666666666,-0.32629629629629625],[0.07135416666666666,-0.32629629629629625],[0.06520833333333335,-0.27],[0.03979166666666671,-0.26944444444444443],[0.017604166666666643,-0.2596296296296296],[0.0005208333333333333,-0.20685185185185184],[-0.012395833333333309,-0.14055555555555552],[-0.007187499999999976,-0.12018518518518514],[-0.007187499999999976,-0.12018518518518514],[-0.004375000000000047,-0.13703703703703704],[-0.004375000000000047,-0.13703703703703704],[-0.01229166666666662,-0.13944444444444445],[-0.01229166666666662,-0.13944444444444445],[-0.017499999999999953,-0.15129629629629626],[-0.017499999999999953,-0.15129629629629626],[-0.028645833333333332,-0.15240740740740744],[-0.028645833333333332,-0.15240740740740744],[-0.02666666666666669,-0.16259259259259262],[-0.02666666666666669,-0.16259259259259262],[-0.017083333333333308,-0.1440740740740741],[-0.017083333333333308,-0.1440740740740741],[-0.023958333333333335,-0.14481481481481479],[-0.023958333333333335,-0.14481481481481479],[-0.04468749999999998,-0.16111111111111112],[-0.04468749999999998,-0.16111111111111112],[-0.05427083333333336,-0.16129629629629633],[-0.05427083333333336,-0.16129629629629633],[-0.08875000000000005,-0.20555555555555555],[-0.08875000000000005,-0.20555555555555555],[-0.09114583333333333,-0.18333333333333332],[-0.09114583333333333,-0.18333333333333332],[-0.096875,-0.1603703703703704],[-0.096875,-0.1603703703703704],[-0.09145833333333328,-0.13537037037037042],[-0.09145833333333328,-0.13537037037037042],[-0.10729166666666666,-0.09888888888888885],[-0.10729166666666666,-0.09888888888888885],[-0.1376041666666667,-0.08314814814814811],[-0.1376041666666667,-0.08314814814814811],[-0.16020833333333329,-0.07907407407407405],[-0.18645833333333334,-0.07000000000000002]]","[[0.11177083333333329,0.24240740740740738,0.00019999980926854732],[0.11177083333333329,0.24240740740740738,0.055099999904641095],[0.09416666666666676,0.24574074074074082,0.07589999961852811],[0.09416666666666676,0.24574074074074082,0.08650000000000091],[0.10510416666666676,0.2831481481481481,0.10319999980926298],[0.10510416666666676,0.2831481481481481,0.11989999961853925],[0.10885416666666667,0.23944444444444435,0.13639999961853277],[0.10885416666666667,0.23944444444444435,0.15309999990464007],[0.11145833333333334,0.21777777777777782,0.16969999980926787],[0.11145833333333334,0.21777777777777782,0.18639999961852993],[0.09864583333333338,0.17240740740740745,0.20309999990463723],[0.09864583333333338,0.17240740740740745,0.22029999971390168],[0.09406249999999995,0.20870370370370378,0.24089999961853437],[0.09406249999999995,0.20870370370370378,0.2530999999046344],[0.09010416666666667,0.1764814814814814,0.2696999998092622],[0.08010416666666677,0.1527777777777778,0.28650000000000375],[0.07052083333333338,0.14833333333333337,0.30299999999999727],[0.06375000000000004,0.1492592592592593,0.3197999997139078],[0.06635416666666671,0.12166666666666676,0.3363999996185356],[0.06177083333333329,0.08462962962962971,0.3530999999046429],[0.05333333333333338,0.07074074074074083,0.37029999971390737],[0.05593750000000005,0.09425925925925922,0.3863999996185328],[0.04802083333333336,0.11037037037037041,0.4030000000000058],[0.025625000000000023,0.06999999999999991,0.41979999971390214],[0.014479166666666644,0.054074074074074156,0.43629999971389566],[0.007395833333333357,0.057962962962962876,0.45300000000000296],[-0.005729166666666666,0.0698148148148149,0.47129999971390646],[-0.01885416666666669,0.0816666666666667,0.486299999713907],[-0.028854166666666715,0.05388888888888893,0.5030999999046344],[-0.03885416666666662,0.026111111111111154,0.5197999997138965],[-0.034687499999999954,0.07574074074074069,0.5366999998092723],[-0.03083333333333336,0.07592592592592592,0.5530999999046315],[-0.010312499999999976,0.0801851851851851,0.5760000000000076],[-0.010312499999999976,0.0801851851851851,0.5863999996185356],[0.010208333333333286,0.08444444444444449,0.6030999999046429],[0.027187500000000024,0.11685185185185189,0.6210999999046294],[0.033958333333333354,0.12129629629629629,0.6364999999999981],[0.04656250000000005,0.10333333333333325,0.6530999999046401],[0.06625000000000002,0.08481481481481473,0.6696999998092679],[0.07541666666666676,0.10537037037037032,0.6863999996185299],[0.08302083333333338,0.122037037037037,0.7030999999046372],[0.08229166666666667,0.09796296296296292,0.7197999997138993],[0.0890625,0.10407407407407415,0.7377999997139],[0.09479166666666666,0.11907407407407399,0.7557999997139007],[0.09552083333333337,0.09388888888888898,0.7696999998092622],[0.09333333333333324,0.0514814814814814,0.7862999997139042],[0.1068749999999999,0.04888888888888885,0.8030999999046315],[0.12041666666666657,0.046296296296296294,0.8197999997139078],[0.12322916666666663,0.05259259259259255,0.8407999997138944],[0.12604166666666666,0.0588888888888888,0.8561999998092631],[0.1271874999999999,0.06592592592592597,0.8725000000000023],[0.12833333333333338,0.07296296296296292,0.8867999997139009],[0.1171875,0.055000000000000084,0.9044999999999987],[0.10604166666666662,0.037037037037037035,0.9196999998092679],[0.08833333333333329,0.052037037037037076,0.9363999996185299],[0.07062499999999995,0.06703703703703712,0.953000000000003],[0.06927083333333334,0.0588888888888888,0.969699999809265],[0.06791666666666671,0.0507407407407407,0.9865000000000066],[0.06156250000000003,0.04296296296296305,1.0045000000000073],[0.05520833333333333,0.03518518518518519,1.0196999998092622],[0.03572916666666662,0.04314814814814806,1.0415999999046335],[0.016250000000000025,0.051111111111111156,1.0545999999046387],[0.005416666666666714,0.02962962962962963,1.0696999998092735],[-0.005416666666666714,0.008148148148148106,1.0862999997139013],[-0.016562499999999977,0.012222222222222264,1.1045000000000016],[-0.027708333333333356,0.01629629629629621,1.1198999996185393],[-0.058333333333333334,0.02907407407407416,1.13789999961854],[-0.0889583333333333,0.0418518518518519,1.15309999990464],[-0.11645833333333329,0.02166666666666675,1.1696999998092679],[-0.14395833333333338,0.0014814814814813973,1.1862999997138957],[-0.14947916666666666,-0.010185185185185186,1.203000000000003],[-0.15499999999999994,-0.021851851851851768,1.219699999809265],[-0.16479166666666673,-0.011296296296296339,1.2370999999046433],[-0.17458333333333337,-0.0007407407407406986,1.2530999999046344],[-0.1764583333333333,-0.010370370370370412,1.2696999998092622],[-0.17833333333333337,-0.019999999999999917,1.2863999996185385],[-0.1733333333333333,-0.02111111111111107,1.3030999999046315],[-0.16833333333333336,-0.022222222222222223,1.3196999998092735],[-0.16177083333333328,0.02296296296296292,1.336500000000001],[-0.15520833333333334,0.06814814814814807,1.3530000000000086],[-0.15395833333333328,0.08648148148148156,1.3696999998092707],[-0.15270833333333336,0.10481481481481486,1.3863999996185328],[-0.16062500000000005,0.07074074074074083,1.4065000000000083],[-0.14010416666666667,0.11870370370370374,1.4216999998092632],[-0.11041666666666666,0.19462962962962968,1.4390000000000072],[-0.08072916666666667,0.2705555555555556,1.460799999713899],[-0.08072916666666667,0.2705555555555556,1.4697999997138993],[-0.08229166666666667,0.3168518518518519,1.4865000000000066],[-0.05479166666666669,0.3557407407407408,1.5037999997139053],[-0.02333333333333331,0.3725925925925927,1.5230999999046304],[-0.02333333333333331,0.3725925925925927,1.5363999996185385],[-0.01427083333333338,0.40111111111111114,1.5530999999046315],[0.007500000000000047,0.40314814814814826,1.570999999999998],[0.029270833333333357,0.4051851851851851,1.5876999998092742],[0.03604166666666669,0.4933333333333333,1.6043999996185363],[0.014374999999999952,0.4994444444444445,1.619799999713905],[-0.008854166666666666,0.444074074074074,1.6388999996185305],[-0.03208333333333328,0.38870370370370366,1.65309999990464],[-0.007395833333333357,0.37111111111111106,1.6715000000000089],[-0.030729166666666665,0.35703703703703693,1.6865000000000094],[-0.04593750000000003,0.3616666666666666,1.7035000000000053],[-0.04885416666666664,0.35425925925925916,1.7197999997138993],[-0.03427083333333331,0.32944444444444443,1.7383999996185366],[-0.036666666666666715,0.3127777777777777,1.753299999713903],[-0.013854166666666619,0.3001851851851852,1.7696999998092622],[-0.008020833333333382,0.2957407407407408,1.7862999997139042],[-0.010104166666666714,0.3425925925925926,1.8030999999046315],[-0.012187500000000047,0.38944444444444437,1.8197999997139078],[-0.029375000000000047,0.41203703703703703,1.8381999998092624],[-0.027604166666666666,0.4385185185185184,1.855699999809275],[-0.022708333333333285,0.4101851851851852,1.8713999996185322],[-0.007708333333333309,0.3822222222222222,1.8877999997139057],[-0.013854166666666619,0.4272222222222223,1.9044999999999987],[-0.00302083333333331,0.46407407407407414,1.9232999997139046],[0.00302083333333331,0.44944444444444454,1.937899999618537],[0.026041666666666668,0.42666666666666664,1.9530999999046372],[0.06458333333333334,0.40370370370370373,1.972299999713897],[0.10385416666666672,0.39444444444444443,2.000699999809271],[0.10385416666666672,0.39444444444444443,2.0083999996185327],[0.13229166666666667,0.39537037037037037,2.0197999997138965],[0.15343749999999995,0.34148148148148144,2.036599999904638],[0.15343749999999995,0.34148148148148144,2.053199999809266],[0.16333333333333327,0.3237037037037036,2.0696999998092735],[0.16333333333333327,0.3237037037037036,2.0863999996185356],[0.17447916666666666,0.3077777777777779,2.103099999904643],[0.17447916666666666,0.3077777777777779,2.1200000000000045],[0.17156250000000003,0.31444444444444436,2.1363999996185328],[0.17156250000000003,0.31444444444444436,2.153000000000006],[0.16072916666666662,0.30166666666666664,2.169799999713902],[0.16072916666666662,0.30166666666666664,2.1862999997138957],[0.15583333333333324,0.27925925925925915,2.2031999998092715],[0.15583333333333324,0.27925925925925915,2.2202999997139017],[0.1640625,0.28703703703703703,2.236399999618527],[0.1640625,0.28703703703703703,2.253],[0.15145833333333342,0.2935185185185185,2.269699999809262],[0.15145833333333342,0.2935185185185185,2.2863999996185385],[0.14593749999999991,0.25500000000000006,2.3029999999999973],[0.14593749999999991,0.25500000000000006,2.319899999618528],[0.1397916666666667,0.22814814814814824,2.3363999996185356],[0.1397916666666667,0.22814814814814824,2.353099999904643],[0.1400000000000001,0.2351851851851852,2.3696999998092707],[0.1400000000000001,0.2351851851851852,2.3863999996185328],[0.15333333333333338,0.29981481481481476,2.40309999990464],[0.1502083333333334,0.35259259259259257,2.4290999999046363],[0.1502083333333334,0.35259259259259257,2.4365999999046295],[0.15177083333333338,0.3594444444444445,2.4530999999046372],[0.1556250000000001,0.35777777777777786,2.473799999713904],[0.15427083333333325,0.4,2.4882999997139024],[0.1384375000000001,0.36018518518518516,2.5043999996185278],[0.134375,0.3118518518518518,2.523599999904633],[0.12333333333333343,0.3296296296296296,2.538799999713902],[0.11906249999999995,0.31962962962962965,2.5637999997139076],[0.11906249999999995,0.31962962962962965,2.5708999996185327],[0.10499999999999995,0.3194444444444444,2.5863999996185356],[0.08520833333333329,0.2748148148148148,2.603199999809263],[0.07114583333333328,0.225,2.6196999998092707],[0.06729166666666657,0.20666666666666672,2.6381999998092738],[0.058229166666666644,0.19074074074074074,2.6531999998092743],[0.058229166666666644,0.19074074074074074,2.669699999809268],[0.05677083333333333,0.16666666666666666,2.68639999961853],[0.04729166666666664,0.14203703703703713,2.7035999999046396],[0.04093749999999995,0.12777777777777777,2.7197999997138993],[0.029999999999999954,0.10111111111111115,2.7378999996185343],[0.021562500000000047,0.11203703703703703,2.753],[0.02010416666666662,0.10425925925925918,2.7711999998092693],[0.022187499999999954,0.09962962962962954,2.7863999996185385],[0.012187500000000047,0.11833333333333329,2.8029999999999973],[0.00635416666666669,0.12370370370370362,2.819799999713908],[-0.0014583333333333095,0.0992592592592593,2.8402999997139062],[-0.0014583333333333095,0.0992592592592593,2.8530000000000086],[-0.008958333333333356,0.10277777777777777,2.8696999998092707],[-0.008958333333333356,0.10277777777777777,2.8863999996185328],[-0.011562500000000024,0.1361111111111111,2.90309999990464],[-0.005833333333333357,0.1875925925925925,2.9200000000000017],[-0.012916666666666642,0.19166666666666668,2.9387999997139076],[-0.019375000000000024,0.16407407407407412,2.953000000000003],[-0.029375000000000047,0.13703703703703704,2.969699999809265],[-0.050312499999999954,0.09370370370370375,2.986299999713907],[-0.06760416666666665,0.0837037037037038,3.005599999904632],[-0.09322916666666667,0.045740740740740825,3.0197999997138965],[-0.10499999999999995,0.04537037037037037,3.040299999713895],[-0.11333333333333329,0.010185185185185186,3.0564999999999998],[-0.11604166666666664,0.05537037037037033,3.070299999713896],[-0.12833333333333338,0.0455555555555556,3.0862999997139013],[-0.11697916666666662,0.015555555555555513,3.103099999904643],[-0.11437499999999995,0.022222222222222223,3.119799999713905],[-0.11052083333333336,0.05981481481481473,3.1387999997138962],[-0.1046875,0.09888888888888885,3.153000000000006],[-0.08250000000000005,0.09277777777777782,3.169799999713902],[-0.06666666666666667,0.11555555555555551,3.186799999713898],[-0.06697916666666662,0.1507407407407407,3.206299999713906],[-0.041458333333333285,0.15981481481481474,3.2230999999046333],[-0.028750000000000022,0.10962962962962972,3.2390000000000043],[-0.008437500000000023,0.08148148148148149,3.2530999999046344],[-0.003125,0.11574074074074074,3.269699999809262],[0.013125000000000024,0.12222222222222222,3.2863999996185385],[-0.001979166666666643,0.11740740740740736,3.304399999618539],[0.01572916666666669,0.12833333333333324,3.322099999904637],[0.010312499999999976,0.1655555555555555,3.3381999998092624],[0.03427083333333331,0.15203703703703708,3.3533999996185315],[0.04614583333333329,0.15092592592592594,3.3696999998092707],[0.029791666666666692,0.15351851851851847,3.3865999999046323],[0.03135416666666669,0.17240740740740745,3.403000000000006],[0.021249999999999977,0.18981481481481483,3.419699999809268],[0.027499999999999976,0.2412962962962962,3.4401999998092663],[0.022291666666666644,0.294074074074074,3.4535000000000053],[0.050833333333333286,0.2807407407407408,3.469699999809265],[0.044062499999999956,0.25388888888888894,3.486299999713907],[0.06427083333333337,0.2125925925925925,3.503],[0.05541666666666671,0.202962962962963,3.524099999904635],[0.07947916666666661,0.21351851851851844,3.5400999999046405],[0.09802083333333324,0.24296296296296305,3.5545000000000044],[0.10364583333333334,0.2711111111111111,3.5696999998092735],[0.11624999999999991,0.27685185185185185,3.5862999997139013],[0.11572916666666658,0.23111111111111102,3.603099999904643],[0.12083333333333333,0.17074074074074083,3.6196999998092707],[0.12947916666666662,0.18111111111111103,3.6385000000000076],[0.13864583333333325,0.18777777777777774,3.653500000000008],[0.14500000000000005,0.20777777777777787,3.669699999809268],[0.15135416666666662,0.22777777777777777,3.68639999961853],[0.14385416666666656,0.23296296296296287,3.7055000000000007],[0.13635416666666675,0.2381481481481482,3.723299999713902],[0.13895833333333343,0.1853703703703704,3.7390000000000043],[0.13541666666666666,0.1485185185185186,3.7550000000000097],[0.13072916666666667,0.15629629629629627,3.7700000000000102],[0.12416666666666672,0.1638888888888889,3.7863999996185385],[0.11843750000000004,0.14240740740740737,3.8029999999999973],[0.1056250000000001,0.14722222222222223,3.8211999998092665],[0.10031249999999996,0.14129629629629623,3.8403999996185405],[0.10031249999999996,0.14129629629629623,3.853099999904643],[0.08895833333333343,0.13222222222222219,3.869799999713905],[0.08895833333333343,0.13222222222222219,3.8863999996185328],[0.07822916666666657,0.13407407407407404,3.90309999990464],[0.0734375,0.11537037037037029,3.922399999618534],[0.049479166666666664,0.15388888888888894,3.938199999809271],[0.024687500000000046,0.19888888888888884,3.9530999999046372],[0.015416666666666618,0.14907407407407408,3.9697999997138993],[0.015416666666666618,0.14907407407407408,3.986399999618527],[-0.000416666666666643,0.0911111111111112,4.003099999904634],[-0.000416666666666643,0.0911111111111112,4.019699999809262],[-0.020937500000000022,0.12296296296296293,4.0363999996185385],[-0.03104166666666662,0.11148148148148157,4.055799999713898],[-0.03104166666666662,0.11148148148148157,4.073999999999998],[-0.051041666666666666,0.09314814814814806,4.090199999809272],[-0.04572916666666664,0.09759259259259268,4.104500000000002],[-0.0421875,0.09592592592592585,4.119799999713905],[-0.04604166666666672,0.04740740740740745,4.1362999997138985],[-0.03947916666666664,0.016666666666666666,4.15519999980927],[-0.02374999999999995,-0.000925925925925926,4.169599999904634],[-0.008645833333333287,0.07740740740740733,4.187899999618537],[0.000416666666666643,0.10333333333333325,4.203000000000003],[0.004999999999999952,0.10351851851851848,4.219699999809265],[0.004999999999999952,0.10351851851851848,4.236299999713907],[0.02166666666666662,0.10962962962962972,4.252899999618535],[0.02166666666666662,0.10962962962962972,4.269599999904642],[0.017812500000000023,0.13240740740740742,4.2863999996185385],[0.017812500000000023,0.13240740740740742,4.302999999999997],[0.016875000000000046,0.16592592592592598,4.320000000000007],[0.016875000000000046,0.16592592592592598,4.336299999713901],[-0.005208333333333333,0.17740740740740732,4.353000000000009],[-0.005208333333333333,0.17740740740740732,4.369599999904636],[0.002499999999999976,0.23703703703703705,4.3862999997138985],[0.002499999999999976,0.23703703703703705,4.407299999713899],[-0.0006250000000000236,0.2594444444444445,4.4202999997139045],[-0.0006250000000000236,0.2594444444444445,4.43639999961853],[-0.007708333333333309,0.2566666666666667,4.4531999998092715],[-0.007708333333333309,0.2566666666666667,4.473299999713902],[-0.011354166666666643,0.2537037037037037,4.486399999618527],[-0.011354166666666643,0.2537037037037037,4.503099999904634],[-0.019270833333333334,0.31259259259259253,4.528299999713894],[-0.019270833333333334,0.31259259259259253,4.536299999713904],[-0.0140625,0.3362962962962963,4.554000000000002],[-0.0140625,0.3362962962962963,4.5696999998092735],[-0.01729166666666669,0.3816666666666667,4.586299999713901],[-0.01729166666666669,0.3816666666666667,4.603099999904643],[-0.013229166666666714,0.3987037037037036,4.620099999904639],[-0.013229166666666714,0.3987037037037036,4.636399999618533],[-0.013854166666666619,0.38944444444444437,4.653000000000006],[0.015625,0.38055555555555554,4.671899999618532],[0.011041666666666691,0.4074074074074074,4.686500000000009],[0.013854166666666619,0.41759259259259257,4.7031999998092715],[0.027291666666666714,0.4396296296296296,4.724500000000006],[0.027291666666666714,0.4396296296296296,4.736500000000007],[0.02333333333333331,0.43499999999999994,4.753199999809269],[0.026041666666666668,0.3875925925925925,4.769899999618531],[0.024062500000000025,0.3453703703703704,4.78919999980927],[0.02781250000000005,0.3785185185185185,4.805000000000007],[0.04864583333333338,0.3824074074074074,4.821799999713903],[0.051979166666666646,0.3822222222222222,4.842899999618538],[0.051979166666666646,0.3822222222222222,4.855399999618541],[0.043229166666666666,0.36629629629629623,4.869699999809271],[0.04229166666666669,0.48333333333333334,4.89089999961854],[0.04229166666666669,0.48333333333333334,4.90309999990464],[0.051979166666666646,0.5672222222222222,4.919699999809268],[0.03916666666666669,0.6896296296296296,4.9365999999046295],[0.03125,0.7933333333333333,4.953000000000003],[0.02177083333333331,0.9944444444444445,4.969699999809265],[0.022395833333333334,1.1961111111111113,4.988599999904636],[0.022500000000000023,1.1644444444444444,5.003],[0.02166666666666662,1.1698148148148149,5.019599999904642],[0.009583333333333381,1.1824074074074074,5.0363999996185385],[0.009895833333333333,1.2151851851851854,5.056699999809268],[0.024374999999999977,1.1401851851851852,5.071599999904635],[0.03697916666666667,1.1216666666666668,5.086799999713904],[0.03270833333333331,1.026111111111111,5.103199999809263],[0.028437499999999952,0.9305555555555556,5.122199999809268],[0.042708333333333334,0.7718518518518518,5.139699999809267],[0.036354166666666646,0.5987037037037036,5.154699999809267],[0.03822916666666672,0.568888888888889,5.17319999980927],[0.011041666666666691,0.5416666666666666,5.189299999713896],[0.019166666666666644,0.5361111111111111,5.204799999713899],[0.00947916666666669,0.5031481481481482,5.224500000000006],[-0.007395833333333357,0.4372222222222223,5.239599999904641],[-0.029375000000000047,0.3531481481481482,5.253299999713903],[-0.018229166666666668,0.3387037037037037,5.269599999904642],[-0.0034374999999999527,0.2857407407407407,5.286299999713904],[-0.008645833333333287,0.2853703703703704,5.302999999999997],[-0.012187500000000047,0.31074074074074065,5.3196999998092735],[-0.021145833333333287,0.318888888888889,5.336799999713904],[-0.00614583333333331,0.2964814814814815,5.357399999618536],[-0.01854166666666662,0.2603703703703704,5.372799999713905],[-0.01864583333333331,0.26962962962962966,5.387599999904637],[-0.008333333333333333,0.28833333333333344,5.403199999809274],[-0.00458333333333331,0.3175925925925926,5.428199999809266],[-0.00458333333333331,0.3175925925925926,5.43639999961853],[-0.027499999999999976,0.33611111111111114,5.4531999998092715],[-0.041562499999999974,0.3494444444444445,5.469799999713899],[-0.041562499999999974,0.3494444444444445,5.489199999809273],[-0.04666666666666662,0.305925925925926,5.503199999809269],[-0.04874999999999995,0.24592592592592585,5.519899999618531],[-0.04874999999999995,0.24592592592592585,5.540199999809275],[-0.06427083333333337,0.2044444444444444,5.553199999809266],[-0.07937500000000004,0.19296296296296306,5.569899999618528],[-0.08385416666666666,0.16999999999999993,5.588799999713899],[-0.06520833333333335,0.15351851851851847,5.606000000000009],[-0.08614583333333338,0.11425925925925934,5.623500000000007],[-0.09666666666666662,0.07814814814814823,5.642699999809267],[-0.09666666666666662,0.07814814814814823,5.653399999618529],[-0.08770833333333337,0.007592592592592635,5.670000000000002],[-0.08510416666666672,-0.03833333333333342,5.688699999809273],[-0.09031250000000005,0.018148148148148063,5.708699999809269],[-0.09031250000000005,0.018148148148148063,5.720099999904633],[-0.08416666666666663,0.020740740740740823,5.736599999904641],[-0.07072916666666665,0.03333333333333333,5.755299999713898],[-0.05260416666666667,0.01648148148148144,5.769599999904642],[-0.041770833333333354,-0.004074074074074159,5.786299999713904],[-0.05479166666666669,-0.03314814814814811,5.805500000000009],[-0.050833333333333286,-0.06166666666666669,5.820099999904642],[-0.03999999999999997,-0.06962962962962967,5.840500000000006],[-0.03999999999999997,-0.06962962962962967,5.853099999904643],[-0.03156249999999995,-0.06333333333333331,5.869799999713905],[-0.03156249999999995,-0.06333333333333331,5.886399999618533],[-0.027083333333333334,-0.05240740740740743,5.903000000000006],[-0.015416666666666618,-0.12388888888888884,5.919699999809268],[-0.0015625,-0.12259259259259257,5.936799999713898],[-0.0015625,-0.12259259259259257,5.952899999618538],[0.0034374999999999527,-0.12851851851851848,5.969699999809265],[-0.005416666666666714,-0.10166666666666663,5.987699999809266],[-0.008854166666666666,-0.09259259259259259,6.003699999809271],[-0.00604166666666662,-0.062407407407407384,6.0197999997138965],[0.0078125,-0.027962962962963005,6.0382999997138995],[0.002499999999999976,-0.044444444444444446,6.056699999809268],[0.004270833333333357,-0.0492592592592593,6.0715],[0.005208333333333333,-0.02759259259259255,6.086299999713901],[0.008958333333333356,-0.027777777777777776,6.103000000000009],[-0.00458333333333331,-0.05240740740740743,6.120299999713907],[-0.0010416666666666667,-0.09685185185185187,6.138299999713908],[0.016354166666666715,-0.14666666666666664,6.153000000000006],[0.03770833333333338,-0.1542592592592593,6.171699999809263],[0.05916666666666662,-0.19666666666666666,6.186299999713896],[0.06760416666666676,-0.2822222222222222,6.202899999618538],[0.08958333333333333,-0.33296296296296296,6.219799999713899],[0.08635416666666676,-0.34944444444444445,6.237599999904631],[0.08177083333333333,-0.377962962962963,6.253],[0.07666666666666658,-0.3772222222222222,6.269699999809262],[0.08104166666666662,-0.35611111111111116,6.286299999713904],[0.07135416666666666,-0.32629629629629625,6.302899999618532],[0.07135416666666666,-0.32629629629629625,6.3196999998092735],[0.06520833333333335,-0.27,6.336299999713901],[0.03979166666666671,-0.26944444444444443,6.353000000000009],[0.017604166666666643,-0.2596296296296296,6.369599999904636],[0.0005208333333333333,-0.20685185185185184,6.3862999997138985],[-0.012395833333333309,-0.14055555555555552,6.403299999713894],[-0.007187499999999976,-0.12018518518518514,6.419799999713902],[-0.007187499999999976,-0.12018518518518514,6.43639999961853],[-0.004375000000000047,-0.13703703703703704,6.453000000000003],[-0.004375000000000047,-0.13703703703703704,6.469699999809265],[-0.01229166666666662,-0.13944444444444445,6.486399999618527],[-0.01229166666666662,-0.13944444444444445,6.503],[-0.017499999999999953,-0.15129629629629626,6.519899999618531],[-0.017499999999999953,-0.15129629629629626,6.536299999713904],[-0.028645833333333332,-0.15240740740740744,6.552999999999997],[-0.028645833333333332,-0.15240740740740744,6.569799999713908],[-0.02666666666666669,-0.16259259259259262,6.586299999713901],[-0.02666666666666669,-0.16259259259259262,6.603000000000009],[-0.017083333333333308,-0.1440740740740741,6.6200000000000045],[-0.017083333333333308,-0.1440740740740741,6.6362999997138985],[-0.023958333333333335,-0.14481481481481479,6.6528999996185405],[-0.023958333333333335,-0.14481481481481479,6.669599999904634],[-0.04468749999999998,-0.16111111111111112,6.68639999961853],[-0.04468749999999998,-0.16111111111111112,6.702899999618538],[-0.05427083333333336,-0.16129629629629633,6.720099999904633],[-0.05427083333333336,-0.16129629629629633,6.736299999713907],[-0.08875000000000005,-0.20555555555555555,6.753],[-0.08875000000000005,-0.20555555555555555,6.769599999904642],[-0.09114583333333333,-0.18333333333333332,6.7863999996185385],[-0.09114583333333333,-0.18333333333333332,6.802999999999997],[-0.096875,-0.1603703703703704,6.820099999904642],[-0.096875,-0.1603703703703704,6.836399999618536],[-0.09145833333333328,-0.13537037037037042,6.853000000000009],[-0.09145833333333328,-0.13537037037037042,6.870199999809273],[-0.10729166666666666,-0.09888888888888885,6.886399999618533],[-0.10729166666666666,-0.09888888888888885,6.903000000000006],[-0.1376041666666667,-0.08314814814814811,6.919899999618536],[-0.1376041666666667,-0.08314814814814811,6.936299999713896],[-0.16020833333333329,-0.07907407407407405,6.952899999618538],[-0.18645833333333334,-0.07000000000000002,6.975199999809263]]","[0.00019999980926854732,0.055099999904641095,0.07589999961852811,0.08650000000000091,0.10319999980926298,0.11989999961853925,0.13639999961853277,0.15309999990464007,0.16969999980926787,0.18639999961852993,0.20309999990463723,0.22029999971390168,0.24089999961853437,0.2530999999046344,0.2696999998092622,0.28650000000000375,0.30299999999999727,0.3197999997139078,0.3363999996185356,0.3530999999046429,0.37029999971390737,0.3863999996185328,0.4030000000000058,0.41979999971390214,0.43629999971389566,0.45300000000000296,0.47129999971390646,0.486299999713907,0.5030999999046344,0.5197999997138965,0.5366999998092723,0.5530999999046315,0.5760000000000076,0.5863999996185356,0.6030999999046429,0.6210999999046294,0.6364999999999981,0.6530999999046401,0.6696999998092679,0.6863999996185299,0.7030999999046372,0.7197999997138993,0.7377999997139,0.7557999997139007,0.7696999998092622,0.7862999997139042,0.8030999999046315,0.8197999997139078,0.8407999997138944,0.8561999998092631,0.8725000000000023,0.8867999997139009,0.9044999999999987,0.9196999998092679,0.9363999996185299,0.953000000000003,0.969699999809265,0.9865000000000066,1.0045000000000073,1.0196999998092622,1.0415999999046335,1.0545999999046387,1.0696999998092735,1.0862999997139013,1.1045000000000016,1.1198999996185393,1.13789999961854,1.15309999990464,1.1696999998092679,1.1862999997138957,1.203000000000003,1.219699999809265,1.2370999999046433,1.2530999999046344,1.2696999998092622,1.2863999996185385,1.3030999999046315,1.3196999998092735,1.336500000000001,1.3530000000000086,1.3696999998092707,1.3863999996185328,1.4065000000000083,1.4216999998092632,1.4390000000000072,1.460799999713899,1.4697999997138993,1.4865000000000066,1.5037999997139053,1.5230999999046304,1.5363999996185385,1.5530999999046315,1.570999999999998,1.5876999998092742,1.6043999996185363,1.619799999713905,1.6388999996185305,1.65309999990464,1.6715000000000089,1.6865000000000094,1.7035000000000053,1.7197999997138993,1.7383999996185366,1.753299999713903,1.7696999998092622,1.7862999997139042,1.8030999999046315,1.8197999997139078,1.8381999998092624,1.855699999809275,1.8713999996185322,1.8877999997139057,1.9044999999999987,1.9232999997139046,1.937899999618537,1.9530999999046372,1.972299999713897,2.000699999809271,2.0083999996185327,2.0197999997138965,2.036599999904638,2.053199999809266,2.0696999998092735,2.0863999996185356,2.103099999904643,2.1200000000000045,2.1363999996185328,2.153000000000006,2.169799999713902,2.1862999997138957,2.2031999998092715,2.2202999997139017,2.236399999618527,2.253,2.269699999809262,2.2863999996185385,2.3029999999999973,2.319899999618528,2.3363999996185356,2.353099999904643,2.3696999998092707,2.3863999996185328,2.40309999990464,2.4290999999046363,2.4365999999046295,2.4530999999046372,2.473799999713904,2.4882999997139024,2.5043999996185278,2.523599999904633,2.538799999713902,2.5637999997139076,2.5708999996185327,2.5863999996185356,2.603199999809263,2.6196999998092707,2.6381999998092738,2.6531999998092743,2.669699999809268,2.68639999961853,2.7035999999046396,2.7197999997138993,2.7378999996185343,2.753,2.7711999998092693,2.7863999996185385,2.8029999999999973,2.819799999713908,2.8402999997139062,2.8530000000000086,2.8696999998092707,2.8863999996185328,2.90309999990464,2.9200000000000017,2.9387999997139076,2.953000000000003,2.969699999809265,2.986299999713907,3.005599999904632,3.0197999997138965,3.040299999713895,3.0564999999999998,3.070299999713896,3.0862999997139013,3.103099999904643,3.119799999713905,3.1387999997138962,3.153000000000006,3.169799999713902,3.186799999713898,3.206299999713906,3.2230999999046333,3.2390000000000043,3.2530999999046344,3.269699999809262,3.2863999996185385,3.304399999618539,3.322099999904637,3.3381999998092624,3.3533999996185315,3.3696999998092707,3.3865999999046323,3.403000000000006,3.419699999809268,3.4401999998092663,3.4535000000000053,3.469699999809265,3.486299999713907,3.503,3.524099999904635,3.5400999999046405,3.5545000000000044,3.5696999998092735,3.5862999997139013,3.603099999904643,3.6196999998092707,3.6385000000000076,3.653500000000008,3.669699999809268,3.68639999961853,3.7055000000000007,3.723299999713902,3.7390000000000043,3.7550000000000097,3.7700000000000102,3.7863999996185385,3.8029999999999973,3.8211999998092665,3.8403999996185405,3.853099999904643,3.869799999713905,3.8863999996185328,3.90309999990464,3.922399999618534,3.938199999809271,3.9530999999046372,3.9697999997138993,3.986399999618527,4.003099999904634,4.019699999809262,4.0363999996185385,4.055799999713898,4.073999999999998,4.090199999809272,4.104500000000002,4.119799999713905,4.1362999997138985,4.15519999980927,4.169599999904634,4.187899999618537,4.203000000000003,4.219699999809265,4.236299999713907,4.252899999618535,4.269599999904642,4.2863999996185385,4.302999999999997,4.320000000000007,4.336299999713901,4.353000000000009,4.369599999904636,4.3862999997138985,4.407299999713899,4.4202999997139045,4.43639999961853,4.4531999998092715,4.473299999713902,4.486399999618527,4.503099999904634,4.528299999713894,4.536299999713904,4.554000000000002,4.5696999998092735,4.586299999713901,4.603099999904643,4.620099999904639,4.636399999618533,4.653000000000006,4.671899999618532,4.686500000000009,4.7031999998092715,4.724500000000006,4.736500000000007,4.753199999809269,4.769899999618531,4.78919999980927,4.805000000000007,4.821799999713903,4.842899999618538,4.855399999618541,4.869699999809271,4.89089999961854,4.90309999990464,4.919699999809268,4.9365999999046295,4.953000000000003,4.969699999809265,4.988599999904636,5.003,5.019599999904642,5.0363999996185385,5.056699999809268,5.071599999904635,5.086799999713904,5.103199999809263,5.122199999809268,5.139699999809267,5.154699999809267,5.17319999980927,5.189299999713896,5.204799999713899,5.224500000000006,5.239599999904641,5.253299999713903,5.269599999904642,5.286299999713904,5.302999999999997,5.3196999998092735,5.336799999713904,5.357399999618536,5.372799999713905,5.387599999904637,5.403199999809274,5.428199999809266,5.43639999961853,5.4531999998092715,5.469799999713899,5.489199999809273,5.503199999809269,5.519899999618531,5.540199999809275,5.553199999809266,5.569899999618528,5.588799999713899,5.606000000000009,5.623500000000007,5.642699999809267,5.653399999618529,5.670000000000002,5.688699999809273,5.708699999809269,5.720099999904633,5.736599999904641,5.755299999713898,5.769599999904642,5.786299999713904,5.805500000000009,5.820099999904642,5.840500000000006,5.853099999904643,5.869799999713905,5.886399999618533,5.903000000000006,5.919699999809268,5.936799999713898,5.952899999618538,5.969699999809265,5.987699999809266,6.003699999809271,6.0197999997138965,6.0382999997138995,6.056699999809268,6.0715,6.086299999713901,6.103000000000009,6.120299999713907,6.138299999713908,6.153000000000006,6.171699999809263,6.186299999713896,6.202899999618538,6.219799999713899,6.237599999904631,6.253,6.269699999809262,6.286299999713904,6.302899999618532,6.3196999998092735,6.336299999713901,6.353000000000009,6.369599999904636,6.3862999997138985,6.403299999713894,6.419799999713902,6.43639999961853,6.453000000000003,6.469699999809265,6.486399999618527,6.503,6.519899999618531,6.536299999713904,6.552999999999997,6.569799999713908,6.586299999713901,6.603000000000009,6.6200000000000045,6.6362999997138985,6.6528999996185405,6.669599999904634,6.68639999961853,6.702899999618538,6.720099999904633,6.736299999713907,6.753,6.769599999904642,6.7863999996185385,6.802999999999997,6.820099999904642,6.836399999618536,6.853000000000009,6.870199999809273,6.886399999618533,6.903000000000006,6.919899999618536,6.936299999713896,6.952899999618538,6.975199999809263]","[1731987084519,1731987084565,1731987084585,1731987084596,1731987084613,1731987084629,1731987084646,1731987084663,1731987084679,1731987084696,1731987084713,1731987084730,1731987084750,1731987084763,1731987084779,1731987084796,1731987084812,1731987084829,1731987084846,1731987084863,1731987084880,1731987084896,1731987084912,1731987084929,1731987084946,1731987084963,1731987084981,1731987084996,1731987085013,1731987085029,1731987085046,1731987085062,1731987085085,1731987085096,1731987085113,1731987085131,1731987085146,1731987085162,1731987085179,1731987085196,1731987085212,1731987085229,1731987085247,1731987085265,1731987085279,1731987085296,1731987085313,1731987085329,1731987085350,1731987085366,1731987085382,1731987085396,1731987085414,1731987085429,1731987085446,1731987085462,1731987085479,1731987085496,1731987085514,1731987085529,1731987085551,1731987085564,1731987085579,1731987085596,1731987085614,1731987085629,1731987085647,1731987085663,1731987085679,1731987085696,1731987085712,1731987085729,1731987085747,1731987085763,1731987085779,1731987085796,1731987085812,1731987085829,1731987085846,1731987085862,1731987085879,1731987085896,1731987085916,1731987085931,1731987085948,1731987085970,1731987085979,1731987085996,1731987086013,1731987086033,1731987086046,1731987086063,1731987086080,1731987086097,1731987086114,1731987086129,1731987086148,1731987086163,1731987086181,1731987086196,1731987086213,1731987086229,1731987086248,1731987086263,1731987086279,1731987086296,1731987086312,1731987086329,1731987086348,1731987086365,1731987086381,1731987086397,1731987086414,1731987086433,1731987086447,1731987086462,1731987086482,1731987086510,1731987086518,1731987086529,1731987086546,1731987086563,1731987086579,1731987086596,1731987086613,1731987086629,1731987086646,1731987086662,1731987086679,1731987086696,1731987086713,1731987086730,1731987086746,1731987086762,1731987086779,1731987086796,1731987086812,1731987086829,1731987086846,1731987086862,1731987086879,1731987086896,1731987086912,1731987086939,1731987086946,1731987086963,1731987086983,1731987086998,1731987087014,1731987087033,1731987087048,1731987087073,1731987087080,1731987087096,1731987087113,1731987087129,1731987087148,1731987087163,1731987087179,1731987087196,1731987087213,1731987087229,1731987087247,1731987087262,1731987087281,1731987087296,1731987087312,1731987087329,1731987087350,1731987087363,1731987087379,1731987087396,1731987087413,1731987087429,1731987087448,1731987087462,1731987087479,1731987087496,1731987087515,1731987087529,1731987087550,1731987087566,1731987087580,1731987087596,1731987087613,1731987087629,1731987087648,1731987087662,1731987087679,1731987087696,1731987087716,1731987087733,1731987087748,1731987087762,1731987087779,1731987087796,1731987087814,1731987087832,1731987087848,1731987087863,1731987087879,1731987087896,1731987087912,1731987087929,1731987087950,1731987087963,1731987087979,1731987087996,1731987088012,1731987088034,1731987088050,1731987088064,1731987088079,1731987088096,1731987088113,1731987088129,1731987088148,1731987088163,1731987088179,1731987088196,1731987088215,1731987088233,1731987088248,1731987088264,1731987088279,1731987088296,1731987088312,1731987088331,1731987088350,1731987088363,1731987088379,1731987088396,1731987088413,1731987088432,1731987088448,1731987088463,1731987088479,1731987088496,1731987088512,1731987088529,1731987088546,1731987088565,1731987088583,1731987088600,1731987088614,1731987088629,1731987088646,1731987088665,1731987088679,1731987088697,1731987088712,1731987088729,1731987088746,1731987088762,1731987088779,1731987088796,1731987088812,1731987088829,1731987088846,1731987088862,1731987088879,1731987088896,1731987088917,1731987088930,1731987088946,1731987088963,1731987088983,1731987088996,1731987089013,1731987089038,1731987089046,1731987089063,1731987089079,1731987089096,1731987089112,1731987089130,1731987089146,1731987089162,1731987089181,1731987089196,1731987089213,1731987089234,1731987089246,1731987089263,1731987089279,1731987089299,1731987089314,1731987089331,1731987089352,1731987089365,1731987089379,1731987089400,1731987089412,1731987089429,1731987089446,1731987089462,1731987089479,1731987089498,1731987089512,1731987089529,1731987089546,1731987089566,1731987089581,1731987089596,1731987089613,1731987089632,1731987089649,1731987089664,1731987089683,1731987089699,1731987089714,1731987089734,1731987089749,1731987089763,1731987089779,1731987089796,1731987089812,1731987089829,1731987089846,1731987089867,1731987089882,1731987089897,1731987089913,1731987089938,1731987089946,1731987089963,1731987089979,1731987089999,1731987090013,1731987090029,1731987090050,1731987090063,1731987090079,1731987090098,1731987090115,1731987090133,1731987090152,1731987090163,1731987090179,1731987090198,1731987090218,1731987090230,1731987090246,1731987090265,1731987090279,1731987090296,1731987090315,1731987090330,1731987090350,1731987090363,1731987090379,1731987090396,1731987090412,1731987090429,1731987090446,1731987090462,1731987090479,1731987090497,1731987090513,1731987090529,1731987090548,1731987090566,1731987090581,1731987090596,1731987090612,1731987090630,1731987090648,1731987090662,1731987090681,1731987090696,1731987090712,1731987090729,1731987090747,1731987090762,1731987090779,1731987090796,1731987090812,1731987090829,1731987090846,1731987090862,1731987090879,1731987090896,1731987090913,1731987090929,1731987090946,1731987090962,1731987090979,1731987090996,1731987091012,1731987091029,1731987091046,1731987091062,1731987091079,1731987091096,1731987091112,1731987091129,1731987091146,1731987091162,1731987091179,1731987091196,1731987091212,1731987091229,1731987091246,1731987091262,1731987091279,1731987091296,1731987091312,1731987091330,1731987091346,1731987091362,1731987091380,1731987091396,1731987091412,1731987091429,1731987091446,1731987091462,1731987091485]","[[1067.3,670.9],[1067.3,670.9],[1050.4,672.7],[1050.4,672.7],[1060.9,692.9],[1060.9,692.9],[1064.5,669.3],[1064.5,669.3],[1067,657.6],[1067,657.6],[1054.7,633.1],[1054.7,633.1],[1050.3,652.7],[1050.3,652.7],[1046.5,635.3],[1036.9,622.5],[1027.7,620.1],[1021.2,620.6],[1023.7,605.7],[1019.3,585.7],[1011.2,578.2],[1013.7,590.9],[1006.1,599.6],[984.6,577.8],[973.9,569.2],[967.1,571.3],[954.5,577.7],[941.9,584.1],[932.3,569.1],[922.7,554.1],[926.7,580.9],[930.4,581],[950.1,583.3],[950.1,583.3],[969.8,585.6],[986.1,603.1],[992.6,605.5],[1004.7,595.8],[1023.6,585.8],[1032.4,596.9],[1039.7,605.9],[1039,592.9],[1045.5,596.2],[1051,604.3],[1051.7,590.7],[1049.6,567.8],[1062.6,566.4],[1075.6,565],[1078.3,568.4],[1081,571.8],[1082.1,575.6],[1083.2,579.4],[1072.5,569.7],[1061.8,560],[1044.8,568.1],[1027.8,576.2],[1026.5,571.8],[1025.2,567.4],[1019.1,563.2],[1013,559],[994.3,563.3],[975.6,567.6],[965.2,556],[954.8,544.4],[944.1,546.6],[933.4,548.8],[904,555.7],[874.6,562.6],[848.2,551.7],[821.8,540.8],[816.5,534.5],[811.2,528.2],[801.8,533.9],[792.4,539.6],[790.6,534.4],[788.8,529.2],[793.6,528.6],[798.4,528],[804.7,552.4],[811,576.8],[812.2,586.7],[813.4,596.6],[805.8,578.2],[825.5,604.1],[854,645.1],[882.5,686.1],[882.5,686.1],[881,711.1],[907.4,732.1],[937.6,741.2],[937.6,741.2],[946.3,756.6],[967.2,757.7],[988.1,758.8],[994.6,806.4],[973.8,809.7],[951.5,779.8],[929.2,749.9],[952.9,740.4],[930.5,732.8],[915.9,735.3],[913.1,731.3],[927.1,717.9],[924.8,708.9],[946.7,702.1],[952.3,699.7],[950.3,725],[948.3,750.3],[931.8,762.5],[933.5,776.8],[938.2,761.5],[952.6,746.4],[946.7,770.7],[957.1,790.6],[962.9,782.7],[985,770.4],[1022,758],[1059.7,753],[1059.7,753],[1087,753.5],[1107.3,724.4],[1107.3,724.4],[1116.8,714.8],[1116.8,714.8],[1127.5,706.2],[1127.5,706.2],[1124.7,709.8],[1124.7,709.8],[1114.3,702.9],[1114.3,702.9],[1109.6,690.8],[1109.6,690.8],[1117.5,695],[1117.5,695],[1105.4,698.5],[1105.4,698.5],[1100.1,677.7],[1100.1,677.7],[1094.2,663.2],[1094.2,663.2],[1094.4,667],[1094.4,667],[1107.2,701.9],[1104.2,730.4],[1104.2,730.4],[1105.7,734.1],[1109.4,733.2],[1108.1,756],[1092.9,734.5],[1089,708.4],[1078.4,718],[1074.3,712.6],[1074.3,712.6],[1060.8,712.5],[1041.8,688.4],[1028.3,661.5],[1024.6,651.6],[1015.9,643],[1015.9,643],[1014.5,630],[1005.4,616.7],[999.3,609],[988.8,594.6],[980.7,600.5],[979.3,596.3],[981.3,593.8],[971.7,603.9],[966.1,606.8],[958.6,593.6],[958.6,593.6],[951.4,595.5],[951.4,595.5],[948.9,613.5],[954.4,641.3],[947.6,643.5],[941.4,628.6],[931.8,614],[911.7,590.6],[895.1,585.2],[870.5,564.7],[859.2,564.5],[851.2,545.5],[848.6,569.9],[836.8,564.6],[847.7,548.4],[850.2,552],[853.9,572.3],[859.5,593.4],[880.8,590.1],[896,602.4],[895.7,621.4],[920.2,626.3],[932.4,599.2],[951.9,584],[957,602.5],[972.6,606],[958.1,603.4],[975.1,609.3],[969.9,629.4],[992.9,622.1],[1004.3,621.5],[988.6,622.9],[990.1,633.1],[980.4,642.5],[986.4,670.3],[981.4,698.8],[1008.8,691.6],[1002.3,677.1],[1021.7,654.8],[1013.2,649.6],[1036.3,655.3],[1054.1,671.2],[1059.5,686.4],[1071.6,689.5],[1071.1,664.8],[1076,632.2],[1084.3,637.8],[1093.1,641.4],[1099.2,652.2],[1105.3,663],[1098.1,665.8],[1090.9,668.6],[1093.4,640.1],[1090,620.2],[1085.5,624.4],[1079.2,628.5],[1073.7,616.9],[1061.4,619.5],[1056.3,616.3],[1056.3,616.3],[1045.4,611.4],[1045.4,611.4],[1035.1,612.4],[1030.5,602.3],[1007.5,623.1],[983.7,647.4],[974.8,620.5],[974.8,620.5],[959.6,589.2],[959.6,589.2],[939.9,606.4],[930.2,600.2],[930.2,600.2],[911,590.3],[916.1,592.7],[919.5,591.8],[915.8,565.6],[922.1,549],[937.2,539.5],[951.7,581.8],[960.4,595.8],[964.8,595.9],[964.8,595.9],[980.8,599.2],[980.8,599.2],[977.1,611.5],[977.1,611.5],[976.2,629.6],[976.2,629.6],[955,635.8],[955,635.8],[962.4,668],[962.4,668],[959.4,680.1],[959.4,680.1],[952.6,678.6],[952.6,678.6],[949.1,677],[949.1,677],[941.5,708.8],[941.5,708.8],[946.5,721.6],[946.5,721.6],[943.4,746.1],[943.4,746.1],[947.3,755.3],[947.3,755.3],[946.7,750.3],[975,745.5],[970.6,760],[973.3,765.5],[986.2,777.4],[986.2,777.4],[982.4,774.9],[985,749.3],[983.1,726.5],[986.7,744.4],[1006.7,746.5],[1009.9,746.4],[1009.9,746.4],[1001.5,737.8],[1000.6,801],[1000.6,801],[1009.9,846.3],[997.6,912.4],[990,968.4],[980.9,1077],[981.5,1185.9],[981.6,1168.8],[980.8,1171.7],[969.2,1178.5],[969.5,1196.2],[983.4,1155.7],[995.5,1145.7],[991.4,1094.1],[987.3,1042.5],[1001,956.8],[994.9,863.3],[996.7,847.2],[970.6,832.5],[978.4,829.5],[969.1,811.7],[952.9,776.1],[931.8,730.7],[942.5,722.9],[956.7,694.3],[951.7,694.1],[948.3,707.8],[939.7,712.2],[954.1,700.1],[942.2,680.6],[942.1,685.6],[952,695.7],[955.6,711.5],[955.6,711.5],[933.6,721.5],[920.1,728.7],[920.1,728.7],[915.2,705.2],[913.2,672.8],[913.2,672.8],[898.3,650.4],[883.8,644.2],[879.5,631.8],[897.4,622.9],[877.3,601.7],[867.2,582.2],[867.2,582.2],[875.8,544.1],[878.3,519.3],[873.3,549.8],[873.3,549.8],[879.2,551.2],[892.1,558],[909.5,548.9],[919.9,537.8],[907.4,522.1],[911.2,506.7],[921.6,502.4],[921.6,502.4],[929.7,505.8],[929.7,505.8],[934,511.7],[945.2,473.1],[958.5,473.8],[958.5,473.8],[963.3,470.6],[954.8,485.1],[951.5,490],[954.2,506.3],[967.5,524.9],[962.4,516],[964.1,513.4],[965,525.1],[968.6,525],[955.6,511.7],[959,487.7],[975.7,460.8],[996.2,456.7],[1016.8,433.8],[1024.9,387.6],[1046,360.2],[1042.9,351.3],[1038.5,335.9],[1033.6,336.3],[1037.8,347.7],[1028.5,363.8],[1028.5,363.8],[1022.6,394.2],[998.2,394.5],[976.9,399.8],[960.5,428.3],[948.1,464.1],[953.1,475.1],[953.1,475.1],[955.8,466],[955.8,466],[948.2,464.7],[948.2,464.7],[943.2,458.3],[943.2,458.3],[932.5,457.7],[932.5,457.7],[934.4,452.2],[934.4,452.2],[943.6,462.2],[943.6,462.2],[937,461.8],[937,461.8],[917.1,453],[917.1,453],[907.9,452.9],[907.9,452.9],[874.8,429],[874.8,429],[872.5,441],[872.5,441],[867,453.4],[867,453.4],[872.2,466.9],[872.2,466.9],[857,486.6],[857,486.6],[827.9,495.1],[827.9,495.1],[806.2,497.3],[781,502.2]]","[-0.056692,0.170076]","[0.056692,0.170076]","[0.170076,0.170076]","[-0.170076,-0.170076]","[-0.170076,0.056692]","[-0.170076,-0.056692]","[-0.056692,-0.170076]","[0.056692,-0.170076]","[0.170076,-0.170076]","[-0.056692,0.056692]","[0.056692,0.056692]","[0.170076,0.056692]","[-0.056692,-0.056692]","[0.056692,-0.056692]","[0.170076,-0.056692]",0,0,0,0,1,2,Smartphone,15,20,8,3,70,4,3,60,4
