inst1_resp.keys,inst1_resp.rt,calibrationMouse.x,calibrationMouse.y,calibrationMouse.leftButton,calibrationMouse.midButton,calibrationMouse.rightButton,calibrationClick.x,calibrationClick.y,calibrationClick.leftButton,calibrationClick.midButton,calibrationClick.rightButton,trialsc.thisRepN,trialsc.thisTrialN,trialsc.thisN,trialsc.thisIndex,trialsc.ran,calibration_x,calibration_y,participant,session,date,expName,psychopyVersion,OS,frameRate,calibrationClick.clicked_name,ScreenRes_pixels,Camera_pixels,mouse_2.x,mouse_2.y,mouse_2.leftButton,mouse_2.midButton,mouse_2.rightButton,mouse_2.time,mouse_2.clicked_name,mouse.x,mouse.y,mouse.leftButton,mouse.midButton,mouse.rightButton,mouse.time,mouse.clicked_name,Choice,Trial,TrialDuration,MOUSE_GAZE,ET_GAZE,ET_GAZE_x_T,time,unixTime,ET_GAZE_NF,Loc_Bus_label,Loc_Metro_label,Loc_RH_label,Loc_Cost_label,Loc_Travel_label,Loc_Comfort_label,Loc_Bus_cost,Loc_Metro_cost,Loc_RH_cost,Loc_Bus_travel,Loc_Metro_travel,Loc_RH_travel,Loc_Bus_comfort,Loc_Metro_comfort,Loc_RH_comfort,trials.thisRepN,trials.thisTrialN,trials.thisN,trials.thisIndex,trials.ran,Block,Device,RH_cost,RH_travel_time,RH_Comfort,metro_cost,metro_travel_time,metro_Comfort,Bus_cost,Bus_travel_time,Bus_Comfort
space,5.1184,0,-0.374074074,1,0,0,0.315625,0.009259259,1,0,0,0,0,0,16,1,0.33,0,11,001,2024-11-19_11h24.19.903,Attention_exp_legacy,2023.1.0,Win32,60.24096386,,,,,,,,,,,,,,,,,,,,,,,,,,,,,,,,,,,,,,,,,,,,,,,,,,,,,,,,,
,,,,,,,0.665625,-0.666666667,1,0,0,0,1,1,20,1,0.67,-0.67,11,001,2024-11-19_11h24.19.903,Attention_exp_legacy,2023.1.0,Win32,60.24096386,calibration_square,,,,,,,,,,,,,,,,,,,,,,,,,,,,,,,,,,,,,,,,,,,,,,,,,,,,,,,,
,,,,,,,0.336458333,0.685185185,1,0,0,0,2,2,18,1,0.33,0.67,11,001,2024-11-19_11h24.19.903,Attention_exp_legacy,2023.1.0,Win32,60.24096386,,,,,,,,,,,,,,,,,,,,,,,,,,,,,,,,,,,,,,,,,,,,,,,,,,,,,,,,,
,,,,,,,-0.330208333,-0.657407407,1,0,0,0,3,3,4,1,-0.33,-0.67,11,001,2024-11-19_11h24.19.903,Attention_exp_legacy,2023.1.0,Win32,60.24096386,,,,,,,,,,,,,,,,,,,,,,,,,,,,,,,,,,,,,,,,,,,,,,,,,,,,,,,,,
,,,,,,,-0.323958333,0.012962963,1,0,0,0,4,4,6,1,-0.33,0,11,001,2024-11-19_11h24.19.903,Attention_exp_legacy,2023.1.0,Win32,60.24096386,,,,,,,,,,,,,,,,,,,,,,,,,,,,,,,,,,,,,,,,,,,,,,,,,,,,,,,,,
,,,,,,,0.675,0.661111111,1,0,0,0,5,5,19,1,0.67,0.67,11,001,2024-11-19_11h24.19.903,Attention_exp_legacy,2023.1.0,Win32,60.24096386,calibration_square,,,,,,,,,,,,,,,,,,,,,,,,,,,,,,,,,,,,,,,,,,,,,,,,,,,,,,,,
,,,,,,,-0.325,0.672222222,1,0,0,0,6,6,8,1,-0.33,0.67,11,001,2024-11-19_11h24.19.903,Attention_exp_legacy,2023.1.0,Win32,60.24096386,calibration_square,,,,,,,,,,,,,,,,,,,,,,,,,,,,,,,,,,,,,,,,,,,,,,,,,,,,,,,,
,,,,,,,-0.00625,0.32962963,1,0,0,0,7,7,12,1,0,0.33,11,001,2024-11-19_11h24.19.903,Attention_exp_legacy,2023.1.0,Win32,60.24096386,calibration_square,,,,,,,,,,,,,,,,,,,,,,,,,,,,,,,,,,,,,,,,,,,,,,,,,,,,,,,,
,,,,,,,-0.663541667,0.324074074,1,0,0,0,8,8,3,1,-0.67,0.33,11,001,2024-11-19_11h24.19.903,Attention_exp_legacy,2023.1.0,Win32,60.24096386,calibration_square,,,,,,,,,,,,,,,,,,,,,,,,,,,,,,,,,,,,,,,,,,,,,,,,,,,,,,,,
,,,,,,,-0.333333333,0.325925926,1,0,0,0,9,9,7,1,-0.33,0.33,11,001,2024-11-19_11h24.19.903,Attention_exp_legacy,2023.1.0,Win32,60.24096386,calibration_square,,,,,,,,,,,,,,,,,,,,,,,,,,,,,,,,,,,,,,,,,,,,,,,,,,,,,,,,
,,,,,,,-0.672916667,-0.325925926,1,0,0,0,10,10,1,1,-0.67,-0.33,11,001,2024-11-19_11h24.19.903,Attention_exp_legacy,2023.1.0,Win32,60.24096386,calibration_square,,,,,,,,,,,,,,,,,,,,,,,,,,,,,,,,,,,,,,,,,,,,,,,,,,,,,,,,
,,,,,,,-0.665625,-0.005555556,1,0,0,0,11,11,2,1,-0.67,0,11,001,2024-11-19_11h24.19.903,Attention_exp_legacy,2023.1.0,Win32,60.24096386,calibration_square,,,,,,,,,,,,,,,,,,,,,,,,,,,,,,,,,,,,,,,,,,,,,,,,,,,,,,,,
,,,,,,,0.001041667,-0.668518519,1,0,0,0,12,12,9,1,0,-0.67,11,001,2024-11-19_11h24.19.903,Attention_exp_legacy,2023.1.0,Win32,60.24096386,calibration_square,,,,,,,,,,,,,,,,,,,,,,,,,,,,,,,,,,,,,,,,,,,,,,,,,,,,,,,,
,,,,,,,-0.0125,0.001851852,1,0,0,0,13,13,11,1,0,0,11,001,2024-11-19_11h24.19.903,Attention_exp_legacy,2023.1.0,Win32,60.24096386,,,,,,,,,,,,,,,,,,,,,,,,,,,,,,,,,,,,,,,,,,,,,,,,,,,,,,,,,
,,,,,,,-0.666666667,-0.668518519,1,0,0,0,14,14,0,1,-0.67,-0.67,11,001,2024-11-19_11h24.19.903,Attention_exp_legacy,2023.1.0,Win32,60.24096386,calibration_square,,,,,,,,,,,,,,,,,,,,,,,,,,,,,,,,,,,,,,,,,,,,,,,,,,,,,,,,
,,,,,,,0.328125,0.344444444,1,0,0,0,15,15,17,1,0.33,0.33,11,001,2024-11-19_11h24.19.903,Attention_exp_legacy,2023.1.0,Win32,60.24096386,,,,,,,,,,,,,,,,,,,,,,,,,,,,,,,,,,,,,,,,,,,,,,,,,,,,,,,,,
,,,,,,,0.005208333,0.661111111,1,0,0,0,16,16,13,1,0,0.67,11,001,2024-11-19_11h24.19.903,Attention_exp_legacy,2023.1.0,Win32,60.24096386,calibration_square,,,,,,,,,,,,,,,,,,,,,,,,,,,,,,,,,,,,,,,,,,,,,,,,,,,,,,,,
,,,,,,,0.34375,-0.653703704,1,0,0,0,17,17,14,1,0.33,-0.67,11,001,2024-11-19_11h24.19.903,Attention_exp_legacy,2023.1.0,Win32,60.24096386,,,,,,,,,,,,,,,,,,,,,,,,,,,,,,,,,,,,,,,,,,,,,,,,,,,,,,,,,
,,,,,,,0,-0.327777778,1,0,0,0,18,18,10,1,0,-0.33,11,001,2024-11-19_11h24.19.903,Attention_exp_legacy,2023.1.0,Win32,60.24096386,calibration_square,,,,,,,,,,,,,,,,,,,,,,,,,,,,,,,,,,,,,,,,,,,,,,,,,,,,,,,,
,,,,,,,0.323958333,-0.331481481,1,0,0,0,19,19,15,1,0.33,-0.33,11,001,2024-11-19_11h24.19.903,Attention_exp_legacy,2023.1.0,Win32,60.24096386,calibration_square,,,,,,,,,,,,,,,,,,,,,,,,,,,,,,,,,,,,,,,,,,,,,,,,,,,,,,,,
,,,,,,,-0.333333333,-0.333333333,1,0,0,0,20,20,5,1,-0.33,-0.33,11,001,2024-11-19_11h24.19.903,Attention_exp_legacy,2023.1.0,Win32,60.24096386,calibration_square,,,,,,,,,,,,,,,,,,,,,,,,,,,,,,,,,,,,,,,,,,,,,,,,,,,,,,,,
,,,,,,,,,,,,,,,,,,,11,001,2024-11-19_11h24.19.903,Attention_exp_legacy,2023.1.0,Win32,60.24096386,,"[1920,1080]","[640,480]",[-0.0020833333333333333],[-0.4888888888888889],[1],[0],[0],[10.946800000190734],"[""StartButton""]",[0.153125],[0.3925925925925926],[1],[0],[0],[7.012099999904649],"[""Metro_label""]",Metro_label,1,8.0298,"[[-0.0020833333333333333,-0.4888888888888889],[-0.0020833333333333333,-0.4888888888888889],[-0.0020833333333333333,-0.4888888888888889],[-0.0020833333333333333,-0.4888888888888889],[-0.0020833333333333333,-0.4888888888888889],[-0.0020833333333333333,-0.4888888888888889],[-0.0020833333333333333,-0.4888888888888889],[-0.0020833333333333333,-0.4888888888888889],[-0.0020833333333333333,-0.4888888888888889],[-0.0020833333333333333,-0.4888888888888889],[-0.0020833333333333333,-0.4888888888888889],[-0.0020833333333333333,-0.4888888888888889],[-0.0020833333333333333,-0.4888888888888889],[-0.0020833333333333333,-0.4888888888888889],[-0.0020833333333333333,-0.4888888888888889],[-0.0020833333333333333,-0.4888888888888889],[-0.0020833333333333333,-0.4888888888888889],[-0.0020833333333333333,-0.4888888888888889],[-0.0020833333333333333,-0.4888888888888889],[-0.0020833333333333333,-0.4888888888888889],[-0.0020833333333333333,-0.4888888888888889],[-0.0020833333333333333,-0.4888888888888889],[-0.0020833333333333333,-0.4888888888888889],[-0.0020833333333333333,-0.4888888888888889],[-0.0020833333333333333,-0.4888888888888889],[-0.0020833333333333333,-0.4888888888888889],[-0.0020833333333333333,-0.4888888888888889],[-0.0020833333333333333,-0.4888888888888889],[-0.0020833333333333333,-0.4888888888888889],[-0.0020833333333333333,-0.4888888888888889],[-0.0020833333333333333,-0.4888888888888889],[-0.0020833333333333333,-0.4888888888888889],[-0.0020833333333333333,-0.4888888888888889],[-0.0020833333333333333,-0.4888888888888889],[-0.0020833333333333333,-0.4888888888888889],[-0.0020833333333333333,-0.4888888888888889],[-0.0020833333333333333,-0.4888888888888889],[-0.0020833333333333333,-0.4888888888888889],[-0.0020833333333333333,-0.4888888888888889],[-0.0020833333333333333,-0.4888888888888889],[-0.0020833333333333333,-0.4888888888888889],[-0.0020833333333333333,-0.4888888888888889],[-0.0020833333333333333,-0.4888888888888889],[-0.0020833333333333333,-0.4888888888888889],[-0.0020833333333333333,-0.4888888888888889],[-0.0020833333333333333,-0.4888888888888889],[-0.0020833333333333333,-0.4888888888888889],[-0.0020833333333333333,-0.4888888888888889],[-0.0020833333333333333,-0.4888888888888889],[-0.0020833333333333333,-0.4888888888888889],[-0.0020833333333333333,-0.4888888888888889],[-0.0020833333333333333,-0.4888888888888889],[-0.0020833333333333333,-0.4888888888888889],[-0.0020833333333333333,-0.4888888888888889],[-0.0020833333333333333,-0.4888888888888889],[-0.0020833333333333333,-0.4888888888888889],[-0.0020833333333333333,-0.4888888888888889],[-0.0020833333333333333,-0.4888888888888889],[-0.0020833333333333333,-0.4888888888888889],[-0.0020833333333333333,-0.4888888888888889],[-0.0020833333333333333,-0.4888888888888889],[-0.0020833333333333333,-0.4888888888888889],[-0.0020833333333333333,-0.4888888888888889],[-0.0020833333333333333,-0.4888888888888889],[-0.0020833333333333333,-0.4888888888888889],[-0.0020833333333333333,-0.4888888888888889],[-0.0020833333333333333,-0.4888888888888889],[-0.0020833333333333333,-0.4888888888888889],[-0.0020833333333333333,-0.4888888888888889],[-0.0020833333333333333,-0.4888888888888889],[-0.0020833333333333333,-0.4888888888888889],[-0.0020833333333333333,-0.4888888888888889],[-0.0020833333333333333,-0.4888888888888889],[-0.0020833333333333333,-0.4888888888888889],[-0.0020833333333333333,-0.4888888888888889],[-0.0020833333333333333,-0.4888888888888889],[-0.0020833333333333333,-0.4888888888888889],[-0.0020833333333333333,-0.4888888888888889],[-0.0020833333333333333,-0.4888888888888889],[-0.0020833333333333333,-0.4888888888888889],[-0.0020833333333333333,-0.4888888888888889],[-0.0020833333333333333,-0.4888888888888889],[-0.0020833333333333333,-0.4888888888888889],[-0.0020833333333333333,-0.4888888888888889],[-0.0020833333333333333,-0.4888888888888889],[-0.0020833333333333333,-0.4888888888888889],[-0.0020833333333333333,-0.4888888888888889],[-0.0020833333333333333,-0.4888888888888889],[-0.0020833333333333333,-0.4888888888888889],[-0.0020833333333333333,-0.4888888888888889],[-0.0020833333333333333,-0.4888888888888889],[-0.0020833333333333333,-0.4888888888888889],[-0.0020833333333333333,-0.4888888888888889],[-0.0020833333333333333,-0.4888888888888889],[-0.0020833333333333333,-0.4888888888888889],[-0.0020833333333333333,-0.4888888888888889],[-0.0020833333333333333,-0.4888888888888889],[-0.0020833333333333333,-0.4888888888888889],[-0.0020833333333333333,-0.4888888888888889],[-0.0020833333333333333,-0.4888888888888889],[-0.0020833333333333333,-0.4888888888888889],[-0.0020833333333333333,-0.4888888888888889],[-0.0020833333333333333,-0.4888888888888889],[-0.0020833333333333333,-0.4888888888888889],[-0.0020833333333333333,-0.4888888888888889],[-0.0020833333333333333,-0.4888888888888889],[-0.0020833333333333333,-0.4888888888888889],[-0.0020833333333333333,-0.4888888888888889],[-0.0020833333333333333,-0.4888888888888889],[-0.0020833333333333333,-0.4888888888888889],[-0.0020833333333333333,-0.4888888888888889],[-0.0020833333333333333,-0.4888888888888889],[-0.0020833333333333333,-0.4888888888888889],[-0.0020833333333333333,-0.4888888888888889],[-0.0020833333333333333,-0.4888888888888889],[-0.0020833333333333333,-0.4888888888888889],[-0.0020833333333333333,-0.4888888888888889],[-0.0020833333333333333,-0.4888888888888889],[-0.0020833333333333333,-0.4888888888888889],[-0.0020833333333333333,-0.4888888888888889],[-0.0020833333333333333,-0.4888888888888889],[-0.0020833333333333333,-0.4888888888888889],[-0.0020833333333333333,-0.4888888888888889],[-0.0020833333333333333,-0.4888888888888889],[-0.0020833333333333333,-0.4888888888888889],[-0.0020833333333333333,-0.4888888888888889],[-0.0020833333333333333,-0.4888888888888889],[-0.0020833333333333333,-0.4888888888888889],[-0.0020833333333333333,-0.4888888888888889],[-0.0020833333333333333,-0.4888888888888889],[-0.0020833333333333333,-0.4888888888888889],[-0.0020833333333333333,-0.4888888888888889],[-0.0020833333333333333,-0.4888888888888889],[-0.0020833333333333333,-0.4888888888888889],[-0.0020833333333333333,-0.4888888888888889],[-0.0020833333333333333,-0.4888888888888889],[-0.0020833333333333333,-0.4888888888888889],[-0.0020833333333333333,-0.4888888888888889],[-0.0020833333333333333,-0.4888888888888889],[-0.0020833333333333333,-0.4888888888888889],[-0.0020833333333333333,-0.4888888888888889],[-0.0020833333333333333,-0.4888888888888889],[-0.0020833333333333333,-0.4888888888888889],[-0.0020833333333333333,-0.4888888888888889],[-0.0020833333333333333,-0.4888888888888889],[-0.0020833333333333333,-0.4888888888888889],[-0.0020833333333333333,-0.4888888888888889],[-0.0020833333333333333,-0.4888888888888889],[-0.0020833333333333333,-0.4888888888888889],[-0.0020833333333333333,-0.4888888888888889],[-0.0020833333333333333,-0.4888888888888889],[-0.0020833333333333333,-0.4888888888888889],[-0.0020833333333333333,-0.4888888888888889],[-0.0020833333333333333,-0.4888888888888889],[-0.0020833333333333333,-0.4888888888888889],[-0.0020833333333333333,-0.4888888888888889],[-0.0020833333333333333,-0.4888888888888889],[-0.0020833333333333333,-0.4888888888888889],[-0.0020833333333333333,-0.4888888888888889],[-0.0020833333333333333,-0.4888888888888889],[-0.0020833333333333333,-0.4888888888888889],[-0.0020833333333333333,-0.4888888888888889],[-0.0020833333333333333,-0.4888888888888889],[-0.0020833333333333333,-0.4888888888888889],[-0.0020833333333333333,-0.4888888888888889],[-0.0020833333333333333,-0.4888888888888889],[-0.0020833333333333333,-0.4888888888888889],[-0.0020833333333333333,-0.4888888888888889],[-0.0020833333333333333,-0.4888888888888889],[-0.0020833333333333333,-0.4888888888888889],[-0.0020833333333333333,-0.4888888888888889],[-0.0020833333333333333,-0.4888888888888889],[-0.0020833333333333333,-0.4888888888888889],[-0.0020833333333333333,-0.4888888888888889],[-0.0020833333333333333,-0.4888888888888889],[-0.0020833333333333333,-0.4888888888888889],[-0.0020833333333333333,-0.4888888888888889],[-0.0020833333333333333,-0.4888888888888889],[-0.0020833333333333333,-0.4888888888888889],[-0.0020833333333333333,-0.4888888888888889],[-0.0020833333333333333,-0.4888888888888889],[-0.0020833333333333333,-0.4888888888888889],[-0.0020833333333333333,-0.4888888888888889],[-0.0020833333333333333,-0.4888888888888889],[-0.0020833333333333333,-0.4888888888888889],[-0.0020833333333333333,-0.4888888888888889],[-0.0020833333333333333,-0.4888888888888889],[-0.0020833333333333333,-0.4888888888888889],[-0.0020833333333333333,-0.4888888888888889],[-0.0020833333333333333,-0.4888888888888889],[-0.0020833333333333333,-0.4888888888888889],[-0.0020833333333333333,-0.4888888888888889],[-0.0020833333333333333,-0.4888888888888889],[-0.0020833333333333333,-0.4888888888888889],[-0.0020833333333333333,-0.4888888888888889],[-0.0020833333333333333,-0.4888888888888889],[-0.0020833333333333333,-0.4888888888888889],[-0.0020833333333333333,-0.4888888888888889],[-0.0020833333333333333,-0.4888888888888889],[-0.0020833333333333333,-0.4888888888888889],[-0.0020833333333333333,-0.4888888888888889],[-0.0020833333333333333,-0.4888888888888889],[-0.0020833333333333333,-0.4888888888888889],[-0.0020833333333333333,-0.4888888888888889],[-0.0020833333333333333,-0.4888888888888889],[-0.0020833333333333333,-0.4888888888888889],[-0.0020833333333333333,-0.4888888888888889],[-0.0020833333333333333,-0.4888888888888889],[-0.0020833333333333333,-0.4888888888888889],[-0.0020833333333333333,-0.4888888888888889],[-0.0020833333333333333,-0.4888888888888889],[-0.0020833333333333333,-0.4888888888888889],[-0.0020833333333333333,-0.4888888888888889],[-0.0020833333333333333,-0.4888888888888889],[-0.0020833333333333333,-0.4888888888888889],[-0.0020833333333333333,-0.4888888888888889],[-0.0020833333333333333,-0.4888888888888889],[-0.0020833333333333333,-0.4888888888888889],[-0.0020833333333333333,-0.4888888888888889],[-0.0020833333333333333,-0.4888888888888889],[-0.0020833333333333333,-0.4888888888888889],[-0.0020833333333333333,-0.4888888888888889],[-0.0020833333333333333,-0.4888888888888889],[-0.0020833333333333333,-0.4888888888888889],[-0.0020833333333333333,-0.4888888888888889],[-0.0020833333333333333,-0.4888888888888889],[-0.0020833333333333333,-0.4888888888888889],[-0.0020833333333333333,-0.4888888888888889],[-0.0020833333333333333,-0.4888888888888889],[-0.0020833333333333333,-0.4888888888888889],[-0.0020833333333333333,-0.4888888888888889],[-0.0020833333333333333,-0.4888888888888889],[-0.0020833333333333333,-0.4888888888888889],[-0.0020833333333333333,-0.4888888888888889],[-0.0020833333333333333,-0.4888888888888889],[-0.0020833333333333333,-0.4888888888888889],[-0.0020833333333333333,-0.4888888888888889],[-0.0020833333333333333,-0.4888888888888889],[-0.0020833333333333333,-0.4888888888888889],[-0.0020833333333333333,-0.4888888888888889],[-0.0020833333333333333,-0.4888888888888889],[-0.0020833333333333333,-0.4888888888888889],[-0.0020833333333333333,-0.4888888888888889],[-0.0020833333333333333,-0.4888888888888889],[-0.0020833333333333333,-0.4888888888888889],[-0.0020833333333333333,-0.4888888888888889],[-0.0020833333333333333,-0.4888888888888889],[-0.0020833333333333333,-0.4888888888888889],[-0.0020833333333333333,-0.4888888888888889],[-0.0020833333333333333,-0.4888888888888889],[-0.0020833333333333333,-0.4888888888888889],[-0.0020833333333333333,-0.4888888888888889],[-0.0020833333333333333,-0.4888888888888889],[-0.0020833333333333333,-0.4888888888888889],[-0.0020833333333333333,-0.48703703703703705],[-0.0020833333333333333,-0.48703703703703705],[-0.0020833333333333333,-0.48703703703703705],[-0.0020833333333333333,-0.48703703703703705],[-0.0020833333333333333,-0.48703703703703705],[-0.0020833333333333333,-0.48703703703703705],[-0.0020833333333333333,-0.48703703703703705],[-0.0020833333333333333,-0.48703703703703705],[-0.0020833333333333333,-0.48703703703703705],[-0.0020833333333333333,-0.48703703703703705],[-0.0020833333333333333,-0.48703703703703705],[-0.0020833333333333333,-0.48703703703703705],[-0.0020833333333333333,-0.48703703703703705],[-0.0020833333333333333,-0.48703703703703705],[-0.0010416666666666667,-0.48518518518518516],[-0.0010416666666666667,-0.48518518518518516],[-0.0010416666666666667,-0.48518518518518516],[-0.0010416666666666667,-0.48518518518518516],[0,-0.48518518518518516],[0,-0.48333333333333334],[0.0010416666666666667,-0.48333333333333334],[0.003125,-0.48333333333333334],[0.005208333333333333,-0.47962962962962963],[0.00625,-0.4777777777777778],[0.011458333333333333,-0.4740740740740741],[0.016666666666666666,-0.4666666666666667],[0.028125,-0.45555555555555555],[0.03333333333333333,-0.4537037037037037],[0.04479166666666667,-0.4444444444444444],[0.051041666666666666,-0.43703703703703706],[0.059375,-0.42962962962962964],[0.06770833333333333,-0.4203703703703704],[0.08229166666666667,-0.4074074074074074],[0.0875,-0.40370370370370373],[0.09166666666666666,-0.4],[0.096875,-0.39444444444444443],[0.09895833333333333,-0.3907407407407407],[0.09895833333333333,-0.3907407407407407],[0.09895833333333333,-0.3907407407407407],[0.09895833333333333,-0.3907407407407407],[0.09895833333333333,-0.3907407407407407],[0.09895833333333333,-0.3907407407407407],[0.09895833333333333,-0.3907407407407407],[0.09895833333333333,-0.3907407407407407],[0.09895833333333333,-0.3907407407407407],[0.09895833333333333,-0.3907407407407407],[0.09895833333333333,-0.3907407407407407],[0.09895833333333333,-0.3907407407407407],[0.09895833333333333,-0.3907407407407407],[0.09895833333333333,-0.3907407407407407],[0.09895833333333333,-0.3907407407407407],[0.09895833333333333,-0.3907407407407407],[0.09895833333333333,-0.3907407407407407],[0.09895833333333333,-0.3907407407407407],[0.09895833333333333,-0.3907407407407407],[0.09895833333333333,-0.3907407407407407],[0.09895833333333333,-0.3907407407407407],[0.09895833333333333,-0.3907407407407407],[0.09895833333333333,-0.3907407407407407],[0.09895833333333333,-0.3907407407407407],[0.09895833333333333,-0.3907407407407407],[0.09895833333333333,-0.3907407407407407],[0.09895833333333333,-0.3907407407407407],[0.09895833333333333,-0.3907407407407407],[0.09895833333333333,-0.3907407407407407],[0.09895833333333333,-0.3907407407407407],[0.09895833333333333,-0.3907407407407407],[0.09895833333333333,-0.3907407407407407],[0.09895833333333333,-0.3907407407407407],[0.09895833333333333,-0.3907407407407407],[0.09895833333333333,-0.3907407407407407],[0.09895833333333333,-0.3907407407407407],[0.1,-0.3888888888888889],[0.10625,-0.37962962962962965],[0.11145833333333334,-0.37222222222222223],[0.115625,-0.37037037037037035],[0.11666666666666667,-0.3685185185185185],[0.11666666666666667,-0.3685185185185185],[0.11666666666666667,-0.3685185185185185],[0.11666666666666667,-0.3685185185185185],[0.11666666666666667,-0.36666666666666664],[0.11666666666666667,-0.36666666666666664],[0.11666666666666667,-0.36666666666666664],[0.11666666666666667,-0.3648148148148148],[0.11666666666666667,-0.362962962962963],[0.11666666666666667,-0.3611111111111111],[0.11666666666666667,-0.3611111111111111],[0.11666666666666667,-0.3611111111111111],[0.11666666666666667,-0.3611111111111111],[0.11770833333333333,-0.3592592592592593],[0.11770833333333333,-0.3592592592592593],[0.11770833333333333,-0.3592592592592593],[0.11770833333333333,-0.3592592592592593],[0.11770833333333333,-0.3592592592592593],[0.11770833333333333,-0.3592592592592593],[0.11770833333333333,-0.3592592592592593],[0.11770833333333333,-0.3592592592592593],[0.11770833333333333,-0.3592592592592593],[0.11770833333333333,-0.3592592592592593],[0.11770833333333333,-0.3592592592592593],[0.11770833333333333,-0.3592592592592593],[0.11770833333333333,-0.3592592592592593],[0.11770833333333333,-0.3592592592592593],[0.11770833333333333,-0.3592592592592593],[0.11770833333333333,-0.3592592592592593],[0.11770833333333333,-0.3574074074074074],[0.11770833333333333,-0.35555555555555557],[0.11770833333333333,-0.35185185185185186],[0.11770833333333333,-0.34629629629629627],[0.11770833333333333,-0.3074074074074074],[0.11875,-0.28888888888888886],[0.121875,-0.2518518518518518],[0.13229166666666667,-0.1962962962962963],[0.1375,-0.1574074074074074],[0.14270833333333333,-0.12407407407407407],[0.14895833333333333,-0.09074074074074075],[0.15,-0.07037037037037037],[0.15208333333333332,-0.04814814814814815],[0.15208333333333332,-0.03888888888888889],[0.153125,-0.024074074074074074],[0.153125,-0.018518518518518517],[0.153125,-0.012962962962962963],[0.153125,-0.009259259259259259],[0.153125,-0.003703703703703704],[0.153125,0.003703703703703704],[0.153125,0.012962962962962963],[0.153125,0.024074074074074074],[0.153125,0.040740740740740744],[0.15416666666666667,0.06666666666666667],[0.15625,0.08333333333333333],[0.15729166666666666,0.10185185185185185],[0.15729166666666666,0.12407407407407407],[0.15729166666666666,0.14814814814814814],[0.15729166666666666,0.18518518518518517],[0.15729166666666666,0.21666666666666667],[0.15729166666666666,0.2462962962962963],[0.15729166666666666,0.25925925925925924],[0.15729166666666666,0.28888888888888886],[0.15729166666666666,0.3037037037037037],[0.15729166666666666,0.31666666666666665],[0.15729166666666666,0.3277777777777778],[0.15729166666666666,0.3388888888888889],[0.15729166666666666,0.34444444444444444],[0.15729166666666666,0.35],[0.15729166666666666,0.35185185185185186],[0.15729166666666666,0.35555555555555557],[0.15729166666666666,0.35555555555555557],[0.15729166666666666,0.35555555555555557],[0.15729166666666666,0.3611111111111111],[0.15729166666666666,0.3611111111111111],[0.15729166666666666,0.362962962962963],[0.15729166666666666,0.362962962962963],[0.15729166666666666,0.362962962962963],[0.15729166666666666,0.362962962962963],[0.15729166666666666,0.362962962962963],[0.15729166666666666,0.36666666666666664],[0.15625,0.3814814814814815],[0.15416666666666667,0.3851851851851852],[0.153125,0.3888888888888889],[0.153125,0.3925925925925926],[0.153125,0.3925925925925926],[0.153125,0.3925925925925926],[0.153125,0.3925925925925926],[0.153125,0.3925925925925926],[0.153125,0.3925925925925926],[0.153125,0.3925925925925926],[0.153125,0.3925925925925926],[0.153125,0.3925925925925926],[0.153125,0.3925925925925926],[0.153125,0.3925925925925926],[0.153125,0.3925925925925926],[0.153125,0.3925925925925926],[0.153125,0.3925925925925926],[0.153125,0.3925925925925926],[0.153125,0.3925925925925926],[0.153125,0.3925925925925926],[0.153125,0.3925925925925926],[0.153125,0.3925925925925926],[0.153125,0.3925925925925926],[0.153125,0.3925925925925926],[0.153125,0.3925925925925926],[0.153125,0.3925925925925926],[0.153125,0.3925925925925926],[0.153125,0.3925925925925926],[0.153125,0.3925925925925926],[0.153125,0.3925925925925926],[0.153125,0.3925925925925926],[0.153125,0.3925925925925926],[0.153125,0.3925925925925926],[0.153125,0.3925925925925926],[0.153125,0.3925925925925926],[0.153125,0.3925925925925926],[0.153125,0.3925925925925926],[0.153125,0.3925925925925926],[0.153125,0.3925925925925926],[0.153125,0.3925925925925926],[0.153125,0.3925925925925926],[0.153125,0.3925925925925926],[0.153125,0.3925925925925926],[0.153125,0.3925925925925926],[0.153125,0.3925925925925926],[0.153125,0.3925925925925926],[0.153125,0.3925925925925926],[0.153125,0.3925925925925926],[0.153125,0.3925925925925926],[0.153125,0.3925925925925926],[0.153125,0.3925925925925926],[0.153125,0.3925925925925926],[0.153125,0.3925925925925926],[0.153125,0.3925925925925926],[0.153125,0.3925925925925926],[0.153125,0.3925925925925926],[0.153125,0.3925925925925926],[0.153125,0.3925925925925926],[0.153125,0.3925925925925926],[0.153125,0.3925925925925926],[0.153125,0.3925925925925926],[0.153125,0.3925925925925926],[0.153125,0.3925925925925926],[0.153125,0.3925925925925926],[0.153125,0.3925925925925926],[0.153125,0.3925925925925926],[0.153125,0.3925925925925926],[0.153125,0.3925925925925926],[0.153125,0.3925925925925926],[0.153125,0.3925925925925926],[0.153125,0.3925925925925926]]","[[-0.002916666666666619,0.1081481481481481],[-0.002916666666666619,0.1081481481481481],[-0.021145833333333287,0.1242592592592593],[-0.008854166666666666,0.13851851851851843],[0.00302083333333331,0.11500000000000005],[0.019895833333333356,0.10185185185185185],[0.03197916666666671,0.12314814814814815],[0.058229166666666644,0.11648148148148144],[0.06354166666666666,0.08055555555555556],[0.043958333333333384,0.08296296296296288],[0.03854166666666667,0.05611111111111103],[0.027291666666666714,0.034074074074074034],[0.04208333333333331,-0.012962962962962963],[0.027708333333333356,-0.055185185185185205],[0.027708333333333356,-0.055185185185185205],[0.019375000000000024,-0.07537037037037035],[0.017708333333333333,-0.09240740740740737],[0.009375,-0.127962962962963],[-0.011458333333333333,-0.17537037037037034],[-0.030104166666666644,-0.20407407407407405],[-0.0546875,-0.26296296296296295],[-0.08416666666666663,-0.2851851851851852],[-0.08541666666666667,-0.31962962962962965],[-0.09083333333333338,-0.3394444444444445],[-0.09083333333333338,-0.3394444444444445],[-0.09760416666666671,-0.3622222222222223],[-0.0953125,-0.3761111111111112],[-0.11739583333333338,-0.41462962962962957],[-0.11854166666666661,-0.4438888888888889],[-0.12135416666666667,-0.43333333333333335],[-0.13250000000000003,-0.4190740740740741],[-0.11375000000000005,-0.4137037037037037],[-0.10666666666666665,-0.39092592592592595],[-0.10666666666666665,-0.39092592592592595],[-0.12781250000000005,-0.3559259259259259],[-0.12875000000000003,-0.34518518518518515],[-0.11114583333333337,-0.3314814814814815],[-0.0967708333333333,-0.32592592592592595],[-0.059687499999999956,-0.31500000000000006],[-0.03354166666666671,-0.31425925925925924],[-0.006458333333333381,-0.31148148148148147],[0.029062499999999977,-0.3181481481481482],[0.05625,-0.34370370370370373],[0.09510416666666661,-0.3866666666666667],[0.12541666666666676,-0.3998148148148148],[0.14874999999999997,-0.4009259259259259],[0.16697916666666662,-0.42592592592592593],[0.17541666666666675,-0.4414814814814814],[0.18104166666666663,-0.462037037037037],[0.1798958333333334,-0.46166666666666667],[0.18895833333333342,-0.48037037037037034],[0.19791666666666666,-0.4933333333333333],[0.19791666666666666,-0.4933333333333333],[0.22020833333333342,-0.47833333333333333],[0.22020833333333342,-0.47833333333333333],[0.2445833333333333,-0.4770370370370371],[0.2445833333333333,-0.4770370370370371],[0.2493750000000001,-0.5018518518518519],[0.2493750000000001,-0.5018518518518519],[0.24343750000000006,-0.5074074074074074],[0.24343750000000006,-0.5074074074074074],[0.21833333333333324,-0.49796296296296294],[0.21833333333333324,-0.49796296296296294],[0.18499999999999991,-0.4698148148148148],[0.18499999999999991,-0.4698148148148148],[0.1196875000000001,-0.41944444444444445],[0.08083333333333324,-0.3781481481481481],[0.01416666666666669,-0.3242592592592593],[-0.041979166666666616,-0.2687037037037037],[-0.12312500000000005,-0.24129629629629631],[-0.19343750000000004,-0.18944444444444447],[-0.21260416666666668,-0.17444444444444443],[-0.21260416666666668,-0.17444444444444443],[-0.23822916666666671,-0.18055555555555555],[-0.2595833333333334,-0.16370370370370366],[-0.265625,-0.1814814814814815],[-0.24166666666666667,-0.19222222222222224],[-0.225,-0.22851851851851848],[-0.19874999999999995,-0.2561111111111111],[-0.18302083333333338,-0.2853703703703704],[-0.14489583333333336,-0.32314814814814813],[-0.12364583333333339,-0.3688888888888889],[-0.13229166666666667,-0.3562962962962963],[-0.12718750000000004,-0.3464814814814815],[-0.12718750000000004,-0.3464814814814815],[-0.12781250000000005,-0.36074074074074075],[-0.13031250000000003,-0.3162962962962963],[-0.12062499999999995,-0.3405555555555555],[-0.12062499999999995,-0.3405555555555555],[-0.09343750000000005,-0.3346296296296296],[-0.09343750000000005,-0.3346296296296296],[-0.08937499999999995,-0.2892592592592592],[-0.084375,-0.22444444444444442],[-0.08083333333333335,-0.13129629629629624],[-0.050937499999999976,-0.07666666666666662],[-0.01593749999999995,-0.05759259259259263],[0.0109375,-0.02907407407407416],[0.04500000000000005,0.006481481481481481],[0.0912499999999999,-0.022592592592592678],[0.10416666666666667,-0.01703703703703712],[0.0984375,0.0294444444444444],[0.12427083333333329,0.014259259259259343],[0.15875000000000009,-0.028703703703703703],[0.16791666666666671,-0.04018518518518527],[0.1990624999999999,-0.03685185185185181],[0.1990624999999999,-0.03685185185185181],[0.23385416666666667,-0.010370370370370412],[0.21885416666666657,0.007592592592592635],[0.24031250000000004,0.0455555555555556],[0.25416666666666665,0.09592592592592585],[0.25416666666666665,0.09592592592592585],[0.2537499999999999,0.1544444444444444],[0.22999999999999995,0.17481481481481478],[0.2048958333333334,0.2131481481481482],[0.20927083333333343,0.22333333333333338],[0.22947916666666662,0.2],[0.2053124999999999,0.19759259259259268],[0.2053124999999999,0.19759259259259268],[0.21104166666666657,0.19444444444444445],[0.23697916666666666,0.23074074074074077],[0.23697916666666666,0.23074074074074077],[0.23635416666666675,0.20759259259259263],[0.24010416666666667,0.18777777777777774],[0.27406249999999993,0.17537037037037045],[0.29874999999999996,0.11703703703703712],[0.3115624999999999,0.07814814814814823],[0.2819791666666667,0.05740740740740741],[0.27333333333333343,0.053703703703703705],[0.2631249999999999,0.03351851851851856],[0.2211458333333333,0.0012962962962963806],[0.2211458333333333,0.0012962962962963806],[0.1912499999999999,-0.04981481481481477],[0.16333333333333327,-0.0485185185185186],[0.1310416666666666,-0.05055555555555547],[0.06156250000000003,-0.06018518518518518],[0.00635416666666669,-0.027037037037037078],[-0.05406249999999998,-0.04148148148148144],[-0.11145833333333334,-0.00851851851851856],[-0.1564583333333334,0.013333333333333417],[-0.1998958333333333,0.051666666666666625],[-0.1998958333333333,0.051666666666666625],[-0.24937499999999999,0.08111111111111102],[-0.2621875000000001,0.07296296296296292],[-0.2951041666666666,0.0705555555555556],[-0.3280208333333333,0.06814814814814807],[-0.3237499999999999,0.07333333333333338],[-0.29812500000000003,0.047037037037036995],[-0.25541666666666674,0.04888888888888885],[-0.20812499999999995,0.014814814814814815],[-0.18468749999999995,-0.023148148148148147],[-0.19145833333333329,-0.059814814814814835],[-0.1921875,-0.08759259259259261],[-0.19822916666666662,-0.09500000000000001],[-0.19458333333333327,-0.12537037037037035],[-0.20208333333333334,-0.1368518518518518],[-0.20958333333333337,-0.14833333333333337],[-0.20958333333333337,-0.14833333333333337],[-0.21020833333333327,-0.14981481481481476],[-0.18562500000000004,-0.11462962962962958],[-0.16531250000000006,-0.07259259259259257],[-0.1570833333333333,-0.02833333333333325],[-0.11260416666666669,-0.012407407407407492],[-0.07885416666666671,0.006851851851851936],[-0.04562499999999995,0.002777777777777778],[-0.02052083333333338,0.0011111111111111532],[0.01604166666666664,-0.008333333333333333],[0.01604166666666664,-0.008333333333333333],[0.05260416666666667,-0.01777777777777782],[0.08250000000000005,-0.03555555555555564],[0.08718750000000004,-0.09000000000000004],[0.08718750000000004,-0.09000000000000004],[0.08197916666666671,-0.10444444444444441],[0.08197916666666671,-0.10444444444444441],[0.09302083333333329,-0.152962962962963],[0.09302083333333329,-0.152962962962963],[0.11614583333333334,-0.14648148148148152],[0.11614583333333334,-0.14648148148148152],[0.14854166666666657,-0.12259259259259257],[0.14854166666666657,-0.12259259259259257],[0.15583333333333324,-0.07111111111111107],[0.15583333333333324,-0.07111111111111107],[0.18239583333333323,0.007592592592592635],[0.18239583333333323,0.007592592592592635],[0.20614583333333342,0.0455555555555556],[0.2283333333333334,0.08870370370370366],[0.2283333333333334,0.08870370370370366],[0.21104166666666657,0.1361111111111111],[0.21104166666666657,0.1361111111111111],[0.1859375,0.20870370370370378],[0.1859375,0.20870370370370378],[0.18541666666666667,0.23148148148148148],[0.18541666666666667,0.23148148148148148],[0.16895833333333338,0.28462962962962973],[0.16895833333333338,0.28462962962962973],[0.14166666666666666,0.30407407407407416],[0.12958333333333344,0.3224074074074075],[0.10437500000000005,0.32444444444444454],[0.06020833333333329,0.28648148148148156],[0.012916666666666642,0.26425925925925936],[-0.0328125,0.2368518518518518],[-0.03697916666666667,0.2611111111111111],[-0.04739583333333333,0.2507407407407407],[-0.06177083333333329,0.2101851851851852],[-0.06156250000000003,0.19185185185185188],[-0.07927083333333336,0.17611111111111116],[-0.13145833333333337,0.147037037037037],[-0.14906250000000001,0.144074074074074],[-0.16031249999999997,0.1557407407407408],[-0.1609375,0.2074074074074074],[-0.16156250000000003,0.259074074074074],[-0.19562499999999997,0.21944444444444444],[-0.21260416666666668,0.2175925925925926],[-0.253125,0.22611111111111115],[-0.29364583333333333,0.21222222222222226],[-0.3177083333333333,0.22314814814814815],[-0.2919791666666666,0.20462962962962963],[-0.2813541666666667,0.205925925925926],[-0.27072916666666663,0.20722222222222217],[-0.2529166666666666,0.14944444444444452],[-0.23510416666666673,0.09166666666666666],[-0.21104166666666668,0.0794444444444444],[-0.21104166666666668,0.0794444444444444],[-0.18999999999999997,0.03888888888888889],[-0.16124999999999995,0.062037037037037036],[-0.09302083333333329,0.12388888888888884],[-0.030624999999999975,0.16407407407407412],[-0.005416666666666714,0.21796296296296305],[0.02520833333333338,0.24314814814814806],[0.02520833333333338,0.24314814814814806],[0.06020833333333329,0.2616666666666666],[0.06895833333333339,0.3277777777777778],[0.09812500000000005,0.38870370370370366],[0.14197916666666663,0.44592592592592584],[0.1881249999999999,0.4911111111111112],[0.246875,0.5185185185185185],[0.2633333333333333,0.5088888888888888],[0.26614583333333336,0.44462962962962965],[0.26614583333333336,0.44462962962962965],[0.27406249999999993,0.3948148148148149],[0.27406249999999993,0.3948148148148149],[0.30479166666666657,0.3509259259259259],[0.30479166666666657,0.3509259259259259],[0.3311458333333334,0.31370370370370365],[0.3460416666666667,0.28425925925925927],[0.34249999999999997,0.24240740740740738],[0.33489583333333334,0.20777777777777787],[0.33489583333333334,0.20777777777777787],[0.3316666666666668,0.16500000000000004],[0.30927083333333344,0.102962962962963],[0.2868750000000001,0.04092592592592597],[0.28364583333333326,0.013703703703703662],[0.2834374999999999,-0.018518518518518517],[0.2569791666666667,-0.049629629629629544],[0.22802083333333342,-0.09592592592592594],[0.22697916666666676,-0.1403703703703704],[0.2115624999999999,-0.09537037037037037],[0.20197916666666677,-0.08037037037037033],[0.18614583333333337,-0.04314814814814806],[0.17916666666666667,-0.02759259259259255],[0.17916666666666667,-0.02759259259259255],[0.16791666666666671,0.006481481481481481],[0.13812499999999991,0.07259259259259268],[0.1009375000000001,0.08629629629629634],[0.08989583333333329,0.1361111111111111],[0.07947916666666661,0.14888888888888885],[0.06666666666666667,0.13740740740740748],[0.04885416666666664,0.10425925925925918],[0.02520833333333338,0.10111111111111115],[0.019895833333333356,0.07277777777777769],[0.007708333333333309,0.11611111111111119],[0.005104166666666643,0.12981481481481486],[0.01552083333333331,0.13129629629629624],[0.0021875000000000236,0.23296296296296287],[-0.00791666666666669,0.259074074074074],[-0.03770833333333338,0.30685185185185193],[-0.03770833333333338,0.30685185185185193],[-0.05614583333333331,0.32611111111111113],[-0.07135416666666666,0.32166666666666677],[-0.08864583333333335,0.3127777777777777],[-0.12468750000000005,0.32703703703703707],[-0.1310416666666666,0.322037037037037],[-0.14270833333333333,0.32814814814814824],[-0.1616666666666667,0.33722222222222226],[-0.15729166666666666,0.2992592592592593],[-0.16833333333333336,0.29499999999999993],[-0.15291666666666662,0.32759259259259255],[-0.14885416666666665,0.38870370370370366],[-0.14885416666666665,0.38870370370370366],[-0.12124999999999998,0.4074074074074074],[-0.09156249999999998,0.4305555555555556],[-0.07760416666666667,0.462037037037037],[-0.06604166666666664,0.4503703703703705],[-0.06020833333333329,0.4514814814814814],[-0.043958333333333384,0.45685185185185195],[-0.008645833333333287,0.43944444444444436],[0.01395833333333331,0.4038888888888889],[0.019479166666666714,0.42018518518518516],[0.025,0.4364814814814816],[0.025,0.4364814814814816],[0.03999999999999997,0.44314814814814807],[0.03999999999999997,0.44314814814814807],[0.060000000000000026,0.4425925925925926],[0.059583333333333384,0.4088888888888888],[0.059583333333333384,0.4088888888888888],[0.04572916666666664,0.43444444444444447],[0.04572916666666664,0.43444444444444447],[0.035000000000000024,0.4485185185185186],[0.035000000000000024,0.4485185185185186],[0.024374999999999977,0.4214814814814815],[0.024374999999999977,0.4214814814814815],[0.008229166666666643,0.443888888888889],[-0.002291666666666714,0.42481481481481476],[-0.002291666666666714,0.42481481481481476],[0.02000000000000005,0.38870370370370366],[0.02000000000000005,0.38870370370370366],[0.07395833333333333,0.35777777777777786],[0.08156249999999995,0.3683333333333333],[0.08416666666666663,0.3861111111111111],[0.1256249999999999,0.4292592592592592],[0.16291666666666677,0.42851851851851847],[0.203125,0.4246296296296295],[0.24010416666666667,0.4546296296296296],[0.24697916666666658,0.44592592592592584],[0.28322916666666675,0.515925925925926],[0.2805208333333333,0.5361111111111111],[0.2805208333333333,0.5361111111111111],[0.24614583333333329,0.5511111111111111],[0.24291666666666673,0.5635185185185184],[0.24020833333333325,0.5742592592592592],[0.24552083333333338,0.5725925925925927],[0.2234375,0.4957407407407408],[0.2133333333333333,0.47537037037037044],[0.20322916666666657,0.45500000000000007],[0.18979166666666672,0.47851851851851845],[0.15885416666666666,0.4596296296296297],[0.1502083333333334,0.4777777777777778],[0.15354166666666677,0.46166666666666656],[0.15437500000000004,0.42481481481481476],[0.14833333333333343,0.3896296296296296],[0.13156249999999994,0.36629629629629623],[0.13947916666666677,0.397037037037037],[0.13510416666666672,0.3731481481481482],[0.15666666666666676,0.3122222222222223],[0.19458333333333327,0.2609259259259259],[0.19781250000000009,0.20907407407407402],[0.22229166666666675,0.1705555555555556],[0.23104166666666662,0.18425925925925926],[0.2384375000000001,0.2051851851851851],[0.246875,0.21185185185185182],[0.2553124999999999,0.21851851851851853],[0.2553124999999999,0.21851851851851853],[0.271875,0.26074074074074066],[0.2787499999999999,0.27814814814814826],[0.2504166666666668,0.2953703703703704],[0.25656249999999997,0.31055555555555564],[0.2820833333333333,0.3483333333333334],[0.28125,0.3890740740740741],[0.2700000000000001,0.3596296296296297],[0.2700000000000001,0.3596296296296297],[0.25895833333333323,0.3303703703703703],[0.25895833333333323,0.3303703703703703],[0.22864583333333333,0.36629629629629623],[0.2107291666666666,0.3890740740740741],[0.19145833333333329,0.37111111111111106],[0.1865624999999999,0.39092592592592595],[0.19093749999999995,0.4479629629629629],[0.11458333333333333,0.4537037037037037],[0.06343749999999998,0.4646296296296296],[0.018124999999999978,0.4209259259259258],[-0.029895833333333382,0.4474074074074075],[-0.0765625,0.452962962962963],[-0.09864583333333338,0.4075925925925926],[-0.10968749999999995,0.3937037037037037],[-0.12479166666666662,0.40611111111111103],[-0.12614583333333335,0.3877777777777777],[-0.12749999999999997,0.36944444444444446],[-0.06749999999999995,0.34333333333333327],[-0.03270833333333331,0.31203703703703706],[-0.03270833333333331,0.31203703703703706],[-0.02333333333333331,0.2927777777777778],[0.022812499999999975,0.23777777777777773],[0.06760416666666676,0.2037037037037037],[0.1390625,0.16962962962962966],[0.15510416666666677,0.11500000000000005],[0.17114583333333327,0.060370370370370414],[0.16875,0.0235185185185186],[0.16770833333333332,-0.011481481481481566],[0.16875,-0.006296296296296254],[0.16875,-0.006296296296296254],[0.15343749999999995,-0.0014814814814813973],[0.15343749999999995,-0.0014814814814813973],[0.1638541666666666,0.013703703703703662],[0.1662499999999999,0.019999999999999917],[0.1805208333333333,-0.04203703703703712],[0.17708333333333334,-0.08574074074074076],[0.19281249999999991,-0.1257407407407407],[0.21583333333333338,-0.14814814814814814],[0.23885416666666662,-0.1705555555555556],[0.2539583333333333,-0.17555555555555558],[0.2615624999999999,-0.2294444444444444],[0.2730208333333332,-0.25703703703703706],[0.2852083333333333,-0.3225925925925926],[0.2691666666666668,-0.3653703703703704],[0.23364583333333327,-0.3168518518518519],[0.18916666666666657,-0.2866666666666667],[0.15750000000000006,-0.257962962962963],[0.14249999999999996,-0.26185185185185184],[0.1134375000000001,-0.2770370370370371],[0.09093749999999995,-0.31148148148148147],[0.07010416666666662,-0.3183333333333333],[0.05635416666666669,-0.3346296296296296],[0.03687499999999998,-0.32537037037037037],[0.05499999999999995,-0.32148148148148153],[0.07364583333333338,-0.34148148148148144],[0.09666666666666662,-0.3479629629629629],[0.1196875000000001,-0.3544444444444444],[0.10812499999999996,-0.33111111111111113],[0.11062500000000004,-0.2964814814814815],[0.11062500000000004,-0.2964814814814815],[0.12916666666666668,-0.2764814814814815],[0.12916666666666668,-0.2764814814814815],[0.13624999999999995,-0.27685185185185185],[0.15416666666666667,-0.2687037037037037],[0.15416666666666667,-0.2687037037037037],[0.1720833333333334,-0.26055555555555554],[0.1720833333333334,-0.26055555555555554],[0.16104166666666658,-0.255],[0.16104166666666658,-0.255],[0.1632291666666667,-0.25388888888888894],[0.16843750000000005,-0.2361111111111111],[0.16843750000000005,-0.2361111111111111],[0.1736458333333334,-0.2183333333333333],[0.1736458333333334,-0.2183333333333333],[0.1790625000000001,-0.22555555555555556],[0.1790625000000001,-0.22555555555555556],[0.19375,-0.24018518518518517],[0.19375,-0.24018518518518517],[0.19895833333333332,-0.2542592592592593],[0.19895833333333332,-0.2542592592592593],[0.18937499999999996,-0.2388888888888889],[0.18937499999999996,-0.2388888888888889],[0.17604166666666668,-0.24314814814814817],[0.17604166666666668,-0.24314814814814817],[0.18864583333333323,-0.2544444444444444],[0.18864583333333323,-0.2544444444444444],[0.20104166666666667,-0.23981481481481481],[0.20104166666666667,-0.23981481481481481],[0.20541666666666672,-0.21648148148148144],[0.19677083333333342,-0.2462962962962963],[0.21541666666666662,-0.28703703703703703],[0.21385416666666662,-0.2940740740740741],[0.20958333333333337,-0.290925925925926],[0.20927083333333343,-0.2959259259259259],[0.23583333333333342,-0.30166666666666664],[0.26052083333333326,-0.3116666666666667],[0.2642708333333334,-0.3374074074074074],[0.27156250000000004,-0.3772222222222222],[0.28072916666666664,-0.4203703703703704],[0.28895833333333343,-0.4124074074074074],[0.2751041666666666,-0.4022222222222222],[0.28229166666666666,-0.4083333333333333],[0.28541666666666665,-0.4390740740740741],[0.25906250000000003,-0.4390740740740741],[0.23093750000000005,-0.4485185185185185],[0.23427083333333343,-0.4468518518518519],[0.209375,-0.41648148148148145],[0.20385416666666673,-0.39518518518518514],[0.19833333333333342,-0.3738888888888888],[0.20114583333333325,-0.3738888888888888],[0.20729166666666668,-0.36444444444444446],[0.21604166666666677,-0.3781481481481481],[0.22385416666666677,-0.3635185185185185],[0.2400000000000001,-0.35777777777777775],[0.2400000000000001,-0.35777777777777775],[0.25125000000000003,-0.3559259259259259],[0.2521874999999999,-0.37037037037037035],[0.26510416666666664,-0.3725925925925926],[0.2703125,-0.37703703703703706],[0.2703125,-0.37703703703703706],[0.2808333333333332,-0.38851851851851854],[0.26749999999999996,-0.40314814814814814]]","[[-0.002916666666666619,0.1081481481481481,0.00030000019071962924],[-0.002916666666666619,0.1081481481481481,0.05230000019074055],[-0.021145833333333287,0.1242592592592593,0.05809999990461279],[-0.008854166666666666,0.13851851851851843,0.07480000019072008],[0.00302083333333331,0.11500000000000005,0.09140000009534788],[0.019895833333333356,0.10185185185185185,0.10809999990462416],[0.03197916666666671,0.12314814814814815,0.12480000019073145],[0.058229166666666644,0.11648148148148144,0.14140000009535925],[0.06354166666666666,0.08055555555555556,0.15809999990463552],[0.043958333333333384,0.08296296296296288,0.17480000019074282],[0.03854166666666667,0.05611111111111103,0.19159999990463916],[0.027291666666666714,0.034074074074074034,0.20809999990461847],[0.04208333333333331,-0.012962962962962963,0.22490000009537425],[0.027708333333333356,-0.055185185185185205,0.24140000009535356],[0.027708333333333356,-0.055185185185185205,0.25799999999998136],[0.019375000000000024,-0.07537037037037035,0.27480000019073714],[0.017708333333333333,-0.09240740740740737,0.29140000009536493],[0.009375,-0.127962962962963,0.3079999999999927],[-0.011458333333333333,-0.17537037037037034,0.3255999999046253],[-0.030104166666666644,-0.20407407407407405,0.34149999999999636],[-0.0546875,-0.26296296296296295,0.35809999990462416],[-0.08416666666666663,-0.2851851851851852,0.37480000019073145],[-0.08541666666666667,-0.31962962962962965,0.39140000009535925],[-0.09083333333333338,-0.3394444444444445,0.4092000002860914],[-0.09083333333333338,-0.3394444444444445,0.4248000001907428],[-0.09760416666666671,-0.3622222222222223,0.4414999999999907],[-0.0953125,-0.3761111111111112,0.45809999990461847],[-0.11739583333333338,-0.41462962962962957,0.4747000002861057],[-0.11854166666666661,-0.4438888888888889,0.49150000000000205],[-0.12135416666666667,-0.43333333333333335,0.5082000002861093],[-0.13250000000000003,-0.4190740740740741,0.5264000000953502],[-0.11375000000000005,-0.4137037037037037,0.5414000000953649],[-0.10666666666666665,-0.39092592592592595,0.5582000002860923],[-0.10666666666666665,-0.39092592592592595,0.5748000001907201],[-0.12781250000000005,-0.3559259259259259,0.5914999999999964],[-0.12875000000000003,-0.34518518518518515,0.6080999999046242],[-0.11114583333333337,-0.3314814814814815,0.6249000000953515],[-0.0967708333333333,-0.32592592592592595,0.6414000000953592],[-0.059687499999999956,-0.31500000000000006,0.6580999999046355],[-0.03354166666666671,-0.31425925925925924,0.6748000001907428],[-0.006458333333333381,-0.31148148148148147,0.6914000000953706],[0.029062499999999977,-0.3181481481481482,0.7080999999046185],[0.05625,-0.34370370370370373,0.7259999999999991],[0.09510416666666661,-0.3866666666666667,0.7414000000953536],[0.12541666666666676,-0.3998148148148148,0.7580999999046298],[0.14874999999999997,-0.4009259259259259,0.7753000001907253],[0.16697916666666662,-0.42592592592592593,0.7914000000953649],[0.17541666666666675,-0.4414814814814814,0.8080999999046128],[0.18104166666666663,-0.462037037037037,0.8249000000953686],[0.1798958333333334,-0.46166666666666667,0.8419000000953645],[0.18895833333333342,-0.48037037037037034,0.8580999999046242],[0.19791666666666666,-0.4933333333333333,0.8750999999046201],[0.19791666666666666,-0.4933333333333333,0.8915000000000077],[0.22020833333333342,-0.47833333333333333,0.907999999999987],[0.22020833333333342,-0.47833333333333333,0.9248000001907428],[0.2445833333333333,-0.4770370370370371,0.9414999999999907],[0.2445833333333333,-0.4770370370370371,0.9580999999046185],[0.2493750000000001,-0.5018518518518519,0.9749000000953743],[0.2493750000000001,-0.5018518518518519,0.991500000000002],[0.24343750000000006,-0.5074074074074074,1.0080999999046298],[0.24343750000000006,-0.5074074074074074,1.0248000001907371],[0.21833333333333324,-0.49796296296296294,1.041400000095365],[0.21833333333333324,-0.49796296296296294,1.0580999999046128],[0.18499999999999991,-0.4698148148148148,1.07480000019072],[0.18499999999999991,-0.4698148148148148,1.0914999999999964],[0.1196875000000001,-0.41944444444444445,1.108000000000004],[0.08083333333333324,-0.3781481481481481,1.12509999990462],[0.01416666666666669,-0.3242592592592593,1.1415000000000077],[-0.041979166666666616,-0.2687037037037037,1.1607000002860843],[-0.12312500000000005,-0.24129629629629631,1.1747000002860943],[-0.19343750000000004,-0.18944444444444447,1.1914000000953706],[-0.21260416666666668,-0.17444444444444443,1.2109000000953642],[-0.21260416666666668,-0.17444444444444443,1.2249000000953743],[-0.23822916666666671,-0.18055555555555555,1.241500000000002],[-0.2595833333333334,-0.16370370370370366,1.2595000000000027],[-0.265625,-0.1814814814814815,1.2748000001907371],[-0.24166666666666667,-0.19222222222222224,1.291499999999985],[-0.225,-0.22851851851851848,1.3082000002860923],[-0.19874999999999995,-0.2561111111111111,1.3255999999046253],[-0.18302083333333338,-0.2853703703703704,1.3414000000953479],[-0.14489583333333336,-0.32314814814814813,1.3580999999046242],[-0.12364583333333339,-0.3688888888888889,1.374700000286083],[-0.13229166666666667,-0.3562962962962963,1.3914000000953592],[-0.12718750000000004,-0.3464814814814815,1.4080999999046355],[-0.12718750000000004,-0.3464814814814815,1.4248000001907428],[-0.12781250000000005,-0.36074074074074075,1.4414000000953706],[-0.13031250000000003,-0.3162962962962963,1.4607000002860957],[-0.12062499999999995,-0.3405555555555555,1.4747000002861057],[-0.12062499999999995,-0.3405555555555555,1.491500000000002],[-0.09343750000000005,-0.3346296296296296,1.5083000001907294],[-0.09343750000000005,-0.3346296296296296,1.5249000000953572],[-0.08937499999999995,-0.2892592592592592,1.541499999999985],[-0.084375,-0.22444444444444442,1.5584000000953608],[-0.08083333333333335,-0.13129629629629624,1.5747000002861],[-0.050937499999999976,-0.07666666666666662,1.5914999999999964],[-0.01593749999999995,-0.05759259259259263,1.608000000000004],[0.0109375,-0.02907407407407416,1.6248000001907315],[0.04500000000000005,0.006481481481481481,1.642099999904616],[0.0912499999999999,-0.022592592592592678,1.6580999999046355],[0.10416666666666667,-0.01703703703703712,1.6748000001907428],[0.0984375,0.0294444444444444,1.6913000001907221],[0.12427083333333329,0.014259259259259343,1.7080999999046185],[0.15875000000000009,-0.028703703703703703,1.7267000002860868],[0.16791666666666671,-0.04018518518518527,1.7414000000953536],[0.1990624999999999,-0.03685185185185181,1.7608000001907271],[0.1990624999999999,-0.03685185185185181,1.7747000002860887],[0.23385416666666667,-0.010370370370370412,1.791400000095365],[0.21885416666666657,0.007592592592592635,1.8084000000953608],[0.24031250000000004,0.0455555555555556,1.8273000001907178],[0.25416666666666665,0.09592592592592585,1.8523000001907235],[0.25416666666666665,0.09592592592592585,1.8594000000953486],[0.2537499999999999,0.1544444444444444,1.874700000286083],[0.22999999999999995,0.17481481481481478,1.893900000095357],[0.2048958333333334,0.2131481481481482,1.907999999999987],[0.20927083333333343,0.22333333333333338,1.928599999904634],[0.22947916666666662,0.2,1.9440999999046369],[0.2053124999999999,0.19759259259259268,1.9607000002860957],[0.2053124999999999,0.19759259259259268,1.9747000002861057],[0.21104166666666657,0.19444444444444445,1.991500000000002],[0.23697916666666666,0.23074074074074077,2.0110999999046157],[0.23697916666666666,0.23074074074074077,2.024900000095357],[0.23635416666666675,0.20759259259259263,2.041400000095365],[0.24010416666666667,0.18777777777777774,2.0579999999999927],[0.27406249999999993,0.17537037037037045,2.0747000002861],[0.29874999999999996,0.11703703703703712,2.0914999999999964],[0.3115624999999999,0.07814814814814823,2.108099999904624],[0.2819791666666667,0.05740740740740741,2.126800000190741],[0.27333333333333343,0.053703703703703705,2.142800000190732],[0.2631249999999999,0.03351851851851856,2.157999999999987],[0.2211458333333333,0.0012962962962963806,2.1747000002860943],[0.2211458333333333,0.0012962962962963806,2.1914999999999907],[0.1912499999999999,-0.04981481481481477,2.2079999999999984],[0.16333333333333327,-0.0485185185185186,2.225200000286094],[0.1310416666666666,-0.05055555555555547,2.2414000000953536],[0.06156250000000003,-0.06018518518518518,2.25809999990463],[0.00635416666666669,-0.027037037037037078,2.2747000002860887],[-0.05406249999999998,-0.04148148148148144,2.291900000095353],[-0.11145833333333334,-0.00851851851851856,2.308099999904613],[-0.1564583333333334,0.013333333333333417,2.32480000019072],[-0.1998958333333333,0.051666666666666625,2.341400000095348],[-0.1998958333333333,0.051666666666666625,2.358099999904624],[-0.24937499999999999,0.08111111111111102,2.374700000286083],[-0.2621875000000001,0.07296296296296292,2.3915000000000077],[-0.2951041666666666,0.0705555555555556,2.4107000002860843],[-0.3280208333333333,0.06814814814814807,2.4273000001907405],[-0.3237499999999999,0.07333333333333338,2.441300000190722],[-0.29812500000000003,0.047037037037036995,2.4584999999999866],[-0.25541666666666674,0.04888888888888885,2.4748000001907258],[-0.20812499999999995,0.014814814814814815,2.4913000001907335],[-0.18468749999999995,-0.023148148148148147,2.50809999990463],[-0.19145833333333329,-0.059814814814814835,2.5275999999046235],[-0.1921875,-0.08759259259259261,2.544099999904631],[-0.19822916666666662,-0.09500000000000001,2.559900000095354],[-0.19458333333333327,-0.12537037037037035,2.5749000000953686],[-0.20208333333333334,-0.1368518518518518,2.5915999999046164],[-0.20958333333333337,-0.14833333333333337,2.6119999999999948],[-0.20958333333333337,-0.14833333333333337,2.6248000001907315],[-0.21020833333333327,-0.14981481481481476,2.6415000000000077],[-0.18562500000000004,-0.11462962962962958,2.6595000000000084],[-0.16531250000000006,-0.07259259259259257,2.6747000002860943],[-0.1570833333333333,-0.02833333333333325,2.691300000190722],[-0.11260416666666669,-0.012407407407407492,2.7080999999046185],[-0.07885416666666671,0.006851851851851936,2.728499999999997],[-0.04562499999999995,0.002777777777777778,2.7442000002860993],[-0.02052083333333338,0.0011111111111111532,2.758499999999998],[0.01604166666666664,-0.008333333333333333,2.7783000001907396],[0.01604166666666664,-0.008333333333333333,2.7944999999999993],[0.05260416666666667,-0.01777777777777782,2.808099999904613],[0.08250000000000005,-0.03555555555555564,2.8267000002861096],[0.08718750000000004,-0.09000000000000004,2.848800000190721],[0.08718750000000004,-0.09000000000000004,2.858099999904624],[0.08197916666666671,-0.10444444444444441,2.874700000286083],[0.08197916666666671,-0.10444444444444441,2.8914000000953592],[0.09302083333333329,-0.152962962962963,2.907999999999987],[0.09302083333333329,-0.152962962962963,2.924999999999983],[0.11614583333333334,-0.14648148148148152,2.9414999999999907],[0.11614583333333334,-0.14648148148148152,2.9579999999999984],[0.14854166666666657,-0.12259259259259257,2.9748000001907258],[0.14854166666666657,-0.12259259259259257,2.9914000000953536],[0.15583333333333324,-0.07111111111111107,3.0082000002861093],[0.15583333333333324,-0.07111111111111107,3.024900000095357],[0.18239583333333323,0.007592592592592635,3.041400000095365],[0.18239583333333323,0.007592592592592635,3.058099999904613],[0.20614583333333342,0.0455555555555556,3.0747000002861],[0.2283333333333334,0.08870370370370366,3.0960999999046237],[0.2283333333333334,0.08870370370370366,3.108099999904624],[0.21104166666666657,0.1361111111111111,3.1249000000953515],[0.21104166666666657,0.1361111111111111,3.1414000000953592],[0.1859375,0.20870370370370378,3.1580999999046355],[0.1859375,0.20870370370370378,3.1747000002860943],[0.18541666666666667,0.23148148148148148,3.1914000000953706],[0.18541666666666667,0.23148148148148148,3.2080999999046185],[0.16895833333333338,0.28462962962962973,3.2249000000953743],[0.16895833333333338,0.28462962962962973,3.2414000000953536],[0.14166666666666666,0.30407407407407416,3.25809999990463],[0.12958333333333344,0.3224074074074075,3.2747000002860887],[0.10437500000000005,0.32444444444444454,3.291400000095365],[0.06020833333333329,0.28648148148148156,3.3079999999999927],[0.012916666666666642,0.26425925925925936,3.32480000019072],[-0.0328125,0.2368518518518518,3.341400000095348],[-0.03697916666666667,0.2611111111111111,3.358000000000004],[-0.04739583333333333,0.2507407407407407,3.374700000286083],[-0.06177083333333329,0.2101851851851852,3.3914000000953592],[-0.06156250000000003,0.19185185185185188,3.407999999999987],[-0.07927083333333336,0.17611111111111116,3.4247000002860943],[-0.13145833333333337,0.147037037037037,3.4414000000953706],[-0.14906250000000001,0.144074074074074,3.4579999999999984],[-0.16031249999999997,0.1557407407407408,3.4747000002861057],[-0.1609375,0.2074074074074074,3.4914000000953536],[-0.16156250000000003,0.259074074074074,3.5079999999999814],[-0.19562499999999997,0.21944444444444444,3.524900000095357],[-0.21260416666666668,0.2175925925925926,3.5413000001907164],[-0.253125,0.22611111111111115,3.558099999904613],[-0.29364583333333333,0.21222222222222226,3.5747000002861],[-0.3177083333333333,0.22314814814814815,3.591400000095348],[-0.2919791666666666,0.20462962962962963,3.608000000000004],[-0.2813541666666667,0.205925925925926,3.6248000001907315],[-0.27072916666666663,0.20722222222222217,3.6414000000953592],[-0.2529166666666666,0.14944444444444452,3.657999999999987],[-0.23510416666666673,0.09166666666666666,3.6747000002860943],[-0.21104166666666668,0.0794444444444444,3.6914000000953706],[-0.21104166666666668,0.0794444444444444,3.7079999999999984],[-0.18999999999999997,0.03888888888888889,3.7249000000953743],[-0.16124999999999995,0.062037037037037036,3.7413000001907335],[-0.09302083333333329,0.12388888888888884,3.7592000002860857],[-0.030624999999999975,0.16407407407407412,3.777800000190723],[-0.005416666666666714,0.21796296296296305,3.7945999999046194],[0.02520833333333338,0.24314814814814806,3.8135000000000048],[0.02520833333333338,0.24314814814814806,3.8282000002861025],[0.06020833333333329,0.2616666666666666,3.841400000095348],[0.06895833333333339,0.3277777777777778,3.86099999999999],[0.09812500000000005,0.38870370370370366,3.877599999904618],[0.14197916666666663,0.44592592592592584,3.893900000095357],[0.1881249999999999,0.4911111111111112,3.907999999999987],[0.246875,0.5185185185185185,3.926400000095356],[0.2633333333333333,0.5088888888888888,3.9414000000953706],[0.26614583333333336,0.44462962962962965,3.9579999999999984],[0.26614583333333336,0.44462962962962965,3.9748000001907258],[0.27406249999999993,0.3948148148148149,3.991500000000002],[0.27406249999999993,0.3948148148148149,4.00809999990463],[0.30479166666666657,0.3509259259259259,4.024800000190737],[0.30479166666666657,0.3509259259259259,4.041400000095365],[0.3311458333333334,0.31370370370370365,4.058099999904613],[0.3460416666666667,0.28425925925925927,4.0747000002861],[0.34249999999999997,0.24240740740740738,4.091400000095348],[0.33489583333333334,0.20777777777777787,4.108000000000004],[0.33489583333333334,0.20777777777777787,4.1249000000953515],[0.3316666666666668,0.16500000000000004,4.141400000095359],[0.30927083333333344,0.102962962962963,4.1580999999046355],[0.2868750000000001,0.04092592592592597,4.174700000286094],[0.28364583333333326,0.013703703703703662,4.191300000190722],[0.2834374999999999,-0.018518518518518517,4.207999999999998],[0.2569791666666667,-0.049629629629629544,4.2273000001907235],[0.22802083333333342,-0.09592592592592594,4.241599999904622],[0.22697916666666676,-0.1403703703703704,4.261599999904632],[0.2115624999999999,-0.09537037037037037,4.275999999999982],[0.20197916666666677,-0.08037037037037033,4.2913000001907164],[0.18614583333333337,-0.04314814814814806,4.307999999999993],[0.17916666666666667,-0.02759259259259255,4.3367000002861005],[0.17916666666666667,-0.02759259259259255,4.342999999999989],[0.16791666666666671,0.006481481481481481,4.358000000000004],[0.13812499999999991,0.07259259259259268,4.3749000000953515],[0.1009375000000001,0.08629629629629634,4.391500000000008],[0.08989583333333329,0.1361111111111111,4.407999999999987],[0.07947916666666661,0.14888888888888885,4.424700000286094],[0.06666666666666667,0.13740740740740748,4.441499999999991],[0.04885416666666664,0.10425925925925918,4.457999999999998],[0.02520833333333338,0.10111111111111115,4.474700000286106],[0.019895833333333356,0.07277777777777769,4.495300000190724],[0.007708333333333309,0.11611111111111119,4.5087000002860975],[0.005104166666666643,0.12981481481481486,4.526700000286098],[0.01552083333333331,0.13129629629629624,4.541700000286085],[0.0021875000000000236,0.23296296296296287,4.560599999904639],[-0.00791666666666669,0.259074074074074,4.57659999990463],[-0.03770833333333338,0.30685185185185193,4.5938000001907255],[-0.03770833333333338,0.30685185185185193,4.608200000286104],[-0.05614583333333331,0.32611111111111113,4.628099999904634],[-0.07135416666666666,0.32166666666666677,4.643099999904621],[-0.08864583333333335,0.3127777777777777,4.660099999904617],[-0.12468750000000005,0.32703703703703707,4.678300000190717],[-0.1310416666666666,0.322037037037037,4.693400000095352],[-0.14270833333333333,0.32814814814814824,4.708300000190718],[-0.1616666666666667,0.33722222222222226,4.729700000286101],[-0.15729166666666666,0.2992592592592593,4.744599999904636],[-0.16833333333333336,0.29499999999999993,4.759999999999991],[-0.15291666666666662,0.32759259259259255,4.774900000095357],[-0.14885416666666665,0.38870370370370366,4.799499999999995],[-0.14885416666666665,0.38870370370370366,4.808200000286092],[-0.12124999999999998,0.4074074074074074,4.825300000190737],[-0.09156249999999998,0.4305555555555556,4.845499999999987],[-0.07760416666666667,0.462037037037037,4.8627000002860825],[-0.06604166666666664,0.4503703703703705,4.877599999904618],[-0.06020833333333329,0.4514814814814814,4.892800000190732],[-0.043958333333333384,0.45685185185185195,4.907999999999987],[-0.008645833333333287,0.43944444444444436,4.924700000286094],[0.01395833333333331,0.4038888888888889,4.941400000095371],[0.019479166666666714,0.42018518518518516,4.9584000000953665],[0.025,0.4364814814814816,4.979700000286101],[0.025,0.4364814814814816,4.991400000095354],[0.03999999999999997,0.44314814814814807,5.00809999990463],[0.03999999999999997,0.44314814814814807,5.024800000190737],[0.060000000000000026,0.4425925925925926,5.041400000095365],[0.059583333333333384,0.4088888888888888,5.057999999999993],[0.059583333333333384,0.4088888888888888,5.0747000002861],[0.04572916666666664,0.43444444444444447,5.091400000095348],[0.04572916666666664,0.43444444444444447,5.108099999904624],[0.035000000000000024,0.4485185185185186,5.1248000001907315],[0.035000000000000024,0.4485185185185186,5.141400000095359],[0.024374999999999977,0.4214814814814815,5.157999999999987],[0.024374999999999977,0.4214814814814815,5.174700000286094],[0.008229166666666643,0.443888888888889,5.191400000095371],[-0.002291666666666714,0.42481481481481476,5.215300000190723],[-0.002291666666666714,0.42481481481481476,5.224700000286106],[0.02000000000000005,0.38870370370370366,5.241400000095354],[0.02000000000000005,0.38870370370370366,5.257999999999981],[0.07395833333333333,0.35777777777777786,5.274800000190737],[0.08156249999999995,0.3683333333333333,5.2915999999046335],[0.08416666666666663,0.3861111111111111,5.307999999999993],[0.1256249999999999,0.4292592592592592,5.32859999990464],[0.16291666666666677,0.42851851851851847,5.343900000095374],[0.203125,0.4246296296296295,5.358499999999992],[0.24010416666666667,0.4546296296296296,5.374700000286083],[0.24697916666666658,0.44592592592592584,5.391400000095359],[0.28322916666666675,0.515925925925926,5.407999999999987],[0.2805208333333333,0.5361111111111111,5.426200000286087],[0.2805208333333333,0.5361111111111111,5.441400000095371],[0.24614583333333329,0.5511111111111111,5.461200000286084],[0.24291666666666673,0.5635185185185184,5.475599999904631],[0.24020833333333325,0.5742592592592592,5.49190000009537],[0.24552083333333338,0.5725925925925927,5.511099999904616],[0.2234375,0.4957407407407408,5.52840000009536],[0.2133333333333333,0.47537037037037044,5.545099999904636],[0.20322916666666657,0.45500000000000007,5.5608000001907385],[0.18979166666666672,0.47851851851851845,5.576200000286093],[0.15885416666666666,0.4596296296296297,5.595099999904619],[0.1502083333333334,0.4777777777777778,5.6108000001907214],[0.15354166666666677,0.46166666666666656,5.627499999999998],[0.15437500000000004,0.42481481481481476,5.64509999990463],[0.14833333333333343,0.3896296296296296,5.664300000190735],[0.13156249999999994,0.36629629629629623,5.678300000190717],[0.13947916666666677,0.397037037037037,5.6935],[0.13510416666666672,0.3731481481481482,5.708300000190718],[0.15666666666666676,0.3122222222222223,5.727700000286092],[0.19458333333333327,0.2609259259259259,5.745099999904625],[0.19781250000000009,0.20907407407407402,5.761300000190715],[0.22229166666666675,0.1705555555555556,5.77620000028611],[0.23104166666666662,0.18425925925925926,5.7913000001907164],[0.2384375000000001,0.2051851851851851,5.809300000190717],[0.246875,0.21185185185185182,5.826200000286093],[0.2553124999999999,0.21851851851851853,5.843300000190737],[0.2553124999999999,0.21851851851851853,5.858000000000004],[0.271875,0.26074074074074066,5.874700000286083],[0.2787499999999999,0.27814814814814826,5.891400000095359],[0.2504166666666668,0.2953703703703704,5.907999999999987],[0.25656249999999997,0.31055555555555564,5.927400000095361],[0.2820833333333333,0.3483333333333334,5.943099999904632],[0.28125,0.3890740740740741,5.959499999999991],[0.2700000000000001,0.3596296296296297,5.974700000286106],[0.2700000000000001,0.3596296296296297,5.991599999904622],[0.25895833333333323,0.3303703703703703,6.011800000190732],[0.25895833333333323,0.3303703703703703,6.025000000000006],[0.22864583333333333,0.36629629629629623,6.041700000286085],[0.2107291666666666,0.3890740740740741,6.063099999904637],[0.19145833333333329,0.37111111111111106,6.077400000095366],[0.1865624999999999,0.39092592592592595,6.092400000095353],[0.19093749999999995,0.4479629629629629,6.108300000190724],[0.11458333333333333,0.4537037037037037,6.128999999999991],[0.06343749999999998,0.4646296296296296,6.1440999999046255],[0.018124999999999978,0.4209259259259258,6.161099999904621],[-0.029895833333333382,0.4474074074074075,6.178700000286085],[-0.0765625,0.452962962962963,6.1944000000953565],[-0.09864583333333338,0.4075925925925926,6.209700000286091],[-0.10968749999999995,0.3937037037037037,6.2257000002861105],[-0.12479166666666662,0.40611111111111103,6.243900000095351],[-0.12614583333333335,0.3877777777777777,6.258900000095366],[-0.12749999999999997,0.36944444444444446,6.274800000190737],[-0.06749999999999995,0.34333333333333327,6.291499999999985],[-0.03270833333333331,0.31203703703703706,6.311200000286107],[-0.03270833333333331,0.31203703703703706,6.324999999999989],[-0.02333333333333331,0.2927777777777778,6.341700000286096],[0.022812499999999975,0.23777777777777773,6.358300000190724],[0.06760416666666676,0.2037037037037037,6.378300000190734],[0.1390625,0.16962962962962966,6.393900000095357],[0.15510416666666677,0.11500000000000005,6.408999999999992],[0.17114583333333327,0.060370370370370414,6.425700000286099],[0.16875,0.0235185185185186,6.444099999904637],[0.16770833333333332,-0.011481481481481566,6.4602000002861075],[0.16875,-0.006296296296296254,6.478599999904617],[0.16875,-0.006296296296296254,6.509700000286102],[0.15343749999999995,-0.0014814814814813973,6.516800000190727],[0.15343749999999995,-0.0014814814814813973,6.525200000286105],[0.1638541666666666,0.013703703703703662,6.541499999999985],[0.1662499999999999,0.019999999999999917,6.561000000000007],[0.1805208333333333,-0.04203703703703712,6.57480000019072],[0.17708333333333334,-0.08574074074074076,6.591499999999996],[0.19281249999999991,-0.1257407407407407,6.610400000095353],[0.21583333333333338,-0.14814814814814814,6.62709999990463],[0.23885416666666662,-0.1705555555555556,6.643099999904621],[0.2539583333333333,-0.17555555555555558,6.6580999999046355],[0.2615624999999999,-0.2294444444444444,6.676800000190724],[0.2730208333333332,-0.25703703703703706,6.691300000190722],[0.2852083333333333,-0.3225925925925926,6.707999999999998],[0.2691666666666668,-0.3653703703703704,6.72790000009536],[0.23364583333333327,-0.3168518518518519,6.741800000190722],[0.18916666666666657,-0.2866666666666667,6.75809999990463],[0.15750000000000006,-0.257962962962963,6.774599999904638],[0.14249999999999996,-0.26185185185185184,6.791400000095365],[0.1134375000000001,-0.2770370370370371,6.808099999904613],[0.09093749999999995,-0.31148148148148147,6.826999999999998],[0.07010416666666662,-0.3183333333333333,6.843599999904626],[0.05635416666666669,-0.3346296296296296,6.8610999999046385],[0.03687499999999998,-0.32537037037037037,6.875599999904637],[0.05499999999999995,-0.32148148148148153,6.895800000190718],[0.07364583333333338,-0.34148148148148144,6.910300000190716],[0.09666666666666662,-0.3479629629629629,6.924999999999983],[0.1196875000000001,-0.3544444444444444,6.941300000190722],[0.10812499999999996,-0.33111111111111113,6.958200000286098],[0.11062500000000004,-0.2964814814814815,6.974599999904626],[0.11062500000000004,-0.2964814814814815,6.991400000095354],[0.12916666666666668,-0.2764814814814815,7.007999999999981],[0.12916666666666668,-0.2764814814814815,7.024800000190737],[0.13624999999999995,-0.27685185185185185,7.041400000095365],[0.15416666666666667,-0.2687037037037037,7.057999999999993],[0.15416666666666667,-0.2687037037037037,7.0745999999046205],[0.1720833333333334,-0.26055555555555554,7.091300000190728],[0.1720833333333334,-0.26055555555555554,7.108000000000004],[0.16104166666666658,-0.255,7.1249000000953515],[0.16104166666666658,-0.255,7.141599999904628],[0.1632291666666667,-0.25388888888888894,7.157999999999987],[0.16843750000000005,-0.2361111111111111,7.17949999999999],[0.16843750000000005,-0.2361111111111111,7.191300000190722],[0.1736458333333334,-0.2183333333333333,7.207999999999998],[0.1736458333333334,-0.2183333333333333,7.224800000190726],[0.1790625000000001,-0.22555555555555556,7.2413000001907335],[0.1790625000000001,-0.22555555555555556,7.257999999999981],[0.19375,-0.24018518518518517,7.274599999904638],[0.19375,-0.24018518518518517,7.2913000001907164],[0.19895833333333332,-0.2542592592592593,7.307999999999993],[0.19895833333333332,-0.2542592592592593,7.32480000019072],[0.18937499999999996,-0.2388888888888889,7.341300000190728],[0.18937499999999996,-0.2388888888888889,7.357900000095356],[0.17604166666666668,-0.24314814814814817,7.374599999904632],[0.17604166666666668,-0.24314814814814817,7.391400000095359],[0.18864583333333323,-0.2544444444444444,7.407999999999987],[0.18864583333333323,-0.2544444444444444,7.425900000095368],[0.20104166666666667,-0.23981481481481481,7.441400000095371],[0.20104166666666667,-0.23981481481481481,7.4580999999046185],[0.20541666666666672,-0.21648148148148144,7.474599999904626],[0.19677083333333342,-0.2462962962962963,7.4913000001907335],[0.21541666666666662,-0.28703703703703703,7.507999999999981],[0.21385416666666662,-0.2940740740740741,7.525400000095374],[0.20958333333333337,-0.290925925925926,7.5413000001907164],[0.20927083333333343,-0.2959259259259259,7.557999999999993],[0.23583333333333342,-0.30166666666666664,7.5745999999046205],[0.26052083333333326,-0.3116666666666667,7.592900000095369],[0.2642708333333334,-0.3374074074074074,7.608000000000004],[0.27156250000000004,-0.3772222222222222,7.6249000000953515],[0.28072916666666664,-0.4203703703703704,7.641300000190739],[0.28895833333333343,-0.4124074074074074,7.658300000190735],[0.2751041666666666,-0.4022222222222222,7.674700000286094],[0.28229166666666666,-0.4083333333333333,7.691300000190722],[0.28541666666666665,-0.4390740740740741,7.707999999999998],[0.25906250000000003,-0.4390740740740741,7.7258000001907305],[0.23093750000000005,-0.4485185185185185,7.741400000095354],[0.23427083333333343,-0.4468518518518519,7.757900000095361],[0.209375,-0.41648148148148145,7.774599999904638],[0.20385416666666673,-0.39518518518518514,7.7913000001907164],[0.19833333333333342,-0.3738888888888888,7.811099999904627],[0.20114583333333325,-0.3738888888888888,7.828700000286091],[0.20729166666666668,-0.36444444444444446,7.842900000095369],[0.21604166666666677,-0.3781481481481481,7.858000000000004],[0.22385416666666677,-0.3635185185185185,7.874599999904632],[0.2400000000000001,-0.35777777777777775,7.89520000028611],[0.2400000000000001,-0.35777777777777775,7.910800000190733],[0.25125000000000003,-0.3559259259259259,7.924800000190743],[0.2521874999999999,-0.37037037037037035,7.944200000286088],[0.26510416666666664,-0.3725925925925926,7.961400000095352],[0.2703125,-0.37703703703703706,7.978499999999997],[0.2703125,-0.37703703703703706,7.992099999904639],[0.2808333333333332,-0.38851851851851854,8.00809999990463],[0.26749999999999996,-0.40314814814814814,8.029800000190733]]","[0.00030000019071962924,0.05230000019074055,0.05809999990461279,0.07480000019072008,0.09140000009534788,0.10809999990462416,0.12480000019073145,0.14140000009535925,0.15809999990463552,0.17480000019074282,0.19159999990463916,0.20809999990461847,0.22490000009537425,0.24140000009535356,0.25799999999998136,0.27480000019073714,0.29140000009536493,0.3079999999999927,0.3255999999046253,0.34149999999999636,0.35809999990462416,0.37480000019073145,0.39140000009535925,0.4092000002860914,0.4248000001907428,0.4414999999999907,0.45809999990461847,0.4747000002861057,0.49150000000000205,0.5082000002861093,0.5264000000953502,0.5414000000953649,0.5582000002860923,0.5748000001907201,0.5914999999999964,0.6080999999046242,0.6249000000953515,0.6414000000953592,0.6580999999046355,0.6748000001907428,0.6914000000953706,0.7080999999046185,0.7259999999999991,0.7414000000953536,0.7580999999046298,0.7753000001907253,0.7914000000953649,0.8080999999046128,0.8249000000953686,0.8419000000953645,0.8580999999046242,0.8750999999046201,0.8915000000000077,0.907999999999987,0.9248000001907428,0.9414999999999907,0.9580999999046185,0.9749000000953743,0.991500000000002,1.0080999999046298,1.0248000001907371,1.041400000095365,1.0580999999046128,1.07480000019072,1.0914999999999964,1.108000000000004,1.12509999990462,1.1415000000000077,1.1607000002860843,1.1747000002860943,1.1914000000953706,1.2109000000953642,1.2249000000953743,1.241500000000002,1.2595000000000027,1.2748000001907371,1.291499999999985,1.3082000002860923,1.3255999999046253,1.3414000000953479,1.3580999999046242,1.374700000286083,1.3914000000953592,1.4080999999046355,1.4248000001907428,1.4414000000953706,1.4607000002860957,1.4747000002861057,1.491500000000002,1.5083000001907294,1.5249000000953572,1.541499999999985,1.5584000000953608,1.5747000002861,1.5914999999999964,1.608000000000004,1.6248000001907315,1.642099999904616,1.6580999999046355,1.6748000001907428,1.6913000001907221,1.7080999999046185,1.7267000002860868,1.7414000000953536,1.7608000001907271,1.7747000002860887,1.791400000095365,1.8084000000953608,1.8273000001907178,1.8523000001907235,1.8594000000953486,1.874700000286083,1.893900000095357,1.907999999999987,1.928599999904634,1.9440999999046369,1.9607000002860957,1.9747000002861057,1.991500000000002,2.0110999999046157,2.024900000095357,2.041400000095365,2.0579999999999927,2.0747000002861,2.0914999999999964,2.108099999904624,2.126800000190741,2.142800000190732,2.157999999999987,2.1747000002860943,2.1914999999999907,2.2079999999999984,2.225200000286094,2.2414000000953536,2.25809999990463,2.2747000002860887,2.291900000095353,2.308099999904613,2.32480000019072,2.341400000095348,2.358099999904624,2.374700000286083,2.3915000000000077,2.4107000002860843,2.4273000001907405,2.441300000190722,2.4584999999999866,2.4748000001907258,2.4913000001907335,2.50809999990463,2.5275999999046235,2.544099999904631,2.559900000095354,2.5749000000953686,2.5915999999046164,2.6119999999999948,2.6248000001907315,2.6415000000000077,2.6595000000000084,2.6747000002860943,2.691300000190722,2.7080999999046185,2.728499999999997,2.7442000002860993,2.758499999999998,2.7783000001907396,2.7944999999999993,2.808099999904613,2.8267000002861096,2.848800000190721,2.858099999904624,2.874700000286083,2.8914000000953592,2.907999999999987,2.924999999999983,2.9414999999999907,2.9579999999999984,2.9748000001907258,2.9914000000953536,3.0082000002861093,3.024900000095357,3.041400000095365,3.058099999904613,3.0747000002861,3.0960999999046237,3.108099999904624,3.1249000000953515,3.1414000000953592,3.1580999999046355,3.1747000002860943,3.1914000000953706,3.2080999999046185,3.2249000000953743,3.2414000000953536,3.25809999990463,3.2747000002860887,3.291400000095365,3.3079999999999927,3.32480000019072,3.341400000095348,3.358000000000004,3.374700000286083,3.3914000000953592,3.407999999999987,3.4247000002860943,3.4414000000953706,3.4579999999999984,3.4747000002861057,3.4914000000953536,3.5079999999999814,3.524900000095357,3.5413000001907164,3.558099999904613,3.5747000002861,3.591400000095348,3.608000000000004,3.6248000001907315,3.6414000000953592,3.657999999999987,3.6747000002860943,3.6914000000953706,3.7079999999999984,3.7249000000953743,3.7413000001907335,3.7592000002860857,3.777800000190723,3.7945999999046194,3.8135000000000048,3.8282000002861025,3.841400000095348,3.86099999999999,3.877599999904618,3.893900000095357,3.907999999999987,3.926400000095356,3.9414000000953706,3.9579999999999984,3.9748000001907258,3.991500000000002,4.00809999990463,4.024800000190737,4.041400000095365,4.058099999904613,4.0747000002861,4.091400000095348,4.108000000000004,4.1249000000953515,4.141400000095359,4.1580999999046355,4.174700000286094,4.191300000190722,4.207999999999998,4.2273000001907235,4.241599999904622,4.261599999904632,4.275999999999982,4.2913000001907164,4.307999999999993,4.3367000002861005,4.342999999999989,4.358000000000004,4.3749000000953515,4.391500000000008,4.407999999999987,4.424700000286094,4.441499999999991,4.457999999999998,4.474700000286106,4.495300000190724,4.5087000002860975,4.526700000286098,4.541700000286085,4.560599999904639,4.57659999990463,4.5938000001907255,4.608200000286104,4.628099999904634,4.643099999904621,4.660099999904617,4.678300000190717,4.693400000095352,4.708300000190718,4.729700000286101,4.744599999904636,4.759999999999991,4.774900000095357,4.799499999999995,4.808200000286092,4.825300000190737,4.845499999999987,4.8627000002860825,4.877599999904618,4.892800000190732,4.907999999999987,4.924700000286094,4.941400000095371,4.9584000000953665,4.979700000286101,4.991400000095354,5.00809999990463,5.024800000190737,5.041400000095365,5.057999999999993,5.0747000002861,5.091400000095348,5.108099999904624,5.1248000001907315,5.141400000095359,5.157999999999987,5.174700000286094,5.191400000095371,5.215300000190723,5.224700000286106,5.241400000095354,5.257999999999981,5.274800000190737,5.2915999999046335,5.307999999999993,5.32859999990464,5.343900000095374,5.358499999999992,5.374700000286083,5.391400000095359,5.407999999999987,5.426200000286087,5.441400000095371,5.461200000286084,5.475599999904631,5.49190000009537,5.511099999904616,5.52840000009536,5.545099999904636,5.5608000001907385,5.576200000286093,5.595099999904619,5.6108000001907214,5.627499999999998,5.64509999990463,5.664300000190735,5.678300000190717,5.6935,5.708300000190718,5.727700000286092,5.745099999904625,5.761300000190715,5.77620000028611,5.7913000001907164,5.809300000190717,5.826200000286093,5.843300000190737,5.858000000000004,5.874700000286083,5.891400000095359,5.907999999999987,5.927400000095361,5.943099999904632,5.959499999999991,5.974700000286106,5.991599999904622,6.011800000190732,6.025000000000006,6.041700000286085,6.063099999904637,6.077400000095366,6.092400000095353,6.108300000190724,6.128999999999991,6.1440999999046255,6.161099999904621,6.178700000286085,6.1944000000953565,6.209700000286091,6.2257000002861105,6.243900000095351,6.258900000095366,6.274800000190737,6.291499999999985,6.311200000286107,6.324999999999989,6.341700000286096,6.358300000190724,6.378300000190734,6.393900000095357,6.408999999999992,6.425700000286099,6.444099999904637,6.4602000002861075,6.478599999904617,6.509700000286102,6.516800000190727,6.525200000286105,6.541499999999985,6.561000000000007,6.57480000019072,6.591499999999996,6.610400000095353,6.62709999990463,6.643099999904621,6.6580999999046355,6.676800000190724,6.691300000190722,6.707999999999998,6.72790000009536,6.741800000190722,6.75809999990463,6.774599999904638,6.791400000095365,6.808099999904613,6.826999999999998,6.843599999904626,6.8610999999046385,6.875599999904637,6.895800000190718,6.910300000190716,6.924999999999983,6.941300000190722,6.958200000286098,6.974599999904626,6.991400000095354,7.007999999999981,7.024800000190737,7.041400000095365,7.057999999999993,7.0745999999046205,7.091300000190728,7.108000000000004,7.1249000000953515,7.141599999904628,7.157999999999987,7.17949999999999,7.191300000190722,7.207999999999998,7.224800000190726,7.2413000001907335,7.257999999999981,7.274599999904638,7.2913000001907164,7.307999999999993,7.32480000019072,7.341300000190728,7.357900000095356,7.374599999904632,7.391400000095359,7.407999999999987,7.425900000095368,7.441400000095371,7.4580999999046185,7.474599999904626,7.4913000001907335,7.507999999999981,7.525400000095374,7.5413000001907164,7.557999999999993,7.5745999999046205,7.592900000095369,7.608000000000004,7.6249000000953515,7.641300000190739,7.658300000190735,7.674700000286094,7.691300000190722,7.707999999999998,7.7258000001907305,7.741400000095354,7.757900000095361,7.774599999904638,7.7913000001907164,7.811099999904627,7.828700000286091,7.842900000095369,7.858000000000004,7.874599999904632,7.89520000028611,7.910800000190733,7.924800000190743,7.944200000286088,7.961400000095352,7.978499999999997,7.992099999904639,8.00809999990463,8.029800000190733]","[1731986718208,1731986718247,1731986718253,1731986718270,1731986718286,1731986718303,1731986718320,1731986718336,1731986718353,1731986718370,1731986718387,1731986718403,1731986718420,1731986718436,1731986718453,1731986718470,1731986718486,1731986718503,1731986718521,1731986718536,1731986718553,1731986718570,1731986718586,1731986718604,1731986718620,1731986718636,1731986718653,1731986718670,1731986718686,1731986718703,1731986718721,1731986718736,1731986718753,1731986718770,1731986718786,1731986718803,1731986718820,1731986718836,1731986718853,1731986718870,1731986718886,1731986718903,1731986718921,1731986718936,1731986718953,1731986718970,1731986718986,1731986719003,1731986719020,1731986719037,1731986719053,1731986719070,1731986719086,1731986719103,1731986719120,1731986719136,1731986719153,1731986719170,1731986719186,1731986719203,1731986719220,1731986719236,1731986719253,1731986719270,1731986719287,1731986719303,1731986719320,1731986719336,1731986719356,1731986719370,1731986719386,1731986719406,1731986719420,1731986719436,1731986719454,1731986719470,1731986719486,1731986719503,1731986719521,1731986719536,1731986719553,1731986719570,1731986719586,1731986719603,1731986719620,1731986719636,1731986719656,1731986719670,1731986719686,1731986719703,1731986719720,1731986719736,1731986719753,1731986719770,1731986719786,1731986719803,1731986719820,1731986719837,1731986719853,1731986719870,1731986719886,1731986719903,1731986719922,1731986719936,1731986719956,1731986719970,1731986719986,1731986720003,1731986720022,1731986720047,1731986720054,1731986720070,1731986720089,1731986720103,1731986720124,1731986720139,1731986720156,1731986720170,1731986720186,1731986720206,1731986720220,1731986720236,1731986720253,1731986720270,1731986720286,1731986720303,1731986720322,1731986720338,1731986720353,1731986720370,1731986720386,1731986720403,1731986720420,1731986720436,1731986720453,1731986720470,1731986720487,1731986720503,1731986720520,1731986720536,1731986720553,1731986720570,1731986720586,1731986720606,1731986720622,1731986720636,1731986720653,1731986720670,1731986720686,1731986720703,1731986720723,1731986720739,1731986720755,1731986720770,1731986720787,1731986720807,1731986720820,1731986720836,1731986720854,1731986720870,1731986720886,1731986720903,1731986720923,1731986720939,1731986720953,1731986720973,1731986720989,1731986721003,1731986721022,1731986721044,1731986721053,1731986721070,1731986721086,1731986721103,1731986721120,1731986721136,1731986721153,1731986721170,1731986721186,1731986721203,1731986721220,1731986721236,1731986721253,1731986721270,1731986721291,1731986721303,1731986721320,1731986721336,1731986721353,1731986721370,1731986721386,1731986721403,1731986721420,1731986721436,1731986721453,1731986721470,1731986721486,1731986721503,1731986721520,1731986721536,1731986721553,1731986721570,1731986721586,1731986721603,1731986721620,1731986721636,1731986721653,1731986721670,1731986721686,1731986721703,1731986721720,1731986721736,1731986721753,1731986721770,1731986721786,1731986721803,1731986721820,1731986721836,1731986721853,1731986721870,1731986721886,1731986721903,1731986721920,1731986721936,1731986721954,1731986721973,1731986721990,1731986722008,1731986722023,1731986722036,1731986722056,1731986722073,1731986722089,1731986722103,1731986722121,1731986722136,1731986722153,1731986722170,1731986722186,1731986722203,1731986722220,1731986722236,1731986722253,1731986722270,1731986722286,1731986722303,1731986722320,1731986722336,1731986722353,1731986722370,1731986722386,1731986722403,1731986722422,1731986722437,1731986722457,1731986722471,1731986722486,1731986722503,1731986722532,1731986722538,1731986722553,1731986722570,1731986722586,1731986722603,1731986722620,1731986722636,1731986722653,1731986722670,1731986722690,1731986722704,1731986722722,1731986722737,1731986722756,1731986722772,1731986722789,1731986722803,1731986722823,1731986722838,1731986722855,1731986722873,1731986722888,1731986722903,1731986722925,1731986722940,1731986722955,1731986722970,1731986722994,1731986723003,1731986723020,1731986723040,1731986723058,1731986723073,1731986723088,1731986723103,1731986723120,1731986723136,1731986723153,1731986723175,1731986723186,1731986723203,1731986723220,1731986723236,1731986723253,1731986723270,1731986723286,1731986723303,1731986723320,1731986723336,1731986723353,1731986723370,1731986723386,1731986723410,1731986723420,1731986723436,1731986723453,1731986723470,1731986723487,1731986723503,1731986723524,1731986723539,1731986723553,1731986723570,1731986723586,1731986723603,1731986723621,1731986723636,1731986723656,1731986723671,1731986723687,1731986723706,1731986723723,1731986723740,1731986723756,1731986723771,1731986723790,1731986723806,1731986723822,1731986723840,1731986723859,1731986723873,1731986723888,1731986723903,1731986723923,1731986723940,1731986723956,1731986723971,1731986723986,1731986724004,1731986724021,1731986724038,1731986724053,1731986724070,1731986724086,1731986724103,1731986724122,1731986724138,1731986724154,1731986724170,1731986724187,1731986724207,1731986724220,1731986724237,1731986724258,1731986724272,1731986724287,1731986724303,1731986724324,1731986724339,1731986724356,1731986724374,1731986724389,1731986724405,1731986724421,1731986724439,1731986724454,1731986724470,1731986724486,1731986724506,1731986724520,1731986724537,1731986724553,1731986724573,1731986724589,1731986724604,1731986724621,1731986724639,1731986724655,1731986724674,1731986724705,1731986724712,1731986724720,1731986724736,1731986724756,1731986724770,1731986724786,1731986724805,1731986724822,1731986724838,1731986724853,1731986724872,1731986724886,1731986724903,1731986724923,1731986724937,1731986724953,1731986724970,1731986724986,1731986725003,1731986725022,1731986725039,1731986725056,1731986725071,1731986725091,1731986725105,1731986725120,1731986725136,1731986725153,1731986725170,1731986725186,1731986725203,1731986725220,1731986725236,1731986725253,1731986725270,1731986725286,1731986725303,1731986725320,1731986725337,1731986725353,1731986725374,1731986725386,1731986725403,1731986725420,1731986725436,1731986725453,1731986725470,1731986725486,1731986725503,1731986725520,1731986725536,1731986725553,1731986725570,1731986725586,1731986725603,1731986725621,1731986725636,1731986725653,1731986725670,1731986725686,1731986725703,1731986725720,1731986725736,1731986725753,1731986725770,1731986725788,1731986725803,1731986725820,1731986725836,1731986725853,1731986725870,1731986725886,1731986725903,1731986725921,1731986725936,1731986725953,1731986725970,1731986725986,1731986726006,1731986726024,1731986726038,1731986726053,1731986726070,1731986726090,1731986726106,1731986726120,1731986726139,1731986726156,1731986726174,1731986726187,1731986726203,1731986726225]","[[957.2,598.4],[957.2,598.4],[939.7,607.1],[951.5,614.8],[962.9,602.1],[979.1,595],[990.7,606.5],[1015.9,602.9],[1021,583.5],[1002.2,584.8],[997,570.3],[986.2,558.4],[1000.4,533],[986.6,510.2],[986.6,510.2],[978.6,499.3],[977,490.1],[969,470.9],[949,445.3],[931.1,429.8],[907.5,398],[879.2,386],[878,367.4],[872.8,356.7],[872.8,356.7],[866.3,344.4],[868.5,336.9],[847.3,316.1],[846.2,300.3],[843.5,306],[832.8,313.7],[850.8,316.6],[857.6,328.9],[857.6,328.9],[837.3,347.8],[836.4,353.6],[853.3,361],[867.1,364],[902.7,369.9],[927.8,370.3],[953.8,371.8],[987.9,368.2],[1014,354.4],[1051.3,331.2],[1080.4,324.1],[1102.8,323.5],[1120.3,310],[1128.4,301.6],[1133.8,290.5],[1132.7,290.7],[1141.4,280.6],[1150,273.6],[1150,273.6],[1171.4,281.7],[1171.4,281.7],[1194.8,282.4],[1194.8,282.4],[1199.4,269],[1199.4,269],[1193.7,266],[1193.7,266],[1169.6,271.1],[1169.6,271.1],[1137.6,286.3],[1137.6,286.3],[1074.9,313.5],[1037.6,335.8],[973.6,364.9],[919.7,394.9],[841.8,409.7],[774.3,437.7],[755.9,445.8],[755.9,445.8],[731.3,442.5],[710.8,451.6],[705,442],[728,436.2],[744,416.6],[769.2,401.7],[784.3,385.9],[820.9,365.5],[841.3,340.8],[833,347.6],[837.9,352.9],[837.9,352.9],[837.3,345.2],[834.9,369.2],[844.2,356.1],[844.2,356.1],[870.3,359.3],[870.3,359.3],[874.2,383.8],[879,418.8],[882.4,469.1],[911.1,498.6],[944.7,508.9],[970.5,524.3],[1003.2,543.5],[1047.6,527.8],[1060,530.8],[1054.5,555.9],[1079.3,547.7],[1112.4,524.5],[1121.2,518.3],[1151.1,520.1],[1151.1,520.1],[1184.5,534.4],[1170.1,544.1],[1190.7,564.6],[1204,591.8],[1204,591.8],[1203.6,623.4],[1180.8,634.4],[1156.7,655.1],[1160.9,660.6],[1180.3,648],[1157.1,646.7],[1157.1,646.7],[1162.6,645],[1187.5,664.6],[1187.5,664.6],[1186.9,652.1],[1190.5,641.4],[1223.1,634.7],[1246.8,603.2],[1259.1,582.2],[1230.7,571],[1222.4,569],[1212.6,558.1],[1172.3,540.7],[1172.3,540.7],[1143.6,513.1],[1116.8,513.8],[1085.8,512.7],[1019.1,507.5],[966.1,525.4],[908.1,517.6],[853,535.4],[809.8,547.2],[768.1,567.9],[768.1,567.9],[720.6,583.8],[708.3,579.4],[676.7,578.1],[645.1,576.8],[649.2,579.6],[673.8,565.4],[714.8,566.4],[760.2,548],[782.7,527.5],[776.2,507.7],[775.5,492.7],[769.7,488.7],[773.2,472.3],[766,466.1],[758.8,459.9],[758.8,459.9],[758.2,459.1],[781.8,478.1],[801.3,500.8],[809.2,524.7],[851.9,533.3],[884.3,543.7],[916.2,541.5],[940.3,540.6],[975.4,535.5],[975.4,535.5],[1010.5,530.4],[1039.2,520.8],[1043.7,491.4],[1043.7,491.4],[1038.7,483.6],[1038.7,483.6],[1049.3,457.4],[1049.3,457.4],[1071.5,460.9],[1071.5,460.9],[1102.6,473.8],[1102.6,473.8],[1109.6,501.6],[1109.6,501.6],[1135.1,544.1],[1135.1,544.1],[1157.9,564.6],[1179.2,587.9],[1179.2,587.9],[1162.6,613.5],[1162.6,613.5],[1138.5,652.7],[1138.5,652.7],[1138,665],[1138,665],[1122.2,693.7],[1122.2,693.7],[1096,704.2],[1084.4,714.1],[1060.2,715.2],[1017.8,694.7],[972.4,682.7],[928.5,667.9],[924.5,681],[914.5,675.4],[900.7,653.5],[900.9,643.6],[883.9,635.1],[833.8,619.4],[816.9,617.8],[806.1,624.1],[805.5,652],[804.9,679.9],[772.2,658.5],[755.9,657.5],[717,662.1],[678.1,654.6],[655,660.5],[679.7,650.5],[689.9,651.2],[700.1,651.9],[717.2,620.7],[734.3,589.5],[757.4,582.9],[757.4,582.9],[777.6,561],[805.2,573.5],[870.7,606.9],[930.6,628.6],[954.8,657.7],[984.2,671.3],[984.2,671.3],[1017.8,681.3],[1026.2,717],[1054.2,749.9],[1096.3,780.8],[1140.6,805.2],[1197,820],[1212.8,814.8],[1215.5,780.1],[1215.5,780.1],[1223.1,753.2],[1223.1,753.2],[1252.6,729.5],[1252.6,729.5],[1277.9,709.4],[1292.2,693.5],[1288.8,670.9],[1281.5,652.2],[1281.5,652.2],[1278.4,629.1],[1256.9,595.6],[1235.4,562.1],[1232.3,547.4],[1232.1,530],[1206.7,513.2],[1178.9,488.2],[1177.9,464.2],[1163.1,488.5],[1153.9,496.6],[1138.7,516.7],[1132,525.1],[1132,525.1],[1121.2,543.5],[1092.6,579.2],[1056.9,586.6],[1046.3,613.5],[1036.3,620.4],[1024,614.2],[1006.9,596.3],[984.2,594.6],[979.1,579.3],[967.4,602.7],[964.9,610.1],[974.9,610.9],[962.1,665.8],[952.4,679.9],[923.8,705.7],[923.8,705.7],[906.1,716.1],[891.5,713.7],[874.9,708.9],[840.3,716.6],[834.2,713.9],[823,717.2],[804.8,722.1],[809,701.6],[798.4,699.3],[813.2,716.9],[817.1,749.9],[817.1,749.9],[843.6,760],[872.1,772.5],[885.5,789.5],[896.6,783.2],[902.2,783.8],[917.8,786.7],[951.7,777.3],[973.4,758.1],[978.7,766.9],[984,775.7],[984,775.7],[998.4,779.3],[998.4,779.3],[1017.6,779],[1017.2,760.8],[1017.2,760.8],[1003.9,774.6],[1003.9,774.6],[993.6,782.2],[993.6,782.2],[983.4,767.6],[983.4,767.6],[967.9,779.7],[957.8,769.4],[957.8,769.4],[979.2,749.9],[979.2,749.9],[1031,733.2],[1038.3,738.9],[1040.8,748.5],[1080.6,771.8],[1116.4,771.4],[1155,769.3],[1190.5,785.5],[1197.1,780.8],[1231.9,818.6],[1229.3,829.5],[1229.3,829.5],[1196.3,837.6],[1193.2,844.3],[1190.6,850.1],[1195.7,849.2],[1174.5,807.7],[1164.8,796.7],[1155.1,785.7],[1142.2,798.4],[1112.5,788.2],[1104.2,798],[1107.4,789.3],[1108.2,769.4],[1102.4,750.4],[1086.3,737.8],[1093.9,754.4],[1089.7,741.5],[1110.4,708.6],[1146.8,680.9],[1149.9,652.9],[1173.4,632.1],[1181.8,639.5],[1188.9,650.8],[1197,654.4],[1205.1,658],[1205.1,658],[1221,680.8],[1227.6,690.2],[1200.4,699.5],[1206.3,707.7],[1230.8,728.1],[1230,750.1],[1219.2,734.2],[1219.2,734.2],[1208.6,718.4],[1208.6,718.4],[1179.5,737.8],[1162.3,750.1],[1143.8,740.4],[1139.1,751.1],[1143.3,781.9],[1070,785],[1020.9,790.9],[977.4,767.3],[931.3,781.6],[886.5,784.6],[865.3,760.1],[854.7,752.6],[840.2,759.3],[838.9,749.4],[837.6,739.5],[895.2,725.4],[928.6,708.5],[928.6,708.5],[937.6,698.1],[981.9,668.4],[1024.9,650],[1093.5,631.6],[1108.9,602.1],[1124.3,572.6],[1122,552.7],[1121,533.8],[1122,536.6],[1122,536.6],[1107.3,539.2],[1107.3,539.2],[1117.3,547.4],[1119.6,550.8],[1133.3,517.3],[1130,493.7],[1145.1,472.1],[1167.2,460],[1189.3,447.9],[1203.8,445.2],[1211.1,416.1],[1222.1,401.2],[1233.8,365.8],[1218.4,342.7],[1184.3,368.9],[1141.6,385.2],[1111.2,400.7],[1096.8,398.6],[1068.9,390.4],[1047.3,371.8],[1027.3,368.1],[1014.1,359.3],[995.4,364.3],[1012.8,366.4],[1030.7,355.6],[1052.8,352.1],[1074.9,348.6],[1063.8,361.2],[1066.2,379.9],[1066.2,379.9],[1084,390.7],[1084,390.7],[1090.8,390.5],[1108,394.9],[1108,394.9],[1125.2,399.3],[1125.2,399.3],[1114.6,402.3],[1114.6,402.3],[1116.7,402.9],[1121.7,412.5],[1121.7,412.5],[1126.7,422.1],[1126.7,422.1],[1131.9,418.2],[1131.9,418.2],[1146,410.3],[1146,410.3],[1151,402.7],[1151,402.7],[1141.8,411],[1141.8,411],[1129,408.7],[1129,408.7],[1141.1,402.6],[1141.1,402.6],[1153,410.5],[1153,410.5],[1157.2,423.1],[1148.9,407],[1166.8,385],[1165.3,381.2],[1161.2,382.9],[1160.9,380.2],[1186.4,377.1],[1210.1,371.7],[1213.7,357.8],[1220.7,336.3],[1229.5,313],[1237.4,317.3],[1224.1,322.8],[1231,319.5],[1234,302.9],[1208.7,302.9],[1181.7,297.8],[1184.9,298.7],[1161,315.1],[1155.7,326.6],[1150.4,338.1],[1153.1,338.1],[1159,343.2],[1167.4,335.8],[1174.9,343.7],[1190.4,346.8],[1190.4,346.8],[1201.2,347.8],[1202.1,340],[1214.5,338.8],[1219.5,336.4],[1219.5,336.4],[1229.6,330.2],[1216.8,322.3]]","[-0.132282,0.39684600000000003]","[0.132282,0.39684600000000003]","[0.39684600000000003,0.39684600000000003]","[-0.39684600000000003,-0.132282]","[-0.39684600000000003,-0.39684600000000003]","[-0.39684600000000003,0.132282]","[-0.132282,-0.132282]","[0.132282,-0.132282]","[0.39684600000000003,-0.132282]","[-0.132282,-0.39684600000000003]","[0.132282,-0.39684600000000003]","[0.39684600000000003,-0.39684600000000003]","[-0.132282,0.132282]","[0.132282,0.132282]","[0.39684600000000003,0.132282]",0,0,0,0,1,3,Tablet,25,40,9,1,50,4,1,60,5
