inst1_resp.keys,inst1_resp.rt,calibrationMouse.x,calibrationMouse.y,calibrationMouse.leftButton,calibrationMouse.midButton,calibrationMouse.rightButton,calibrationClick.x,calibrationClick.y,calibrationClick.leftButton,calibrationClick.midButton,calibrationClick.rightButton,trialsc.thisRepN,trialsc.thisTrialN,trialsc.thisN,trialsc.thisIndex,trialsc.ran,calibration_x,calibration_y,participant,session,date,expName,psychopyVersion,OS,frameRate,calibrationClick.clicked_name,ScreenRes_pixels,Camera_pixels,mouse_2.x,mouse_2.y,mouse_2.leftButton,mouse_2.midButton,mouse_2.rightButton,mouse_2.time,mouse_2.clicked_name,mouse.x,mouse.y,mouse.leftButton,mouse.midButton,mouse.rightButton,mouse.time,mouse.clicked_name,Choice,Trial,TrialDuration,MOUSE_GAZE,ET_GAZE,ET_GAZE_x_T,time,unixTime,ET_GAZE_NF,Loc_Bus_label,Loc_Metro_label,Loc_RH_label,Loc_Cost_label,Loc_Travel_label,Loc_Comfort_label,Loc_Bus_cost,Loc_Metro_cost,Loc_RH_cost,Loc_Bus_travel,Loc_Metro_travel,Loc_RH_travel,Loc_Bus_comfort,Loc_Metro_comfort,Loc_RH_comfort,trials.thisRepN,trials.thisTrialN,trials.thisN,trials.thisIndex,trials.ran,Block,Device,RH_cost,RH_travel_time,RH_Comfort,metro_cost,metro_travel_time,metro_Comfort,Bus_cost,Bus_travel_time,Bus_Comfort
space,3.5282,0.194791667,-0.031481481,1,0,0,-0.005208333,-0.681481481,1,0,0,0,0,0,9,1,0,-0.67,25,001,2024-11-19_12h43.28.258,Attention_exp_legacy,2023.1.0,Win32,59.88023952,,,,,,,,,,,,,,,,,,,,,,,,,,,,,,,,,,,,,,,,,,,,,,,,,,,,,,,,,
,,,,,,,-0.322916667,0.659259259,1,0,0,0,1,1,8,1,-0.33,0.67,25,001,2024-11-19_12h43.28.258,Attention_exp_legacy,2023.1.0,Win32,59.88023952,,,,,,,,,,,,,,,,,,,,,,,,,,,,,,,,,,,,,,,,,,,,,,,,,,,,,,,,,
,,,,,,,-0.021875,0.344444444,1,0,0,0,2,2,12,1,0,0.33,25,001,2024-11-19_12h43.28.258,Attention_exp_legacy,2023.1.0,Win32,59.88023952,,,,,,,,,,,,,,,,,,,,,,,,,,,,,,,,,,,,,,,,,,,,,,,,,,,,,,,,,
,,,,,,,-0.676041667,-0.346296296,1,0,0,0,3,3,1,1,-0.67,-0.33,25,001,2024-11-19_12h43.28.258,Attention_exp_legacy,2023.1.0,Win32,59.88023952,,,,,,,,,,,,,,,,,,,,,,,,,,,,,,,,,,,,,,,,,,,,,,,,,,,,,,,,,
,,,,,,,0.658333333,-0.681481481,1,0,0,0,4,4,20,1,0.67,-0.67,25,001,2024-11-19_12h43.28.258,Attention_exp_legacy,2023.1.0,Win32,59.88023952,,,,,,,,,,,,,,,,,,,,,,,,,,,,,,,,,,,,,,,,,,,,,,,,,,,,,,,,,
,,,,,,,0.014583333,-0.325925926,1,0,0,0,5,5,10,1,0,-0.33,25,001,2024-11-19_12h43.28.258,Attention_exp_legacy,2023.1.0,Win32,59.88023952,,,,,,,,,,,,,,,,,,,,,,,,,,,,,,,,,,,,,,,,,,,,,,,,,,,,,,,,,
,,,,,,,0.31875,0.32962963,1,0,0,0,6,6,17,1,0.33,0.33,25,001,2024-11-19_12h43.28.258,Attention_exp_legacy,2023.1.0,Win32,59.88023952,,,,,,,,,,,,,,,,,,,,,,,,,,,,,,,,,,,,,,,,,,,,,,,,,,,,,,,,,
,,,,,,,0.319791667,0.67962963,1,0,0,0,7,7,18,1,0.33,0.67,25,001,2024-11-19_12h43.28.258,Attention_exp_legacy,2023.1.0,Win32,59.88023952,,,,,,,,,,,,,,,,,,,,,,,,,,,,,,,,,,,,,,,,,,,,,,,,,,,,,,,,,
,,,,,,,0.004166667,0.018518519,1,0,0,0,8,8,11,1,0,0,25,001,2024-11-19_12h43.28.258,Attention_exp_legacy,2023.1.0,Win32,59.88023952,,,,,,,,,,,,,,,,,,,,,,,,,,,,,,,,,,,,,,,,,,,,,,,,,,,,,,,,,
,,,,,,,0.338541667,0.001851852,1,0,0,0,9,9,16,1,0.33,0,25,001,2024-11-19_12h43.28.258,Attention_exp_legacy,2023.1.0,Win32,59.88023952,calibration_square,,,,,,,,,,,,,,,,,,,,,,,,,,,,,,,,,,,,,,,,,,,,,,,,,,,,,,,,
,,,,,,,0.680208333,0.659259259,1,0,0,0,10,10,19,1,0.67,0.67,25,001,2024-11-19_12h43.28.258,Attention_exp_legacy,2023.1.0,Win32,59.88023952,,,,,,,,,,,,,,,,,,,,,,,,,,,,,,,,,,,,,,,,,,,,,,,,,,,,,,,,,
,,,,,,,-0.679166667,0.335185185,1,0,0,0,11,11,3,1,-0.67,0.33,25,001,2024-11-19_12h43.28.258,Attention_exp_legacy,2023.1.0,Win32,59.88023952,calibration_square,,,,,,,,,,,,,,,,,,,,,,,,,,,,,,,,,,,,,,,,,,,,,,,,,,,,,,,,
,,,,,,,-0.335416667,0.351851852,1,0,0,0,12,12,7,1,-0.33,0.33,25,001,2024-11-19_12h43.28.258,Attention_exp_legacy,2023.1.0,Win32,59.88023952,,,,,,,,,,,,,,,,,,,,,,,,,,,,,,,,,,,,,,,,,,,,,,,,,,,,,,,,,
,,,,,,,0.307291667,-0.662962963,1,0,0,0,13,13,14,1,0.33,-0.67,25,001,2024-11-19_12h43.28.258,Attention_exp_legacy,2023.1.0,Win32,59.88023952,,,,,,,,,,,,,,,,,,,,,,,,,,,,,,,,,,,,,,,,,,,,,,,,,,,,,,,,,
,,,,,,,-0.664583333,-0.67037037,1,0,0,0,14,14,0,1,-0.67,-0.67,25,001,2024-11-19_12h43.28.258,Attention_exp_legacy,2023.1.0,Win32,59.88023952,calibration_square,,,,,,,,,,,,,,,,,,,,,,,,,,,,,,,,,,,,,,,,,,,,,,,,,,,,,,,,
,,,,,,,-0.339583333,-0.694444444,1,0,0,0,15,15,4,1,-0.33,-0.67,25,001,2024-11-19_12h43.28.258,Attention_exp_legacy,2023.1.0,Win32,59.88023952,,,,,,,,,,,,,,,,,,,,,,,,,,,,,,,,,,,,,,,,,,,,,,,,,,,,,,,,,
,,,,,,,0.322916667,-0.338888889,1,0,0,0,16,16,15,1,0.33,-0.33,25,001,2024-11-19_12h43.28.258,Attention_exp_legacy,2023.1.0,Win32,59.88023952,calibration_square,,,,,,,,,,,,,,,,,,,,,,,,,,,,,,,,,,,,,,,,,,,,,,,,,,,,,,,,
,,,,,,,0,0.674074074,1,0,0,0,17,17,13,1,0,0.67,25,001,2024-11-19_12h43.28.258,Attention_exp_legacy,2023.1.0,Win32,59.88023952,calibration_square,,,,,,,,,,,,,,,,,,,,,,,,,,,,,,,,,,,,,,,,,,,,,,,,,,,,,,,,
,,,,,,,-0.669791667,0.003703704,1,0,0,0,18,18,2,1,-0.67,0,25,001,2024-11-19_12h43.28.258,Attention_exp_legacy,2023.1.0,Win32,59.88023952,calibration_square,,,,,,,,,,,,,,,,,,,,,,,,,,,,,,,,,,,,,,,,,,,,,,,,,,,,,,,,
,,,,,,,-0.330208333,0.009259259,1,0,0,0,19,19,6,1,-0.33,0,25,001,2024-11-19_12h43.28.258,Attention_exp_legacy,2023.1.0,Win32,59.88023952,calibration_square,,,,,,,,,,,,,,,,,,,,,,,,,,,,,,,,,,,,,,,,,,,,,,,,,,,,,,,,
,,,,,,,-0.317708333,-0.322222222,1,0,0,0,20,20,5,1,-0.33,-0.33,25,001,2024-11-19_12h43.28.258,Attention_exp_legacy,2023.1.0,Win32,59.88023952,,,,,,,,,,,,,,,,,,,,,,,,,,,,,,,,,,,,,,,,,,,,,,,,,,,,,,,,,
,,,,,,,,,,,,,,,,,,,25,001,2024-11-19_12h43.28.258,Attention_exp_legacy,2023.1.0,Win32,59.88023952,,"[1920,1080]","[640,480]",[0.035416666666666666],[-0.49074074074074076],[1],[0],[0],[1.4753999996185314],"[""StartButton""]",[0.4270833333333333],[0.4351851851851852],[1],[0],[0],[5.9839000000953675],"[""RH_label""]",RH_label,1,6.9938,"[[0.19166666666666668,-0.07037037037037037],[0.19166666666666668,-0.07037037037037037],[0.19166666666666668,-0.07037037037037037],[0.19166666666666668,-0.07037037037037037],[0.19166666666666668,-0.07037037037037037],[0.19166666666666668,-0.07037037037037037],[0.19166666666666668,-0.07037037037037037],[0.19166666666666668,-0.07037037037037037],[0.19166666666666668,-0.07037037037037037],[0.19166666666666668,-0.07037037037037037],[0.19166666666666668,-0.07037037037037037],[0.19166666666666668,-0.07037037037037037],[0.19166666666666668,-0.07037037037037037],[0.19166666666666668,-0.07037037037037037],[0.19166666666666668,-0.07037037037037037],[0.19166666666666668,-0.07037037037037037],[0.19166666666666668,-0.07037037037037037],[0.19166666666666668,-0.07037037037037037],[0.19166666666666668,-0.07037037037037037],[0.19166666666666668,-0.07037037037037037],[0.19166666666666668,-0.07037037037037037],[0.19166666666666668,-0.07037037037037037],[0.19166666666666668,-0.07037037037037037],[0.19166666666666668,-0.07037037037037037],[0.19166666666666668,-0.07037037037037037],[0.19166666666666668,-0.07037037037037037],[0.19166666666666668,-0.07037037037037037],[0.19166666666666668,-0.07037037037037037],[0.19166666666666668,-0.07037037037037037],[0.19166666666666668,-0.07037037037037037],[0.19166666666666668,-0.07037037037037037],[0.19166666666666668,-0.07037037037037037],[0.19166666666666668,-0.07037037037037037],[0.19166666666666668,-0.07037037037037037],[0.19166666666666668,-0.07037037037037037],[0.19166666666666668,-0.07037037037037037],[0.19166666666666668,-0.07037037037037037],[0.19166666666666668,-0.07037037037037037],[0.19166666666666668,-0.07037037037037037],[0.19166666666666668,-0.07037037037037037],[0.19166666666666668,-0.07037037037037037],[0.19166666666666668,-0.07037037037037037],[0.19166666666666668,-0.07037037037037037],[0.19166666666666668,-0.07037037037037037],[0.19166666666666668,-0.07037037037037037],[0.19166666666666668,-0.07037037037037037],[0.19166666666666668,-0.07037037037037037],[0.19166666666666668,-0.07037037037037037],[0.19166666666666668,-0.07037037037037037],[0.19166666666666668,-0.07037037037037037],[0.19166666666666668,-0.07037037037037037],[0.19166666666666668,-0.07037037037037037],[0.19166666666666668,-0.07037037037037037],[0.19166666666666668,-0.07037037037037037],[0.19166666666666668,-0.07037037037037037],[0.19166666666666668,-0.07037037037037037],[0.19166666666666668,-0.07037037037037037],[0.19166666666666668,-0.07037037037037037],[0.19166666666666668,-0.07037037037037037],[0.19166666666666668,-0.07037037037037037],[0.19166666666666668,-0.07037037037037037],[0.19166666666666668,-0.07037037037037037],[0.19166666666666668,-0.07037037037037037],[0.19166666666666668,-0.07037037037037037],[0.19166666666666668,-0.07037037037037037],[0.19166666666666668,-0.07037037037037037],[0.19166666666666668,-0.07037037037037037],[0.19166666666666668,-0.07037037037037037],[0.19166666666666668,-0.07037037037037037],[0.19166666666666668,-0.07037037037037037],[0.19166666666666668,-0.07037037037037037],[0.19166666666666668,-0.07037037037037037],[0.19166666666666668,-0.06851851851851852],[0.19166666666666668,-0.06851851851851852],[0.19166666666666668,-0.06481481481481481],[0.19166666666666668,-0.06296296296296296],[0.19166666666666668,-0.06111111111111111],[0.19166666666666668,-0.06111111111111111],[0.19166666666666668,-0.05925925925925926],[0.19166666666666668,-0.05925925925925926],[0.19166666666666668,-0.05925925925925926],[0.19166666666666668,-0.05925925925925926],[0.19166666666666668,-0.05925925925925926],[0.19166666666666668,-0.05925925925925926],[0.19166666666666668,-0.05925925925925926],[0.19166666666666668,-0.05925925925925926],[0.19166666666666668,-0.05925925925925926],[0.19166666666666668,-0.05925925925925926],[0.19166666666666668,-0.05925925925925926],[0.19166666666666668,-0.05925925925925926],[0.19166666666666668,-0.05925925925925926],[0.19166666666666668,-0.05925925925925926],[0.19166666666666668,-0.05925925925925926],[0.19166666666666668,-0.05925925925925926],[0.19166666666666668,-0.05925925925925926],[0.19166666666666668,-0.05925925925925926],[0.19166666666666668,-0.05925925925925926],[0.19166666666666668,-0.05925925925925926],[0.19166666666666668,-0.05925925925925926],[0.19166666666666668,-0.05925925925925926],[0.19166666666666668,-0.05925925925925926],[0.19166666666666668,-0.05925925925925926],[0.19166666666666668,-0.05925925925925926],[0.190625,-0.05925925925925926],[0.18854166666666666,-0.05925925925925926],[0.18854166666666666,-0.05925925925925926],[0.18854166666666666,-0.05925925925925926],[0.18854166666666666,-0.05925925925925926],[0.18854166666666666,-0.05925925925925926],[0.18854166666666666,-0.05925925925925926],[0.18854166666666666,-0.05925925925925926],[0.18854166666666666,-0.05925925925925926],[0.18854166666666666,-0.05925925925925926],[0.18854166666666666,-0.05925925925925926],[0.18854166666666666,-0.05925925925925926],[0.18854166666666666,-0.05925925925925926],[0.18854166666666666,-0.05925925925925926],[0.18854166666666666,-0.053703703703703705],[0.19375,-0.02962962962962963],[0.19583333333333333,-0.003703703703703704],[0.19895833333333332,0.02962962962962963],[0.20208333333333334,0.06666666666666667],[0.20208333333333334,0.09444444444444444],[0.20208333333333334,0.10925925925925926],[0.20208333333333334,0.12037037037037036],[0.20208333333333334,0.13703703703703704],[0.20208333333333334,0.1425925925925926],[0.20208333333333334,0.1537037037037037],[0.20208333333333334,0.1574074074074074],[0.20208333333333334,0.1574074074074074],[0.20208333333333334,0.1574074074074074],[0.20208333333333334,0.1574074074074074],[0.20208333333333334,0.1574074074074074],[0.20208333333333334,0.1574074074074074],[0.20208333333333334,0.1574074074074074],[0.20208333333333334,0.1574074074074074],[0.20208333333333334,0.1574074074074074],[0.20208333333333334,0.1574074074074074],[0.20208333333333334,0.1574074074074074],[0.20208333333333334,0.1574074074074074],[0.20208333333333334,0.1574074074074074],[0.20208333333333334,0.1574074074074074],[0.20208333333333334,0.1574074074074074],[0.20208333333333334,0.1574074074074074],[0.20208333333333334,0.1574074074074074],[0.20104166666666667,0.15925925925925927],[0.19791666666666666,0.15925925925925927],[0.19583333333333333,0.15925925925925927],[0.19479166666666667,0.15925925925925927],[0.19375,0.15925925925925927],[0.19270833333333334,0.15925925925925927],[0.19166666666666668,0.15925925925925927],[0.19166666666666668,0.15925925925925927],[0.19166666666666668,0.15925925925925927],[0.190625,0.1574074074074074],[0.190625,0.1574074074074074],[0.190625,0.1574074074074074],[0.190625,0.1574074074074074],[0.190625,0.1574074074074074],[0.190625,0.1574074074074074],[0.190625,0.1574074074074074],[0.190625,0.1574074074074074],[0.190625,0.1574074074074074],[0.190625,0.1574074074074074],[0.190625,0.1574074074074074],[0.190625,0.1574074074074074],[0.190625,0.1574074074074074],[0.190625,0.1574074074074074],[0.190625,0.1574074074074074],[0.190625,0.1574074074074074],[0.190625,0.1574074074074074],[0.190625,0.1574074074074074],[0.190625,0.1574074074074074],[0.190625,0.1574074074074074],[0.190625,0.1574074074074074],[0.190625,0.1574074074074074],[0.190625,0.1574074074074074],[0.190625,0.1574074074074074],[0.190625,0.1574074074074074],[0.190625,0.1574074074074074],[0.190625,0.1574074074074074],[0.190625,0.1574074074074074],[0.190625,0.1574074074074074],[0.190625,0.1574074074074074],[0.190625,0.1574074074074074],[0.190625,0.1574074074074074],[0.190625,0.1574074074074074],[0.190625,0.1574074074074074],[0.190625,0.1574074074074074],[0.190625,0.1574074074074074],[0.190625,0.1574074074074074],[0.190625,0.1574074074074074],[0.190625,0.1574074074074074],[0.190625,0.1574074074074074],[0.190625,0.1574074074074074],[0.190625,0.1574074074074074],[0.190625,0.1574074074074074],[0.190625,0.1574074074074074],[0.190625,0.1574074074074074],[0.190625,0.1574074074074074],[0.190625,0.1574074074074074],[0.190625,0.1574074074074074],[0.190625,0.1574074074074074],[0.190625,0.1574074074074074],[0.190625,0.1574074074074074],[0.190625,0.1574074074074074],[0.190625,0.1574074074074074],[0.190625,0.1574074074074074],[0.190625,0.1574074074074074],[0.190625,0.1574074074074074],[0.190625,0.1574074074074074],[0.190625,0.1574074074074074],[0.190625,0.1574074074074074],[0.190625,0.1574074074074074],[0.190625,0.1574074074074074],[0.190625,0.1574074074074074],[0.190625,0.1574074074074074],[0.190625,0.1574074074074074],[0.190625,0.1574074074074074],[0.190625,0.1574074074074074],[0.190625,0.1574074074074074],[0.190625,0.1574074074074074],[0.190625,0.1574074074074074],[0.190625,0.1574074074074074],[0.190625,0.1574074074074074],[0.190625,0.1574074074074074],[0.190625,0.1574074074074074],[0.190625,0.1574074074074074],[0.190625,0.1574074074074074],[0.190625,0.1574074074074074],[0.190625,0.1574074074074074],[0.190625,0.1574074074074074],[0.190625,0.1574074074074074],[0.190625,0.1574074074074074],[0.190625,0.1574074074074074],[0.190625,0.1574074074074074],[0.190625,0.1574074074074074],[0.190625,0.1574074074074074],[0.190625,0.1574074074074074],[0.190625,0.1574074074074074],[0.190625,0.1574074074074074],[0.190625,0.1574074074074074],[0.190625,0.1574074074074074],[0.190625,0.1574074074074074],[0.190625,0.1574074074074074],[0.190625,0.1574074074074074],[0.190625,0.1574074074074074],[0.190625,0.1574074074074074],[0.190625,0.1574074074074074],[0.190625,0.1574074074074074],[0.190625,0.1574074074074074],[0.190625,0.1574074074074074],[0.18958333333333333,0.1574074074074074],[0.18854166666666666,0.15185185185185185],[0.1875,0.14814814814814814],[0.1875,0.14444444444444443],[0.1875,0.1388888888888889],[0.1875,0.13518518518518519],[0.18645833333333334,0.12962962962962962],[0.18645833333333334,0.12777777777777777],[0.18645833333333334,0.12407407407407407],[0.18645833333333334,0.11666666666666667],[0.18645833333333334,0.1111111111111111],[0.18645833333333334,0.10555555555555556],[0.18645833333333334,0.0962962962962963],[0.18645833333333334,0.08703703703703704],[0.18645833333333334,0.08148148148148149],[0.18645833333333334,0.07407407407407407],[0.18645833333333334,0.07037037037037037],[0.18645833333333334,0.06666666666666667],[0.18645833333333334,0.05925925925925926],[0.184375,0.05185185185185185],[0.184375,0.044444444444444446],[0.184375,0.037037037037037035],[0.184375,0.03148148148148148],[0.184375,0.022222222222222223],[0.184375,0.014814814814814815],[0.18333333333333332,0.007407407407407408],[0.18333333333333332,-0.001851851851851852],[0.18333333333333332,-0.012962962962962963],[0.18333333333333332,-0.022222222222222223],[0.18333333333333332,-0.02962962962962963],[0.18333333333333332,-0.03148148148148148],[0.18333333333333332,-0.05185185185185185],[0.18333333333333332,-0.06481481481481481],[0.18333333333333332,-0.07777777777777778],[0.184375,-0.08518518518518518],[0.184375,-0.09259259259259259],[0.18645833333333334,-0.1037037037037037],[0.1875,-0.11851851851851852],[0.18958333333333333,-0.13148148148148148],[0.19375,-0.14629629629629629],[0.19375,-0.15555555555555556],[0.196875,-0.1685185185185185],[0.19791666666666666,-0.17777777777777778],[0.20208333333333334,-0.20185185185185187],[0.203125,-0.22407407407407406],[0.20416666666666666,-0.24074074074074073],[0.20520833333333333,-0.25],[0.20625,-0.25925925925925924],[0.20625,-0.26481481481481484],[0.20729166666666668,-0.2759259259259259],[0.20729166666666668,-0.2833333333333333],[0.20729166666666668,-0.28888888888888886],[0.20729166666666668,-0.29814814814814816],[0.209375,-0.3055555555555556],[0.209375,-0.3074074074074074],[0.21041666666666667,-0.31296296296296294],[0.21354166666666666,-0.32222222222222224],[0.21354166666666666,-0.32592592592592595],[0.21666666666666667,-0.3333333333333333],[0.21666666666666667,-0.3388888888888889],[0.21770833333333334,-0.34444444444444444],[0.21770833333333334,-0.34629629629629627],[0.21770833333333334,-0.35185185185185186],[0.21875,-0.35185185185185186],[0.21979166666666666,-0.35185185185185186],[0.22291666666666668,-0.34629629629629627],[0.228125,-0.3314814814814815],[0.23229166666666667,-0.31296296296296294],[0.2375,-0.29074074074074074],[0.240625,-0.27037037037037037],[0.24270833333333333,-0.2574074074074074],[0.24270833333333333,-0.25],[0.24375,-0.23703703703703705],[0.25,-0.21851851851851853],[0.26458333333333334,-0.19074074074074074],[0.278125,-0.15925925925925927],[0.29270833333333335,-0.11666666666666667],[0.3125,-0.05185185185185185],[0.3302083333333333,0.022222222222222223],[0.375,0.21481481481481482],[0.39895833333333336,0.31851851851851853],[0.41354166666666664,0.37962962962962965],[0.4239583333333333,0.4203703703703704],[0.43020833333333336,0.4425925925925926],[0.4322916666666667,0.45],[0.43333333333333335,0.45555555555555555],[0.43333333333333335,0.45555555555555555],[0.43333333333333335,0.45555555555555555],[0.43333333333333335,0.45555555555555555],[0.43333333333333335,0.45555555555555555],[0.43333333333333335,0.45555555555555555],[0.43333333333333335,0.45555555555555555],[0.43333333333333335,0.45555555555555555],[0.43333333333333335,0.45555555555555555],[0.43333333333333335,0.45555555555555555],[0.43333333333333335,0.45740740740740743],[0.43125,0.4537037037037037],[0.43020833333333336,0.45185185185185184],[0.42916666666666664,0.4462962962962963],[0.42916666666666664,0.4444444444444444],[0.428125,0.4425925925925926],[0.428125,0.4425925925925926],[0.428125,0.44074074074074077],[0.4270833333333333,0.4351851851851852],[0.4270833333333333,0.4351851851851852],[0.4270833333333333,0.4351851851851852],[0.4270833333333333,0.4351851851851852],[0.4270833333333333,0.4351851851851852],[0.4270833333333333,0.4351851851851852],[0.4270833333333333,0.4351851851851852],[0.4270833333333333,0.4351851851851852],[0.4270833333333333,0.4351851851851852],[0.4270833333333333,0.4351851851851852],[0.4270833333333333,0.4351851851851852],[0.4270833333333333,0.4351851851851852],[0.4270833333333333,0.4351851851851852],[0.4270833333333333,0.4351851851851852],[0.4270833333333333,0.4351851851851852],[0.4270833333333333,0.4351851851851852],[0.4270833333333333,0.4351851851851852],[0.4270833333333333,0.4351851851851852],[0.4270833333333333,0.4351851851851852],[0.4270833333333333,0.4351851851851852],[0.4270833333333333,0.4351851851851852],[0.4270833333333333,0.44074074074074077],[0.4270833333333333,0.4462962962962963],[0.42291666666666666,0.45185185185185184],[0.41875,0.4537037037037037],[0.409375,0.45925925925925926],[0.3958333333333333,0.4648148148148148],[0.3697916666666667,0.47962962962962963],[0.33958333333333335,0.49444444444444446],[0.30416666666666664,0.5055555555555555],[0.2760416666666667,0.5092592592592593],[0.25416666666666665,0.5092592592592593],[0.234375,0.5092592592592593],[0.21041666666666667,0.5092592592592593],[0.20104166666666667,0.5037037037037037],[0.19375,0.5],[0.184375,0.4962962962962963],[0.17395833333333333,0.4925925925925926],[0.1625,0.4888888888888889],[0.15208333333333332,0.48703703703703705],[0.14583333333333334,0.48333333333333334],[0.140625,0.47962962962962963],[0.1375,0.4777777777777778],[0.134375,0.4740740740740741],[0.13333333333333333,0.4722222222222222],[0.128125,0.4648148148148148],[0.11666666666666667,0.45],[0.10416666666666667,0.42777777777777776],[0.09166666666666666,0.40925925925925927],[0.0875,0.40185185185185185],[0.08333333333333333,0.3888888888888889],[0.08020833333333334,0.37962962962962965],[0.078125,0.362962962962963],[0.07708333333333334,0.3537037037037037],[0.07708333333333334,0.34074074074074073],[0.07708333333333334,0.3388888888888889],[0.07708333333333334,0.3333333333333333],[0.07708333333333334,0.3277777777777778],[0.07708333333333334,0.32407407407407407],[0.078125,0.31666666666666665],[0.08125,0.3074074074074074],[0.08541666666666667,0.29814814814814816],[0.08958333333333333,0.29074074074074074],[0.09375,0.2833333333333333]]","[[0.3471874999999999,-0.3798148148148149],[0.3471874999999999,-0.3798148148148149],[0.4232291666666666,-0.3405555555555555],[0.4232291666666666,-0.3405555555555555],[0.4783333333333334,-0.30944444444444447],[0.5336458333333333,-0.2740740740740741],[0.5336458333333333,-0.2740740740740741],[0.5793750000000001,-0.24240740740740738],[0.6196875000000001,-0.18666666666666668],[0.6351041666666667,-0.17166666666666663],[0.6351041666666667,-0.17166666666666663],[0.6821875000000001,-0.14777777777777779],[0.6938541666666665,-0.13944444444444445],[0.6969791666666666,-0.12037037037037036],[0.6969791666666666,-0.11796296296296294],[0.6872916666666666,-0.12685185185185185],[0.6974999999999999,-0.14314814814814816],[0.6974999999999999,-0.14314814814814816],[0.6540625000000001,-0.17462962962962966],[0.6196875000000001,-0.19518518518518516],[0.5916666666666667,-0.23444444444444448],[0.5373958333333334,-0.25685185185185183],[0.5373958333333334,-0.25685185185185183],[0.47593750000000007,-0.27148148148148155],[0.425,-0.2940740740740741],[0.37562499999999993,-0.3148148148148148],[0.37562499999999993,-0.3148148148148148],[0.33572916666666663,-0.32981481481481484],[0.3030208333333334,-0.3531481481481481],[0.23270833333333343,-0.35185185185185186],[0.2234375,-0.35407407407407404],[0.21541666666666662,-0.3594444444444445],[0.20645833333333338,-0.3701851851851851],[0.21145833333333333,-0.3811111111111111],[0.22364583333333338,-0.3998148148148148],[0.22760416666666666,-0.4183333333333333],[0.2189583333333334,-0.41944444444444445],[0.2103125000000001,-0.42055555555555557],[0.21885416666666657,-0.3861111111111111],[0.2564583333333334,-0.3701851851851851],[0.2943749999999999,-0.34759259259259256],[0.3310416666666666,-0.3218518518518519],[0.3701041666666666,-0.29962962962962963],[0.3943749999999999,-0.2772222222222222],[0.38343749999999993,-0.2722222222222222],[0.40593750000000006,-0.25833333333333336],[0.4505208333333333,-0.26425925925925925],[0.4505208333333333,-0.26425925925925925],[0.4992708333333333,-0.27388888888888885],[0.5123958333333334,-0.30351851851851847],[0.5123958333333334,-0.30351851851851847],[0.5215625,-0.34574074074074074],[0.5215625,-0.34574074074074074],[0.5036458333333333,-0.3605555555555555],[0.5036458333333333,-0.3605555555555555],[0.5126041666666665,-0.36574074074074076],[0.5126041666666665,-0.36574074074074076],[0.5115624999999999,-0.3653703703703704],[0.5366666666666667,-0.3931481481481482],[0.5366666666666667,-0.3931481481481482],[0.5754166666666668,-0.38555555555555554],[0.5754166666666668,-0.38555555555555554],[0.6087500000000001,-0.4014814814814815],[0.6087500000000001,-0.4014814814814815],[0.6297916666666665,-0.4027777777777778],[0.6297916666666665,-0.4027777777777778],[0.6541666666666667,-0.39296296296296296],[0.6828125,-0.3851851851851852],[0.7025000000000001,-0.355],[0.7390625,-0.33925925925925926],[0.7506249999999999,-0.3274074074074074],[0.7506249999999999,-0.3274074074074074],[0.7697916666666667,-0.3175925925925926],[0.6954166666666666,-0.2577777777777778],[0.6259375000000001,-0.22370370370370374],[0.5447916666666667,-0.1648148148148148],[0.4813541666666666,-0.11425925925925924],[0.4813541666666666,-0.11425925925925924],[0.3945833333333333,-0.06518518518518517],[0.3256249999999999,-0.039629629629629584],[0.26895833333333335,-0.011111111111111112],[0.20697916666666671,0.023333333333333376],[0.14312500000000009,0.052037037037037076],[0.07927083333333323,0.08074074074074078],[0.08427083333333343,0.10240740740740732],[0.12197916666666657,0.13870370370370366],[0.16437499999999997,0.13407407407407404],[0.18083333333333323,0.12888888888888894],[0.2150000000000001,0.12240740740740745],[0.23833333333333329,0.13425925925925927],[0.2607291666666666,0.15592592592592602],[0.2907291666666666,0.16648148148148145],[0.3132291666666667,0.17111111111111107],[0.33572916666666663,0.1757407407407407],[0.30979166666666674,0.17388888888888884],[0.2908333333333334,0.16351851851851842],[0.2508333333333333,0.1838888888888888],[0.21593749999999995,0.19648148148148153],[0.17177083333333343,0.1948148148148149],[0.13708333333333325,0.20018518518518522],[0.13708333333333325,0.20018518518518522],[0.1165625000000001,0.2012962962962964],[0.08145833333333338,0.2037037037037037],[0.04510416666666662,0.21185185185185182],[0.03333333333333333,0.20111111111111116],[0.07593750000000009,0.18851851851851845],[0.09552083333333337,0.17759259259259255],[0.09552083333333337,0.17759259259259255],[0.11510416666666666,0.16666666666666666],[0.12666666666666657,0.144074074074074],[0.140625,0.1205555555555556],[0.14510416666666662,0.09000000000000004],[0.14177083333333323,0.05962962962962971],[0.15302083333333344,0.027962962962963005],[0.1775000000000001,-0.0001851851851852273],[0.17739583333333328,-0.009444444444444486],[0.17739583333333328,-0.009444444444444486],[0.1712500000000001,-0.041111111111111195],[0.16531250000000006,-0.02555555555555547],[0.1681250000000001,-0.03166666666666671],[0.18333333333333332,-0.0235185185185186],[0.19187500000000005,0.006296296296296254],[0.20041666666666677,0.03611111111111111],[0.20041666666666677,0.03611111111111111],[0.19927083333333329,0.054259259259259174],[0.2181250000000001,0.039629629629629584],[0.2181250000000001,0.039629629629629584],[0.23250000000000004,0.02166666666666675],[0.24177083333333324,0.02907407407407416],[0.25197916666666675,0.04888888888888885],[0.2664583333333333,0.012037037037037037],[0.27218749999999997,-0.0031481481481482323],[0.2627083333333334,-0.01185185185185181],[0.2522916666666667,-0.03259259259259263],[0.25593750000000004,-0.07018518518518514],[0.2638541666666666,-0.10185185185185185],[0.2638541666666666,-0.10185185185185185],[0.27312500000000006,-0.08333333333333333],[0.28760416666666655,-0.08518518518518518],[0.315625,-0.11203703703703703],[0.3492708333333333,-0.15611111111111114],[0.3492708333333333,-0.15611111111111114],[0.3580208333333334,-0.15759259259259265],[0.3889583333333334,-0.16425925925925924],[0.43510416666666674,-0.17740740740740743],[0.5001041666666666,-0.2125925925925926],[0.4990624999999999,-0.20851851851851855],[0.5060416666666666,-0.2007407407407407],[0.4881249999999999,-0.2111111111111111],[0.46281249999999996,-0.20203703703703707],[0.42906250000000007,-0.1933333333333333],[0.39854166666666657,-0.18499999999999997],[0.38479166666666675,-0.19907407407407407],[0.3419791666666666,-0.2103703703703704],[0.29541666666666655,-0.2235185185185185],[0.2423958333333334,-0.20092592592592592],[0.23135416666666658,-0.20092592592592592],[0.21229166666666663,-0.20462962962962963],[0.2021874999999999,-0.2096296296296296],[0.19427083333333334,-0.21370370370370367],[0.19739583333333333,-0.20314814814814813],[0.18937499999999996,-0.1714814814814815],[0.18447916666666658,-0.14574074074074073],[0.18447916666666658,-0.14574074074074073],[0.18645833333333334,-0.1175925925925926],[0.18583333333333343,-0.08481481481481483],[0.18583333333333343,-0.08481481481481483],[0.18083333333333323,-0.06648148148148143],[0.1866666666666667,-0.028703703703703703],[0.19249999999999995,0.026111111111111154],[0.18958333333333333,0.08055555555555556],[0.18958333333333333,0.08055555555555556],[0.21645833333333328,0.08203703703703695],[0.21645833333333328,0.08203703703703695],[0.21604166666666677,0.08777777777777773],[0.21604166666666677,0.08777777777777773],[0.2203125,0.09518518518518514],[0.23885416666666662,0.11296296296296296],[0.2598958333333333,0.12777777777777777],[0.2598958333333333,0.12777777777777777],[0.2872916666666666,0.1398148148148148],[0.2872916666666666,0.1398148148148148],[0.3103125000000001,0.15129629629629637],[0.3103125000000001,0.15129629629629637],[0.3446875000000001,0.14666666666666675],[0.37864583333333335,0.11296296296296296],[0.3870833333333332,0.11296296296296296],[0.3696875000000001,0.16148148148148156],[0.3696875000000001,0.16148148148148156],[0.3866666666666667,0.17888888888888893],[0.38270833333333343,0.19870370370370363],[0.38291666666666657,0.18574074074074065],[0.3806250000000001,0.1757407407407407],[0.3796875,0.17037037037037037],[0.375,0.16370370370370366],[0.36208333333333326,0.1638888888888889],[0.3232291666666666,0.17777777777777778],[0.33083333333333326,0.17537037037037045],[0.33083333333333326,0.17537037037037045],[0.3241666666666667,0.17462962962962955],[0.28104166666666663,0.1955555555555556],[0.27291666666666664,0.19018518518518526],[0.2716666666666666,0.19981481481481478],[0.24562499999999995,0.21203703703703702],[0.2493750000000001,0.20666666666666672],[0.25114583333333323,0.20018518518518522],[0.26677083333333323,0.16166666666666657],[0.3087500000000001,0.12148148148148152],[0.3087500000000001,0.12148148148148152],[0.3304166666666667,0.07740740740740733],[0.3506249999999999,0.060370370370370414],[0.38916666666666655,0.0338888888888888],[0.4327083333333334,-0.004444444444444402],[0.4390625,-0.016851851851851896],[0.49406249999999996,-0.04000000000000004],[0.5298958333333333,-0.045740740740740825],[0.5804166666666667,-0.04685185185185177],[0.5804166666666667,-0.04685185185185177],[0.5847916666666667,-0.012222222222222264],[0.6039583333333333,0.016111111111111194],[0.645,0.012222222222222264],[0.6783333333333333,-0.01592592592592597],[0.7273958333333332,-0.041111111111111195],[0.7257291666666668,-0.03925925925925934],[0.7589583333333333,-0.06833333333333329],[0.7657291666666666,-0.06407407407407412],[0.7605208333333332,-0.06425925925925924],[0.7553124999999999,-0.06444444444444447],[0.7878124999999999,-0.09722222222222222],[0.8061458333333335,-0.12148148148148152],[0.7799999999999999,-0.13259259259259262],[0.7733333333333334,-0.14370370370370375],[0.7733333333333334,-0.14370370370370375],[0.7179166666666668,-0.18796296296296297],[0.6799999999999999,-0.21796296296296294],[0.6195833333333333,-0.2403703703703704],[0.5636458333333333,-0.2698148148148148],[0.4884375000000001,-0.28055555555555556],[0.4195833333333333,-0.2946296296296297],[0.3416666666666667,-0.277962962962963],[0.2898958333333333,-0.2911111111111111],[0.23739583333333342,-0.27629629629629626],[0.18489583333333334,-0.2614814814814815],[0.18489583333333334,-0.2614814814814815],[0.2224999999999999,-0.23648148148148146],[0.240625,-0.22370370370370374],[0.2538541666666667,-0.19722222222222222],[0.27447916666666666,-0.19000000000000003],[0.3111458333333334,-0.1911111111111111],[0.38385416666666666,-0.2322222222222222],[0.45625,-0.2851851851851852],[0.501875,-0.31055555555555553],[0.5688541666666665,-0.3448148148148148],[0.5761458333333332,-0.35037037037037033],[0.5761458333333332,-0.35037037037037033],[0.5631249999999999,-0.34870370370370374],[0.5908333333333334,-0.3359259259259259],[0.5746875,-0.32833333333333337],[0.5729166666666666,-0.3257407407407407],[0.5743750000000001,-0.33351851851851855],[0.5743750000000001,-0.33351851851851855],[0.5075000000000001,-0.27870370370370373],[0.4244791666666667,-0.23555555555555555],[0.3224999999999999,-0.1794444444444444],[0.26239583333333344,-0.14537037037037037],[0.2912499999999999,-0.15870370370370368],[0.2833333333333333,-0.15925925925925927],[0.2833333333333333,-0.15925925925925927],[0.2193749999999999,-0.11370370370370367],[0.19812500000000005,-0.07592592592592592],[0.1851041666666667,-0.04888888888888885],[0.12729166666666672,-0.02166666666666675],[0.12729166666666672,-0.02166666666666675],[0.12406249999999991,-0.02629629629629638],[0.13229166666666667,-0.013333333333333417],[0.13229166666666667,-0.013333333333333417],[0.16927083333333334,-0.016851851851851896],[0.15583333333333324,-0.0031481481481482323],[0.14947916666666666,-0.0007407407407406986],[0.12000000000000005,0.028518518518518478],[0.12000000000000005,0.028518518518518478],[0.1234375,0.004629629629629629],[0.1234375,0.004629629629629629],[0.11854166666666661,-0.013703703703703662],[0.09260416666666677,-0.034074074074074034],[0.11145833333333334,-0.05462962962962963],[0.10166666666666657,-0.031111111111111027],[0.09656250000000005,-0.013518518518518435],[0.08114583333333343,0.004259259259259175],[0.09552083333333337,0.01592592592592597],[0.09552083333333337,0.01592592592592597],[0.07354166666666657,0.05759259259259263],[0.07354166666666657,0.05759259259259263],[0.06187499999999998,0.10907407407407403],[0.06187499999999998,0.10907407407407403],[0.071875,0.05055555555555547],[0.071875,0.05055555555555547],[0.12281250000000009,0.03685185185185181],[0.12281250000000009,0.03685185185185181],[0.13781249999999995,0.05722222222222218],[0.13781249999999995,0.05722222222222218],[0.13083333333333325,0.10740740740740741],[0.13739583333333344,0.08074074074074078],[0.13739583333333344,0.08074074074074078],[0.1546875,0.09092592592592597],[0.16510416666666666,0.12814814814814823],[0.17374999999999996,0.1425925925925926],[0.18239583333333323,0.15703703703703695],[0.22291666666666668,0.15759259259259265],[0.23947916666666677,0.30037037037037045],[0.20864583333333328,0.3333333333333333],[0.21416666666666656,0.36425925925925934],[0.24166666666666667,0.3653703703703703],[0.2543750000000001,0.40314814814814826],[0.2631249999999999,0.40481481481481485],[0.2484375,0.37759259259259254],[0.2335416666666667,0.38981481481481484],[0.22604166666666667,0.39203703703703713],[0.19947916666666668,0.3714814814814815],[0.20812499999999995,0.3151851851851853],[0.22135416666666666,0.318888888888889],[0.21864583333333343,0.33351851851851855],[0.2234375,0.3194444444444444],[0.225,0.31592592592592594],[0.22333333333333344,0.31962962962962965],[0.2525000000000001,0.3285185185185185],[0.2601041666666667,0.3242592592592593],[0.2867708333333333,0.331111111111111],[0.2808333333333332,0.3338888888888888],[0.2678124999999999,0.31851851851851853],[0.2556250000000001,0.2890740740740741],[0.24812500000000004,0.23555555555555563],[0.22156250000000005,0.22629629629629638],[0.19947916666666668,0.21518518518518526],[0.19520833333333343,0.20092592592592592],[0.19093749999999995,0.1866666666666666],[0.2247916666666666,0.10407407407407415],[0.2247916666666666,0.10407407407407415],[0.2133333333333333,0.03777777777777774],[0.2234375,-0.026666666666666623],[0.2234375,-0.026666666666666623],[0.21906249999999997,-0.06851851851851852],[0.25447916666666665,-0.07851851851851847],[0.2604166666666667,-0.10740740740740741],[0.27791666666666665,-0.15185185185185185],[0.2913541666666667,-0.19388888888888886],[0.2834374999999999,-0.24074074074074073],[0.2834374999999999,-0.24074074074074073],[0.303125,-0.30574074074074076],[0.28624999999999995,-0.32388888888888884],[0.28270833333333345,-0.3225925925925926],[0.3007291666666667,-0.337037037037037],[0.3007291666666667,-0.337037037037037],[0.3159374999999999,-0.3566666666666667],[0.3099999999999999,-0.3761111111111112],[0.3330208333333334,-0.3901851851851852],[0.3349999999999999,-0.3809259259259259],[0.3349999999999999,-0.3809259259259259],[0.34104166666666674,-0.37407407407407406],[0.35489583333333335,-0.3742592592592593],[0.33583333333333343,-0.3648148148148148],[0.3195833333333333,-0.3357407407407408],[0.3082291666666668,-0.34092592592592597],[0.3082291666666668,-0.34092592592592597],[0.28093750000000006,-0.3061111111111111],[0.28093750000000006,-0.3061111111111111],[0.2648958333333333,-0.26944444444444443],[0.2205208333333334,-0.24888888888888885],[0.17666666666666658,-0.21481481481481482],[0.1634375000000001,-0.20129629629629628],[0.1634375000000001,-0.20129629629629628],[0.1502083333333334,-0.18777777777777774],[0.14312500000000009,-0.15092592592592594],[0.14135416666666673,-0.10555555555555556],[0.13229166666666667,-0.04888888888888885],[0.12385416666666677,0.005185185185185101],[0.13125,0.01314814814814819],[0.14989583333333342,-0.01777777777777782],[0.2265625,-0.04407407407407399],[0.26020833333333326,-0.034074074074074034],[0.2640625,-0.051111111111111156],[0.3178124999999999,-0.08499999999999996],[0.35145833333333343,-0.13351851851851856],[0.43385416666666665,-0.22962962962962963],[0.4591666666666666,-0.2861111111111111],[0.5077083333333334,-0.3803703703703703],[0.4310416666666666,-0.32814814814814813],[0.3394791666666668,-0.2681481481481482],[0.29239583333333335,-0.2631481481481482],[0.2796875,-0.2972222222222222],[0.26197916666666665,-0.305],[0.2582291666666668,-0.32833333333333337],[0.23947916666666677,-0.3405555555555555],[0.23052083333333329,-0.3248148148148148],[0.23052083333333329,-0.3248148148148148],[0.23291666666666658,-0.34388888888888886],[0.18041666666666673,-0.3051851851851852],[0.23302083333333337,-0.3811111111111111],[0.31062500000000004,-0.45037037037037037],[0.3108333333333334,-0.47240740740740744],[0.32666666666666655,-0.4890740740740741],[0.34489583333333323,-0.5037037037037037],[0.30135416666666665,-0.48351851851851857],[0.2789583333333333,-0.47611111111111115],[0.2037499999999999,-0.4281481481481481],[0.2037499999999999,-0.4281481481481481],[0.15625,-0.3931481481481482],[0.1404166666666666,-0.3781481481481481],[0.13760416666666658,-0.3538888888888889],[0.14885416666666676,-0.3516666666666666],[0.14885416666666676,-0.3516666666666666],[0.15812499999999996,-0.3490740740740741],[0.15812499999999996,-0.3490740740740741],[0.0821875000000001,-0.3301851851851852],[0.0821875000000001,-0.3301851851851852],[0.06187499999999998,-0.3338888888888889],[0.06187499999999998,-0.3338888888888889],[0.08614583333333338,-0.3405555555555555],[0.08614583333333338,-0.3405555555555555]]","[[0.3471874999999999,-0.3798148148148149,0.000299999713902821],[0.3471874999999999,-0.3798148148148149,0.048899999618534196],[0.4232291666666666,-0.3405555555555555,0.06039999961853226],[0.4232291666666666,-0.3405555555555555,0.07700000000000529],[0.4783333333333334,-0.30944444444444447,0.09369999980926735],[0.5336458333333333,-0.2740740740740741,0.11469999980926815],[0.5336458333333333,-0.2740740740740741,0.12700000000000244],[0.5793750000000001,-0.24240740740740738,0.14359999990463734],[0.6196875000000001,-0.18666666666666668,0.16019999980926514],[0.6351041666666667,-0.17166666666666663,0.1769999999999996],[0.6351041666666667,-0.17166666666666663,0.19369999980926877],[0.6821875000000001,-0.14777777777777779,0.21029999971389657],[0.6938541666666665,-0.13944444444444445,0.22829999971389725],[0.6969791666666666,-0.12037037037037036,0.24369999980926593],[0.6969791666666666,-0.11796296296296294,0.2605000000000004],[0.6872916666666666,-0.12685185185185185,0.2768999996185286],[0.6974999999999999,-0.14314814814814816,0.3011999998092705],[0.6974999999999999,-0.14314814814814816,0.310299999713898],[0.6540625000000001,-0.17462962962962966,0.3270000000000053],[0.6196875000000001,-0.19518518518518516,0.3435999999046331],[0.5916666666666667,-0.23444444444444448,0.36069999980927037],[0.5373958333333334,-0.25685185185185183,0.3770999999046367],[0.5373958333333334,-0.25685185185185183,0.3936999998092645],[0.47593750000000007,-0.27148148148148155,0.4103999996185337],[0.425,-0.2940740740740741,0.4307999997138978],[0.37562499999999993,-0.3148148148148148,0.4482999997138961],[0.37562499999999993,-0.3148148148148148,0.46050000000000324],[0.33572916666666663,-0.32981481481481484,0.47700000000000387],[0.3030208333333334,-0.3531481481481481,0.4963999996185322],[0.23270833333333343,-0.35185185185185186,0.5130000000000052],[0.2234375,-0.35407407407407404,0.5294999999999987],[0.21541666666666662,-0.3594444444444445,0.545099999904636],[0.20645833333333338,-0.3701851851851851,0.560299999713898],[0.21145833333333333,-0.3811111111111111,0.5768999996185329],[0.22364583333333338,-0.3998148148148148,0.597999999999999],[0.22760416666666666,-0.4183333333333333,0.6136999998092705],[0.2189583333333334,-0.41944444444444445,0.6292999997139006],[0.2103125000000001,-0.42055555555555557,0.6435999999046373],[0.21885416666666657,-0.3861111111111111,0.6606999998092675],[0.2564583333333334,-0.3701851851851851,0.6769999999999996],[0.2943749999999999,-0.34759259259259256,0.6950999999046346],[0.3310416666666666,-0.3218518518518519,0.7102999997138966],[0.3701041666666666,-0.29962962962962963,0.7268999996185315],[0.3943749999999999,-0.2772222222222222,0.7435999999046317],[0.38343749999999993,-0.2722222222222222,0.7602999997139008],[0.40593750000000006,-0.25833333333333336,0.7768999996185286],[0.4505208333333333,-0.26425925925925925,0.7961999998092679],[0.4505208333333333,-0.26425925925925925,0.8111999998092685],[0.4992708333333333,-0.27388888888888885,0.8270000000000053],[0.5123958333333334,-0.30351851851851847,0.8435999999046331],[0.5123958333333334,-0.30351851851851847,0.8602999997139023],[0.5215625,-0.34574074074074074,0.87689999961853],[0.5215625,-0.34574074074074074,0.8938999996185331],[0.5036458333333333,-0.3605555555555555,0.9103999996185337],[0.5036458333333333,-0.3605555555555555,0.9269999999999996],[0.5126041666666665,-0.36574074074074076,0.9435999999046345],[0.5126041666666665,-0.36574074074074076,0.9602999997138966],[0.5115624999999999,-0.3653703703703704,0.9768999996185315],[0.5366666666666667,-0.3931481481481482,0.9991999998092638],[0.5366666666666667,-0.3931481481481482,1.0102999997139008],[0.5754166666666668,-0.38555555555555554,1.027000000000001],[0.5754166666666668,-0.38555555555555554,1.043599999904636],[0.6087500000000001,-0.4014814814814815,1.0605000000000047],[0.6087500000000001,-0.4014814814814815,1.0770000000000053],[0.6297916666666665,-0.4027777777777778,1.0982999997139018],[0.6297916666666665,-0.4027777777777778,1.1157999997139],[0.6541666666666667,-0.39296296296296296,1.1270000000000024],[0.6828125,-0.3851851851851852,1.1435999999046373],[0.7025000000000001,-0.355,1.1601999998092651],[0.7390625,-0.33925925925925926,1.1769999999999996],[0.7506249999999999,-0.3274074074074074,1.1951999998092688],[0.7506249999999999,-0.3274074074074074,1.2101999998092694],[0.7697916666666667,-0.3175925925925926,1.2296999998092701],[0.6954166666666666,-0.2577777777777778,1.2435999999046317],[0.6259375000000001,-0.22370370370370374,1.2605999999046347],[0.5447916666666667,-0.1648148148148148,1.2796999998092673],[0.4813541666666666,-0.11425925925925924,1.2955999999046313],[0.4813541666666666,-0.11425925925925924,1.3101999998092637],[0.3945833333333333,-0.06518518518518517,1.330599999904635],[0.3256249999999999,-0.039629629629629584,1.3443999996185312],[0.26895833333333335,-0.011111111111111112,1.3602999997139023],[0.20697916666666671,0.023333333333333376,1.3770999999046367],[0.14312500000000009,0.052037037037037076,1.3965999999046375],[0.07927083333333323,0.08074074074074078,1.4101999998092651],[0.08427083333333343,0.10240740740740732,1.4268999996185343],[0.12197916666666657,0.13870370370370366,1.4435999999046345],[0.16437499999999997,0.13407407407407404,1.4602999997138966],[0.18083333333333323,0.12888888888888894,1.4768999996185315],[0.2150000000000001,0.12240740740740745,1.4952999997139003],[0.23833333333333329,0.13425925925925927,1.5101999998092666],[0.2607291666666666,0.15592592592592602,1.527000000000001],[0.2907291666666666,0.16648148148148145,1.543599999904636],[0.3132291666666667,0.17111111111111107,1.560299999713898],[0.33572916666666663,0.1757407407407407,1.5768999996185329],[0.30979166666666674,0.17388888888888884,1.5952999997139017],[0.2908333333333334,0.16351851851851842,1.613199999809268],[0.2508333333333333,0.1838888888888888,1.6298999996185302],[0.21593749999999995,0.19648148148148153,1.6462999997138965],[0.17177083333333343,0.1948148148148149,1.6610000000000014],[0.13708333333333325,0.20018518518518522,1.6768999996185343],[0.13708333333333325,0.20018518518518522,1.6936999998092688],[0.1165625000000001,0.2012962962962964,1.7102999997138966],[0.08145833333333338,0.2037037037037037,1.727099999904631],[0.04510416666666662,0.21185185185185182,1.7473999996185299],[0.03333333333333333,0.20111111111111116,1.762199999809269],[0.07593750000000009,0.18851851851851845,1.7768999996185286],[0.09552083333333337,0.17759259259259255,1.8003999996185343],[0.09552083333333337,0.17759259259259255,1.810299999713898],[0.11510416666666666,0.16666666666666666,1.8270000000000053],[0.12666666666666657,0.144074074074074,1.843599999904633],[0.140625,0.1205555555555556,1.8602999997139023],[0.14510416666666662,0.09000000000000004,1.87689999961853],[0.14177083333333323,0.05962962962962971,1.8965000000000032],[0.15302083333333344,0.027962962962963005,1.9101999998092651],[0.1775000000000001,-0.0001851851851852273,1.9269999999999996],[0.17739583333333328,-0.009444444444444486,1.9436999998092688],[0.17739583333333328,-0.009444444444444486,1.9601999998092694],[0.1712500000000001,-0.041111111111111195,1.979299999713902],[0.16531250000000006,-0.02555555555555547,1.9976999998092637],[0.1681250000000001,-0.03166666666666671,2.0120000000000005],[0.18333333333333332,-0.0235185185185186,2.0308999996185335],[0.19187500000000005,0.006296296296296254,2.0453999996185317],[0.20041666666666677,0.03611111111111111,2.06139999961853],[0.20041666666666677,0.03611111111111111,2.0808999996185307],[0.19927083333333329,0.054259259259259174,2.093899999618529],[0.2181250000000001,0.039629629629629584,2.1150999999046363],[0.2181250000000001,0.039629629629629584,2.1270000000000024],[0.23250000000000004,0.02166666666666675,2.1461999998092693],[0.24177083333333324,0.02907407407407416,2.1610000000000014],[0.25197916666666675,0.04888888888888885,2.1768999996185343],[0.2664583333333333,0.012037037037037037,2.1961999998092665],[0.27218749999999997,-0.0031481481481482323,2.2101999998092694],[0.2627083333333334,-0.01185185185185181,2.2268999996185315],[0.2522916666666667,-0.03259259259259263,2.2435999999046317],[0.25593750000000004,-0.07018518518518514,2.260299999713901],[0.2638541666666666,-0.10185185185185185,2.2775999999046377],[0.2638541666666666,-0.10185185185185185,2.29369999980927],[0.27312500000000006,-0.08333333333333333,2.310299999713898],[0.28760416666666655,-0.08518518518518518,2.327299999713901],[0.315625,-0.11203703703703703,2.345399999618529],[0.3492708333333333,-0.15611111111111114,2.3629999999999995],[0.3492708333333333,-0.15611111111111114,2.37689999961853],[0.3580208333333334,-0.15759259259259265,2.3935999999046373],[0.3889583333333334,-0.16425925925925924,2.410499999999999],[0.43510416666666674,-0.17740740740740743,2.4268999996185343],[0.5001041666666666,-0.2125925925925926,2.4465999999046346],[0.4990624999999999,-0.20851851851851855,2.461099999904633],[0.5060416666666666,-0.2007407407407407,2.479599999904636],[0.4881249999999999,-0.2111111111111111,2.49889999961853],[0.46281249999999996,-0.20203703703703707,2.5138999996185305],[0.42906250000000007,-0.1933333333333333,2.5300999999046354],[0.39854166666666657,-0.18499999999999997,2.5452999997138974],[0.38479166666666675,-0.19907407407407407,2.5601999998092637],[0.3419791666666666,-0.2103703703703704,2.5773999996185353],[0.29541666666666655,-0.2235185185185185,2.5985999999046356],[0.2423958333333334,-0.20092592592592592,2.6127999997139],[0.23135416666666658,-0.20092592592592592,2.627199999809264],[0.21229166666666663,-0.20462962962962963,2.6435999999046373],[0.2021874999999999,-0.2096296296296296,2.662299999713902],[0.19427083333333334,-0.21370370370370367,2.6768999996185343],[0.19739583333333333,-0.20314814814814813,2.6975999999046323],[0.18937499999999996,-0.1714814814814815,2.712299999713899],[0.18447916666666658,-0.14574074074074073,2.7268999996185315],[0.18447916666666658,-0.14574074074074073,2.7435000000000045],[0.18645833333333334,-0.1175925925925926,2.7601999998092666],[0.18583333333333343,-0.08481481481481483,2.7768999996185286],[0.18583333333333343,-0.08481481481481483,2.79369999980927],[0.18083333333333323,-0.06648148148148143,2.810299999713898],[0.1866666666666667,-0.028703703703703703,2.8288999996185353],[0.19249999999999995,0.026111111111111154,2.848399999618529],[0.18958333333333333,0.08055555555555556,2.8652999997138977],[0.18958333333333333,0.08055555555555556,2.87689999961853],[0.21645833333333328,0.08203703703703695,2.8935999999046373],[0.21645833333333328,0.08203703703703695,2.910199999809265],[0.21604166666666677,0.08777777777777773,2.9269999999999996],[0.21604166666666677,0.08777777777777773,2.9435999999046345],[0.2203125,0.09518518518518514,2.9601999998092694],[0.23885416666666662,0.11296296296296296,2.9812999997138974],[0.2598958333333333,0.12777777777777777,3.000699999809264],[0.2598958333333333,0.12777777777777777,3.0101999998092666],[0.2872916666666666,0.1398148148148148,3.027000000000001],[0.2872916666666666,0.1398148148148148,3.043599999904636],[0.3103125000000001,0.15129629629629637,3.0603999996185323],[0.3103125000000001,0.15129629629629637,3.0770000000000053],[0.3446875000000001,0.14666666666666675,3.0937999997139016],[0.37864583333333335,0.11296296296296296,3.115000000000002],[0.3870833333333332,0.11296296296296296,3.130500000000005],[0.3696875000000001,0.16148148148148156,3.1462999997138965],[0.3696875000000001,0.16148148148148156,3.160199999809265],[0.3866666666666667,0.17888888888888893,3.1768999996185343],[0.38270833333333343,0.19870370370370363,3.197199999809264],[0.38291666666666657,0.18574074074074065,3.213799999713899],[0.3806250000000001,0.1757407407407407,3.2295000000000016],[0.3796875,0.17037037037037037,3.2453999996185345],[0.375,0.16370370370370366,3.2611999998092642],[0.36208333333333326,0.1638888888888889,3.277399999618531],[0.3232291666666666,0.17777777777777778,3.2977999997139023],[0.33083333333333326,0.17537037037037045,3.3211999998092665],[0.33083333333333326,0.17537037037037045,3.3278999996185306],[0.3241666666666667,0.17462962962962955,3.343599999904633],[0.28104166666666663,0.1955555555555556,3.3643999996185343],[0.27291666666666664,0.19018518518518526,3.3807999997139007],[0.2716666666666666,0.19981481481481478,3.3980000000000032],[0.24562499999999995,0.21203703703703702,3.41269999980927],[0.2493750000000001,0.20666666666666672,3.4290999999046363],[0.25114583333333323,0.20018518518518522,3.443799999713903],[0.26677083333333323,0.16166666666666657,3.4628999996185357],[0.3087500000000001,0.12148148148148152,3.4787999997138996],[0.3087500000000001,0.12148148148148152,3.493699999809266],[0.3304166666666667,0.07740740740740733,3.5101999998092666],[0.3506249999999999,0.060370370370370414,3.5296999998092673],[0.38916666666666655,0.0338888888888888,3.5441999998092655],[0.4327083333333334,-0.004444444444444402,3.5622999997139004],[0.4390625,-0.016851851851851896,3.576899999618533],[0.49406249999999996,-0.04000000000000004,3.5970999999046356],[0.5298958333333333,-0.045740740740740825,3.6129999999999995],[0.5804166666666667,-0.04685185185185177,3.6317999997138983],[0.5804166666666667,-0.04685185185185177,3.6435999999046373],[0.5847916666666667,-0.012222222222222264,3.6602999997138994],[0.6039583333333333,0.016111111111111194,3.6798999996185344],[0.645,0.012222222222222264,3.6973999996185327],[0.6783333333333333,-0.01592592592592597,3.713000000000001],[0.7273958333333332,-0.041111111111111195,3.728500000000004],[0.7257291666666668,-0.03925925925925934,3.7435000000000045],[0.7589583333333333,-0.06833333333333329,3.7630000000000052],[0.7657291666666666,-0.06407407407407412,3.7782999997139015],[0.7605208333333332,-0.06425925925925924,3.797399999618534],[0.7553124999999999,-0.06444444444444447,3.8120000000000047],[0.7878124999999999,-0.09722222222222222,3.826899999618533],[0.8061458333333335,-0.12148148148148152,3.843599999904633],[0.7799999999999999,-0.13259259259259262,3.861699999809268],[0.7733333333333334,-0.14370370370370375,3.87689999961853],[0.7733333333333334,-0.14370370370370375,3.8936999998092645],[0.7179166666666668,-0.18796296296296297,3.910199999809265],[0.6799999999999999,-0.21796296296296294,3.927199999809268],[0.6195833333333333,-0.2403703703703704,3.9435999999046345],[0.5636458333333333,-0.2698148148148148,3.9601999998092694],[0.4884375000000001,-0.28055555555555556,3.977099999904631],[0.4195833333333333,-0.2946296296296297,3.9961999998092637],[0.3416666666666667,-0.277962962962963,4.013299999713901],[0.2898958333333333,-0.2911111111111111,4.02719999980927],[0.23739583333333342,-0.27629629629629626,4.043899999618532],[0.18489583333333334,-0.2614814814814815,4.063299999713898],[0.18489583333333334,-0.2614814814814815,4.076899999618533],[0.2224999999999999,-0.23648148148148146,4.093699999809267],[0.240625,-0.22370370370370374,4.113899999618532],[0.2538541666666667,-0.19722222222222222,4.129699999809269],[0.27447916666666666,-0.19000000000000003,4.145199999809265],[0.3111458333333334,-0.1911111111111111,4.160199999809265],[0.38385416666666666,-0.2322222222222222,4.176899999618534],[0.45625,-0.2851851851851852,4.195500000000003],[0.501875,-0.31055555555555553,4.210299999713897],[0.5688541666666665,-0.3448148148148148,4.231399999618532],[0.5761458333333332,-0.35037037037037033,4.247799999713898],[0.5761458333333332,-0.35037037037037033,4.2605],[0.5631249999999999,-0.34870370370370374,4.277099999904635],[0.5908333333333334,-0.3359259259259259,4.298399999618532],[0.5746875,-0.32833333333333337,4.314299999713903],[0.5729166666666666,-0.3257407407407407,4.330699999809269],[0.5743750000000001,-0.33351851851851855,4.349599999904633],[0.5743750000000001,-0.33351851851851855,4.360399999618529],[0.5075000000000001,-0.27870370370370373,4.377099999904637],[0.4244791666666667,-0.23555555555555555,4.3965999999046375],[0.3224999999999999,-0.1794444444444444,4.4143999996185315],[0.26239583333333344,-0.14537037037037037,4.429899999618534],[0.2912499999999999,-0.15870370370370368,4.446299999713901],[0.2833333333333333,-0.15925925925925927,4.466399999618531],[0.2833333333333333,-0.15925925925925927,4.477099999904631],[0.2193749999999999,-0.11370370370370367,4.4938999996185345],[0.19812500000000005,-0.07592592592592592,4.510799999713896],[0.1851041666666667,-0.04888888888888885,4.531399999618529],[0.12729166666666672,-0.02166666666666675,4.548599999904631],[0.12729166666666672,-0.02166666666666675,4.560399999618532],[0.12406249999999991,-0.02629629629629638,4.577199999809267],[0.13229166666666667,-0.013333333333333417,4.60019999980927],[0.13229166666666667,-0.013333333333333417,4.610399999618529],[0.16927083333333334,-0.016851851851851896,4.627299999713898],[0.15583333333333324,-0.0031481481481482323,4.645399999618533],[0.14947916666666666,-0.0007407407407406986,4.6647999997139],[0.12000000000000005,0.028518518518518478,4.682099999904636],[0.12000000000000005,0.028518518518518478,4.702699999809269],[0.1234375,0.004629629629629629,4.719399999618531],[0.1234375,0.004629629629629629,4.727099999904631],[0.11854166666666661,-0.013703703703703662,4.743699999809266],[0.09260416666666677,-0.034074074074074034,4.760599999904635],[0.11145833333333334,-0.05462962962962963,4.779699999809267],[0.10166666666666657,-0.031111111111111027,4.795299999713897],[0.09656250000000005,-0.013518518518518435,4.810399999618532],[0.08114583333333343,0.004259259259259175,4.830699999809269],[0.09552083333333337,0.01592592592592597,4.844599999904638],[0.09552083333333337,0.01592592592592597,4.860599999904636],[0.07354166666666657,0.05759259259259263,4.883599999904632],[0.07354166666666657,0.05759259259259263,4.893899999618533],[0.06187499999999998,0.10907407407407403,4.910299999713899],[0.06187499999999998,0.10907407407407403,4.930899999618532],[0.071875,0.05055555555555547,4.943699999809269],[0.071875,0.05055555555555547,4.960399999618531],[0.12281250000000009,0.03685185185185181,4.977099999904631],[0.12281250000000009,0.03685185185185181,4.9986999998092685],[0.13781249999999995,0.05722222222222218,5.010399999618535],[0.13781249999999995,0.05722222222222218,5.027000000000001],[0.13083333333333325,0.10740740740740741,5.04369999980927],[0.13739583333333344,0.08074074074074078,5.064599999904637],[0.13739583333333344,0.08074074074074078,5.077199999809267],[0.1546875,0.09092592592592597,5.093899999618529],[0.16510416666666666,0.12814814814814823,5.114699999809268],[0.17374999999999996,0.1425925925925926,5.129299999713901],[0.18239583333333323,0.15703703703703695,5.1436999998092645],[0.22291666666666668,0.15759259259259265,5.160899999618529],[0.23947916666666677,0.30037037037037045,5.179899999618534],[0.20864583333333328,0.3333333333333333,5.1965],[0.21416666666666656,0.36425925925925934,5.2105999999046375],[0.24166666666666667,0.3653703703703703,5.228999999999999],[0.2543750000000001,0.40314814814814826,5.243699999809266],[0.2631249999999999,0.40481481481481485,5.2605],[0.2484375,0.37759259259259254,5.279499999999999],[0.2335416666666667,0.38981481481481484,5.295299999713897],[0.22604166666666667,0.39203703703703713,5.313299999713898],[0.19947916666666668,0.3714814814814815,5.329599999904637],[0.20812499999999995,0.3151851851851853,5.343699999809267],[0.22135416666666666,0.318888888888889,5.360399999618529],[0.21864583333333343,0.33351851851851855,5.377199999809264],[0.2234375,0.3194444444444444,5.396500000000003],[0.225,0.31592592592592594,5.412099999904633],[0.22333333333333344,0.31962962962962965,5.4280999999046315],[0.2525000000000001,0.3285185185185185,5.445799999713898],[0.2601041666666667,0.3242592592592593,5.460399999618531],[0.2867708333333333,0.331111111111111,5.477099999904631],[0.2808333333333332,0.3338888888888888,5.4967999997139],[0.2678124999999999,0.31851851851851853,5.510599999904635],[0.2556250000000001,0.2890740740740741,5.52719999980927],[0.24812500000000004,0.23555555555555563,5.546299999713902],[0.22156250000000005,0.22629629629629638,5.560399999618532],[0.19947916666666668,0.21518518518518526,5.5770999999046325],[0.19520833333333343,0.20092592592592592,5.593599999904633],[0.19093749999999995,0.1866666666666666,5.61219999980927],[0.2247916666666666,0.10407407407407415,5.6270000000000024],[0.2247916666666666,0.10407407407407415,5.643799999713899],[0.2133333333333333,0.03777777777777774,5.660299999713899],[0.2234375,-0.026666666666666623,5.676899999618534],[0.2234375,-0.026666666666666623,5.6935],[0.21906249999999997,-0.06851851851851852,5.710199999809269],[0.25447916666666665,-0.07851851851851847,5.727000000000004],[0.2604166666666667,-0.10740740740740741,5.7435000000000045],[0.27791666666666665,-0.15185185185185185,5.764000000000003],[0.2913541666666667,-0.19388888888888886,5.780099999904635],[0.2834374999999999,-0.24074074074074073,5.796299999713902],[0.2834374999999999,-0.24074074074074073,5.813000000000002],[0.303125,-0.30574074074074076,5.8270999999046325],[0.28624999999999995,-0.32388888888888884,5.843699999809267],[0.28270833333333345,-0.3225925925925926,5.863500000000002],[0.3007291666666667,-0.337037037037037,5.877399999618532],[0.3007291666666667,-0.337037037037037,5.893899999618533],[0.3159374999999999,-0.3566666666666667,5.910199999809265],[0.3099999999999999,-0.3761111111111112,5.930899999618532],[0.3330208333333334,-0.3901851851851852,5.944599999904632],[0.3349999999999999,-0.3809259259259259,5.960199999809269],[0.3349999999999999,-0.3809259259259259,5.9768999996185315],[0.34104166666666674,-0.37407407407407406,5.993599999904632],[0.35489583333333335,-0.3742592592592593,6.010199999809267],[0.33583333333333343,-0.3648148148148148,6.026899999618529],[0.3195833333333333,-0.3357407407407408,6.043599999904636],[0.3082291666666668,-0.34092592592592597,6.060299999713898],[0.3082291666666668,-0.34092592592592597,6.076899999618533],[0.28093750000000006,-0.3061111111111111,6.093599999904633],[0.28093750000000006,-0.3061111111111111,6.110399999618529],[0.2648958333333333,-0.26944444444444443,6.1270000000000024],[0.2205208333333334,-0.24888888888888885,6.143500000000003],[0.17666666666666658,-0.21481481481481482,6.160199999809265],[0.1634375000000001,-0.20129629629629628,6.176899999618534],[0.1634375000000001,-0.20129629629629628,6.193699999809269],[0.1502083333333334,-0.18777777777777774,6.210199999809269],[0.14312500000000009,-0.15092592592592594,6.2290999999046335],[0.14135416666666673,-0.10555555555555556,6.243599999904632],[0.13229166666666667,-0.04888888888888885,6.260199999809267],[0.12385416666666677,0.005185185185185101,6.276899999618529],[0.13125,0.01314814814814819,6.299199999809268],[0.14989583333333342,-0.01777777777777782,6.314099999904634],[0.2265625,-0.04407407407407399,6.329599999904637],[0.26020833333333326,-0.034074074074074034,6.343699999809267],[0.2640625,-0.051111111111111156,6.3640999999046315],[0.3178124999999999,-0.08499999999999996,6.380500000000005],[0.35145833333333343,-0.13351851851851856,6.397500000000001],[0.43385416666666665,-0.22962962962962963,6.4158999996185315],[0.4591666666666666,-0.2861111111111111,6.4306999998092635],[0.5077083333333334,-0.3803703703703703,6.445799999713898],[0.4310416666666666,-0.32814814814814813,6.460500000000003],[0.3394791666666668,-0.2681481481481482,6.480099999904631],[0.29239583333333335,-0.2631481481481482,6.497199999809268],[0.2796875,-0.2972222222222222,6.513299999713901],[0.26197916666666665,-0.305,6.530699999809265],[0.2582291666666668,-0.32833333333333337,6.5482999997138975],[0.23947916666666677,-0.3405555555555555,6.564],[0.23052083333333329,-0.3248148148148148,6.582699999809265],[0.23052083333333329,-0.3248148148148148,6.593799999713902],[0.23291666666666658,-0.34388888888888886,6.610399999618529],[0.18041666666666673,-0.3051851851851852,6.629000000000005],[0.23302083333333337,-0.3811111111111111,6.647799999713897],[0.31062500000000004,-0.45037037037037037,6.664699999809265],[0.3108333333333334,-0.47240740740740744,6.6806999998092635],[0.32666666666666655,-0.4890740740740741,6.698699999809264],[0.34489583333333323,-0.5037037037037037,6.713799999713899],[0.30135416666666665,-0.48351851851851857,6.730199999809265],[0.2789583333333333,-0.47611111111111115,6.74589999961853],[0.2037499999999999,-0.4281481481481481,6.765500000000003],[0.2037499999999999,-0.4281481481481481,6.777099999904635],[0.15625,-0.3931481481481482,6.793799999713897],[0.1404166666666666,-0.3781481481481481,6.810399999618532],[0.13760416666666658,-0.3538888888888889,6.831099999904637],[0.14885416666666676,-0.3516666666666666,6.848099999904633],[0.14885416666666676,-0.3516666666666666,6.860500000000002],[0.15812499999999996,-0.3490740740740741,6.8770000000000024],[0.15812499999999996,-0.3490740740740741,6.899599999904638],[0.0821875000000001,-0.3301851851851852,6.910399999618534],[0.0821875000000001,-0.3301851851851852,6.927299999713902],[0.06187499999999998,-0.3338888888888889,6.943699999809269],[0.06187499999999998,-0.3338888888888889,6.965899999618529],[0.08614583333333338,-0.3405555555555555,6.977099999904631],[0.08614583333333338,-0.3405555555555555,6.9937999997139]]","[0.000299999713902821,0.048899999618534196,0.06039999961853226,0.07700000000000529,0.09369999980926735,0.11469999980926815,0.12700000000000244,0.14359999990463734,0.16019999980926514,0.1769999999999996,0.19369999980926877,0.21029999971389657,0.22829999971389725,0.24369999980926593,0.2605000000000004,0.2768999996185286,0.3011999998092705,0.310299999713898,0.3270000000000053,0.3435999999046331,0.36069999980927037,0.3770999999046367,0.3936999998092645,0.4103999996185337,0.4307999997138978,0.4482999997138961,0.46050000000000324,0.47700000000000387,0.4963999996185322,0.5130000000000052,0.5294999999999987,0.545099999904636,0.560299999713898,0.5768999996185329,0.597999999999999,0.6136999998092705,0.6292999997139006,0.6435999999046373,0.6606999998092675,0.6769999999999996,0.6950999999046346,0.7102999997138966,0.7268999996185315,0.7435999999046317,0.7602999997139008,0.7768999996185286,0.7961999998092679,0.8111999998092685,0.8270000000000053,0.8435999999046331,0.8602999997139023,0.87689999961853,0.8938999996185331,0.9103999996185337,0.9269999999999996,0.9435999999046345,0.9602999997138966,0.9768999996185315,0.9991999998092638,1.0102999997139008,1.027000000000001,1.043599999904636,1.0605000000000047,1.0770000000000053,1.0982999997139018,1.1157999997139,1.1270000000000024,1.1435999999046373,1.1601999998092651,1.1769999999999996,1.1951999998092688,1.2101999998092694,1.2296999998092701,1.2435999999046317,1.2605999999046347,1.2796999998092673,1.2955999999046313,1.3101999998092637,1.330599999904635,1.3443999996185312,1.3602999997139023,1.3770999999046367,1.3965999999046375,1.4101999998092651,1.4268999996185343,1.4435999999046345,1.4602999997138966,1.4768999996185315,1.4952999997139003,1.5101999998092666,1.527000000000001,1.543599999904636,1.560299999713898,1.5768999996185329,1.5952999997139017,1.613199999809268,1.6298999996185302,1.6462999997138965,1.6610000000000014,1.6768999996185343,1.6936999998092688,1.7102999997138966,1.727099999904631,1.7473999996185299,1.762199999809269,1.7768999996185286,1.8003999996185343,1.810299999713898,1.8270000000000053,1.843599999904633,1.8602999997139023,1.87689999961853,1.8965000000000032,1.9101999998092651,1.9269999999999996,1.9436999998092688,1.9601999998092694,1.979299999713902,1.9976999998092637,2.0120000000000005,2.0308999996185335,2.0453999996185317,2.06139999961853,2.0808999996185307,2.093899999618529,2.1150999999046363,2.1270000000000024,2.1461999998092693,2.1610000000000014,2.1768999996185343,2.1961999998092665,2.2101999998092694,2.2268999996185315,2.2435999999046317,2.260299999713901,2.2775999999046377,2.29369999980927,2.310299999713898,2.327299999713901,2.345399999618529,2.3629999999999995,2.37689999961853,2.3935999999046373,2.410499999999999,2.4268999996185343,2.4465999999046346,2.461099999904633,2.479599999904636,2.49889999961853,2.5138999996185305,2.5300999999046354,2.5452999997138974,2.5601999998092637,2.5773999996185353,2.5985999999046356,2.6127999997139,2.627199999809264,2.6435999999046373,2.662299999713902,2.6768999996185343,2.6975999999046323,2.712299999713899,2.7268999996185315,2.7435000000000045,2.7601999998092666,2.7768999996185286,2.79369999980927,2.810299999713898,2.8288999996185353,2.848399999618529,2.8652999997138977,2.87689999961853,2.8935999999046373,2.910199999809265,2.9269999999999996,2.9435999999046345,2.9601999998092694,2.9812999997138974,3.000699999809264,3.0101999998092666,3.027000000000001,3.043599999904636,3.0603999996185323,3.0770000000000053,3.0937999997139016,3.115000000000002,3.130500000000005,3.1462999997138965,3.160199999809265,3.1768999996185343,3.197199999809264,3.213799999713899,3.2295000000000016,3.2453999996185345,3.2611999998092642,3.277399999618531,3.2977999997139023,3.3211999998092665,3.3278999996185306,3.343599999904633,3.3643999996185343,3.3807999997139007,3.3980000000000032,3.41269999980927,3.4290999999046363,3.443799999713903,3.4628999996185357,3.4787999997138996,3.493699999809266,3.5101999998092666,3.5296999998092673,3.5441999998092655,3.5622999997139004,3.576899999618533,3.5970999999046356,3.6129999999999995,3.6317999997138983,3.6435999999046373,3.6602999997138994,3.6798999996185344,3.6973999996185327,3.713000000000001,3.728500000000004,3.7435000000000045,3.7630000000000052,3.7782999997139015,3.797399999618534,3.8120000000000047,3.826899999618533,3.843599999904633,3.861699999809268,3.87689999961853,3.8936999998092645,3.910199999809265,3.927199999809268,3.9435999999046345,3.9601999998092694,3.977099999904631,3.9961999998092637,4.013299999713901,4.02719999980927,4.043899999618532,4.063299999713898,4.076899999618533,4.093699999809267,4.113899999618532,4.129699999809269,4.145199999809265,4.160199999809265,4.176899999618534,4.195500000000003,4.210299999713897,4.231399999618532,4.247799999713898,4.2605,4.277099999904635,4.298399999618532,4.314299999713903,4.330699999809269,4.349599999904633,4.360399999618529,4.377099999904637,4.3965999999046375,4.4143999996185315,4.429899999618534,4.446299999713901,4.466399999618531,4.477099999904631,4.4938999996185345,4.510799999713896,4.531399999618529,4.548599999904631,4.560399999618532,4.577199999809267,4.60019999980927,4.610399999618529,4.627299999713898,4.645399999618533,4.6647999997139,4.682099999904636,4.702699999809269,4.719399999618531,4.727099999904631,4.743699999809266,4.760599999904635,4.779699999809267,4.795299999713897,4.810399999618532,4.830699999809269,4.844599999904638,4.860599999904636,4.883599999904632,4.893899999618533,4.910299999713899,4.930899999618532,4.943699999809269,4.960399999618531,4.977099999904631,4.9986999998092685,5.010399999618535,5.027000000000001,5.04369999980927,5.064599999904637,5.077199999809267,5.093899999618529,5.114699999809268,5.129299999713901,5.1436999998092645,5.160899999618529,5.179899999618534,5.1965,5.2105999999046375,5.228999999999999,5.243699999809266,5.2605,5.279499999999999,5.295299999713897,5.313299999713898,5.329599999904637,5.343699999809267,5.360399999618529,5.377199999809264,5.396500000000003,5.412099999904633,5.4280999999046315,5.445799999713898,5.460399999618531,5.477099999904631,5.4967999997139,5.510599999904635,5.52719999980927,5.546299999713902,5.560399999618532,5.5770999999046325,5.593599999904633,5.61219999980927,5.6270000000000024,5.643799999713899,5.660299999713899,5.676899999618534,5.6935,5.710199999809269,5.727000000000004,5.7435000000000045,5.764000000000003,5.780099999904635,5.796299999713902,5.813000000000002,5.8270999999046325,5.843699999809267,5.863500000000002,5.877399999618532,5.893899999618533,5.910199999809265,5.930899999618532,5.944599999904632,5.960199999809269,5.9768999996185315,5.993599999904632,6.010199999809267,6.026899999618529,6.043599999904636,6.060299999713898,6.076899999618533,6.093599999904633,6.110399999618529,6.1270000000000024,6.143500000000003,6.160199999809265,6.176899999618534,6.193699999809269,6.210199999809269,6.2290999999046335,6.243599999904632,6.260199999809267,6.276899999618529,6.299199999809268,6.314099999904634,6.329599999904637,6.343699999809267,6.3640999999046315,6.380500000000005,6.397500000000001,6.4158999996185315,6.4306999998092635,6.445799999713898,6.460500000000003,6.480099999904631,6.497199999809268,6.513299999713901,6.530699999809265,6.5482999997138975,6.564,6.582699999809265,6.593799999713902,6.610399999618529,6.629000000000005,6.647799999713897,6.664699999809265,6.6806999998092635,6.698699999809264,6.713799999713899,6.730199999809265,6.74589999961853,6.765500000000003,6.777099999904635,6.793799999713897,6.810399999618532,6.831099999904637,6.848099999904633,6.860500000000002,6.8770000000000024,6.899599999904638,6.910399999618534,6.927299999713902,6.943699999809269,6.965899999618529,6.977099999904631,6.9937999997139]","[1731991448389,1731991448428,1731991448440,1731991448456,1731991448473,1731991448494,1731991448506,1731991448523,1731991448540,1731991448556,1731991448573,1731991448590,1731991448608,1731991448623,1731991448640,1731991448656,1731991448681,1731991448690,1731991448706,1731991448723,1731991448740,1731991448756,1731991448773,1731991448790,1731991448810,1731991448828,1731991448840,1731991448856,1731991448876,1731991448892,1731991448909,1731991448924,1731991448940,1731991448956,1731991448977,1731991448993,1731991449009,1731991449023,1731991449040,1731991449056,1731991449074,1731991449090,1731991449106,1731991449123,1731991449140,1731991449156,1731991449176,1731991449191,1731991449206,1731991449223,1731991449240,1731991449256,1731991449273,1731991449290,1731991449306,1731991449323,1731991449340,1731991449356,1731991449379,1731991449390,1731991449406,1731991449423,1731991449440,1731991449456,1731991449478,1731991449495,1731991449506,1731991449523,1731991449540,1731991449556,1731991449575,1731991449590,1731991449609,1731991449623,1731991449640,1731991449659,1731991449675,1731991449690,1731991449710,1731991449724,1731991449740,1731991449756,1731991449776,1731991449790,1731991449806,1731991449823,1731991449840,1731991449856,1731991449875,1731991449890,1731991449906,1731991449923,1731991449940,1731991449956,1731991449975,1731991449993,1731991450009,1731991450026,1731991450040,1731991450056,1731991450073,1731991450090,1731991450106,1731991450127,1731991450142,1731991450156,1731991450180,1731991450190,1731991450206,1731991450223,1731991450240,1731991450256,1731991450276,1731991450290,1731991450306,1731991450323,1731991450340,1731991450359,1731991450377,1731991450391,1731991450410,1731991450425,1731991450441,1731991450460,1731991450473,1731991450494,1731991450506,1731991450526,1731991450540,1731991450556,1731991450576,1731991450590,1731991450606,1731991450623,1731991450640,1731991450657,1731991450673,1731991450690,1731991450707,1731991450725,1731991450742,1731991450756,1731991450773,1731991450790,1731991450806,1731991450826,1731991450842,1731991450861,1731991450880,1731991450895,1731991450911,1731991450926,1731991450941,1731991450958,1731991450980,1731991450994,1731991451008,1731991451025,1731991451043,1731991451058,1731991451079,1731991451093,1731991451108,1731991451125,1731991451141,1731991451158,1731991451175,1731991451191,1731991451210,1731991451229,1731991451246,1731991451258,1731991451275,1731991451291,1731991451308,1731991451325,1731991451341,1731991451362,1731991451382,1731991451391,1731991451408,1731991451425,1731991451441,1731991451458,1731991451475,1731991451496,1731991451512,1731991451527,1731991451541,1731991451558,1731991451578,1731991451595,1731991451610,1731991451626,1731991451642,1731991451658,1731991451679,1731991451702,1731991451709,1731991451725,1731991451745,1731991451762,1731991451779,1731991451794,1731991451810,1731991451825,1731991451844,1731991451860,1731991451875,1731991451891,1731991451911,1731991451925,1731991451943,1731991451958,1731991451978,1731991451994,1731991452013,1731991452025,1731991452041,1731991452061,1731991452078,1731991452094,1731991452109,1731991452125,1731991452144,1731991452159,1731991452178,1731991452193,1731991452208,1731991452225,1731991452243,1731991452258,1731991452275,1731991452291,1731991452308,1731991452325,1731991452341,1731991452358,1731991452377,1731991452394,1731991452408,1731991452425,1731991452444,1731991452458,1731991452475,1731991452495,1731991452511,1731991452526,1731991452541,1731991452558,1731991452576,1731991452591,1731991452612,1731991452629,1731991452641,1731991452658,1731991452679,1731991452695,1731991452712,1731991452731,1731991452741,1731991452758,1731991452778,1731991452795,1731991452811,1731991452827,1731991452847,1731991452858,1731991452875,1731991452892,1731991452912,1731991452930,1731991452941,1731991452958,1731991452981,1731991452991,1731991453008,1731991453026,1731991453046,1731991453063,1731991453084,1731991453100,1731991453108,1731991453125,1731991453142,1731991453161,1731991453176,1731991453191,1731991453212,1731991453226,1731991453242,1731991453265,1731991453275,1731991453291,1731991453312,1731991453325,1731991453341,1731991453358,1731991453380,1731991453391,1731991453408,1731991453425,1731991453446,1731991453458,1731991453475,1731991453496,1731991453510,1731991453525,1731991453542,1731991453561,1731991453578,1731991453592,1731991453610,1731991453625,1731991453641,1731991453661,1731991453676,1731991453694,1731991453711,1731991453725,1731991453741,1731991453758,1731991453777,1731991453793,1731991453809,1731991453827,1731991453841,1731991453858,1731991453878,1731991453892,1731991453908,1731991453927,1731991453941,1731991453958,1731991453975,1731991453993,1731991454008,1731991454025,1731991454041,1731991454058,1731991454075,1731991454091,1731991454108,1731991454125,1731991454145,1731991454161,1731991454177,1731991454194,1731991454208,1731991454225,1731991454245,1731991454258,1731991454275,1731991454291,1731991454312,1731991454326,1731991454341,1731991454358,1731991454375,1731991454391,1731991454408,1731991454425,1731991454441,1731991454458,1731991454475,1731991454491,1731991454508,1731991454525,1731991454541,1731991454558,1731991454575,1731991454591,1731991454610,1731991454625,1731991454641,1731991454658,1731991454680,1731991454695,1731991454711,1731991454725,1731991454745,1731991454761,1731991454778,1731991454797,1731991454812,1731991454827,1731991454842,1731991454861,1731991454878,1731991454894,1731991454912,1731991454929,1731991454945,1731991454964,1731991454975,1731991454991,1731991455010,1731991455029,1731991455046,1731991455062,1731991455080,1731991455095,1731991455111,1731991455127,1731991455146,1731991455158,1731991455175,1731991455191,1731991455212,1731991455229,1731991455242,1731991455258,1731991455281,1731991455291,1731991455308,1731991455325,1731991455347,1731991455358,1731991455375]","[[1293.3,334.9],[1293.3,334.9],[1366.3,356.1],[1366.3,356.1],[1419.2,372.9],[1472.3,392],[1472.3,392],[1516.2,409.1],[1554.9,439.2],[1569.7,447.3],[1569.7,447.3],[1614.9,460.2],[1626.1,464.7],[1629.1,475],[1629.1,476.3],[1619.8,471.5],[1629.6,462.7],[1629.6,462.7],[1587.9,445.7],[1554.9,434.6],[1528,413.4],[1475.9,401.3],[1475.9,401.3],[1416.9,393.4],[1368,381.2],[1320.6,370],[1320.6,370],[1282.3,361.9],[1250.9,349.3],[1183.4,350],[1174.5,348.8],[1166.8,345.9],[1158.2,340.1],[1163,334.2],[1174.7,324.1],[1178.5,314.1],[1170.2,313.5],[1161.9,312.9],[1170.1,331.5],[1206.2,340.1],[1242.6,352.3],[1277.8,366.2],[1315.3,378.2],[1338.6,390.3],[1328.1,393],[1349.7,400.5],[1392.5,397.3],[1392.5,397.3],[1439.3,392.1],[1451.9,376.1],[1451.9,376.1],[1460.7,353.3],[1460.7,353.3],[1443.5,345.3],[1443.5,345.3],[1452.1,342.5],[1452.1,342.5],[1451.1,342.7],[1475.2,327.7],[1475.2,327.7],[1512.4,331.8],[1512.4,331.8],[1544.4,323.2],[1544.4,323.2],[1564.6,322.5],[1564.6,322.5],[1588,327.8],[1615.5,332],[1634.4,348.3],[1669.5,356.8],[1680.6,363.2],[1680.6,363.2],[1699,368.5],[1627.6,400.8],[1560.9,419.2],[1483,451],[1422.1,478.3],[1422.1,478.3],[1338.8,504.8],[1272.6,518.6],[1218.2,534],[1158.7,552.6],[1097.4,568.1],[1036.1,583.6],[1040.9,595.3],[1077.1,614.9],[1117.8,612.4],[1133.6,609.6],[1166.4,606.1],[1188.8,612.5],[1210.3,624.2],[1239.1,629.9],[1260.7,632.4],[1282.3,634.9],[1257.4,633.9],[1239.2,628.3],[1200.8,639.3],[1167.3,646.1],[1124.9,645.2],[1091.6,648.1],[1091.6,648.1],[1071.9,648.7],[1038.2,650],[1003.3,654.4],[992,648.6],[1032.9,641.8],[1051.7,635.9],[1051.7,635.9],[1070.5,630],[1081.6,617.8],[1095,605.1],[1099.3,588.6],[1096.1,572.2],[1106.9,555.1],[1130.4,539.9],[1130.3,534.9],[1130.3,534.9],[1124.4,517.8],[1118.7,526.2],[1121.4,522.9],[1136,527.3],[1144.2,543.4],[1152.4,559.5],[1152.4,559.5],[1151.3,569.3],[1169.4,561.4],[1169.4,561.4],[1183.2,551.7],[1192.1,555.7],[1201.9,566.4],[1215.8,546.5],[1221.3,538.3],[1212.2,533.6],[1202.2,522.4],[1205.7,502.1],[1213.3,485],[1213.3,485],[1222.2,495],[1236.1,494],[1263,479.5],[1295.3,455.7],[1295.3,455.7],[1303.7,454.9],[1333.4,451.3],[1377.7,444.2],[1440.1,425.2],[1439.1,427.4],[1445.8,431.6],[1428.6,426],[1404.3,430.9],[1371.9,435.6],[1342.6,440.1],[1329.4,432.5],[1288.3,426.4],[1243.6,419.3],[1192.7,431.5],[1182.1,431.5],[1163.8,429.5],[1154.1,426.8],[1146.5,424.6],[1149.5,430.3],[1141.8,447.4],[1137.1,461.3],[1137.1,461.3],[1139,476.5],[1138.4,494.2],[1138.4,494.2],[1133.6,504.1],[1139.2,524.5],[1144.8,554.1],[1142,583.5],[1142,583.5],[1167.8,584.3],[1167.8,584.3],[1167.4,587.4],[1167.4,587.4],[1171.5,591.4],[1189.3,601],[1209.5,609],[1209.5,609],[1235.8,615.5],[1235.8,615.5],[1257.9,621.7],[1257.9,621.7],[1290.9,619.2],[1323.5,601],[1331.6,601],[1314.9,627.2],[1314.9,627.2],[1331.2,636.6],[1327.4,647.3],[1327.6,640.3],[1325.4,634.9],[1324.5,632],[1320,628.4],[1307.6,628.5],[1270.3,636],[1277.6,634.7],[1277.6,634.7],[1271.2,634.3],[1229.8,645.6],[1222,642.7],[1220.8,647.9],[1195.8,654.5],[1199.4,651.6],[1201.1,648.1],[1216.1,627.3],[1256.4,605.6],[1256.4,605.6],[1277.2,581.8],[1296.6,572.6],[1333.6,558.3],[1375.4,537.6],[1381.5,530.9],[1434.3,518.4],[1468.7,515.3],[1517.2,514.7],[1517.2,514.7],[1521.4,533.4],[1539.8,548.7],[1579.2,546.6],[1611.2,531.4],[1658.3,517.8],[1656.7,518.8],[1688.6,503.1],[1695.1,505.4],[1690.1,505.3],[1685.1,505.2],[1716.3,487.5],[1733.9,474.4],[1708.8,468.4],[1702.4,462.4],[1702.4,462.4],[1649.2,438.5],[1612.8,422.3],[1554.8,410.2],[1501.1,394.3],[1428.9,388.5],[1362.8,380.9],[1288,389.9],[1238.3,382.8],[1187.9,390.8],[1137.5,398.8],[1137.5,398.8],[1173.6,412.3],[1191,419.2],[1203.7,433.5],[1223.5,437.4],[1258.7,436.8],[1328.5,414.6],[1398,386],[1441.8,372.3],[1506.1,353.8],[1513.1,350.8],[1513.1,350.8],[1500.6,351.7],[1527.2,358.6],[1511.7,362.7],[1510,364.1],[1511.4,359.9],[1511.4,359.9],[1447.2,389.5],[1367.5,412.8],[1269.6,443.1],[1211.9,461.5],[1239.6,454.3],[1232,454],[1232,454],[1170.6,478.6],[1150.2,499],[1137.7,513.6],[1082.2,528.3],[1082.2,528.3],[1079.1,525.8],[1087,532.8],[1087,532.8],[1122.5,530.9],[1109.6,538.3],[1103.5,539.6],[1075.2,555.4],[1075.2,555.4],[1078.5,542.5],[1078.5,542.5],[1073.8,532.6],[1048.9,521.6],[1067,510.5],[1057.6,523.2],[1052.7,532.7],[1037.9,542.3],[1051.7,548.6],[1051.7,548.6],[1030.6,571.1],[1030.6,571.1],[1019.4,598.9],[1019.4,598.9],[1029,567.3],[1029,567.3],[1077.9,559.9],[1077.9,559.9],[1092.3,570.9],[1092.3,570.9],[1085.6,598],[1091.9,583.6],[1091.9,583.6],[1108.5,589.1],[1118.5,609.2],[1126.8,617],[1135.1,624.8],[1174,625.1],[1189.9,702.2],[1160.3,720],[1165.6,736.7],[1192,737.3],[1204.2,757.7],[1212.6,758.6],[1198.5,743.9],[1184.2,750.5],[1177,751.7],[1151.5,740.6],[1159.8,710.2],[1172.5,712.2],[1169.9,720.1],[1174.5,712.5],[1176,710.6],[1174.4,712.6],[1202.4,717.4],[1209.7,715.1],[1235.3,718.8],[1229.6,720.3],[1217.1,712],[1205.4,696.1],[1198.2,667.2],[1172.7,662.2],[1151.5,656.2],[1147.4,648.5],[1143.3,640.8],[1175.8,596.2],[1175.8,596.2],[1164.8,560.4],[1174.5,525.6],[1174.5,525.6],[1170.3,503],[1204.3,497.6],[1210,482],[1226.8,458],[1239.7,435.3],[1232.1,410],[1232.1,410],[1251,374.9],[1234.8,365.1],[1231.4,365.8],[1248.7,358],[1248.7,358],[1263.3,347.4],[1257.6,336.9],[1279.7,329.3],[1281.6,334.3],[1281.6,334.3],[1287.4,338],[1300.7,337.9],[1282.4,343],[1266.8,358.7],[1255.9,355.9],[1255.9,355.9],[1229.7,374.7],[1229.7,374.7],[1214.3,394.5],[1171.7,405.6],[1129.6,424],[1116.9,431.3],[1116.9,431.3],[1104.2,438.6],[1097.4,458.5],[1095.7,483],[1087,513.6],[1078.9,542.8],[1086,547.1],[1103.9,530.4],[1177.5,516.2],[1209.8,521.6],[1213.5,512.4],[1265.1,494.1],[1297.4,467.9],[1376.5,416],[1400.8,385.5],[1447.4,334.6],[1373.8,362.8],[1285.9,395.2],[1240.7,397.9],[1228.5,379.5],[1211.5,375.3],[1207.9,362.7],[1189.9,356.1],[1181.3,364.6],[1181.3,364.6],[1183.6,354.3],[1133.2,375.2],[1183.7,334.2],[1258.2,296.8],[1258.4,284.9],[1273.6,275.9],[1291.1,268],[1249.3,278.9],[1227.8,282.9],[1155.6,308.8],[1155.6,308.8],[1110,327.7],[1094.8,335.8],[1092.1,348.9],[1102.9,350.1],[1102.9,350.1],[1111.8,351.5],[1111.8,351.5],[1038.9,361.7],[1038.9,361.7],[1019.4,359.7],[1019.4,359.7],[1042.7,356.1],[1042.7,356.1]]","[-0.132282,0.39684600000000003]","[0.132282,0.39684600000000003]","[0.39684600000000003,0.39684600000000003]","[-0.39684600000000003,0.132282]","[-0.39684600000000003,-0.39684600000000003]","[-0.39684600000000003,-0.132282]","[-0.132282,0.132282]","[0.132282,0.132282]","[0.39684600000000003,0.132282]","[-0.132282,-0.39684600000000003]","[0.132282,-0.39684600000000003]","[0.39684600000000003,-0.39684600000000003]","[-0.132282,-0.132282]","[0.132282,-0.132282]","[0.39684600000000003,-0.132282]",0,0,0,0,1,1,Tablet,20,20,7,2,70,4,2,70,4
