inst1_resp.keys,inst1_resp.rt,calibrationMouse.x,calibrationMouse.y,calibrationMouse.leftButton,calibrationMouse.midButton,calibrationMouse.rightButton,calibrationClick.x,calibrationClick.y,calibrationClick.leftButton,calibrationClick.midButton,calibrationClick.rightButton,trialsc.thisRepN,trialsc.thisTrialN,trialsc.thisN,trialsc.thisIndex,trialsc.ran,calibration_x,calibration_y,participant,session,date,expName,psychopyVersion,OS,frameRate,calibrationClick.clicked_name,ScreenRes_pixels,Camera_pixels,mouse_2.x,mouse_2.y,mouse_2.leftButton,mouse_2.midButton,mouse_2.rightButton,mouse_2.time,mouse_2.clicked_name,mouse.x,mouse.y,mouse.leftButton,mouse.midButton,mouse.rightButton,mouse.time,mouse.clicked_name,Choice,Trial,TrialDuration,MOUSE_GAZE,ET_GAZE,ET_GAZE_x_T,time,unixTime,ET_GAZE_NF,Loc_Bus_label,Loc_Metro_label,Loc_RH_label,Loc_Cost_label,Loc_Travel_label,Loc_Comfort_label,Loc_Bus_cost,Loc_Metro_cost,Loc_RH_cost,Loc_Bus_travel,Loc_Metro_travel,Loc_RH_travel,Loc_Bus_comfort,Loc_Metro_comfort,Loc_RH_comfort,trials.thisRepN,trials.thisTrialN,trials.thisN,trials.thisIndex,trials.ran,Block,Device,RH_cost,RH_travel_time,RH_Comfort,metro_cost,metro_travel_time,metro_Comfort,Bus_cost,Bus_travel_time,Bus_Comfort
space,3.6112,0.064583333,0.155555556,1,0,0,-0.326041667,0.659259259,1,0,0,0,0,0,8,1,-0.33,0.67,05,001,2024-11-19_12h39.16.154,Attention_exp_legacy,2023.1.0,Win32,59.88023952,,,,,,,,,,,,,,,,,,,,,,,,,,,,,,,,,,,,,,,,,,,,,,,,,,,,,,,,,
,,,,,,,0.323958333,-0.001851852,1,0,0,0,1,1,16,1,0.33,0,05,001,2024-11-19_12h39.16.154,Attention_exp_legacy,2023.1.0,Win32,59.88023952,calibration_square,,,,,,,,,,,,,,,,,,,,,,,,,,,,,,,,,,,,,,,,,,,,,,,,,,,,,,,,
,,,,,,,-0.341666667,-0.32962963,1,0,0,0,2,2,5,1,-0.33,-0.33,05,001,2024-11-19_12h39.16.154,Attention_exp_legacy,2023.1.0,Win32,59.88023952,,,,,,,,,,,,,,,,,,,,,,,,,,,,,,,,,,,,,,,,,,,,,,,,,,,,,,,,,
,,,,,,,0.335416667,0.698148148,1,0,0,0,3,3,18,1,0.33,0.67,05,001,2024-11-19_12h39.16.154,Attention_exp_legacy,2023.1.0,Win32,59.88023952,,,,,,,,,,,,,,,,,,,,,,,,,,,,,,,,,,,,,,,,,,,,,,,,,,,,,,,,,
,,,,,,,0.666666667,0.666666667,1,0,0,0,4,4,19,1,0.67,0.67,05,001,2024-11-19_12h39.16.154,Attention_exp_legacy,2023.1.0,Win32,59.88023952,calibration_square,,,,,,,,,,,,,,,,,,,,,,,,,,,,,,,,,,,,,,,,,,,,,,,,,,,,,,,,
,,,,,,,0.001041667,-0.025925926,1,0,0,0,5,5,11,1,0,0,05,001,2024-11-19_12h39.16.154,Attention_exp_legacy,2023.1.0,Win32,59.88023952,,,,,,,,,,,,,,,,,,,,,,,,,,,,,,,,,,,,,,,,,,,,,,,,,,,,,,,,,
,,,,,,,-0.001041667,-0.666666667,1,0,0,0,6,6,9,1,0,-0.67,05,001,2024-11-19_12h39.16.154,Attention_exp_legacy,2023.1.0,Win32,59.88023952,calibration_square,,,,,,,,,,,,,,,,,,,,,,,,,,,,,,,,,,,,,,,,,,,,,,,,,,,,,,,,
,,,,,,,0.342708333,-0.672222222,1,0,0,0,7,7,14,1,0.33,-0.67,05,001,2024-11-19_12h39.16.154,Attention_exp_legacy,2023.1.0,Win32,59.88023952,,,,,,,,,,,,,,,,,,,,,,,,,,,,,,,,,,,,,,,,,,,,,,,,,,,,,,,,,
,,,,,,,-0.329166667,0,1,0,0,0,8,8,6,1,-0.33,0,05,001,2024-11-19_12h39.16.154,Attention_exp_legacy,2023.1.0,Win32,59.88023952,calibration_square,,,,,,,,,,,,,,,,,,,,,,,,,,,,,,,,,,,,,,,,,,,,,,,,,,,,,,,,
,,,,,,,-0.316666667,0.32962963,1,0,0,0,9,9,7,1,-0.33,0.33,05,001,2024-11-19_12h39.16.154,Attention_exp_legacy,2023.1.0,Win32,59.88023952,,,,,,,,,,,,,,,,,,,,,,,,,,,,,,,,,,,,,,,,,,,,,,,,,,,,,,,,,
,,,,,,,-0.328125,-0.685185185,1,0,0,0,10,10,4,1,-0.33,-0.67,05,001,2024-11-19_12h39.16.154,Attention_exp_legacy,2023.1.0,Win32,59.88023952,,,,,,,,,,,,,,,,,,,,,,,,,,,,,,,,,,,,,,,,,,,,,,,,,,,,,,,,,
,,,,,,,-0.678125,0.344444444,1,0,0,0,11,11,3,1,-0.67,0.33,05,001,2024-11-19_12h39.16.154,Attention_exp_legacy,2023.1.0,Win32,59.88023952,,,,,,,,,,,,,,,,,,,,,,,,,,,,,,,,,,,,,,,,,,,,,,,,,,,,,,,,,
,,,,,,,0.011458333,0.666666667,1,0,0,0,12,12,13,1,0,0.67,05,001,2024-11-19_12h39.16.154,Attention_exp_legacy,2023.1.0,Win32,59.88023952,,,,,,,,,,,,,,,,,,,,,,,,,,,,,,,,,,,,,,,,,,,,,,,,,,,,,,,,,
,,,,,,,-0.657291667,-0.662962963,1,0,0,0,13,13,0,1,-0.67,-0.67,05,001,2024-11-19_12h39.16.154,Attention_exp_legacy,2023.1.0,Win32,59.88023952,,,,,,,,,,,,,,,,,,,,,,,,,,,,,,,,,,,,,,,,,,,,,,,,,,,,,,,,,
,,,,,,,-0.019791667,-0.348148148,1,0,0,0,14,14,10,1,0,-0.33,05,001,2024-11-19_12h39.16.154,Attention_exp_legacy,2023.1.0,Win32,59.88023952,,,,,,,,,,,,,,,,,,,,,,,,,,,,,,,,,,,,,,,,,,,,,,,,,,,,,,,,,
,,,,,,,-0.005208333,0.342592593,1,0,0,0,15,15,12,1,0,0.33,05,001,2024-11-19_12h39.16.154,Attention_exp_legacy,2023.1.0,Win32,59.88023952,,,,,,,,,,,,,,,,,,,,,,,,,,,,,,,,,,,,,,,,,,,,,,,,,,,,,,,,,
,,,,,,,0.346875,0.337037037,1,0,0,0,16,16,17,1,0.33,0.33,05,001,2024-11-19_12h39.16.154,Attention_exp_legacy,2023.1.0,Win32,59.88023952,,,,,,,,,,,,,,,,,,,,,,,,,,,,,,,,,,,,,,,,,,,,,,,,,,,,,,,,,
,,,,,,,0.663541667,-0.672222222,1,0,0,0,17,17,20,1,0.67,-0.67,05,001,2024-11-19_12h39.16.154,Attention_exp_legacy,2023.1.0,Win32,59.88023952,calibration_square,,,,,,,,,,,,,,,,,,,,,,,,,,,,,,,,,,,,,,,,,,,,,,,,,,,,,,,,
,,,,,,,0.334375,-0.335185185,1,0,0,0,18,18,15,1,0.33,-0.33,05,001,2024-11-19_12h39.16.154,Attention_exp_legacy,2023.1.0,Win32,59.88023952,calibration_square,,,,,,,,,,,,,,,,,,,,,,,,,,,,,,,,,,,,,,,,,,,,,,,,,,,,,,,,
,,,,,,,-0.673958333,-0.316666667,1,0,0,0,19,19,1,1,-0.67,-0.33,05,001,2024-11-19_12h39.16.154,Attention_exp_legacy,2023.1.0,Win32,59.88023952,,,,,,,,,,,,,,,,,,,,,,,,,,,,,,,,,,,,,,,,,,,,,,,,,,,,,,,,,
,,,,,,,-0.664583333,0.022222222,1,0,0,0,20,20,2,1,-0.67,0,05,001,2024-11-19_12h39.16.154,Attention_exp_legacy,2023.1.0,Win32,59.88023952,,,,,,,,,,,,,,,,,,,,,,,,,,,,,,,,,,,,,,,,,,,,,,,,,,,,,,,,,
,,,,,,,,,,,,,,,,,,,05,001,2024-11-19_12h39.16.154,Attention_exp_legacy,2023.1.0,Win32,59.88023952,,"[1920,1080]","[640,480]",[-0.03854166666666667],[-0.5092592592592593],[1],[0],[0],[3.030000000000001],"[""StartButton""]",[0.07083333333333333],[0.1648148148148148],[1],[0],[0],[4.398599999904633],"[""Metro_label""]",Metro_label,1,5.4083,"[[0.07291666666666667,-0.08703703703703704],[0.07291666666666667,-0.08703703703703704],[0.07291666666666667,-0.08703703703703704],[0.07291666666666667,-0.08703703703703704],[0.07291666666666667,-0.08703703703703704],[0.07291666666666667,-0.08703703703703704],[0.07291666666666667,-0.08703703703703704],[0.07291666666666667,-0.08703703703703704],[0.07291666666666667,-0.08703703703703704],[0.07291666666666667,-0.08703703703703704],[0.07291666666666667,-0.08703703703703704],[0.07291666666666667,-0.08703703703703704],[0.07291666666666667,-0.08703703703703704],[0.07291666666666667,-0.08703703703703704],[0.07291666666666667,-0.08703703703703704],[0.07291666666666667,-0.08703703703703704],[0.07291666666666667,-0.08703703703703704],[0.07291666666666667,-0.08703703703703704],[0.07291666666666667,-0.08703703703703704],[0.07291666666666667,-0.08703703703703704],[0.07291666666666667,-0.08703703703703704],[0.07291666666666667,-0.08703703703703704],[0.07291666666666667,-0.08703703703703704],[0.07291666666666667,-0.08703703703703704],[0.07291666666666667,-0.08703703703703704],[0.07291666666666667,-0.08703703703703704],[0.07291666666666667,-0.08703703703703704],[0.07291666666666667,-0.08703703703703704],[0.07291666666666667,-0.08703703703703704],[0.07291666666666667,-0.08703703703703704],[0.07291666666666667,-0.08703703703703704],[0.07291666666666667,-0.08703703703703704],[0.07291666666666667,-0.08703703703703704],[0.07291666666666667,-0.08703703703703704],[0.07291666666666667,-0.08703703703703704],[0.07291666666666667,-0.08703703703703704],[0.07291666666666667,-0.08703703703703704],[0.07291666666666667,-0.08703703703703704],[0.07291666666666667,-0.08703703703703704],[0.07291666666666667,-0.08703703703703704],[0.07291666666666667,-0.08703703703703704],[0.07291666666666667,-0.08703703703703704],[0.07395833333333333,-0.08148148148148149],[0.075,-0.07592592592592592],[0.07604166666666666,-0.07222222222222222],[0.07708333333333334,-0.06851851851851852],[0.07708333333333334,-0.06851851851851852],[0.078125,-0.06481481481481481],[0.078125,-0.06296296296296296],[0.08020833333333334,-0.05555555555555555],[0.08125,-0.05185185185185185],[0.08125,-0.05],[0.08125,-0.05],[0.08333333333333333,-0.044444444444444446],[0.08333333333333333,-0.044444444444444446],[0.08333333333333333,-0.040740740740740744],[0.084375,-0.037037037037037035],[0.08541666666666667,-0.03518518518518519],[0.08541666666666667,-0.03333333333333333],[0.08541666666666667,-0.03148148148148148],[0.08645833333333333,-0.02962962962962963],[0.08645833333333333,-0.02962962962962963],[0.08645833333333333,-0.025925925925925925],[0.08645833333333333,-0.024074074074074074],[0.08645833333333333,-0.018518518518518517],[0.08645833333333333,-0.018518518518518517],[0.08645833333333333,-0.016666666666666666],[0.08645833333333333,-0.012962962962962963],[0.08645833333333333,-0.012962962962962963],[0.08645833333333333,-0.007407407407407408],[0.08645833333333333,-0.005555555555555556],[0.08645833333333333,-0.005555555555555556],[0.08645833333333333,0],[0.08645833333333333,0],[0.08645833333333333,0.003703703703703704],[0.08645833333333333,0.005555555555555556],[0.084375,0.011111111111111112],[0.08125,0.016666666666666666],[0.078125,0.025925925925925925],[0.07291666666666667,0.03518518518518519],[0.07083333333333333,0.037037037037037035],[0.07083333333333333,0.03888888888888889],[0.06979166666666667,0.040740740740740744],[0.06979166666666667,0.04259259259259259],[0.06979166666666667,0.04259259259259259],[0.06979166666666667,0.04259259259259259],[0.06875,0.044444444444444446],[0.06875,0.044444444444444446],[0.06770833333333333,0.046296296296296294],[0.06770833333333333,0.046296296296296294],[0.06770833333333333,0.046296296296296294],[0.06770833333333333,0.046296296296296294],[0.06770833333333333,0.046296296296296294],[0.06770833333333333,0.046296296296296294],[0.06770833333333333,0.046296296296296294],[0.06770833333333333,0.046296296296296294],[0.06770833333333333,0.046296296296296294],[0.06770833333333333,0.046296296296296294],[0.06770833333333333,0.046296296296296294],[0.06770833333333333,0.046296296296296294],[0.06770833333333333,0.046296296296296294],[0.06770833333333333,0.046296296296296294],[0.06770833333333333,0.046296296296296294],[0.06770833333333333,0.046296296296296294],[0.06770833333333333,0.046296296296296294],[0.06770833333333333,0.046296296296296294],[0.06770833333333333,0.046296296296296294],[0.06770833333333333,0.046296296296296294],[0.06770833333333333,0.046296296296296294],[0.06770833333333333,0.046296296296296294],[0.06770833333333333,0.046296296296296294],[0.06770833333333333,0.046296296296296294],[0.06770833333333333,0.046296296296296294],[0.06770833333333333,0.046296296296296294],[0.06770833333333333,0.046296296296296294],[0.06770833333333333,0.046296296296296294],[0.06770833333333333,0.046296296296296294],[0.06770833333333333,0.046296296296296294],[0.06770833333333333,0.046296296296296294],[0.06770833333333333,0.046296296296296294],[0.06770833333333333,0.046296296296296294],[0.06770833333333333,0.046296296296296294],[0.06770833333333333,0.046296296296296294],[0.06770833333333333,0.046296296296296294],[0.06770833333333333,0.046296296296296294],[0.06770833333333333,0.046296296296296294],[0.06770833333333333,0.046296296296296294],[0.06770833333333333,0.046296296296296294],[0.06770833333333333,0.046296296296296294],[0.06770833333333333,0.046296296296296294],[0.06770833333333333,0.046296296296296294],[0.06770833333333333,0.046296296296296294],[0.06770833333333333,0.046296296296296294],[0.06770833333333333,0.046296296296296294],[0.06770833333333333,0.046296296296296294],[0.06770833333333333,0.046296296296296294],[0.06770833333333333,0.046296296296296294],[0.06770833333333333,0.046296296296296294],[0.06770833333333333,0.046296296296296294],[0.06770833333333333,0.046296296296296294],[0.06770833333333333,0.046296296296296294],[0.06770833333333333,0.046296296296296294],[0.06770833333333333,0.046296296296296294],[0.06770833333333333,0.046296296296296294],[0.06770833333333333,0.046296296296296294],[0.06770833333333333,0.046296296296296294],[0.06770833333333333,0.046296296296296294],[0.06770833333333333,0.046296296296296294],[0.06770833333333333,0.046296296296296294],[0.06770833333333333,0.046296296296296294],[0.06770833333333333,0.046296296296296294],[0.06770833333333333,0.046296296296296294],[0.06770833333333333,0.046296296296296294],[0.06770833333333333,0.046296296296296294],[0.06770833333333333,0.046296296296296294],[0.06770833333333333,0.046296296296296294],[0.06770833333333333,0.046296296296296294],[0.06770833333333333,0.046296296296296294],[0.06770833333333333,0.046296296296296294],[0.06770833333333333,0.046296296296296294],[0.06770833333333333,0.046296296296296294],[0.06770833333333333,0.046296296296296294],[0.06770833333333333,0.046296296296296294],[0.06770833333333333,0.046296296296296294],[0.06770833333333333,0.046296296296296294],[0.06770833333333333,0.046296296296296294],[0.06770833333333333,0.046296296296296294],[0.06770833333333333,0.046296296296296294],[0.06770833333333333,0.046296296296296294],[0.06770833333333333,0.046296296296296294],[0.06770833333333333,0.046296296296296294],[0.06770833333333333,0.046296296296296294],[0.06770833333333333,0.046296296296296294],[0.06770833333333333,0.046296296296296294],[0.06770833333333333,0.046296296296296294],[0.06770833333333333,0.046296296296296294],[0.06770833333333333,0.046296296296296294],[0.06770833333333333,0.046296296296296294],[0.06770833333333333,0.046296296296296294],[0.06770833333333333,0.046296296296296294],[0.06770833333333333,0.046296296296296294],[0.06770833333333333,0.046296296296296294],[0.06770833333333333,0.046296296296296294],[0.06770833333333333,0.046296296296296294],[0.06770833333333333,0.046296296296296294],[0.06770833333333333,0.046296296296296294],[0.06770833333333333,0.046296296296296294],[0.06770833333333333,0.046296296296296294],[0.06770833333333333,0.04814814814814815],[0.06770833333333333,0.05185185185185185],[0.06770833333333333,0.06111111111111111],[0.06770833333333333,0.07407407407407407],[0.06770833333333333,0.08518518518518518],[0.06770833333333333,0.09444444444444444],[0.06770833333333333,0.09814814814814815],[0.06770833333333333,0.10185185185185185],[0.06770833333333333,0.10925925925925926],[0.06979166666666667,0.12037037037037036],[0.06979166666666667,0.12962962962962962],[0.06979166666666667,0.1388888888888889],[0.06979166666666667,0.14074074074074075],[0.06979166666666667,0.1425925925925926],[0.06979166666666667,0.14629629629629629],[0.07083333333333333,0.1537037037037037],[0.07083333333333333,0.1574074074074074],[0.07083333333333333,0.15925925925925927],[0.07083333333333333,0.15925925925925927],[0.07083333333333333,0.16111111111111112],[0.07083333333333333,0.16296296296296298],[0.07083333333333333,0.1648148148148148],[0.07083333333333333,0.1648148148148148],[0.07083333333333333,0.1648148148148148],[0.07083333333333333,0.1648148148148148],[0.07083333333333333,0.1648148148148148],[0.07083333333333333,0.1648148148148148],[0.07083333333333333,0.1648148148148148],[0.07083333333333333,0.1648148148148148],[0.07083333333333333,0.1648148148148148],[0.07083333333333333,0.1648148148148148],[0.07083333333333333,0.1648148148148148],[0.07083333333333333,0.1648148148148148],[0.07083333333333333,0.1648148148148148],[0.07083333333333333,0.1648148148148148],[0.07083333333333333,0.1648148148148148],[0.07083333333333333,0.1648148148148148],[0.07083333333333333,0.1648148148148148],[0.07083333333333333,0.1648148148148148],[0.07083333333333333,0.1648148148148148],[0.07083333333333333,0.1648148148148148],[0.07083333333333333,0.1648148148148148],[0.07083333333333333,0.1648148148148148],[0.07083333333333333,0.1648148148148148],[0.07083333333333333,0.1648148148148148],[0.07083333333333333,0.1648148148148148],[0.07083333333333333,0.1648148148148148],[0.07083333333333333,0.1648148148148148],[0.07083333333333333,0.1648148148148148],[0.07083333333333333,0.1648148148148148],[0.07083333333333333,0.1648148148148148],[0.07083333333333333,0.1648148148148148],[0.07083333333333333,0.1648148148148148],[0.07083333333333333,0.1648148148148148],[0.07083333333333333,0.1648148148148148],[0.07083333333333333,0.1648148148148148],[0.07083333333333333,0.1648148148148148],[0.07083333333333333,0.1648148148148148],[0.07083333333333333,0.1648148148148148],[0.07083333333333333,0.1648148148148148],[0.07083333333333333,0.1648148148148148],[0.07083333333333333,0.1648148148148148],[0.07083333333333333,0.1648148148148148],[0.07083333333333333,0.1648148148148148],[0.07083333333333333,0.1648148148148148],[0.07083333333333333,0.1648148148148148],[0.07083333333333333,0.1648148148148148],[0.07083333333333333,0.1648148148148148],[0.07083333333333333,0.1648148148148148],[0.07083333333333333,0.1648148148148148],[0.07083333333333333,0.1648148148148148],[0.07083333333333333,0.1648148148148148],[0.07083333333333333,0.1648148148148148],[0.07083333333333333,0.1648148148148148],[0.07083333333333333,0.1648148148148148],[0.07083333333333333,0.1648148148148148],[0.07083333333333333,0.1648148148148148],[0.07083333333333333,0.1648148148148148],[0.07083333333333333,0.1648148148148148],[0.07083333333333333,0.1648148148148148],[0.07083333333333333,0.1648148148148148],[0.07083333333333333,0.1648148148148148],[0.07083333333333333,0.1648148148148148],[0.07083333333333333,0.1648148148148148],[0.07083333333333333,0.1648148148148148],[0.07083333333333333,0.1648148148148148],[0.07083333333333333,0.1648148148148148],[0.07083333333333333,0.1648148148148148],[0.07083333333333333,0.1648148148148148],[0.07083333333333333,0.1648148148148148],[0.07083333333333333,0.1648148148148148],[0.07083333333333333,0.1648148148148148],[0.07083333333333333,0.1648148148148148],[0.07083333333333333,0.1648148148148148],[0.07083333333333333,0.1648148148148148],[0.07083333333333333,0.1648148148148148],[0.07083333333333333,0.1648148148148148],[0.07083333333333333,0.1648148148148148],[0.07083333333333333,0.1648148148148148],[0.07083333333333333,0.1648148148148148],[0.07083333333333333,0.1648148148148148],[0.07083333333333333,0.1648148148148148],[0.07083333333333333,0.1648148148148148],[0.07083333333333333,0.1648148148148148],[0.07083333333333333,0.1648148148148148],[0.07083333333333333,0.1648148148148148],[0.07083333333333333,0.1648148148148148],[0.07083333333333333,0.1648148148148148],[0.07083333333333333,0.1648148148148148],[0.07083333333333333,0.1648148148148148],[0.07083333333333333,0.1648148148148148],[0.07083333333333333,0.1648148148148148],[0.07083333333333333,0.1648148148148148],[0.07083333333333333,0.1648148148148148],[0.07083333333333333,0.1648148148148148],[0.07083333333333333,0.1648148148148148],[0.07083333333333333,0.1648148148148148],[0.07395833333333333,0.17407407407407408],[0.075,0.17777777777777778],[0.07708333333333334,0.18333333333333332],[0.07708333333333334,0.18518518518518517],[0.07708333333333334,0.18888888888888888],[0.078125,0.19074074074074074],[0.078125,0.19074074074074074],[0.078125,0.19074074074074074],[0.078125,0.19074074074074074],[0.078125,0.19074074074074074],[0.078125,0.19074074074074074],[0.07708333333333334,0.19074074074074074],[0.07291666666666667,0.19074074074074074],[0.06875,0.19074074074074074],[0.06458333333333334,0.18888888888888888],[0.06041666666666667,0.18703703703703703],[0.057291666666666664,0.18518518518518517],[0.05416666666666667,0.1814814814814815]]","[[-0.1203125,-0.11777777777777781],[-0.1203125,-0.11777777777777781],[-0.12104166666666671,-0.14981481481481476],[-0.12104166666666671,-0.14981481481481476],[-0.11177083333333329,-0.15703703703703706],[-0.11177083333333329,-0.15703703703703706],[-0.09520833333333331,-0.14907407407407408],[-0.08177083333333333,-0.13407407407407404],[-0.08177083333333333,-0.13407407407407404],[-0.08468749999999996,-0.147037037037037],[-0.08468749999999996,-0.147037037037037],[-0.06083333333333331,-0.125],[-0.06083333333333331,-0.125],[-0.044270833333333336,-0.125],[-0.044270833333333336,-0.125],[-0.022291666666666644,-0.10925925925925926],[-0.022291666666666644,-0.10925925925925926],[-0.011354166666666643,-0.09296296296296294],[-0.011354166666666643,-0.09296296296296294],[0.004270833333333357,-0.07851851851851847],[0.004270833333333357,-0.07851851851851847],[0.01572916666666669,-0.04407407407407399],[0.01572916666666669,-0.04407407407407399],[0.026145833333333358,-0.030740740740740784],[0.026145833333333358,-0.030740740740740784],[0.025416666666666643,-0.028703703703703703],[0.03427083333333331,-0.03740740740740749],[0.05947916666666669,-0.018148148148148063],[0.05947916666666669,-0.018148148148148063],[0.04729166666666664,0.012037037037037037],[0.043020833333333286,0.032407407407407406],[0.03885416666666662,0.056296296296296254],[0.04072916666666669,0.056666666666666705],[0.030312500000000023,0.06018518518518518],[0.02677083333333338,0.052962962962963],[0.01427083333333338,0.04203703703703712],[-0.0017708333333333807,0.052962962962963],[-0.03291666666666669,0.06481481481481481],[-0.0626041666666667,0.09148148148148144],[-0.06583333333333338,0.08074074074074078],[-0.07552083333333333,0.07333333333333338],[-0.09500000000000004,0.058703703703703786],[-0.1109375,0.057777777777777865],[-0.09395833333333338,0.075],[-0.07374999999999995,0.10629629629629625],[-0.05656249999999995,0.14333333333333328],[-0.05656249999999995,0.14333333333333328],[-0.033854166666666664,0.1425925925925926],[-0.007187499999999976,0.14574074074074084],[-0.007187499999999976,0.14574074074074084],[0.014374999999999952,0.12888888888888894],[0.014374999999999952,0.12888888888888894],[0.02020833333333331,0.12962962962962962],[0.02020833333333331,0.12962962962962962],[0.019583333333333286,0.14444444444444443],[0.03447916666666669,0.15333333333333324],[0.04697916666666669,0.17592592592592593],[0.04697916666666669,0.17592592592592593],[0.035520833333333356,0.15925925925925927],[0.035520833333333356,0.15925925925925927],[0.024062500000000025,0.1425925925925926],[0.024062500000000025,0.1425925925925926],[0.04468749999999998,0.14666666666666675],[0.08104166666666662,0.1801851851851851],[0.08104166666666662,0.1801851851851851],[0.07906250000000009,0.1725925925925927],[0.08697916666666666,0.1935185185185185],[0.10510416666666676,0.18870370370370365],[0.125,0.17888888888888893],[0.16114583333333338,0.16518518518518527],[0.19968750000000005,0.13777777777777775],[0.20520833333333333,0.13222222222222219],[0.21083333333333343,0.12185185185185177],[0.18739583333333343,0.08499999999999996],[0.13125,0.04407407407407399],[0.12708333333333333,0.04537037037037037],[0.13937499999999994,0.0418518518518519],[0.1446875000000001,0.04351851851851852],[0.14260416666666675,0.012407407407407492],[0.11854166666666661,-0.0016666666666666245],[0.09072916666666657,-0.0025925925925925505],[0.08916666666666657,-0.006666666666666709],[0.09197916666666663,0.0014814814814813973],[0.09479166666666666,0.009629629629629714],[0.11687500000000005,0.02833333333333325],[0.12135416666666667,0.04203703703703712],[0.1109375,0.0003703703703704546],[0.09187500000000005,-0.006481481481481481],[0.09093749999999995,0.006666666666666709],[0.1,0.018333333333333292],[0.13010416666666677,0.014629629629629588],[0.11531250000000005,0.011481481481481566],[0.09604166666666672,0.000925925925925926],[0.05947916666666669,-0.02444444444444453],[0.024479166666666666,-0.06425925925925924],[-0.010520833333333358,-0.10407407407407405],[-0.04104166666666664,-0.10129629629629627],[-0.05541666666666671,-0.11962962962962967],[-0.058124999999999954,-0.13925925925925925],[-0.07083333333333333,-0.1574074074074074],[-0.09104166666666665,-0.14055555555555552],[-0.06854166666666663,-0.12185185185185188],[-0.029999999999999954,-0.12166666666666665],[0.0125,-0.11259259259259262],[0.051250000000000046,-0.10314814814814813],[0.0900000000000001,-0.09370370370370375],[0.1118750000000001,-0.0787037037037037],[0.1337500000000001,-0.06370370370370367],[0.14114583333333333,-0.036481481481481566],[0.14854166666666657,-0.009259259259259259],[0.15875000000000009,-0.025925925925925925],[0.16708333333333342,-0.03611111111111111],[0.159375,-0.027777777777777776],[0.17333333333333342,-0.02240740740740745],[0.19927083333333329,-0.006666666666666709],[0.20833333333333334,0.0025925925925925505],[0.22197916666666656,0.0005555555555554713],[0.24145833333333327,-0.0022222222222223064],[0.2568749999999999,0.002777777777777778],[0.27229166666666677,0.007777777777777862],[0.27229166666666677,0.007777777777777862],[0.27489583333333345,0.014814814814814815],[0.27489583333333345,0.014814814814814815],[0.27447916666666666,0.0235185185185186],[0.2724999999999999,0.03851851851851843],[0.2724999999999999,0.03851851851851843],[0.2621875000000001,0.062407407407407495],[0.2621875000000001,0.062407407407407495],[0.23166666666666677,0.036666666666666584],[0.23635416666666675,0.03314814814814811],[0.21802083333333327,0.014629629629629588],[0.1962500000000001,-0.0020370370370370794],[0.17312500000000006,-0.000925925925925926],[0.17312500000000006,-0.000925925925925926],[0.15145833333333342,0.000925925925925926],[0.15145833333333342,0.000925925925925926],[0.14479166666666668,0.027222222222222307],[0.14479166666666668,0.027222222222222307],[0.12552083333333333,0.031111111111111027],[0.12552083333333333,0.031111111111111027],[0.11833333333333323,0.036666666666666584],[0.11145833333333334,0.050370370370370454],[0.11145833333333334,0.050370370370370454],[0.1256249999999999,0.10796296296296289],[0.1256249999999999,0.10796296296296289],[0.11156249999999991,0.14740740740740746],[0.12770833333333323,0.19814814814814816],[0.13031249999999991,0.24314814814814806],[0.13031249999999991,0.24314814814814806],[0.13677083333333329,0.2772222222222223],[0.14500000000000005,0.3118518518518518],[0.1384375000000001,0.331111111111111],[0.13416666666666663,0.3492592592592593],[0.11937499999999991,0.3594444444444445],[0.10770833333333343,0.3611111111111111],[0.08697916666666666,0.35777777777777786],[0.08499999999999991,0.3677777777777778],[0.07583333333333328,0.3814814814814815],[0.06812500000000009,0.3803703703703703],[0.06229166666666662,0.3507407407407407],[0.05322916666666669,0.3198148148148149],[0.03687499999999998,0.3042592592592592],[0.03572916666666662,0.30407407407407416],[0.03968750000000002,0.2977777777777777],[0.04020833333333336,0.2918518518518519],[0.03916666666666669,0.2822222222222222],[0.029270833333333357,0.2616666666666666],[0.015104166666666667,0.22333333333333338],[0.015104166666666667,0.22333333333333338],[0.003958333333333286,0.2168518518518519],[0.000833333333333286,0.21740740740740735],[-0.002291666666666714,0.21796296296296305],[0.004999999999999952,0.20462962962962963],[0.01229166666666662,0.19129629629629621],[0.012916666666666642,0.18370370370370379],[0.013541666666666667,0.17611111111111116],[0.018333333333333358,0.16500000000000004],[0.02312500000000005,0.15388888888888894],[0.036145833333333384,0.19277777777777783],[0.05583333333333336,0.2192592592592592],[0.05583333333333336,0.2192592592592592],[0.06593749999999995,0.21666666666666667],[0.06593749999999995,0.21666666666666667],[0.07739583333333329,0.21425925925925934],[0.08614583333333338,0.22629629629629638],[0.10437500000000005,0.2662962962962962],[0.12416666666666672,0.3066666666666667],[0.1337500000000001,0.32148148148148153],[0.15114583333333323,0.35425925925925916],[0.1359375,0.35907407407407405],[0.11677083333333324,0.3316666666666667],[0.09760416666666671,0.3042592592592592],[0.09291666666666672,0.2948148148148149],[0.10302083333333342,0.27759259259259256],[0.10302083333333342,0.27759259259259256],[0.11395833333333343,0.2411111111111112],[0.11395833333333343,0.2411111111111112],[0.09645833333333324,0.17907407407407416],[0.07697916666666677,0.1338888888888888],[0.07052083333333338,0.08759259259259251],[0.04541666666666669,0.03851851851851843],[0.05291666666666662,0.017407407407407365],[0.06979166666666667,0.061666666666666585],[0.0931250000000001,0.0764814814814814],[0.1,0.10203703703703708],[0.09406249999999995,0.11740740740740736],[0.08427083333333343,0.10129629629629638],[0.08427083333333343,0.10129629629629638],[0.07916666666666666,0.09796296296296292],[0.08541666666666667,0.09000000000000004],[0.08885416666666662,0.10870370370370379],[0.09427083333333333,0.09592592592592585],[0.09729166666666676,0.0911111111111112],[0.08958333333333333,0.018518518518518517],[0.06822916666666666,-0.022777777777777692],[0.044062499999999956,-0.05851851851851856],[0.024583333333333356,-0.060555555555555536],[0.007708333333333309,-0.027777777777777776],[0.02302083333333336,0.012407407407407492],[0.028958333333333287,0.040370370370370286],[0.028958333333333287,0.05814814814814811],[0.035208333333333286,0.09944444444444453],[0.04864583333333338,0.1544444444444444],[0.06218750000000005,0.18944444444444436],[0.07999999999999995,0.23148148148148148],[0.10062499999999991,0.26796296296296307],[0.11260416666666657,0.29018518518518527],[0.11260416666666657,0.29018518518518527],[0.12541666666666676,0.30037037037037045],[0.12541666666666676,0.30037037037037045],[0.1203125,0.287962962962963],[0.11760416666666676,0.26500000000000007],[0.12083333333333333,0.2522222222222223],[0.12177083333333343,0.23740740740740748],[0.11791666666666671,0.20092592592592592],[0.1078125,0.18555555555555564],[0.10062499999999991,0.16129629629629633],[0.09302083333333329,0.10870370370370379],[0.08604166666666657,0.0544444444444444],[0.07822916666666657,0.012222222222222264],[0.07822916666666657,0.012222222222222264],[0.08510416666666672,-0.008148148148148106],[0.07104166666666671,-0.0011111111111111532],[0.07104166666666671,-0.0011111111111111532],[0.05697916666666671,0.00592592592592601],[0.05770833333333331,-0.01907407407407399],[0.04593750000000003,0.024629629629629547],[0.041666666666666664,0.06962962962962967],[0.041666666666666664,0.06962962962962967],[0.0375,0.06092592592592588],[0.024166666666666715,0.10925925925925926],[0.018437500000000048,0.16999999999999993],[0.008020833333333382,0.2175925925925926],[0.008020833333333382,0.2175925925925926],[-0.030312500000000023,0.2485185185185186],[-0.030312500000000023,0.2485185185185186],[-0.04583333333333333,0.22444444444444453],[-0.04583333333333333,0.22444444444444453],[-0.052187500000000026,0.2638888888888889],[-0.052187500000000026,0.2638888888888889],[-0.08166666666666664,0.3212962962962963],[-0.08166666666666664,0.3212962962962963],[-0.10177083333333338,0.2818518518518519],[-0.10177083333333338,0.2818518518518519],[-0.121875,0.24240740740740738],[-0.121875,0.24240740740740738],[-0.14156249999999998,0.23944444444444435],[-0.14156249999999998,0.23944444444444435],[-0.11437499999999995,0.22388888888888886],[-0.11437499999999995,0.22388888888888886],[-0.10812499999999996,0.1838888888888888],[-0.10812499999999996,0.1838888888888888],[-0.0828125,0.14722222222222223],[-0.0828125,0.14722222222222223],[-0.04364583333333331,0.1198148148148149],[-0.04364583333333331,0.1198148148148149],[-0.009895833333333333,0.14388888888888898],[0.014374999999999952,0.07240740740740745],[0.05677083333333333,0.047037037037036995],[0.0978125000000001,0.05925925925925926],[0.1388541666666666,0.07148148148148152],[0.18166666666666675,0.09944444444444453],[0.18718750000000003,0.11129629629629634],[0.17697916666666677,0.1300000000000001],[0.15239583333333329,0.15851851851851856],[0.1478125000000001,0.19907407407407407],[0.1443749999999999,0.22629629629629638],[0.1412499999999999,0.2855555555555556],[0.12645833333333342,0.30037037037037045],[0.11614583333333334,0.30574074074074076],[0.10593750000000005,0.2838888888888888],[0.10020833333333339,0.3088888888888888],[0.10020833333333339,0.3088888888888888],[0.08479166666666677,0.2992592592592593],[0.08479166666666677,0.2992592592592593],[0.09385416666666657,0.297037037037037],[0.10479166666666657,0.28851851851851845],[0.09479166666666666,0.23481481481481473],[0.0921875,0.20333333333333325],[0.0921875,0.20333333333333325],[0.09500000000000004,0.17518518518518522],[0.08718750000000004,0.14296296296296304],[0.08145833333333338,0.10555555555555556],[0.08833333333333329,0.09685185185185177],[0.0884375000000001,0.04277777777777782],[0.0884375000000001,0.04277777777777782],[0.10614583333333343,0.049629629629629544],[0.11875,0.028703703703703703],[0.12937500000000005,0.007962962962962878],[0.12937500000000005,0.007962962962962878],[0.13645833333333332,0.08814814814814818],[0.1336458333333333,0.14000000000000004],[0.15854166666666672,0.2368518518518518],[0.17312500000000006,0.31555555555555553],[0.18760416666666657,0.38870370370370366],[0.19197916666666662,0.45444444444444443],[0.17864583333333334,0.524074074074074],[0.1609375,0.48296296296296287],[0.15354166666666677,0.49833333333333335],[0.1462500000000001,0.519814814814815],[0.12708333333333333,0.42296296296296293],[0.12416666666666672,0.3387037037037037],[0.0943749999999999,0.20629629629629626]]","[[-0.1203125,-0.11777777777777781,0.00040000009536811376],[-0.1203125,-0.11777777777777781,0.060300000190736114],[-0.12104166666666671,-0.14981481481481476,0.07490000009536857],[-0.12104166666666671,-0.14981481481481476,0.09159999990463064],[-0.11177083333333329,-0.15703703703703706,0.10830000019073083],[-0.11177083333333329,-0.15703703703703706,0.12490000009536573],[-0.09520833333333331,-0.14907407407407408,0.14150000000000063],[-0.08177083333333333,-0.13407407407407404,0.16330000019073054],[-0.08177083333333333,-0.13407407407407404,0.17490000009537],[-0.08468749999999996,-0.147037037037037,0.19159999990463206],[-0.08468749999999996,-0.147037037037037,0.2089000000953689],[-0.06083333333333331,-0.125,0.22480000019073287],[-0.06083333333333331,-0.125,0.24159999990462921],[-0.044270833333333336,-0.125,0.2581999998092641],[-0.044270833333333336,-0.125,0.2749000000953643],[-0.022291666666666644,-0.10925925925925926,0.2914999999999992],[-0.022291666666666644,-0.10925925925925926,0.30840000009536794],[-0.011354166666666643,-0.09296296296296294,0.3248000001907343],[-0.011354166666666643,-0.09296296296296294,0.34149999999999636],[0.004270833333333357,-0.07851851851851847,0.35819999980926553],[0.004270833333333357,-0.07851851851851847,0.3749000000953657],[0.01572916666666669,-0.04407407407407399,0.39169999980926207],[0.01572916666666669,-0.04407407407407399,0.4083000001907351],[0.026145833333333358,-0.030740740740740784,0.42490000009537],[0.026145833333333358,-0.030740740740740784,0.44159999990463206],[0.025416666666666643,-0.028703703703703703,0.45819999980926696],[0.03427083333333331,-0.03740740740740749,0.47490000009536715],[0.05947916666666669,-0.018148148148148063,0.49230000019073117],[0.05947916666666669,-0.018148148148148063,0.5083000001907365],[0.04729166666666664,0.012037037037037037,0.5249000000953643],[0.043020833333333286,0.032407407407407406,0.5414999999999992],[0.03885416666666662,0.056296296296296254,0.5586999998092637],[0.04072916666666669,0.056666666666666705,0.5748000001907343],[0.030312500000000023,0.06018518518518518,0.5914999999999964],[0.02677083333333338,0.052962962962963,0.6109000000953699],[0.01427083333333338,0.04203703703703712,0.6266999998092615],[-0.0017708333333333807,0.052962962962963,0.6418000001907345],[-0.03291666666666669,0.06481481481481481,0.6604000000953647],[-0.0626041666666667,0.09148148148148144,0.676800000190731],[-0.06583333333333338,0.08074074074074078,0.6941999998092641],[-0.07552083333333333,0.07333333333333338,0.7103000001907347],[-0.09500000000000004,0.058703703703703786,0.7256999998092653],[-0.1109375,0.057777777777777865,0.7445000000000022],[-0.09395833333333338,0.075,0.7616999998092666],[-0.07374999999999995,0.10629629629629625,0.7764999999999986],[-0.05656249999999995,0.14333333333333328,0.796999999999997],[-0.05656249999999995,0.14333333333333328,0.8081999998092613],[-0.033854166666666664,0.1425925925925926,0.8249999999999957],[-0.007187499999999976,0.14574074074074084,0.8416999998092649],[-0.007187499999999976,0.14574074074074084,0.8614000000953652],[0.014374999999999952,0.12888888888888894,0.8750999999046343],[0.014374999999999952,0.12888888888888894,0.8916999998092621],[0.02020833333333331,0.12962962962962962,0.9081999998092627],[0.02020833333333331,0.12962962962962962,0.9275999999046292],[0.019583333333333286,0.14444444444444443,0.9414999999999978],[0.03447916666666669,0.15333333333333324,0.960400000095369],[0.04697916666666669,0.17592592592592593,0.9830999999046313],[0.04697916666666669,0.17592592592592593,0.9916999998092635],[0.035520833333333356,0.15925925925925927,1.008499999999998],[0.035520833333333356,0.15925925925925927,1.0250999999046329],[0.024062500000000025,0.1425925925925926,1.045900000095365],[0.024062500000000025,0.1425925925925926,1.0581999998092613],[0.04468749999999998,0.14666666666666675,1.0751999998092643],[0.08104166666666662,0.1801851851851851,1.0959999999999965],[0.08104166666666662,0.1801851851851851,1.113199999809261],[0.07906250000000009,0.1725925925925927,1.1285000000000025],[0.08697916666666666,0.1935185185185185,1.1448000001907346],[0.10510416666666676,0.18870370370370365,1.1584000000953694],[0.125,0.17888888888888893,1.1751999998092657],[0.16114583333333338,0.16518518518518527,1.1925000000000026],[0.19968750000000005,0.13777777777777775,1.2109999999999985],[0.20520833333333333,0.13222222222222219,1.2248000001907329],[0.21083333333333343,0.12185185185185177,1.2434999999999974],[0.18739583333333343,0.08499999999999996,1.2583000001907365],[0.13125,0.04407407407407399,1.277000000000001],[0.12708333333333333,0.04537037037037037,1.2934000000953674],[0.13937499999999994,0.0418518518518519,1.309199999809266],[0.1446875000000001,0.04351851851851852,1.3275999999046348],[0.14260416666666675,0.012407407407407492,1.341699999809265],[0.11854166666666661,-0.0016666666666666245,1.358400000095365],[0.09072916666666657,-0.0025925925925925505,1.3770999999046296],[0.08916666666666657,-0.006666666666666709,1.3918000001907345],[0.09197916666666663,0.0014814814814813973,1.410900000095367],[0.09479166666666666,0.009629629629629714,1.4249999999999972],[0.11687500000000005,0.02833333333333325,1.4414999999999978],[0.12135416666666667,0.04203703703703712,1.458199999809267],[0.1109375,0.0003703703703704546,1.4768000001907353],[0.09187500000000005,-0.006481481481481481,1.4918000001907359],[0.09093749999999995,0.006666666666666709,1.5085999999046322],[0.1,0.018333333333333292,1.5249000000953643],[0.13010416666666677,0.014629629629629588,1.5414999999999992],[0.11531250000000005,0.011481481481481566,1.5581999998092613],[0.09604166666666672,0.000925925925925926,1.5748000001907343],[0.05947916666666669,-0.02444444444444453,1.5914999999999964],[0.024479166666666666,-0.06425925925925924,1.6081999998092655],[-0.010520833333333358,-0.10407407407407405,1.6249000000953657],[-0.04104166666666664,-0.10129629629629627,1.6415000000000006],[-0.05541666666666671,-0.11962962962962967,1.6581999998092627],[-0.058124999999999954,-0.13925925925925925,1.67490000009537],[-0.07083333333333333,-0.1574074074074074,1.691599999904632],[-0.09104166666666665,-0.14055555555555552,1.7110999999046328],[-0.06854166666666663,-0.12185185185185188,1.7280999999046287],[-0.029999999999999954,-0.12166666666666665,1.741500000000002],[0.0125,-0.11259259259259262,1.7581999998092641],[0.051250000000000046,-0.10314814814814813,1.7749000000953643],[0.0900000000000001,-0.09370370370370375,1.7914999999999992],[0.1118750000000001,-0.0787037037037037,1.8081999998092613],[0.1337500000000001,-0.06370370370370367,1.8248000001907343],[0.14114583333333333,-0.036481481481481566,1.8414999999999964],[0.14854166666666657,-0.009259259259259259,1.8580999999046313],[0.15875000000000009,-0.025925925925925925,1.8748000001907315],[0.16708333333333342,-0.03611111111111111,1.8918000001907345],[0.159375,-0.027777777777777776,1.9081999998092627],[0.17333333333333342,-0.02240740740740745,1.92490000009537],[0.19927083333333329,-0.006666666666666709,1.941599999904632],[0.20833333333333334,0.0025925925925925505,1.964099999904633],[0.22197916666666656,0.0005555555555554713,1.9780999999046287],[0.24145833333333327,-0.0022222222222223064,1.9919000000953702],[0.2568749999999999,0.002777777777777778,2.008199999809264],[0.27229166666666677,0.007777777777777862,2.027699999809265],[0.27229166666666677,0.007777777777777862,2.0415999999046335],[0.27489583333333345,0.014814814814814815,2.058400000095368],[0.27489583333333345,0.014814814814814815,2.0749000000953686],[0.27447916666666666,0.0235185185185186,2.0915999999046306],[0.2724999999999999,0.03851851851851843,2.108800000190733],[0.2724999999999999,0.03851851851851843,2.1248000001907315],[0.2621875000000001,0.062407407407407495,2.1415000000000006],[0.2621875000000001,0.062407407407407495,2.158300000190735],[0.23166666666666677,0.036666666666666584,2.1748000001907357],[0.23635416666666675,0.03314814814814811,2.19409999990463],[0.21802083333333327,0.014629629629629588,2.2095999999046327],[0.1962500000000001,-0.0020370370370370794,2.224800000190733],[0.17312500000000006,-0.000925925925925926,2.241599999904629],[0.17312500000000006,-0.000925925925925926,2.2583000001907365],[0.15145833333333342,0.000925925925925926,2.2749000000953643],[0.15145833333333342,0.000925925925925926,2.2915999999046335],[0.14479166666666668,0.027222222222222307,2.3083000001907337],[0.14479166666666668,0.027222222222222307,2.3248000001907343],[0.12552083333333333,0.031111111111111027,2.3414999999999964],[0.12552083333333333,0.031111111111111027,2.3581999998092655],[0.11833333333333323,0.036666666666666584,2.3748000001907315],[0.11145833333333334,0.050370370370370454,2.397199999809267],[0.11145833333333334,0.050370370370370454,2.4081999998092627],[0.1256249999999999,0.10796296296296289,2.424999999999997],[0.1256249999999999,0.10796296296296289,2.441499999999998],[0.11156249999999991,0.14740740740740746,2.458199999809267],[0.12770833333333323,0.19814814814814816,2.474800000190733],[0.13031249999999991,0.24314814814814806,2.4994999999999976],[0.13031249999999991,0.24314814814814806,2.508199999809264],[0.13677083333333329,0.2772222222222223,2.5249000000953643],[0.14500000000000005,0.3118518518518518,2.5429999999999993],[0.1384375000000001,0.331111111111111,2.5581999998092613],[0.13416666666666663,0.3492592592592593,2.5748000001907343],[0.11937499999999991,0.3594444444444445,2.5929999999999964],[0.10770833333333343,0.3611111111111111,2.611300000190731],[0.08697916666666666,0.35777777777777786,2.627199999809264],[0.08499999999999991,0.3677777777777778,2.6415000000000006],[0.07583333333333328,0.3814814814814815,2.6581999998092627],[0.06812500000000009,0.3803703703703703,2.6748000001907357],[0.06229166666666662,0.3507407407407407,2.693099999904632],[0.05322916666666669,0.3198148148148149,2.711599999904635],[0.03687499999999998,0.3042592592592592,2.7276999998092677],[0.03572916666666662,0.30407407407407416,2.742900000095368],[0.03968750000000002,0.2977777777777777,2.758199999809264],[0.04020833333333336,0.2918518518518519,2.7749000000953643],[0.03916666666666669,0.2822222222222222,2.791499999999999],[0.029270833333333357,0.2616666666666666,2.8108000001907314],[0.015104166666666667,0.22333333333333338,2.826900000095364],[0.015104166666666667,0.22333333333333338,2.8414999999999964],[0.003958333333333286,0.2168518518518519,2.8581999998092655],[0.000833333333333286,0.21740740740740735,2.8748000001907315],[-0.002291666666666714,0.21796296296296305,2.8915000000000006],[0.004999999999999952,0.20462962962962963,2.9096999998092627],[0.01229166666666662,0.19129629629629621,2.927800000190736],[0.012916666666666642,0.18370370370370379,2.944199999809264],[0.013541666666666667,0.17611111111111116,2.9583000001907322],[0.018333333333333358,0.16500000000000004,2.974800000190733],[0.02312500000000005,0.15388888888888894,2.991500000000002],[0.036145833333333384,0.19277777777777783,3.009999999999998],[0.05583333333333336,0.2192592592592592,3.0278000001907373],[0.05583333333333336,0.2192592592592592,3.0415999999046335],[0.06593749999999995,0.21666666666666667,3.0583000001907337],[0.06593749999999995,0.21666666666666667,3.0748000001907343],[0.07739583333333329,0.21425925925925934,3.091699999809265],[0.08614583333333338,0.22629629629629638,3.1114999999999995],[0.10437500000000005,0.2662962962962962,3.1274999999999977],[0.12416666666666672,0.3066666666666667,3.1444000000953665],[0.1337500000000001,0.32148148148148153,3.160900000095367],[0.15114583333333323,0.35425925925925916,3.178199999809266],[0.1359375,0.35907407407407405,3.1925999999046297],[0.11677083333333324,0.3316666666666667,3.2109000000953642],[0.09760416666666671,0.3042592592592592,3.2295000000000016],[0.09291666666666672,0.2948148148148149,3.244900000095363],[0.10302083333333342,0.27759259259259256,3.261800000190732],[0.10302083333333342,0.27759259259259256,3.2749999999999986],[0.11395833333333343,0.2411111111111112,3.2956999998092655],[0.11395833333333343,0.2411111111111112,3.308400000095368],[0.09645833333333324,0.17907407407407416,3.32509999990463],[0.07697916666666677,0.1338888888888888,3.3444000000953693],[0.07052083333333338,0.08759259259259251,3.358400000095365],[0.04541666666666669,0.03851851851851843,3.375],[0.05291666666666662,0.017407407407407365,3.3918000001907345],[0.06979166666666667,0.061666666666666585,3.412300000190733],[0.0931250000000001,0.0764814814814814,3.4288000001907335],[0.1,0.10203703703703708,3.4436999998092617],[0.09406249999999995,0.11740740740740736,3.4583000001907322],[0.08427083333333343,0.10129629629629638,3.474900000095367],[0.08427083333333343,0.10129629629629638,3.494500000000002],[0.07916666666666666,0.09796296296296292,3.5086999998092665],[0.08541666666666667,0.09000000000000004,3.526699999809267],[0.08885416666666662,0.10870370370370379,3.541499999999999],[0.09427083333333333,0.09592592592592585,3.560699999809266],[0.09729166666666676,0.0911111111111112,3.57509999990463],[0.08958333333333333,0.018518518518518517,3.594000000000001],[0.06822916666666666,-0.022777777777777692,3.61090000009537],[0.044062499999999956,-0.05851851851851856,3.626800000190734],[0.024583333333333356,-0.060555555555555536,3.6414000000953664],[0.007708333333333309,-0.027777777777777776,3.6606999998092675],[0.02302083333333336,0.012407407407407492,3.674999999999997],[0.028958333333333287,0.040370370370370286,3.691499999999998],[0.028958333333333287,0.05814814814814811,3.7121999998092647],[0.035208333333333286,0.09944444444444453,3.7280999999046287],[0.04864583333333338,0.1544444444444444,3.74190000009537],[0.06218750000000005,0.18944444444444436,3.7595000000000027],[0.07999999999999995,0.23148148148148148,3.775099999904633],[0.10062499999999991,0.26796296296296307,3.7929999999999993],[0.11260416666666657,0.29018518518518527,3.8130000000000024],[0.11260416666666657,0.29018518518518527,3.8249000000953686],[0.12541666666666676,0.30037037037037045,3.8415999999046306],[0.12541666666666676,0.30037037037037045,3.858300000190731],[0.1203125,0.287962962962963,3.8749000000953657],[0.11760416666666676,0.26500000000000007,3.8948000001907346],[0.12083333333333333,0.2522222222222223,3.9129999999999967],[0.12177083333333343,0.23740740740740748,3.9284999999999997],[0.11791666666666671,0.20092592592592592,3.944499999999998],[0.1078125,0.18555555555555564,3.9616999998092624],[0.10062499999999991,0.16129629629629633,3.978499999999997],[0.09302083333333329,0.10870370370370379,3.994099999904634],[0.08604166666666657,0.0544444444444444,4.008199999809264],[0.07822916666666657,0.012222222222222264,4.025800000190735],[0.07822916666666657,0.012222222222222264,4.041499999999999],[0.08510416666666672,-0.008148148148148106,4.058199999809261],[0.07104166666666671,-0.0011111111111111532,4.07959999990463],[0.07104166666666671,-0.0011111111111111532,4.091499999999996],[0.05697916666666671,0.00592592592592601,4.108300000190731],[0.05770833333333331,-0.01907407407407399,4.1248000001907315],[0.04593750000000003,0.024629629629629547,4.141500000000001],[0.041666666666666664,0.06962962962962967,4.158199999809263],[0.041666666666666664,0.06962962962962967,4.174800000190736],[0.0375,0.06092592592592588,4.1914000000953635],[0.024166666666666715,0.10925925925925926,4.210300000190735],[0.018437500000000048,0.16999999999999993,4.226999999999997],[0.008020833333333382,0.2175925925925926,4.245199999809266],[0.008020833333333382,0.2175925925925926,4.25809999990463],[-0.030312500000000023,0.2485185185185186,4.274800000190737],[-0.030312500000000023,0.2485185185185186,4.291499999999999],[-0.04583333333333333,0.22444444444444453,4.308199999809261],[-0.04583333333333333,0.22444444444444453,4.324800000190734],[-0.052187500000000026,0.2638888888888889,4.341499999999996],[-0.052187500000000026,0.2638888888888889,4.3581999998092655],[-0.08166666666666664,0.3212962962962963,4.374699999809266],[-0.08166666666666664,0.3212962962962963,4.391500000000001],[-0.10177083333333338,0.2818518518518519,4.408199999809263],[-0.10177083333333338,0.2818518518518519,4.424800000190736],[-0.121875,0.24240740740740738,4.4414000000953635],[-0.121875,0.24240740740740738,4.458099999904633],[-0.14156249999999998,0.23944444444444435,4.474800000190733],[-0.14156249999999998,0.23944444444444435,4.491500000000002],[-0.11437499999999995,0.22388888888888886,4.513900000095369],[-0.11437499999999995,0.22388888888888886,4.524800000190737],[-0.10812499999999996,0.1838888888888888,4.541499999999999],[-0.10812499999999996,0.1838888888888888,4.558199999809261],[-0.0828125,0.14722222222222223,4.574800000190734],[-0.0828125,0.14722222222222223,4.591400000095369],[-0.04364583333333331,0.1198148148148149,4.6081999998092655],[-0.04364583333333331,0.1198148148148149,4.624900000095366],[-0.009895833333333333,0.14388888888888898,4.641400000095366],[0.014374999999999952,0.07240740740740745,4.660800000190733],[0.05677083333333333,0.047037037037036995,4.676199999809263],[0.0978125000000001,0.05925925925925926,4.6935],[0.1388541666666666,0.07148148148148152,4.710300000190735],[0.18166666666666675,0.09944444444444453,4.727400000095365],[0.18718750000000003,0.11129629629629634,4.7428000001907336],[0.17697916666666677,0.1300000000000001,4.75809999990463],[0.15239583333333329,0.15851851851851856,4.774800000190737],[0.1478125000000001,0.19907407407407407,4.793599999904629],[0.1443749999999999,0.22629629629629638,4.808199999809261],[0.1412499999999999,0.2855555555555556,4.824800000190734],[0.12645833333333342,0.30037037037037045,4.841499999999996],[0.11614583333333334,0.30574074074074076,4.858099999904631],[0.10593750000000005,0.2838888888888888,4.8748000001907315],[0.10020833333333339,0.3088888888888888,4.897500000000001],[0.10020833333333339,0.3088888888888888,4.917199999809263],[0.08479166666666677,0.2992592592592593,4.9339999999999975],[0.08479166666666677,0.2992592592592593,4.941499999999998],[0.09385416666666657,0.297037037037037,4.958099999904633],[0.10479166666666657,0.28851851851851845,4.974800000190733],[0.09479166666666666,0.23481481481481473,4.991500000000002],[0.0921875,0.20333333333333325,5.00809999990463],[0.0921875,0.20333333333333325,5.025199999809267],[0.09500000000000004,0.17518518518518522,5.0415999999046335],[0.08718750000000004,0.14296296296296304,5.059599999904634],[0.08145833333333338,0.10555555555555556,5.076999999999998],[0.08833333333333329,0.09685185185185177,5.091699999809265],[0.0884375000000001,0.04277777777777782,5.108099999904631],[0.0884375000000001,0.04277777777777782,5.1274000000953635],[0.10614583333333343,0.049629629629629544,5.141699999809262],[0.11875,0.028703703703703703,5.159300000190733],[0.12937500000000005,0.007962962962962878,5.17790000009537],[0.12937500000000005,0.007962962962962878,5.191599999904632],[0.13645833333333332,0.08814814814814818,5.2084000000953665],[0.1336458333333333,0.14000000000000004,5.227699999809268],[0.15854166666666672,0.2368518518518518,5.243000000000002],[0.17312500000000006,0.31555555555555553,5.25809999990463],[0.18760416666666657,0.38870370370370366,5.274800000190737],[0.19197916666666662,0.45444444444444443,5.294900000095367],[0.17864583333333334,0.524074074074074,5.312599999904634],[0.1609375,0.48296296296296287,5.328300000190737],[0.15354166666666677,0.49833333333333335,5.3444999999999965],[0.1462500000000001,0.519814814814815,5.359199999809263],[0.12708333333333333,0.42296296296296293,5.377800000190732],[0.12416666666666672,0.3387037037037037,5.391599999904635],[0.0943749999999999,0.20629629629629626,5.408300000190735]]","[0.00040000009536811376,0.060300000190736114,0.07490000009536857,0.09159999990463064,0.10830000019073083,0.12490000009536573,0.14150000000000063,0.16330000019073054,0.17490000009537,0.19159999990463206,0.2089000000953689,0.22480000019073287,0.24159999990462921,0.2581999998092641,0.2749000000953643,0.2914999999999992,0.30840000009536794,0.3248000001907343,0.34149999999999636,0.35819999980926553,0.3749000000953657,0.39169999980926207,0.4083000001907351,0.42490000009537,0.44159999990463206,0.45819999980926696,0.47490000009536715,0.49230000019073117,0.5083000001907365,0.5249000000953643,0.5414999999999992,0.5586999998092637,0.5748000001907343,0.5914999999999964,0.6109000000953699,0.6266999998092615,0.6418000001907345,0.6604000000953647,0.676800000190731,0.6941999998092641,0.7103000001907347,0.7256999998092653,0.7445000000000022,0.7616999998092666,0.7764999999999986,0.796999999999997,0.8081999998092613,0.8249999999999957,0.8416999998092649,0.8614000000953652,0.8750999999046343,0.8916999998092621,0.9081999998092627,0.9275999999046292,0.9414999999999978,0.960400000095369,0.9830999999046313,0.9916999998092635,1.008499999999998,1.0250999999046329,1.045900000095365,1.0581999998092613,1.0751999998092643,1.0959999999999965,1.113199999809261,1.1285000000000025,1.1448000001907346,1.1584000000953694,1.1751999998092657,1.1925000000000026,1.2109999999999985,1.2248000001907329,1.2434999999999974,1.2583000001907365,1.277000000000001,1.2934000000953674,1.309199999809266,1.3275999999046348,1.341699999809265,1.358400000095365,1.3770999999046296,1.3918000001907345,1.410900000095367,1.4249999999999972,1.4414999999999978,1.458199999809267,1.4768000001907353,1.4918000001907359,1.5085999999046322,1.5249000000953643,1.5414999999999992,1.5581999998092613,1.5748000001907343,1.5914999999999964,1.6081999998092655,1.6249000000953657,1.6415000000000006,1.6581999998092627,1.67490000009537,1.691599999904632,1.7110999999046328,1.7280999999046287,1.741500000000002,1.7581999998092641,1.7749000000953643,1.7914999999999992,1.8081999998092613,1.8248000001907343,1.8414999999999964,1.8580999999046313,1.8748000001907315,1.8918000001907345,1.9081999998092627,1.92490000009537,1.941599999904632,1.964099999904633,1.9780999999046287,1.9919000000953702,2.008199999809264,2.027699999809265,2.0415999999046335,2.058400000095368,2.0749000000953686,2.0915999999046306,2.108800000190733,2.1248000001907315,2.1415000000000006,2.158300000190735,2.1748000001907357,2.19409999990463,2.2095999999046327,2.224800000190733,2.241599999904629,2.2583000001907365,2.2749000000953643,2.2915999999046335,2.3083000001907337,2.3248000001907343,2.3414999999999964,2.3581999998092655,2.3748000001907315,2.397199999809267,2.4081999998092627,2.424999999999997,2.441499999999998,2.458199999809267,2.474800000190733,2.4994999999999976,2.508199999809264,2.5249000000953643,2.5429999999999993,2.5581999998092613,2.5748000001907343,2.5929999999999964,2.611300000190731,2.627199999809264,2.6415000000000006,2.6581999998092627,2.6748000001907357,2.693099999904632,2.711599999904635,2.7276999998092677,2.742900000095368,2.758199999809264,2.7749000000953643,2.791499999999999,2.8108000001907314,2.826900000095364,2.8414999999999964,2.8581999998092655,2.8748000001907315,2.8915000000000006,2.9096999998092627,2.927800000190736,2.944199999809264,2.9583000001907322,2.974800000190733,2.991500000000002,3.009999999999998,3.0278000001907373,3.0415999999046335,3.0583000001907337,3.0748000001907343,3.091699999809265,3.1114999999999995,3.1274999999999977,3.1444000000953665,3.160900000095367,3.178199999809266,3.1925999999046297,3.2109000000953642,3.2295000000000016,3.244900000095363,3.261800000190732,3.2749999999999986,3.2956999998092655,3.308400000095368,3.32509999990463,3.3444000000953693,3.358400000095365,3.375,3.3918000001907345,3.412300000190733,3.4288000001907335,3.4436999998092617,3.4583000001907322,3.474900000095367,3.494500000000002,3.5086999998092665,3.526699999809267,3.541499999999999,3.560699999809266,3.57509999990463,3.594000000000001,3.61090000009537,3.626800000190734,3.6414000000953664,3.6606999998092675,3.674999999999997,3.691499999999998,3.7121999998092647,3.7280999999046287,3.74190000009537,3.7595000000000027,3.775099999904633,3.7929999999999993,3.8130000000000024,3.8249000000953686,3.8415999999046306,3.858300000190731,3.8749000000953657,3.8948000001907346,3.9129999999999967,3.9284999999999997,3.944499999999998,3.9616999998092624,3.978499999999997,3.994099999904634,4.008199999809264,4.025800000190735,4.041499999999999,4.058199999809261,4.07959999990463,4.091499999999996,4.108300000190731,4.1248000001907315,4.141500000000001,4.158199999809263,4.174800000190736,4.1914000000953635,4.210300000190735,4.226999999999997,4.245199999809266,4.25809999990463,4.274800000190737,4.291499999999999,4.308199999809261,4.324800000190734,4.341499999999996,4.3581999998092655,4.374699999809266,4.391500000000001,4.408199999809263,4.424800000190736,4.4414000000953635,4.458099999904633,4.474800000190733,4.491500000000002,4.513900000095369,4.524800000190737,4.541499999999999,4.558199999809261,4.574800000190734,4.591400000095369,4.6081999998092655,4.624900000095366,4.641400000095366,4.660800000190733,4.676199999809263,4.6935,4.710300000190735,4.727400000095365,4.7428000001907336,4.75809999990463,4.774800000190737,4.793599999904629,4.808199999809261,4.824800000190734,4.841499999999996,4.858099999904631,4.8748000001907315,4.897500000000001,4.917199999809263,4.9339999999999975,4.941499999999998,4.958099999904633,4.974800000190733,4.991500000000002,5.00809999990463,5.025199999809267,5.0415999999046335,5.059599999904634,5.076999999999998,5.091699999809265,5.108099999904631,5.1274000000953635,5.141699999809262,5.159300000190733,5.17790000009537,5.191599999904632,5.2084000000953665,5.227699999809268,5.243000000000002,5.25809999990463,5.274800000190737,5.294900000095367,5.312599999904634,5.328300000190737,5.3444999999999965,5.359199999809263,5.377800000190732,5.391599999904635,5.408300000190735]","[1731991200873,1731991200923,1731991200938,1731991200955,1731991200971,1731991200988,1731991201005,1731991201026,1731991201038,1731991201055,1731991201072,1731991201088,1731991201105,1731991201121,1731991201138,1731991201155,1731991201171,1731991201188,1731991201205,1731991201221,1731991201238,1731991201255,1731991201271,1731991201288,1731991201305,1731991201321,1731991201338,1731991201355,1731991201371,1731991201388,1731991201405,1731991201422,1731991201438,1731991201455,1731991201474,1731991201490,1731991201505,1731991201523,1731991201540,1731991201557,1731991201573,1731991201589,1731991201608,1731991201625,1731991201640,1731991201660,1731991201671,1731991201688,1731991201705,1731991201724,1731991201738,1731991201755,1731991201771,1731991201791,1731991201805,1731991201823,1731991201846,1731991201855,1731991201871,1731991201888,1731991201909,1731991201921,1731991201938,1731991201959,1731991201976,1731991201991,1731991202008,1731991202021,1731991202038,1731991202056,1731991202074,1731991202088,1731991202106,1731991202121,1731991202140,1731991202156,1731991202172,1731991202191,1731991202205,1731991202221,1731991202240,1731991202255,1731991202274,1731991202288,1731991202305,1731991202321,1731991202340,1731991202355,1731991202372,1731991202388,1731991202405,1731991202421,1731991202438,1731991202455,1731991202471,1731991202488,1731991202505,1731991202521,1731991202538,1731991202555,1731991202574,1731991202591,1731991202605,1731991202621,1731991202638,1731991202655,1731991202671,1731991202688,1731991202705,1731991202721,1731991202738,1731991202755,1731991202771,1731991202788,1731991202805,1731991202827,1731991202841,1731991202855,1731991202871,1731991202891,1731991202905,1731991202921,1731991202938,1731991202955,1731991202972,1731991202988,1731991203005,1731991203021,1731991203038,1731991203057,1731991203073,1731991203088,1731991203105,1731991203121,1731991203138,1731991203155,1731991203171,1731991203188,1731991203205,1731991203221,1731991203238,1731991203260,1731991203271,1731991203288,1731991203305,1731991203321,1731991203338,1731991203363,1731991203371,1731991203388,1731991203406,1731991203421,1731991203438,1731991203456,1731991203474,1731991203490,1731991203505,1731991203521,1731991203538,1731991203556,1731991203575,1731991203591,1731991203606,1731991203621,1731991203638,1731991203655,1731991203674,1731991203690,1731991203705,1731991203721,1731991203738,1731991203755,1731991203773,1731991203791,1731991203807,1731991203821,1731991203838,1731991203855,1731991203873,1731991203891,1731991203905,1731991203921,1731991203938,1731991203955,1731991203974,1731991203991,1731991204007,1731991204024,1731991204041,1731991204056,1731991204074,1731991204093,1731991204108,1731991204125,1731991204138,1731991204159,1731991204171,1731991204188,1731991204207,1731991204221,1731991204238,1731991204255,1731991204275,1731991204292,1731991204307,1731991204321,1731991204338,1731991204358,1731991204372,1731991204390,1731991204405,1731991204424,1731991204438,1731991204457,1731991204474,1731991204490,1731991204504,1731991204524,1731991204538,1731991204555,1731991204575,1731991204591,1731991204605,1731991204623,1731991204638,1731991204656,1731991204676,1731991204688,1731991204705,1731991204721,1731991204738,1731991204758,1731991204776,1731991204792,1731991204807,1731991204825,1731991204842,1731991204857,1731991204871,1731991204889,1731991204905,1731991204921,1731991204943,1731991204955,1731991204971,1731991204988,1731991205004,1731991205021,1731991205038,1731991205055,1731991205073,1731991205090,1731991205108,1731991205121,1731991205138,1731991205154,1731991205171,1731991205188,1731991205205,1731991205221,1731991205238,1731991205255,1731991205271,1731991205288,1731991205304,1731991205321,1731991205338,1731991205354,1731991205377,1731991205388,1731991205404,1731991205421,1731991205438,1731991205454,1731991205471,1731991205488,1731991205504,1731991205524,1731991205539,1731991205557,1731991205573,1731991205590,1731991205606,1731991205621,1731991205638,1731991205657,1731991205671,1731991205688,1731991205704,1731991205721,1731991205738,1731991205761,1731991205780,1731991205797,1731991205804,1731991205821,1731991205838,1731991205854,1731991205871,1731991205888,1731991205905,1731991205923,1731991205940,1731991205955,1731991205971,1731991205990,1731991206005,1731991206022,1731991206041,1731991206055,1731991206071,1731991206091,1731991206106,1731991206121,1731991206138,1731991206158,1731991206176,1731991206191,1731991206208,1731991206222,1731991206241,1731991206255,1731991206271]","[[844.5,476.4],[844.5,476.4],[843.8,459.1],[843.8,459.1],[852.7,455.2],[852.7,455.2],[868.6,459.5],[881.5,467.6],[881.5,467.6],[878.7,460.6],[878.7,460.6],[901.6,472.5],[901.6,472.5],[917.5,472.5],[917.5,472.5],[938.6,481],[938.6,481],[949.1,489.8],[949.1,489.8],[964.1,497.6],[964.1,497.6],[975.1,516.2],[975.1,516.2],[985.1,523.4],[985.1,523.4],[984.4,524.5],[992.9,519.8],[1017.1,530.2],[1017.1,530.2],[1005.4,546.5],[1001.3,557.5],[997.3,570.4],[999.1,570.6],[989.1,572.5],[985.7,568.6],[973.7,562.7],[958.3,568.6],[928.4,575],[899.9,589.4],[896.8,583.6],[887.5,579.6],[868.8,571.7],[853.5,571.2],[869.8,580.5],[889.2,597.4],[905.7,617.4],[905.7,617.4],[927.5,617],[953.1,618.7],[953.1,618.7],[973.8,609.6],[973.8,609.6],[979.4,610],[979.4,610],[978.8,618],[993.1,622.8],[1005.1,635],[1005.1,635],[994.1,626],[994.1,626],[983.1,617],[983.1,617],[1002.9,619.2],[1037.8,637.3],[1037.8,637.3],[1035.9,633.2],[1043.5,644.5],[1060.9,641.9],[1080,636.6],[1114.7,629.2],[1151.7,614.4],[1157,611.4],[1162.4,605.8],[1139.9,585.9],[1086,563.8],[1082,564.5],[1093.8,562.6],[1098.9,563.5],[1096.9,546.7],[1073.8,539.1],[1047.1,538.6],[1045.6,536.4],[1048.3,540.8],[1051,545.2],[1072.2,555.3],[1076.5,562.7],[1066.5,540.2],[1048.2,536.5],[1047.3,543.6],[1056,549.9],[1084.9,547.9],[1070.7,546.2],[1052.2,540.5],[1017.1,526.8],[983.5,505.3],[949.9,483.8],[920.6,485.3],[906.8,475.4],[904.2,464.8],[892,455],[872.6,464.1],[894.2,474.2],[931.2,474.3],[972,479.2],[1009.2,484.3],[1046.4,489.4],[1067.4,497.5],[1088.4,505.6],[1095.5,520.3],[1102.6,535],[1112.4,526],[1120.4,520.5],[1113,525],[1126.4,527.9],[1151.3,536.4],[1160,541.4],[1173.1,540.3],[1191.8,538.8],[1206.6,541.5],[1221.4,544.2],[1221.4,544.2],[1223.9,548],[1223.9,548],[1223.5,552.7],[1221.6,560.8],[1221.6,560.8],[1211.7,573.7],[1211.7,573.7],[1182.4,559.8],[1186.9,557.9],[1169.3,547.9],[1148.4,538.9],[1126.2,539.5],[1126.2,539.5],[1105.4,540.5],[1105.4,540.5],[1099,554.7],[1099,554.7],[1080.5,556.8],[1080.5,556.8],[1073.6,559.8],[1067,567.2],[1067,567.2],[1080.6,598.3],[1080.6,598.3],[1067.1,619.6],[1082.6,647],[1085.1,671.3],[1085.1,671.3],[1091.3,689.7],[1099.2,708.4],[1092.9,718.8],[1088.8,728.6],[1074.6,734.1],[1063.4,735],[1043.5,733.2],[1041.6,738.6],[1032.8,746],[1025.4,745.4],[1019.8,729.4],[1011.1,712.7],[995.4,704.3],[994.3,704.2],[998.1,700.8],[998.6,697.6],[997.6,692.4],[988.1,681.3],[974.5,660.6],[974.5,660.6],[963.8,657.1],[960.8,657.4],[957.8,657.7],[964.8,650.5],[971.8,643.3],[972.4,639.2],[973,635.1],[977.6,629.1],[982.2,623.1],[994.7,644.1],[1013.6,658.4],[1013.6,658.4],[1023.3,657],[1023.3,657],[1034.3,655.7],[1042.7,662.2],[1060.2,683.8],[1079.2,705.6],[1088.4,713.6],[1105.1,731.3],[1090.5,733.9],[1072.1,719.1],[1053.7,704.3],[1049.2,699.2],[1058.9,689.9],[1058.9,689.9],[1069.4,670.2],[1069.4,670.2],[1052.6,636.7],[1033.9,612.3],[1027.7,587.3],[1003.6,560.8],[1010.8,549.4],[1027,573.3],[1049.4,581.3],[1056,595.1],[1050.3,603.4],[1040.9,594.7],[1040.9,594.7],[1036,592.9],[1042,588.6],[1045.3,598.7],[1050.5,591.8],[1053.4,589.2],[1046,550],[1025.5,527.7],[1002.3,508.4],[983.6,507.3],[967.4,525],[982.1,546.7],[987.8,561.8],[987.8,571.4],[993.8,593.7],[1006.7,623.4],[1019.7,642.3],[1036.8,665],[1056.6,684.7],[1068.1,696.7],[1068.1,696.7],[1080.4,702.2],[1080.4,702.2],[1075.5,695.5],[1072.9,683.1],[1076,676.2],[1076.9,668.2],[1073.2,648.5],[1063.5,640.2],[1056.6,627.1],[1049.3,598.7],[1042.6,569.4],[1035.1,546.6],[1035.1,546.6],[1041.7,535.6],[1028.2,539.4],[1028.2,539.4],[1014.7,543.2],[1015.4,529.7],[1004.1,553.3],[1000,577.6],[1000,577.6],[996,572.9],[983.2,599],[977.7,631.8],[967.7,657.5],[967.7,657.5],[930.9,674.2],[930.9,674.2],[916,661.2],[916,661.2],[909.9,682.5],[909.9,682.5],[881.6,713.5],[881.6,713.5],[862.3,692.2],[862.3,692.2],[843,670.9],[843,670.9],[824.1,669.3],[824.1,669.3],[850.2,660.9],[850.2,660.9],[856.2,639.3],[856.2,639.3],[880.5,619.5],[880.5,619.5],[918.1,604.7],[918.1,604.7],[950.5,617.7],[973.8,579.1],[1014.5,565.4],[1053.9,572],[1093.3,578.6],[1134.4,593.7],[1139.7,600.1],[1129.9,610.2],[1106.3,625.6],[1101.9,647.5],[1098.6,662.2],[1095.6,694.2],[1081.4,702.2],[1071.5,705.1],[1061.7,693.3],[1056.2,706.8],[1056.2,706.8],[1041.4,701.6],[1041.4,701.6],[1050.1,700.4],[1060.6,695.8],[1051,666.8],[1048.5,649.8],[1048.5,649.8],[1051.2,634.6],[1043.7,617.2],[1038.2,597],[1044.8,592.3],[1044.9,563.1],[1044.9,563.1],[1061.9,566.8],[1074,555.5],[1084.2,544.3],[1084.2,544.3],[1091,587.6],[1088.3,615.6],[1112.2,667.9],[1126.2,710.4],[1140.1,749.9],[1144.3,785.4],[1131.5,823],[1114.5,800.8],[1107.4,809.1],[1100.4,820.7],[1082,768.4],[1079.2,722.9],[1050.6,651.4]]","[-0.056692,0.170076]","[0.056692,0.170076]","[0.170076,0.170076]","[-0.170076,0.056692]","[-0.170076,-0.170076]","[-0.170076,-0.056692]","[-0.056692,0.056692]","[0.056692,0.056692]","[0.170076,0.056692]","[-0.056692,-0.170076]","[0.056692,-0.170076]","[0.170076,-0.170076]","[-0.056692,-0.056692]","[0.056692,-0.056692]","[0.170076,-0.056692]",0,0,0,0,1,3,Smartphone,25,40,9,1,50,4,1,60,5
