inst1_resp.keys,inst1_resp.rt,calibrationMouse.x,calibrationMouse.y,calibrationMouse.leftButton,calibrationMouse.midButton,calibrationMouse.rightButton,calibrationClick.x,calibrationClick.y,calibrationClick.leftButton,calibrationClick.midButton,calibrationClick.rightButton,calibrationClick.clicked_name,trialsc.thisRepN,trialsc.thisTrialN,trialsc.thisN,trialsc.thisIndex,trialsc.ran,calibration_x,calibration_y,participant,session,date,expName,psychopyVersion,OS,frameRate,ScreenRes_pixels,Camera_pixels,mouse_2.x,mouse_2.y,mouse_2.leftButton,mouse_2.midButton,mouse_2.rightButton,mouse_2.time,mouse_2.clicked_name,mouse.x,mouse.y,mouse.leftButton,mouse.midButton,mouse.rightButton,mouse.time,mouse.clicked_name,Choice,Trial,TrialDuration,MOUSE_GAZE,ET_GAZE,ET_GAZE_x_T,time,unixTime,ET_GAZE_NF,Loc_Bus_label,Loc_Metro_label,Loc_RH_label,Loc_Cost_label,Loc_Travel_label,Loc_Comfort_label,Loc_Bus_cost,Loc_Metro_cost,Loc_RH_cost,Loc_Bus_travel,Loc_Metro_travel,Loc_RH_travel,Loc_Bus_comfort,Loc_Metro_comfort,Loc_RH_comfort,trials.thisRepN,trials.thisTrialN,trials.thisN,trials.thisIndex,trials.ran,Block,Device,RH_cost,RH_travel_time,RH_Comfort,metro_cost,metro_travel_time,metro_Comfort,Bus_cost,Bus_travel_time,Bus_Comfort
space,4.2724,0.240625,0.192592593,1,0,0,-0.321875,0.007407407,1,0,0,calibration_square,0,0,0,6,1,-0.33,0,35,001,2024-11-19_12h48.08.661,Attention_exp_legacy,2023.1.0,Win32,59.88023952,,,,,,,,,,,,,,,,,,,,,,,,,,,,,,,,,,,,,,,,,,,,,,,,,,,,,,,,
,,,,,,,0.328125,-0.007407407,1,0,0,calibration_square,0,1,1,16,1,0.33,0,35,001,2024-11-19_12h48.08.661,Attention_exp_legacy,2023.1.0,Win32,59.88023952,,,,,,,,,,,,,,,,,,,,,,,,,,,,,,,,,,,,,,,,,,,,,,,,,,,,,,,,
,,,,,,,0.33125,0.677777778,1,0,0,calibration_square,0,2,2,18,1,0.33,0.67,35,001,2024-11-19_12h48.08.661,Attention_exp_legacy,2023.1.0,Win32,59.88023952,,,,,,,,,,,,,,,,,,,,,,,,,,,,,,,,,,,,,,,,,,,,,,,,,,,,,,,,
,,,,,,,-0.669791667,-0.337037037,1,0,0,calibration_square,0,3,3,1,1,-0.67,-0.33,35,001,2024-11-19_12h48.08.661,Attention_exp_legacy,2023.1.0,Win32,59.88023952,,,,,,,,,,,,,,,,,,,,,,,,,,,,,,,,,,,,,,,,,,,,,,,,,,,,,,,,
,,,,,,,-0.332291667,-0.322222222,1,0,0,calibration_square,0,4,4,5,1,-0.33,-0.33,35,001,2024-11-19_12h48.08.661,Attention_exp_legacy,2023.1.0,Win32,59.88023952,,,,,,,,,,,,,,,,,,,,,,,,,,,,,,,,,,,,,,,,,,,,,,,,,,,,,,,,
,,,,,,,-0.325,0.655555556,1,0,0,,0,5,5,8,1,-0.33,0.67,35,001,2024-11-19_12h48.08.661,Attention_exp_legacy,2023.1.0,Win32,59.88023952,,,,,,,,,,,,,,,,,,,,,,,,,,,,,,,,,,,,,,,,,,,,,,,,,,,,,,,,
,,,,,,,-0.316666667,0.333333333,1,0,0,,0,6,6,7,1,-0.33,0.33,35,001,2024-11-19_12h48.08.661,Attention_exp_legacy,2023.1.0,Win32,59.88023952,,,,,,,,,,,,,,,,,,,,,,,,,,,,,,,,,,,,,,,,,,,,,,,,,,,,,,,,
,,,,,,,0.001041667,0.353703704,1,0,0,,0,7,7,12,1,0,0.33,35,001,2024-11-19_12h48.08.661,Attention_exp_legacy,2023.1.0,Win32,59.88023952,,,,,,,,,,,,,,,,,,,,,,,,,,,,,,,,,,,,,,,,,,,,,,,,,,,,,,,,
,,,,,,,0.329166667,-0.655555556,1,0,0,,0,8,8,14,1,0.33,-0.67,35,001,2024-11-19_12h48.08.661,Attention_exp_legacy,2023.1.0,Win32,59.88023952,,,,,,,,,,,,,,,,,,,,,,,,,,,,,,,,,,,,,,,,,,,,,,,,,,,,,,,,
,,,,,,,0.008333333,-0.333333333,1,0,0,calibration_square,0,9,9,10,1,0,-0.33,35,001,2024-11-19_12h48.08.661,Attention_exp_legacy,2023.1.0,Win32,59.88023952,,,,,,,,,,,,,,,,,,,,,,,,,,,,,,,,,,,,,,,,,,,,,,,,,,,,,,,,
,,,,,,,-0.677083333,-0.677777778,1,0,0,calibration_square,0,10,10,0,1,-0.67,-0.67,35,001,2024-11-19_12h48.08.661,Attention_exp_legacy,2023.1.0,Win32,59.88023952,,,,,,,,,,,,,,,,,,,,,,,,,,,,,,,,,,,,,,,,,,,,,,,,,,,,,,,,
,,,,,,,0.657291667,-0.687037037,1,0,0,,0,11,11,20,1,0.67,-0.67,35,001,2024-11-19_12h48.08.661,Attention_exp_legacy,2023.1.0,Win32,59.88023952,,,,,,,,,,,,,,,,,,,,,,,,,,,,,,,,,,,,,,,,,,,,,,,,,,,,,,,,
,,,,,,,-0.661458333,-0.016666667,1,0,0,,0,12,12,2,1,-0.67,0,35,001,2024-11-19_12h48.08.661,Attention_exp_legacy,2023.1.0,Win32,59.88023952,,,,,,,,,,,,,,,,,,,,,,,,,,,,,,,,,,,,,,,,,,,,,,,,,,,,,,,,
,,,,,,,-0.013541667,0.672222222,1,0,0,,0,13,13,13,1,0,0.67,35,001,2024-11-19_12h48.08.661,Attention_exp_legacy,2023.1.0,Win32,59.88023952,,,,,,,,,,,,,,,,,,,,,,,,,,,,,,,,,,,,,,,,,,,,,,,,,,,,,,,,
,,,,,,,-0.004166667,-0.683333333,1,0,0,,0,14,14,9,1,0,-0.67,35,001,2024-11-19_12h48.08.661,Attention_exp_legacy,2023.1.0,Win32,59.88023952,,,,,,,,,,,,,,,,,,,,,,,,,,,,,,,,,,,,,,,,,,,,,,,,,,,,,,,,
,,,,,,,0.327083333,0.311111111,1,0,0,,0,15,15,17,1,0.33,0.33,35,001,2024-11-19_12h48.08.661,Attention_exp_legacy,2023.1.0,Win32,59.88023952,,,,,,,,,,,,,,,,,,,,,,,,,,,,,,,,,,,,,,,,,,,,,,,,,,,,,,,,
,,,,,,,0.011458333,0.005555556,1,0,0,,0,16,16,11,1,0,0,35,001,2024-11-19_12h48.08.661,Attention_exp_legacy,2023.1.0,Win32,59.88023952,,,,,,,,,,,,,,,,,,,,,,,,,,,,,,,,,,,,,,,,,,,,,,,,,,,,,,,,
,,,,,,,0.675,0.659259259,1,0,0,,0,17,17,19,1,0.67,0.67,35,001,2024-11-19_12h48.08.661,Attention_exp_legacy,2023.1.0,Win32,59.88023952,,,,,,,,,,,,,,,,,,,,,,,,,,,,,,,,,,,,,,,,,,,,,,,,,,,,,,,,
,,,,,,,0.329166667,-0.324074074,1,0,0,calibration_square,0,18,18,15,1,0.33,-0.33,35,001,2024-11-19_12h48.08.661,Attention_exp_legacy,2023.1.0,Win32,59.88023952,,,,,,,,,,,,,,,,,,,,,,,,,,,,,,,,,,,,,,,,,,,,,,,,,,,,,,,,
,,,,,,,-0.332291667,-0.687037037,1,0,0,,0,19,19,4,1,-0.33,-0.67,35,001,2024-11-19_12h48.08.661,Attention_exp_legacy,2023.1.0,Win32,59.88023952,,,,,,,,,,,,,,,,,,,,,,,,,,,,,,,,,,,,,,,,,,,,,,,,,,,,,,,,
,,,,,,,-0.665625,0.324074074,1,0,0,calibration_square,0,20,20,3,1,-0.67,0.33,35,001,2024-11-19_12h48.08.661,Attention_exp_legacy,2023.1.0,Win32,59.88023952,,,,,,,,,,,,,,,,,,,,,,,,,,,,,,,,,,,,,,,,,,,,,,,,,,,,,,,,
,,,,,,,,,,,,,,,,,,,,35,001,2024-11-19_12h48.08.661,Attention_exp_legacy,2023.1.0,Win32,59.88023952,"[1920,1080]","[640,480]",[0.00625],[-0.4925925925925926],[1],[0],[0],[2.3086999998092637],"[""StartButton""]",[0.546875],[0.5888888888888889],[1],[0],[0],[7.29630000019074],"[""RH_label""]",RH_label,1,8.3114,"[[0.06979166666666667,-0.05925925925925926],[0.06979166666666667,-0.05740740740740741],[0.06979166666666667,-0.05740740740740741],[0.06979166666666667,-0.05740740740740741],[0.06979166666666667,-0.05740740740740741],[0.06979166666666667,-0.05740740740740741],[0.06875,-0.05740740740740741],[0.06875,-0.05740740740740741],[0.06875,-0.05740740740740741],[0.06875,-0.05740740740740741],[0.06875,-0.05740740740740741],[0.06875,-0.05740740740740741],[0.06770833333333333,-0.05740740740740741],[0.06770833333333333,-0.05740740740740741],[0.06770833333333333,-0.05740740740740741],[0.06666666666666667,-0.05740740740740741],[0.065625,-0.05740740740740741],[0.065625,-0.05740740740740741],[0.06354166666666666,-0.05925925925925926],[0.0625,-0.05925925925925926],[0.06041666666666667,-0.06111111111111111],[0.059375,-0.06111111111111111],[0.057291666666666664,-0.06296296296296296],[0.05625,-0.06296296296296296],[0.05520833333333333,-0.06481481481481481],[0.05520833333333333,-0.06481481481481481],[0.053125,-0.06481481481481481],[0.053125,-0.06481481481481481],[0.052083333333333336,-0.06481481481481481],[0.052083333333333336,-0.06481481481481481],[0.052083333333333336,-0.06481481481481481],[0.052083333333333336,-0.06481481481481481],[0.052083333333333336,-0.06481481481481481],[0.052083333333333336,-0.06481481481481481],[0.052083333333333336,-0.06481481481481481],[0.052083333333333336,-0.06481481481481481],[0.052083333333333336,-0.06481481481481481],[0.052083333333333336,-0.06481481481481481],[0.052083333333333336,-0.06481481481481481],[0.052083333333333336,-0.06481481481481481],[0.05,-0.06481481481481481],[0.04791666666666667,-0.06666666666666667],[0.04791666666666667,-0.06666666666666667],[0.046875,-0.06666666666666667],[0.046875,-0.06666666666666667],[0.046875,-0.06666666666666667],[0.046875,-0.06666666666666667],[0.046875,-0.07037037037037037],[0.046875,-0.07037037037037037],[0.04895833333333333,-0.07037037037037037],[0.04895833333333333,-0.07037037037037037],[0.051041666666666666,-0.07037037037037037],[0.052083333333333336,-0.07037037037037037],[0.05416666666666667,-0.06851851851851852],[0.05416666666666667,-0.06666666666666667],[0.05416666666666667,-0.05925925925925926],[0.05520833333333333,-0.053703703703703705],[0.05520833333333333,-0.05185185185185185],[0.05520833333333333,-0.05],[0.05520833333333333,-0.04814814814814815],[0.05520833333333333,-0.04814814814814815],[0.05520833333333333,-0.04814814814814815],[0.05520833333333333,-0.04814814814814815],[0.05520833333333333,-0.04814814814814815],[0.05520833333333333,-0.04814814814814815],[0.05520833333333333,-0.04814814814814815],[0.05520833333333333,-0.04814814814814815],[0.05520833333333333,-0.04814814814814815],[0.05520833333333333,-0.04814814814814815],[0.05520833333333333,-0.04814814814814815],[0.05520833333333333,-0.04814814814814815],[0.05520833333333333,-0.044444444444444446],[0.05416666666666667,-0.044444444444444446],[0.05416666666666667,-0.044444444444444446],[0.05416666666666667,-0.044444444444444446],[0.05520833333333333,-0.04259259259259259],[0.05625,-0.040740740740740744],[0.075,-0.027777777777777776],[0.08541666666666667,-0.020370370370370372],[0.11458333333333333,0.001851851851851852],[0.12395833333333334,0.011111111111111112],[0.134375,0.024074074074074074],[0.13645833333333332,0.024074074074074074],[0.14895833333333333,0.03888888888888889],[0.15416666666666667,0.04259259259259259],[0.16979166666666667,0.05925925925925926],[0.17604166666666668,0.06481481481481481],[0.18125,0.07222222222222222],[0.18541666666666667,0.07962962962962963],[0.1875,0.08518518518518518],[0.19375,0.09259259259259259],[0.19791666666666666,0.10185185185185185],[0.20208333333333334,0.1111111111111111],[0.20625,0.11666666666666667],[0.21041666666666667,0.1259259259259259],[0.21354166666666666,0.13148148148148148],[0.215625,0.13518518518518519],[0.21666666666666667,0.13703703703703704],[0.21666666666666667,0.13703703703703704],[0.21666666666666667,0.13703703703703704],[0.21666666666666667,0.13703703703703704],[0.21666666666666667,0.13703703703703704],[0.21666666666666667,0.13703703703703704],[0.21666666666666667,0.13703703703703704],[0.21666666666666667,0.13703703703703704],[0.21666666666666667,0.13703703703703704],[0.21666666666666667,0.13703703703703704],[0.22083333333333333,0.13703703703703704],[0.240625,0.13703703703703704],[0.25729166666666664,0.13703703703703704],[0.278125,0.13703703703703704],[0.3,0.13333333333333333],[0.3177083333333333,0.12777777777777777],[0.3333333333333333,0.12222222222222222],[0.34791666666666665,0.11296296296296296],[0.35833333333333334,0.10925925925925926],[0.3645833333333333,0.10555555555555556],[0.365625,0.10555555555555556],[0.365625,0.1037037037037037],[0.365625,0.1037037037037037],[0.365625,0.1037037037037037],[0.365625,0.1037037037037037],[0.365625,0.1037037037037037],[0.365625,0.1037037037037037],[0.365625,0.1037037037037037],[0.365625,0.1037037037037037],[0.365625,0.1037037037037037],[0.365625,0.1037037037037037],[0.365625,0.1037037037037037],[0.365625,0.1037037037037037],[0.365625,0.10185185185185185],[0.365625,0.09814814814814815],[0.3645833333333333,0.09259259259259259],[0.36354166666666665,0.08703703703703704],[0.3625,0.08333333333333333],[0.359375,0.07407407407407407],[0.3572916666666667,0.06851851851851852],[0.35625,0.06296296296296296],[0.3541666666666667,0.05555555555555555],[0.35104166666666664,0.04814814814814815],[0.35,0.04259259259259259],[0.34791666666666665,0.037037037037037035],[0.34479166666666666,0.02962962962962963],[0.34270833333333334,0.024074074074074074],[0.3416666666666667,0.014814814814814815],[0.3416666666666667,0.011111111111111112],[0.3385416666666667,0.001851851851851852],[0.33645833333333336,-0.003703703703703704],[0.33541666666666664,-0.011111111111111112],[0.33541666666666664,-0.016666666666666666],[0.334375,-0.022222222222222223],[0.334375,-0.027777777777777776],[0.334375,-0.03333333333333333],[0.334375,-0.03333333333333333],[0.334375,-0.03518518518518519],[0.334375,-0.03888888888888889],[0.334375,-0.040740740740740744],[0.334375,-0.044444444444444446],[0.334375,-0.05555555555555555],[0.334375,-0.06296296296296296],[0.334375,-0.07037037037037037],[0.334375,-0.07777777777777778],[0.334375,-0.09814814814814815],[0.334375,-0.10555555555555556],[0.334375,-0.11666666666666667],[0.334375,-0.12777777777777777],[0.334375,-0.13518518518518519],[0.334375,-0.1388888888888889],[0.334375,-0.14629629629629629],[0.334375,-0.15555555555555556],[0.334375,-0.16111111111111112],[0.334375,-0.16666666666666666],[0.334375,-0.17407407407407408],[0.334375,-0.18333333333333332],[0.334375,-0.1925925925925926],[0.334375,-0.20555555555555555],[0.3333333333333333,-0.21851851851851853],[0.33229166666666665,-0.22777777777777777],[0.33229166666666665,-0.23703703703703705],[0.3302083333333333,-0.24814814814814815],[0.3302083333333333,-0.2611111111111111],[0.328125,-0.2777777777777778],[0.325,-0.2962962962962963],[0.3229166666666667,-0.31851851851851853],[0.31875,-0.34074074074074073],[0.31666666666666665,-0.3648148148148148],[0.315625,-0.3907407407407407],[0.3125,-0.412962962962963],[0.31145833333333334,-0.43703703703703706],[0.3104166666666667,-0.4537037037037037],[0.3104166666666667,-0.48518518518518516],[0.3104166666666667,-0.49444444444444446],[0.3104166666666667,-0.5092592592592593],[0.3104166666666667,-0.5185185185185185],[0.3104166666666667,-0.5351851851851852],[0.3104166666666667,-0.5388888888888889],[0.31145833333333334,-0.5462962962962963],[0.3125,-0.5518518518518518],[0.31354166666666666,-0.5592592592592592],[0.315625,-0.562962962962963],[0.31875,-0.5648148148148148],[0.31875,-0.5648148148148148],[0.32083333333333336,-0.5648148148148148],[0.3229166666666667,-0.5648148148148148],[0.32395833333333335,-0.5648148148148148],[0.325,-0.5648148148148148],[0.3260416666666667,-0.5648148148148148],[0.3260416666666667,-0.562962962962963],[0.3260416666666667,-0.562962962962963],[0.3260416666666667,-0.562962962962963],[0.328125,-0.5592592592592592],[0.328125,-0.5574074074074075],[0.328125,-0.5555555555555556],[0.328125,-0.5537037037037037],[0.328125,-0.5518518518518518],[0.328125,-0.55],[0.328125,-0.5481481481481482],[0.328125,-0.5481481481481482],[0.328125,-0.5462962962962963],[0.328125,-0.5444444444444444],[0.328125,-0.5444444444444444],[0.328125,-0.5444444444444444],[0.328125,-0.5425925925925926],[0.328125,-0.5388888888888889],[0.328125,-0.5333333333333333],[0.328125,-0.5222222222222223],[0.328125,-0.512962962962963],[0.32395833333333335,-0.48148148148148145],[0.32395833333333335,-0.4722222222222222],[0.32395833333333335,-0.4351851851851852],[0.32395833333333335,-0.35555555555555557],[0.32395833333333335,-0.26851851851851855],[0.32395833333333335,-0.1388888888888889],[0.32083333333333336,-0.040740740740740744],[0.31979166666666664,0.046296296296296294],[0.31979166666666664,0.10185185185185185],[0.3177083333333333,0.1425925925925926],[0.315625,0.1648148148148148],[0.31145833333333334,0.17962962962962964],[0.309375,0.19814814814814816],[0.3072916666666667,0.2074074074074074],[0.3072916666666667,0.21666666666666667],[0.30625,0.22962962962962963],[0.303125,0.2388888888888889],[0.303125,0.2462962962962963],[0.303125,0.2537037037037037],[0.303125,0.26296296296296295],[0.303125,0.2740740740740741],[0.3020833333333333,0.2796296296296296],[0.3020833333333333,0.2833333333333333],[0.30104166666666665,0.29074074074074074],[0.2989583333333333,0.3],[0.2989583333333333,0.3037037037037037],[0.2989583333333333,0.3037037037037037],[0.29791666666666666,0.3037037037037037],[0.29791666666666666,0.3037037037037037],[0.29791666666666666,0.3037037037037037],[0.29791666666666666,0.3037037037037037],[0.29791666666666666,0.3037037037037037],[0.29791666666666666,0.3037037037037037],[0.29791666666666666,0.3037037037037037],[0.29791666666666666,0.3037037037037037],[0.29791666666666666,0.3037037037037037],[0.296875,0.3037037037037037],[0.29583333333333334,0.3037037037037037],[0.29583333333333334,0.3037037037037037],[0.29583333333333334,0.3037037037037037],[0.29583333333333334,0.3037037037037037],[0.29583333333333334,0.3037037037037037],[0.29583333333333334,0.3037037037037037],[0.29583333333333334,0.3037037037037037],[0.29583333333333334,0.3037037037037037],[0.29583333333333334,0.3037037037037037],[0.29583333333333334,0.3037037037037037],[0.29583333333333334,0.3037037037037037],[0.29583333333333334,0.3037037037037037],[0.29583333333333334,0.3037037037037037],[0.29583333333333334,0.3037037037037037],[0.29583333333333334,0.3037037037037037],[0.29583333333333334,0.3037037037037037],[0.29583333333333334,0.3037037037037037],[0.29583333333333334,0.3037037037037037],[0.296875,0.3074074074074074],[0.3104166666666667,0.32592592592592595],[0.3229166666666667,0.34444444444444444],[0.33958333333333335,0.37037037037037035],[0.35625,0.3925925925925926],[0.37395833333333334,0.4148148148148148],[0.4,0.44814814814814813],[0.41770833333333335,0.4703703703703704],[0.4375,0.4925925925925926],[0.4583333333333333,0.5148148148148148],[0.4708333333333333,0.5296296296296297],[0.47604166666666664,0.5388888888888889],[0.48125,0.5481481481481482],[0.484375,0.5518518518518518],[0.4895833333333333,0.5611111111111111],[0.49583333333333335,0.5722222222222222],[0.5072916666666667,0.5851851851851851],[0.5166666666666667,0.5981481481481481],[0.5177083333333333,0.6],[0.521875,0.6055555555555555],[0.5239583333333333,0.6074074074074074],[0.528125,0.6148148148148148],[0.53125,0.6185185185185185],[0.5333333333333333,0.6240740740740741],[0.5354166666666667,0.6259259259259259],[0.5385416666666667,0.6296296296296297],[0.5395833333333333,0.6314814814814815],[0.5416666666666666,0.6333333333333333],[0.5427083333333333,0.6333333333333333],[0.5427083333333333,0.6333333333333333],[0.5427083333333333,0.6333333333333333],[0.5427083333333333,0.6333333333333333],[0.5427083333333333,0.6333333333333333],[0.5427083333333333,0.6333333333333333],[0.5427083333333333,0.6333333333333333],[0.5427083333333333,0.6333333333333333],[0.5427083333333333,0.6333333333333333],[0.5427083333333333,0.6296296296296297],[0.5427083333333333,0.6240740740740741],[0.54375,0.6129629629629629],[0.54375,0.6074074074074074],[0.5447916666666667,0.6],[0.5458333333333333,0.5981481481481481],[0.546875,0.5925925925925926],[0.546875,0.5907407407407408],[0.546875,0.5888888888888889],[0.546875,0.5888888888888889],[0.546875,0.5888888888888889],[0.546875,0.5888888888888889],[0.546875,0.5888888888888889],[0.546875,0.5888888888888889],[0.546875,0.5888888888888889],[0.546875,0.5888888888888889],[0.546875,0.5888888888888889],[0.546875,0.5888888888888889],[0.546875,0.5888888888888889],[0.546875,0.5888888888888889],[0.546875,0.5888888888888889],[0.546875,0.5888888888888889],[0.546875,0.5888888888888889],[0.546875,0.5888888888888889],[0.546875,0.5888888888888889],[0.546875,0.5888888888888889],[0.546875,0.5888888888888889],[0.546875,0.5888888888888889],[0.546875,0.5888888888888889],[0.546875,0.5888888888888889],[0.546875,0.5888888888888889],[0.546875,0.5888888888888889],[0.546875,0.5888888888888889],[0.546875,0.5888888888888889],[0.546875,0.5888888888888889],[0.546875,0.5888888888888889],[0.546875,0.5888888888888889],[0.546875,0.5888888888888889],[0.546875,0.5888888888888889],[0.546875,0.5888888888888889],[0.546875,0.5888888888888889],[0.546875,0.5888888888888889],[0.546875,0.5888888888888889],[0.546875,0.5888888888888889],[0.546875,0.5888888888888889],[0.546875,0.5888888888888889],[0.546875,0.5888888888888889],[0.546875,0.5888888888888889],[0.546875,0.5888888888888889],[0.546875,0.5888888888888889],[0.546875,0.5888888888888889],[0.546875,0.5888888888888889],[0.546875,0.5888888888888889],[0.546875,0.5888888888888889],[0.546875,0.5888888888888889],[0.546875,0.5888888888888889],[0.546875,0.5888888888888889],[0.546875,0.5888888888888889],[0.546875,0.5888888888888889],[0.546875,0.5888888888888889],[0.546875,0.5888888888888889],[0.546875,0.5888888888888889],[0.546875,0.5888888888888889],[0.546875,0.5888888888888889],[0.546875,0.5888888888888889],[0.546875,0.5888888888888889],[0.546875,0.5888888888888889],[0.546875,0.5888888888888889],[0.546875,0.5888888888888889],[0.546875,0.5888888888888889],[0.546875,0.5888888888888889],[0.546875,0.5888888888888889],[0.546875,0.5888888888888889],[0.546875,0.5888888888888889],[0.546875,0.5888888888888889],[0.546875,0.5888888888888889],[0.546875,0.5888888888888889],[0.546875,0.5888888888888889],[0.546875,0.5888888888888889],[0.546875,0.5888888888888889],[0.546875,0.5888888888888889],[0.546875,0.5888888888888889],[0.546875,0.5888888888888889],[0.546875,0.5888888888888889],[0.546875,0.5888888888888889],[0.546875,0.5888888888888889],[0.546875,0.5888888888888889],[0.546875,0.5888888888888889],[0.546875,0.5888888888888889],[0.546875,0.5888888888888889],[0.546875,0.5888888888888889],[0.546875,0.5888888888888889],[0.546875,0.5888888888888889],[0.546875,0.5888888888888889],[0.546875,0.5888888888888889],[0.546875,0.5888888888888889],[0.546875,0.5888888888888889],[0.546875,0.5888888888888889],[0.546875,0.5888888888888889],[0.546875,0.5888888888888889],[0.546875,0.5888888888888889],[0.546875,0.5888888888888889],[0.546875,0.5888888888888889],[0.546875,0.5888888888888889],[0.546875,0.5888888888888889],[0.546875,0.5888888888888889],[0.546875,0.5888888888888889],[0.546875,0.5888888888888889],[0.546875,0.5888888888888889],[0.546875,0.5888888888888889],[0.546875,0.5888888888888889],[0.546875,0.5888888888888889],[0.546875,0.5888888888888889],[0.546875,0.5888888888888889],[0.546875,0.5888888888888889],[0.546875,0.5888888888888889],[0.546875,0.5888888888888889],[0.546875,0.5888888888888889],[0.546875,0.5888888888888889],[0.546875,0.5888888888888889],[0.546875,0.5888888888888889],[0.546875,0.5888888888888889],[0.546875,0.5888888888888889],[0.546875,0.5888888888888889],[0.546875,0.5888888888888889],[0.546875,0.5888888888888889],[0.546875,0.5888888888888889],[0.546875,0.587037037037037],[0.546875,0.587037037037037],[0.546875,0.587037037037037],[0.546875,0.587037037037037],[0.546875,0.587037037037037],[0.546875,0.587037037037037],[0.546875,0.587037037037037],[0.546875,0.575925925925926],[0.546875,0.562962962962963],[0.546875,0.5481481481481482],[0.546875,0.5296296296296297],[0.546875,0.49074074074074076],[0.546875,0.45925925925925926],[0.546875,0.4388888888888889],[0.546875,0.43333333333333335],[0.546875,0.43333333333333335],[0.546875,0.43333333333333335],[0.546875,0.43148148148148147],[0.546875,0.43148148148148147],[0.546875,0.43148148148148147],[0.546875,0.43148148148148147],[0.546875,0.43148148148148147],[0.546875,0.43148148148148147],[0.546875,0.43148148148148147],[0.5479166666666667,0.42962962962962964],[0.55,0.43148148148148147],[0.5520833333333334,0.43703703703703706],[0.553125,0.4462962962962963],[0.55625,0.4537037037037037],[0.55625,0.46111111111111114],[0.5572916666666666,0.4648148148148148],[0.5583333333333333,0.4703703703703704],[0.5583333333333333,0.4722222222222222],[0.559375,0.4759259259259259],[0.559375,0.4777777777777778],[0.559375,0.47962962962962963],[0.559375,0.48333333333333334],[0.559375,0.48518518518518516],[0.559375,0.48518518518518516],[0.559375,0.48703703703703705],[0.559375,0.48703703703703705],[0.559375,0.48703703703703705],[0.559375,0.48703703703703705],[0.559375,0.48703703703703705],[0.559375,0.48703703703703705],[0.559375,0.48703703703703705],[0.559375,0.48703703703703705],[0.559375,0.48703703703703705],[0.559375,0.48703703703703705],[0.559375,0.48703703703703705],[0.559375,0.48703703703703705]]","[[-0.06833333333333336,-0.4537037037037037],[-0.06833333333333336,-0.4537037037037037],[-0.0390625,-0.5011111111111112],[-0.0390625,-0.5011111111111112],[-0.021562500000000047,-0.49537037037037035],[-0.021562500000000047,-0.49537037037037035],[-0.005937500000000048,-0.43425925925925923],[-0.005937500000000048,-0.43425925925925923],[-0.011770833333333286,-0.38],[-0.011770833333333286,-0.38],[0.008749999999999977,-0.2948148148148148],[0.008749999999999977,-0.2948148148148148],[0.010104166666666714,-0.2801851851851852],[0.010104166666666714,-0.2801851851851852],[-0.0009374999999999763,-0.20240740740740742],[-0.0009374999999999763,-0.20240740740740742],[-0.019375000000000024,-0.1648148148148148],[-0.019375000000000024,-0.1648148148148148],[-0.03708333333333336,-0.10555555555555556],[-0.03708333333333336,-0.10555555555555556],[-0.029270833333333357,-0.039629629629629584],[-0.029270833333333357,-0.039629629629629584],[-0.05,0.012222222222222264],[-0.05,0.012222222222222264],[-0.05458333333333331,0.12074074074074083],[-0.05458333333333331,0.12074074074074083],[-0.04500000000000005,0.10314814814814824],[-0.04500000000000005,0.10314814814814824],[-0.029270833333333357,0.08907407407407411],[-0.029270833333333357,0.08907407407407411],[-0.018020833333333285,0.06111111111111111],[-0.018020833333333285,0.06111111111111111],[-0.019270833333333334,0.03425925925925926],[-0.019270833333333334,0.03425925925925926],[-0.019270833333333334,0.03425925925925926],[-0.010520833333333358,-0.034074074074074034],[-0.010520833333333358,-0.034074074074074034],[0.01229166666666662,-0.1022222222222222],[0.01229166666666662,-0.1022222222222222],[0.04874999999999995,-0.2014814814814815],[0.04874999999999995,-0.2014814814814815],[0.04125000000000002,-0.2205555555555556],[0.04125000000000002,-0.2205555555555556],[0.03354166666666671,-0.28296296296296297],[0.03354166666666671,-0.28296296296296297],[0.03968750000000002,-0.26740740740740737],[0.03968750000000002,-0.26740740740740737],[0.03125,-0.23944444444444446],[0.03125,-0.23944444444444446],[0.04500000000000005,-0.21740740740740735],[0.04500000000000005,-0.21740740740740735],[0.027708333333333356,-0.18481481481481485],[0.027708333333333356,-0.18481481481481485],[0.04895833333333333,-0.1270370370370371],[0.04895833333333333,-0.1270370370370371],[0.06062500000000005,-0.12814814814814812],[0.06062500000000005,-0.12814814814814812],[0.06885416666666658,-0.011111111111111112],[0.06885416666666658,-0.011111111111111112],[0.07354166666666657,0.11444444444444436],[0.07354166666666657,0.11444444444444436],[0.09593749999999991,0.225],[0.09593749999999991,0.225],[0.08947916666666676,0.3987037037037036],[0.08947916666666676,0.3987037037037036],[0.1078125,0.5096296296296298],[0.1078125,0.5096296296296298],[0.12468750000000005,0.7083333333333334],[0.12468750000000005,0.7083333333333334],[0.0796875,0.9777777777777777],[0.0796875,0.9777777777777777],[0.06229166666666662,1.151851851851852],[0.06229166666666662,1.151851851851852],[0.04489583333333336,1.1224074074074073],[0.04489583333333336,1.1224074074074073],[0.05604166666666662,1.1814814814814816],[0.05604166666666662,1.1814814814814816],[0.05552083333333328,1.1287037037037038],[0.05552083333333328,1.1287037037037038],[0.04104166666666664,1.0725925925925928],[0.04104166666666664,1.0725925925925928],[0.05437500000000005,0.9722222222222222],[0.05437500000000005,0.9722222222222222],[0.07458333333333324,0.9342592592592592],[0.07458333333333324,0.9342592592592592],[0.08406250000000005,0.7677777777777778],[0.08406250000000005,0.7677777777777778],[0.09729166666666676,0.5718518518518517],[0.09729166666666676,0.5718518518518517],[0.1568749999999999,0.2764814814814814],[0.18979166666666672,0.053703703703703705],[0.20208333333333334,0.022777777777777692],[0.18135416666666657,-0.004629629629629629],[0.18135416666666657,-0.004629629629629629],[0.15041666666666675,-0.029814814814814856],[0.15041666666666675,-0.029814814814814856],[0.16135416666666677,-0.03129629629629625],[0.19229166666666658,-0.048333333333333374],[0.22489583333333343,-0.16370370370370366],[0.2535416666666668,-0.19129629629629633],[0.2711458333333333,-0.255],[0.3138541666666666,-0.24518518518518514],[0.36395833333333344,-0.22814814814814813],[0.3734375,-0.24166666666666667],[0.4048958333333334,-0.2692592592592592],[0.44291666666666674,-0.28574074074074074],[0.4492708333333333,-0.34148148148148144],[0.43760416666666657,-0.39462962962962966],[0.4317708333333333,-0.3985185185185185],[0.4087500000000001,-0.41074074074074074],[0.3967708333333334,-0.38685185185185184],[0.35958333333333337,-0.4003703703703704],[0.32791666666666663,-0.4],[0.32791666666666663,-0.4],[0.33447916666666655,-0.3977777777777778],[0.3558333333333332,-0.39092592592592595],[0.3570833333333333,-0.3587037037037037],[0.3549999999999999,-0.2727777777777778],[0.3603125000000001,-0.19000000000000003],[0.3603125000000001,-0.19000000000000003],[0.38604166666666656,-0.18666666666666668],[0.3806250000000001,-0.16518518518518516],[0.3914583333333333,-0.1374074074074074],[0.40895833333333326,-0.13574074074074077],[0.4209374999999999,-0.1479629629629629],[0.4289583333333333,-0.13037037037037033],[0.4228125000000001,-0.10888888888888891],[0.4367708333333333,-0.11277777777777774],[0.4415625000000001,-0.14685185185185187],[0.4506249999999999,-0.17796296296296302],[0.43697916666666664,-0.172037037037037],[0.4462500000000001,-0.16833333333333328],[0.45260416666666664,-0.1603703703703704],[0.46062500000000006,-0.13444444444444448],[0.45510416666666675,-0.11740740740740736],[0.45635416666666656,-0.1257407407407407],[0.45281250000000006,-0.1418518518518519],[0.45281250000000006,-0.1418518518518519],[0.4443749999999999,-0.14888888888888885],[0.4443749999999999,-0.14888888888888885],[0.43770833333333337,-0.12388888888888884],[0.43770833333333337,-0.12388888888888884],[0.4257291666666667,-0.13629629629629633],[0.4083333333333333,-0.0940740740740741],[0.4083333333333333,-0.0940740740740741],[0.40812499999999996,-0.0794444444444444],[0.3945833333333333,-0.07537037037037035],[0.38864583333333325,-0.04814814814814815],[0.3823958333333332,-0.02388888888888885],[0.3662499999999999,0.022777777777777692],[0.3466666666666666,0.03851851851851843],[0.33864583333333326,0.0625925925925925],[0.33864583333333326,0.0625925925925925],[0.3337500000000001,0.04148148148148144],[0.3337500000000001,0.04148148148148144],[0.3226041666666667,0.072037037037037],[0.3226041666666667,0.072037037037037],[0.3323958333333332,0.058333333333333334],[0.3323958333333332,0.058333333333333334],[0.33916666666666656,0.05388888888888893],[0.33916666666666656,0.05388888888888893],[0.33645833333333336,0.03814814814814819],[0.33645833333333336,0.03814814814814819],[0.31666666666666665,0.005555555555555556],[0.31666666666666665,0.005555555555555556],[0.31791666666666674,-0.0198148148148149],[0.31791666666666674,-0.0198148148148149],[0.32062499999999994,-0.02907407407407416],[0.32062499999999994,-0.02907407407407416],[0.32156250000000003,-0.00592592592592601],[0.32156250000000003,-0.00592592592592601],[0.340625,-0.01629629629629621],[0.340625,-0.01629629629629621],[0.35520833333333335,-0.010185185185185186],[0.35520833333333335,-0.010185185185185186],[0.3740624999999999,-0.021296296296296296],[0.3740624999999999,-0.021296296296296296],[0.33718750000000003,0.04759259259259268],[0.28229166666666666,0.07629629629629638],[0.23927083333333338,0.12018518518518514],[0.21645833333333328,0.18259259259259264],[0.21802083333333327,0.21851851851851853],[0.2181250000000001,0.23833333333333342],[0.22020833333333342,0.2511111111111112],[0.22020833333333342,0.2511111111111112],[0.19958333333333325,0.2933333333333333],[0.20833333333333334,0.32259259259259265],[0.20843749999999991,0.37407407407407406],[0.20843749999999991,0.37407407407407406],[0.23666666666666672,0.36666666666666664],[0.2803124999999999,0.3790740740740742],[0.2803124999999999,0.3790740740740742],[0.3223958333333333,0.3911111111111112],[0.3492708333333333,0.3424074074074074],[0.3445833333333333,0.3248148148148148],[0.3368750000000001,0.31500000000000006],[0.34041666666666665,0.35537037037037034],[0.34395833333333337,0.3531481481481482],[0.34395833333333337,0.3531481481481482],[0.32937500000000003,0.36870370370370376],[0.3226041666666667,0.3512962962962964],[0.3226041666666667,0.3512962962962964],[0.3259375000000001,0.34388888888888897],[0.3320833333333333,0.3520370370370371],[0.3319791666666667,0.3655555555555555],[0.31927083333333334,0.4094444444444445],[0.30656249999999996,0.45333333333333325],[0.31312499999999993,0.46537037037037027],[0.3116666666666667,0.4327777777777779],[0.30593750000000003,0.4422222222222221],[0.30593750000000003,0.4422222222222221],[0.29718749999999994,0.45444444444444443],[0.29718749999999994,0.45444444444444443],[0.2853125000000001,0.4564814814814815],[0.2705208333333334,0.49722222222222223],[0.27010416666666665,0.4875925925925925],[0.2573958333333332,0.4896296296296296],[0.26885416666666656,0.46333333333333343],[0.30010416666666656,0.4351851851851852],[0.30010416666666656,0.4351851851851852],[0.29749999999999993,0.4198148148148149],[0.3026041666666667,0.39648148148148155],[0.3255208333333333,0.3625925925925925],[0.3162499999999999,0.3051851851851851],[0.3162499999999999,0.3051851851851851],[0.31364583333333323,0.2985185185185186],[0.32083333333333336,0.23666666666666658],[0.3056250000000001,0.2368518518518518],[0.3056250000000001,0.2368518518518518],[0.32572916666666674,0.22074074074074082],[0.3311458333333334,0.2381481481481482],[0.32395833333333335,0.29499999999999993],[0.32395833333333335,0.29499999999999993],[0.3329166666666666,0.3622222222222223],[0.3329166666666666,0.3622222222222223],[0.3355208333333332,0.38685185185185184],[0.3355208333333332,0.38685185185185184],[0.3195833333333333,0.38944444444444437],[0.33270833333333344,0.41870370370370374],[0.3490624999999999,0.39462962962962966],[0.3559375000000001,0.36018518518518516],[0.37229166666666674,0.3122222222222223],[0.37489583333333343,0.2800000000000001],[0.38614583333333335,0.2418518518518519],[0.3921875,0.17222222222222222],[0.3837500000000001,0.07462962962962955],[0.3837500000000001,0.07462962962962955],[0.37447916666666664,0.020740740740740823],[0.36749999999999994,-0.023148148148148147],[0.36749999999999994,-0.023148148148148147],[0.3610416666666666,-0.07888888888888893],[0.3477083333333333,-0.12092592592592595],[0.3459374999999999,-0.14092592592592595],[0.33697916666666666,-0.16296296296296298],[0.3241666666666667,-0.205],[0.30479166666666657,-0.24518518518518514],[0.2834374999999999,-0.29148148148148145],[0.2921875,-0.3168518518518519],[0.3004166666666668,-0.33537037037037043],[0.3004166666666668,-0.33537037037037043],[0.3134375000000001,-0.33259259259259266],[0.3134375000000001,-0.33259259259259266],[0.32020833333333343,-0.3237037037037037],[0.3111458333333334,-0.30407407407407405],[0.31135416666666677,-0.3151851851851852],[0.29375,-0.3316666666666667],[0.29375,-0.3316666666666667],[0.2787499999999999,-0.34740740740740744],[0.26927083333333335,-0.3587037037037037],[0.2557291666666667,-0.33481481481481484],[0.2039583333333333,-0.297037037037037],[0.1521874999999999,-0.25925925925925924],[0.0962500000000001,-0.23296296296296298],[0.03583333333333331,-0.22166666666666665],[-0.013020833333333334,-0.20092592592592592],[-0.07427083333333329,-0.16814814814814816],[-0.10729166666666666,-0.12629629629629627],[-0.14895833333333333,-0.05240740740740743],[-0.190625,0.021481481481481525],[-0.21968749999999998,0.020555555555555598],[-0.22468750000000004,0.013703703703703662],[-0.21989583333333335,-0.02444444444444453],[-0.21947916666666673,-0.04388888888888897],[-0.17583333333333329,-0.08814814814814818],[-0.15375000000000003,-0.14388888888888887],[-0.0907291666666667,-0.18870370370370365],[-0.0907291666666667,-0.18870370370370365],[-0.034375,-0.22296296296296292],[0.03239583333333336,-0.27555555555555555],[0.11114583333333337,-0.34388888888888886],[0.11114583333333337,-0.34388888888888886],[0.17114583333333327,-0.3685185185185185],[0.17114583333333327,-0.3685185185185185],[0.2289583333333333,-0.41870370370370374],[0.2289583333333333,-0.41870370370370374],[0.27218749999999997,-0.4027777777777778],[0.27218749999999997,-0.4027777777777778],[0.3318749999999999,-0.4053703703703703],[0.34010416666666665,-0.3792592592592593],[0.378125,-0.3520370370370371],[0.40656249999999994,-0.3642592592592592],[0.41520833333333323,-0.33851851851851855],[0.4270833333333333,-0.3737037037037037],[0.42687499999999995,-0.37518518518518523],[0.4414583333333333,-0.3622222222222223],[0.4493750000000001,-0.30092592592592593],[0.4609375,-0.27999999999999997],[0.4571875000000001,-0.2640740740740741],[0.48250000000000004,-0.30092592592592593],[0.505,-0.3453703703703704],[0.4881249999999999,-0.3707407407407407],[0.5287499999999999,-0.4105555555555555],[0.5617708333333333,-0.4038888888888889],[0.564375,-0.4222222222222222],[0.5623958333333334,-0.459074074074074],[0.5528125,-0.5203703703703704],[0.5443749999999999,-0.5761111111111111],[0.5272916666666667,-0.605],[0.5272916666666667,-0.605],[0.4944791666666667,-0.5857407407407408],[0.4944791666666667,-0.5857407407407408],[0.49854166666666655,-0.5396296296296296],[0.505,-0.4831481481481481],[0.4744791666666667,-0.4905555555555555],[0.3948958333333332,-0.42000000000000004],[0.33624999999999994,-0.3424074074074074],[0.33624999999999994,-0.3424074074074074],[0.3372916666666666,-0.3357407407407408],[0.3363541666666668,-0.307962962962963],[0.3685416666666666,-0.23425925925925925],[0.41041666666666665,-0.17018518518518513],[0.46770833333333334,-0.11981481481481479],[0.49093749999999997,-0.08870370370370366],[0.48770833333333335,-0.06259259259259262],[0.4795833333333334,0.0007407407407406986],[0.5110416666666666,-0.0294444444444444],[0.5547916666666666,-0.05425925925925928],[0.5382291666666668,-0.01629629629629621],[0.5479166666666667,-0.012777777777777735],[0.5311458333333334,-0.07333333333333338],[0.5011458333333333,-0.11537037037037039],[0.48427083333333343,-0.17999999999999997],[0.46239583333333345,-0.21185185185185182],[0.4680208333333333,-0.3051851851851852],[0.45979166666666677,-0.36203703703703705],[0.46072916666666663,-0.40055555555555555],[0.45552083333333326,-0.40129629629629626],[0.4644791666666668,-0.4477777777777778],[0.4817708333333333,-0.5137037037037037],[0.47645833333333343,-0.5227777777777778],[0.49968750000000006,-0.582037037037037],[0.47677083333333337,-0.5712962962962963],[0.4803124999999999,-0.6266666666666666],[0.4669791666666666,-0.5624074074074074],[0.48239583333333325,-0.5751851851851852],[0.5030208333333335,-0.5974074074074075],[0.5270833333333333,-0.6627777777777777],[0.5257291666666667,-0.655],[0.5038541666666667,-0.6194444444444445],[0.4875,-0.6005555555555556],[0.4580208333333334,-0.5624074074074074],[0.4580208333333334,-0.5624074074074074],[0.4422916666666666,-0.5309259259259259],[0.4422916666666666,-0.5309259259259259],[0.41218750000000004,-0.45999999999999996],[0.3641666666666666,-0.5007407407407407],[0.2756249999999999,-0.5316666666666667],[0.17260416666666673,-0.4987037037037037],[0.07166666666666661,-0.44962962962962966],[-0.010208333333333286,-0.46055555555555555],[-0.09468749999999998,-0.43499999999999994],[-0.16843750000000005,-0.4353703703703704],[-0.23791666666666664,-0.36259259259259263],[-0.3242708333333333,-0.30759259259259264],[-0.41770833333333335,-0.25870370370370366],[-0.42875,-0.2205555555555556],[-0.41989583333333336,-0.14777777777777779],[-0.39864583333333337,-0.14814814814814814],[-0.4061458333333333,-0.09703703703703699],[-0.4061458333333333,-0.09703703703703699],[-0.4053125,-0.018703703703703747],[-0.4053125,-0.018703703703703747],[-0.38656250000000003,0.03481481481481473],[-0.38656250000000003,0.03481481481481473],[-0.34406249999999994,0.0772222222222223],[-0.2445833333333333,0.03814814814814819],[-0.2445833333333333,0.03814814814814819],[-0.1360416666666667,-0.02111111111111107],[-0.013645833333333357,-0.09537037037037037],[0.0696875000000001,-0.12518518518518523],[0.15875000000000009,-0.1588888888888889],[0.24708333333333338,-0.18796296296296297],[0.3536458333333333,-0.24000000000000005],[0.44468750000000007,-0.2785185185185185],[0.5373958333333334,-0.33796296296296297],[0.6060416666666666,-0.3824074074074074],[0.6070833333333333,-0.42833333333333334],[0.6247916666666666,-0.4596296296296296],[0.6286458333333333,-0.4759259259259259],[0.628125,-0.4570370370370371],[0.6276041666666666,-0.4381481481481482],[0.6129166666666668,-0.38685185185185184],[0.6230208333333332,-0.4057407407407408],[0.6306250000000001,-0.38870370370370366],[0.6256249999999999,-0.3557407407407408],[0.6030208333333335,-0.36500000000000005],[0.6030208333333335,-0.36500000000000005],[0.5717708333333335,-0.32037037037037036],[0.5717708333333335,-0.32037037037037036],[0.5405208333333335,-0.2757407407407407],[0.5405208333333335,-0.2757407407407407],[0.5104166666666666,-0.2403703703703704],[0.5104166666666666,-0.2403703703703704],[0.47020833333333345,-0.2146296296296296],[0.47020833333333345,-0.2146296296296296],[0.4366666666666667,-0.19296296296296295],[0.37822916666666656,-0.14425925925925923],[0.30343749999999997,-0.07000000000000002],[0.24291666666666673,-0.037037037037037035],[0.18239583333333323,-0.004074074074074159],[0.13447916666666657,0.08074074074074078],[0.1015625,0.12148148148148152],[0.06864583333333343,0.16222222222222227],[0.03885416666666662,0.2153703703703703],[0.019583333333333286,0.2668518518518519],[0.01864583333333331,0.30388888888888893],[0.0546875,0.2927777777777778],[0.1053124999999999,0.2361111111111111],[0.1375,0.19148148148148145],[0.1788541666666667,0.11296296296296296],[0.22520833333333337,0.024814814814814772],[0.2730208333333332,-0.06518518518518517],[0.32083333333333336,-0.1551851851851852],[0.3625,-0.20907407407407402],[0.4041666666666667,-0.26296296296296295],[0.41604166666666675,-0.3290740740740741],[0.4279166666666666,-0.39518518518518514],[0.4331249999999999,-0.3861111111111111],[0.44500000000000006,-0.38370370370370366],[0.43802083333333336,-0.4022222222222222],[0.4301041666666668,-0.4124074074074074],[0.4301041666666668,-0.4124074074074074],[0.4265625,-0.37407407407407406],[0.42302083333333323,-0.36870370370370376],[0.4331249999999999,-0.4105555555555555],[0.4432291666666667,-0.4524074074074074],[0.45812499999999995,-0.46351851851851855],[0.4782291666666666,-0.47074074074074074],[0.46604166666666674,-0.5520370370370371],[0.4748958333333334,-0.6190740740740741],[0.48552083333333323,-0.6392592592592592],[0.51125,-0.6327777777777778],[0.5275000000000001,-0.7062962962962962],[0.5275000000000001,-0.7062962962962962],[0.5314583333333334,-0.6983333333333334],[0.5314583333333334,-0.6983333333333334],[0.5490624999999999,-0.707037037037037],[0.5484375,-0.7003703703703703],[0.5478125000000001,-0.6937037037037037],[0.5452083333333334,-0.7231481481481481],[0.5645833333333333,-0.6681481481481482],[0.5576041666666666,-0.6298148148148148],[0.5533333333333333,-0.5653703703703704],[0.5417708333333332,-0.5618518518518518],[0.5397916666666667,-0.4868518518518518],[0.5397916666666667,-0.4868518518518518],[0.5501041666666666,-0.46037037037037043],[0.5228125000000001,-0.40796296296296297],[0.47552083333333334,-0.29203703703703704],[0.4283333333333334,-0.20166666666666663],[0.3758333333333333,-0.026111111111111154],[0.36708333333333343,0.01314814814814819],[0.3636458333333332,0.05481481481481486],[0.37770833333333326,0.020740740740740823],[0.38312499999999994,0.034999999999999955],[0.39114583333333336,-0.006481481481481481],[0.3953125,-0.023333333333333376],[0.39260416666666675,-0.025370370370370456],[0.4357291666666666,-0.11240740740740739],[0.46593749999999995,-0.18722222222222226],[0.46593749999999995,-0.18722222222222226],[0.5297916666666665,-0.3418518518518519],[0.5522916666666667,-0.40018518518518525],[0.5705208333333334,-0.45796296296296296],[0.5682291666666667,-0.44425925925925924],[0.5591666666666666,-0.4612962962962963],[0.5514583333333334,-0.47370370370370374],[0.5476041666666667,-0.5107407407407407],[0.5557291666666667,-0.5183333333333333],[0.55625,-0.5198148148148148],[0.5746875,-0.542037037037037],[0.5615624999999999,-0.5374074074074073],[0.5502083333333334,-0.49962962962962965],[0.5285416666666668,-0.5062962962962962],[0.5209374999999999,-0.5224074074074074],[0.5334374999999999,-0.4848148148148148],[0.5360416666666665,-0.43425925925925923]]","[[-0.06833333333333336,-0.4537037037037037,0.0001999998092614419],[-0.06833333333333336,-0.4537037037037037,0.059499999999999886],[-0.0390625,-0.5011111111111112,0.07629999971389623],[-0.0390625,-0.5011111111111112,0.0839000000953618],[-0.021562500000000047,-0.49537037037037035,0.10959999990463132],[-0.021562500000000047,-0.49537037037037035,0.1189000000953655],[-0.005937500000000048,-0.43425925925925923,0.1445999999046279],[-0.005937500000000048,-0.43425925925925923,0.15129999971389196],[-0.011770833333333286,-0.38,0.1760999999046291],[-0.011770833333333286,-0.38,0.18359999990462939],[0.008749999999999977,-0.2948148148148148,0.20959999990463274],[0.008749999999999977,-0.2948148148148148,0.21690000009536448],[0.010104166666666714,-0.2801851851851852,0.24529999971389316],[0.010104166666666714,-0.2801851851851852,0.25229999971389105],[-0.0009374999999999763,-0.20240740740740742,0.2779000000953644],[-0.0009374999999999763,-0.20240740740740742,0.28559999990462615],[-0.019375000000000024,-0.1648148148148148,0.31140000009536095],[-0.019375000000000024,-0.1648148148148148,0.31890000009536124],[-0.03708333333333336,-0.10555555555555556,0.34340000009536453],[-0.03708333333333336,-0.10555555555555556,0.3530999999046287],[-0.029270833333333357,-0.039629629629629584,0.37869999980926394],[-0.029270833333333357,-0.039629629629629584,0.38759999990463],[-0.05,0.012222222222222264,0.4121999998092605],[-0.05,0.012222222222222264,0.41969999980926076],[-0.05458333333333331,0.12074074074074083,0.4487999997138914],[-0.05458333333333331,0.12074074074074083,0.4556999998092621],[-0.04500000000000005,0.10314814814814824,0.4806999998092607],[-0.04500000000000005,0.10314814814814824,0.48890000009536294],[-0.029270833333333357,0.08907407407407411,0.513699999809262],[-0.029270833333333357,0.08907407407407411,0.5219000000953642],[-0.018020833333333285,0.06111111111111111,0.5461999998092608],[-0.018020833333333285,0.06111111111111111,0.5534999999999997],[-0.019270833333333334,0.03425925925925926,0.5795999999046302],[-0.019270833333333334,0.03425925925925926,0.5866999998092624],[-0.019270833333333334,0.03425925925925926,0.5962999997138922],[-0.010520833333333358,-0.034074074074074034,0.6299999999999955],[-0.010520833333333358,-0.034074074074074034,0.6379000000953639],[0.01229166666666662,-0.1022222222222222,0.6629000000953624],[0.01229166666666662,-0.1022222222222222,0.669400000095365],[0.04874999999999995,-0.2014814814814815,0.6966999998092618],[0.04874999999999995,-0.2014814814814815,0.7139000000953644],[0.04125000000000002,-0.2205555555555556,0.7294000000953673],[0.04125000000000002,-0.2205555555555556,0.7369999999999948],[0.03354166666666671,-0.28296296296296297,0.7650999999046277],[0.03354166666666671,-0.28296296296296297,0.7722999997138942],[0.03968750000000002,-0.26740740740740737,0.792900000095365],[0.03968750000000002,-0.26740740740740737,0.7999999999999972],[0.03125,-0.23944444444444446,0.8279000000953616],[0.03125,-0.23944444444444446,0.8351999998092623],[0.04500000000000005,-0.21740740740740735,0.8599000000953652],[0.04500000000000005,-0.21740740740740735,0.867299999713893],[0.027708333333333356,-0.18481481481481485,0.8939000000953641],[0.027708333333333356,-0.18481481481481485,0.9007999997138967],[0.04895833333333333,-0.1270370370370371,0.9265999999046315],[0.04895833333333333,-0.1270370370370371,0.9339000000953632],[0.06062500000000005,-0.12814814814814812,0.9627999997138943],[0.06062500000000005,-0.12814814814814812,0.970099999904626],[0.06885416666666658,-0.011111111111111112,0.9929000000953607],[0.06885416666666658,-0.011111111111111112,0.9997999997138933],[0.07354166666666657,0.11444444444444436,1.0297999997138945],[0.07354166666666657,0.11444444444444436,1.0364000000953624],[0.09593749999999991,0.225,1.059599999904627],[0.09593749999999991,0.225,1.0670999999046273],[0.08947916666666676,0.3987037037037036,1.0929999999999964],[0.08947916666666676,0.3987037037037036,1.0999000000953671],[0.1078125,0.5096296296296298,1.1264000000953658],[0.1078125,0.5096296296296298,1.1339999999999932],[0.12468750000000005,0.7083333333333334,1.1594999999999942],[0.12468750000000005,0.7083333333333334,1.1662999997138925],[0.0796875,0.9777777777777777,1.1929000000953636],[0.0796875,0.9777777777777777,1.2002999997138915],[0.06229166666666662,1.151851851851852,1.2294999999999945],[0.06229166666666662,1.151851851851852,1.2372999997138976],[0.04489583333333336,1.1224074074074073,1.2594999999999956],[0.04489583333333336,1.1224074074074073,1.266699999809262],[0.05604166666666662,1.1814814814814816,1.2952999997138974],[0.05604166666666662,1.1814814814814816,1.3019000000953653],[0.05552083333333328,1.1287037037037038,1.3262999997138962],[0.05552083333333328,1.1287037037037038,1.33469999980926],[0.04104166666666664,1.0725925925925928,1.3632999997138953],[0.04104166666666664,1.0725925925925928,1.3737999997138957],[0.05437500000000005,0.9722222222222222,1.3930999999046279],[0.05437500000000005,0.9722222222222222,1.399799999713892],[0.07458333333333324,0.9342592592592592,1.4299999999999997],[0.07458333333333324,0.9342592592592592,1.437199999809259],[0.08406250000000005,0.7677777777777778,1.460099999904628],[0.08406250000000005,0.7677777777777778,1.4669999999999987],[0.09729166666666676,0.5718518518518517,1.5045999999046273],[0.09729166666666676,0.5718518518518517,1.511499999999998],[0.1568749999999999,0.2764814814814814,1.5244999999999962],[0.18979166666666672,0.053703703703703705,1.541099999904631],[0.20208333333333334,0.022777777777777692,1.5602999997138909],[0.18135416666666657,-0.004629629629629629,1.57509999990463],[0.18135416666666657,-0.004629629629629629,1.5910999999046282],[0.15041666666666675,-0.029814814814814856,1.6111999998092585],[0.15041666666666675,-0.029814814814814856,1.6245999999046319],[0.16135416666666677,-0.03129629629629625,1.6410999999046325],[0.19229166666666658,-0.048333333333333374,1.6577999997138946],[0.22489583333333343,-0.16370370370370366,1.6742999997138952],[0.2535416666666668,-0.19129629629629633,1.6921999998092616],[0.2711458333333333,-0.255,1.7075999999046303],[0.3138541666666666,-0.24518518518518514,1.7244000000953648],[0.36395833333333344,-0.22814814814814813,1.7409999999999997],[0.3734375,-0.24166666666666667,1.7575999999046275],[0.4048958333333334,-0.2692592592592592,1.7744999999999962],[0.44291666666666674,-0.28574074074074074,1.791099999904631],[0.4492708333333333,-0.34148148148148144,1.8076999998092589],[0.43760416666666657,-0.39462962962962966,1.8285999999046325],[0.4317708333333333,-0.3985185185185185,1.8449000000953646],[0.4087500000000001,-0.41074074074074074,1.8595999999046313],[0.3967708333333334,-0.38685185185185184,1.8744999999999976],[0.35958333333333337,-0.4003703703703704,1.8957999997138941],[0.32791666666666663,-0.4,1.9114000000953624],[0.32791666666666663,-0.4,1.9244999999999948],[0.33447916666666655,-0.3977777777777778,1.9410999999046297],[0.3558333333333332,-0.39092592592592595,1.9604000000953619],[0.3570833333333333,-0.3587037037037037,1.974499999999999],[0.3549999999999999,-0.2727777777777778,1.9910999999046268],[0.3603125000000001,-0.19000000000000003,2.0135999999046277],[0.3603125000000001,-0.19000000000000003,2.0242999997138966],[0.38604166666666656,-0.18666666666666668,2.040999999999997],[0.3806250000000001,-0.16518518518518516,2.058499999999995],[0.3914583333333333,-0.1374074074074074,2.074299999713894],[0.40895833333333326,-0.13574074074074077,2.091400000095362],[0.4209374999999999,-0.1479629629629629,2.107599999904629],[0.4289583333333333,-0.13037037037037033,2.1262999997138934],[0.4228125000000001,-0.10888888888888891,2.1434000000953617],[0.4367708333333333,-0.11277777777777774,2.1581999998092627],[0.4415625000000001,-0.14685185185185187,2.174199999809261],[0.4506249999999999,-0.17796296296296302,2.190900000095361],[0.43697916666666664,-0.172037037037037,2.21119999980926],[0.4462500000000001,-0.16833333333333328,2.228900000095365],[0.45260416666666664,-0.1603703703703704,2.242999999999995],[0.46062500000000006,-0.13444444444444448,2.2616999998092595],[0.45510416666666675,-0.11740740740740736,2.2764999999999986],[0.45635416666666656,-0.1257407407407407,2.2949000000953674],[0.45281250000000006,-0.1418518518518519,2.3141999998092615],[0.45281250000000006,-0.1418518518518519,2.324400000095366],[0.4443749999999999,-0.14888888888888885,2.341400000095362],[0.4443749999999999,-0.14888888888888885,2.357999999999997],[0.43770833333333337,-0.12388888888888884,2.3785999999046297],[0.43770833333333337,-0.12388888888888884,2.3919000000953616],[0.4257291666666667,-0.13629629629629633,2.4077999997138946],[0.4083333333333333,-0.0940740740740741,2.434999999999995],[0.4083333333333333,-0.0940740740740741,2.4421999998092616],[0.40812499999999996,-0.0794444444444444,2.4577999997138917],[0.3945833333333333,-0.07537037037037035,2.474599999904626],[0.38864583333333325,-0.04814814814814815,2.4942999997138955],[0.3823958333333332,-0.02388888888888885,2.509699999809264],[0.3662499999999999,0.022777777777777692,2.5271999998092625],[0.3466666666666666,0.03851851851851843,2.543999999999997],[0.33864583333333326,0.0625925925925925,2.560699999809259],[0.33864583333333326,0.0625925925925925,2.574299999713894],[0.3337500000000001,0.04148148148148144,2.590999999999994],[0.3337500000000001,0.04148148148148144,2.611400000095365],[0.3226041666666667,0.072037037037037,2.6244999999999976],[0.3226041666666667,0.072037037037037,2.6409999999999982],[0.3323958333333332,0.058333333333333334,2.663099999904631],[0.3323958333333332,0.058333333333333334,2.6744000000953676],[0.33916666666666656,0.05388888888888893,2.6910999999046297],[0.33916666666666656,0.05388888888888893,2.707900000095364],[0.33645833333333336,0.03814814814814819,2.7379000000953653],[0.33645833333333336,0.03814814814814819,2.747],[0.31666666666666665,0.005555555555555556,2.757799999713896],[0.31666666666666665,0.005555555555555556,2.774400000095362],[0.31791666666666674,-0.0198148148148149,2.7960999999046265],[0.31791666666666674,-0.0198148148148149,2.8079000000953656],[0.32062499999999994,-0.02907407407407416,2.824699999809262],[0.32062499999999994,-0.02907407407407416,2.8410999999046282],[0.32156250000000003,-0.00592592592592601,2.862499999999997],[0.32156250000000003,-0.00592592592592601,2.8744000000953633],[0.340625,-0.01629629629629621,2.8910999999046325],[0.340625,-0.01629629629629621,2.9076999998092603],[0.35520833333333335,-0.010185185185185186,2.9304000000953607],[0.35520833333333335,-0.010185185185185186,2.9410999999046297],[0.3740624999999999,-0.021296296296296296,2.9577999997138917],[0.3740624999999999,-0.021296296296296296,2.9742999997138924],[0.33718750000000003,0.04759259259259268,2.9954000000953656],[0.28229166666666666,0.07629629629629638,3.0094999999999956],[0.23927083333333338,0.12018518518518514,3.024499999999996],[0.21645833333333328,0.18259259259259264,3.0434999999999945],[0.21802083333333327,0.21851851851851853,3.057699999809259],[0.2181250000000001,0.23833333333333342,3.074400000095366],[0.22020833333333342,0.2511111111111112,3.0910999999046282],[0.22020833333333342,0.2511111111111112,3.110599999904629],[0.19958333333333325,0.2933333333333333,3.124699999809259],[0.20833333333333334,0.32259259259259265,3.1419000000953616],[0.20843749999999991,0.37407407407407406,3.160599999904626],[0.20843749999999991,0.37407407407407406,3.1744000000953676],[0.23666666666666672,0.36666666666666664,3.191199999809264],[0.2803124999999999,0.3790740740740742,3.213099999904628],[0.2803124999999999,0.3790740740740742,3.224499999999999],[0.3223958333333333,0.3911111111111112,3.241199999809261],[0.3492708333333333,0.3424074074074074,3.2579999999999956],[0.3445833333333333,0.3248148148148148,3.2767999997138944],[0.3368750000000001,0.31500000000000006,3.2927999997138926],[0.34041666666666665,0.35537037037037034,3.3085999999046294],[0.34395833333333337,0.3531481481481482,3.328799999713894],[0.34395833333333337,0.3531481481481482,3.3411999998092625],[0.32937500000000003,0.36870370370370376,3.357999999999997],[0.3226041666666667,0.3512962962962964,3.381299999713896],[0.3226041666666667,0.3512962962962964,3.3929000000953664],[0.3259375000000001,0.34388888888888897,3.4077999997138946],[0.3320833333333333,0.3520370370370371,3.426400000095363],[0.3319791666666667,0.3655555555555555,3.444599999904632],[0.31927083333333334,0.4094444444444445,3.459400000095364],[0.30656249999999996,0.45333333333333325,3.4744000000953648],[0.31312499999999993,0.46537037037037027,3.491099999904627],[0.3116666666666667,0.4327777777777779,3.5075999999046275],[0.30593750000000003,0.4422222222222221,3.5260999999046305],[0.30593750000000003,0.4422222222222221,3.543699999809263],[0.29718749999999994,0.45444444444444443,3.5579000000953656],[0.29718749999999994,0.45444444444444443,3.574400000095366],[0.2853125000000001,0.4564814814814815,3.5941999998092626],[0.2705208333333334,0.49722222222222223,3.6094000000953628],[0.27010416666666665,0.4875925925925925,3.625],[0.2573958333333332,0.4896296296296296,3.643199999809262],[0.26885416666666656,0.46333333333333343,3.6576999998092603],[0.30010416666666656,0.4351851851851852,3.6744999999999948],[0.30010416666666656,0.4351851851851852,3.6909999999999954],[0.29749999999999993,0.4198148148148149,3.7075999999046303],[0.3026041666666667,0.39648148148148155,3.7244000000953648],[0.3255208333333333,0.3625925925925925,3.7435999999046317],[0.3162499999999999,0.3051851851851851,3.7594999999999956],[0.3162499999999999,0.3051851851851851,3.774400000095362],[0.31364583333333323,0.2985185185185186,3.7937999997138974],[0.32083333333333336,0.23666666666666658,3.8094000000953656],[0.3056250000000001,0.2368518518518518,3.8264000000953615],[0.3056250000000001,0.2368518518518518,3.840999999999994],[0.32572916666666674,0.22074074074074082,3.8604000000953675],[0.3311458333333334,0.2381481481481482,3.8749000000953657],[0.32395833333333335,0.29499999999999993,3.8937999997138917],[0.32395833333333335,0.29499999999999993,3.907900000095367],[0.3329166666666666,0.3622222222222223,3.928999999999995],[0.3329166666666666,0.3622222222222223,3.941199999809264],[0.3355208333333332,0.38685185185185184,3.9577999997138917],[0.3355208333333332,0.38685185185185184,3.974499999999999],[0.3195833333333333,0.38944444444444437,3.994900000095363],[0.33270833333333344,0.41870370370370374,4.00959999990463],[0.3490624999999999,0.39462962962962966,4.028099999904626],[0.3559375000000001,0.36018518518518516,4.045999999999999],[0.37229166666666674,0.3122222222222223,4.060799999713893],[0.37489583333333343,0.2800000000000001,4.0752999997138915],[0.38614583333333335,0.2418518518518519,4.091099999904628],[0.3921875,0.17222222222222222,4.1107999997138975],[0.3837500000000001,0.07462962962962955,4.129099999904632],[0.3837500000000001,0.07462962962962955,4.14119999980926],[0.37447916666666664,0.020740740740740823,4.157900000095367],[0.36749999999999994,-0.023148148148148147,4.180299999713895],[0.36749999999999994,-0.023148148148148147,4.191299999713891],[0.3610416666666666,-0.07888888888888893,4.207799999713892],[0.3477083333333333,-0.12092592592592595,4.226400000095367],[0.3459374999999999,-0.14092592592592595,4.245099999904632],[0.33697916666666666,-0.16296296296296298,4.261299999713891],[0.3241666666666667,-0.205,4.276599999904626],[0.30479166666666657,-0.24518518518518514,4.291099999904631],[0.2834374999999999,-0.29148148148148145,4.308900000095363],[0.2921875,-0.3168518518518519,4.324400000095366],[0.3004166666666668,-0.33537037037037043,4.341099999904628],[0.3004166666666668,-0.33537037037037043,4.357599999904629],[0.3134375000000001,-0.33259259259259266,4.374299999713891],[0.3134375000000001,-0.33259259259259266,4.390999999999998],[0.32020833333333343,-0.3237037037037037,4.40769999980926],[0.3111458333333334,-0.30407407407407405,4.429599999904632],[0.31135416666666677,-0.3151851851851852,4.444900000095366],[0.29375,-0.3316666666666667,4.468499999999999],[0.29375,-0.3316666666666667,4.475099999904629],[0.2787499999999999,-0.34740740740740744,4.491],[0.26927083333333335,-0.3587037037037037,4.507799999713896],[0.2557291666666667,-0.33481481481481484,4.526199999809265],[0.2039583333333333,-0.297037037037037,4.541099999904631],[0.1521874999999999,-0.25925925925925924,4.557599999904632],[0.0962500000000001,-0.23296296296296298,4.5741999998092595],[0.03583333333333331,-0.22166666666666665,4.590900000095367],[-0.013020833333333334,-0.20092592592592592,4.608999999999995],[-0.07427083333333329,-0.16814814814814816,4.625900000095363],[-0.10729166666666666,-0.12629629629629627,4.640900000095364],[-0.14895833333333333,-0.05240740740740743,4.660099999904631],[-0.190625,0.021481481481481525,4.674199999809261],[-0.21968749999999998,0.020555555555555598,4.690900000095361],[-0.22468750000000004,0.013703703703703662,4.707699999809265],[-0.21989583333333335,-0.02444444444444453,4.727400000095365],[-0.21947916666666673,-0.04388888888888897,4.743499999999997],[-0.17583333333333329,-0.08814814814814818,4.758499999999998],[-0.15375000000000003,-0.14388888888888887,4.774400000095362],[-0.0907291666666667,-0.18870370370370365,4.791099999904631],[-0.0907291666666667,-0.18870370370370365,4.811299999713896],[-0.034375,-0.22296296296296292,4.824599999904628],[0.03239583333333336,-0.27555555555555555,4.844799999713892],[0.11114583333333337,-0.34388888888888886,4.865299999713898],[0.11114583333333337,-0.34388888888888886,4.874699999809259],[0.17114583333333327,-0.3685185185185185,4.8910999999046325],[0.17114583333333327,-0.3685185185185185,4.90769999980926],[0.2289583333333333,-0.41870370370370374,4.931299999713893],[0.2289583333333333,-0.41870370370370374,4.941199999809264],[0.27218749999999997,-0.4027777777777778,4.957900000095364],[0.27218749999999997,-0.4027777777777778,4.974499999999999],[0.3318749999999999,-0.4053703703703703,4.994900000095363],[0.34010416666666665,-0.3792592592592593,5.009299999713896],[0.378125,-0.3520370370370371,5.026799999713894],[0.40656249999999994,-0.3642592592592592,5.043799999713897],[0.41520833333333323,-0.33851851851851855,5.059299999713893],[0.4270833333333333,-0.3737037037037037,5.074400000095366],[0.42687499999999995,-0.37518518518518523,5.094699999809265],[0.4414583333333333,-0.3622222222222223,5.109499999999997],[0.4493750000000001,-0.30092592592592593,5.1266999998092615],[0.4609375,-0.27999999999999997,5.141599999904628],[0.4571875000000001,-0.2640740740740741,5.161299999713897],[0.48250000000000004,-0.30092592592592593,5.175799999713895],[0.505,-0.3453703703703704,5.19259999990463],[0.4881249999999999,-0.3707407407407407,5.210499999999996],[0.5287499999999999,-0.4105555555555555,5.226799999713897],[0.5617708333333333,-0.4038888888888889,5.242299999713893],[0.564375,-0.4222222222222222,5.258799999713894],[0.5623958333333334,-0.459074074074074,5.276799999713894],[0.5528125,-0.5203703703703704,5.292199999809263],[0.5443749999999999,-0.5761111111111111,5.307599999904632],[0.5272916666666667,-0.605,5.326900000095364],[0.5272916666666667,-0.605,5.340999999999994],[0.4944791666666667,-0.5857407407407408,5.362199999809263],[0.4944791666666667,-0.5857407407407408,5.374499999999998],[0.49854166666666655,-0.5396296296296296,5.391299999713894],[0.505,-0.4831481481481481,5.410799999713895],[0.4744791666666667,-0.4905555555555555,5.426799999713893],[0.3948958333333332,-0.42000000000000004,5.44109999990463],[0.33624999999999994,-0.3424074074074074,5.4646999998092625],[0.33624999999999994,-0.3424074074074074,5.474299999713892],[0.3372916666666666,-0.3357407407407408,5.491199999809261],[0.3363541666666668,-0.307962962962963,5.507499999999993],[0.3685416666666666,-0.23425925925925925,5.524699999809265],[0.41041666666666665,-0.17018518518518513,5.5409000000953625],[0.46770833333333334,-0.11981481481481479,5.557599999904632],[0.49093749999999997,-0.08870370370370366,5.574299999713894],[0.48770833333333335,-0.06259259259259262,5.592599999904628],[0.4795833333333334,0.0007407407407406986,5.607799999713897],[0.5110416666666666,-0.0294444444444444,5.625799999713891],[0.5547916666666666,-0.05425925925925928,5.640900000095364],[0.5382291666666668,-0.01629629629629621,5.6610999999046285],[0.5479166666666667,-0.012777777777777735,5.674499999999995],[0.5311458333333334,-0.07333333333333338,5.690900000095361],[0.5011458333333333,-0.11537037037037039,5.707499999999996],[0.48427083333333343,-0.17999999999999997,5.724499999999999],[0.46239583333333345,-0.21185185185185182,5.742099999904632],[0.4680208333333333,-0.3051851851851852,5.7575999999046275],[0.45979166666666677,-0.36203703703703705,5.774199999809262],[0.46072916666666663,-0.40055555555555555,5.790999999999997],[0.45552083333333326,-0.40129629629629626,5.8079000000953656],[0.4644791666666668,-0.4477777777777778,5.827799999713896],[0.4817708333333333,-0.5137037037037037,5.8434000000953645],[0.47645833333333343,-0.5227777777777778,5.857599999904629],[0.49968750000000006,-0.582037037037037,5.874199999809264],[0.47677083333333337,-0.5712962962962963,5.892299999713892],[0.4803124999999999,-0.6266666666666666,5.907599999904626],[0.4669791666666666,-0.5624074074074074,5.9280999999046315],[0.48239583333333325,-0.5751851851851852,5.943400000095366],[0.5030208333333335,-0.5974074074074075,5.958299999713894],[0.5270833333333333,-0.6627777777777777,5.978199999809263],[0.5257291666666667,-0.655,5.994799999713898],[0.5038541666666667,-0.6194444444444445,6.008799999713894],[0.4875,-0.6005555555555556,6.025799999713897],[0.4580208333333334,-0.5624074074074074,6.043599999904629],[0.4580208333333334,-0.5624074074074074,6.061099999904627],[0.4422916666666666,-0.5309259259259259,6.07569999980926],[0.4422916666666666,-0.5309259259259259,6.090900000095367],[0.41218750000000004,-0.45999999999999996,6.107799999713897],[0.3641666666666666,-0.5007407407407407,6.125799999713891],[0.2756249999999999,-0.5316666666666667,6.142499999999998],[0.17260416666666673,-0.4987037037037037,6.157599999904626],[0.07166666666666661,-0.44962962962962966,6.174199999809261],[-0.010208333333333286,-0.46055555555555555,6.190900000095361],[-0.09468749999999998,-0.43499999999999994,6.20759999990463],[-0.16843750000000005,-0.4353703703703704,6.224599999904626],[-0.23791666666666664,-0.36259259259259263,6.240900000095365],[-0.3242708333333333,-0.30759259259259264,6.257499999999993],[-0.41770833333333335,-0.25870370370370366,6.274199999809262],[-0.42875,-0.2205555555555556,6.2909000000953625],[-0.41989583333333336,-0.14777777777777779,6.307599999904632],[-0.39864583333333337,-0.14814814814814814,6.324299999713894],[-0.4061458333333333,-0.09703703703703699,6.340900000095367],[-0.4061458333333333,-0.09703703703703699,6.357699999809263],[-0.4053125,-0.018703703703703747,6.374199999809264],[-0.4053125,-0.018703703703703747,6.390900000095364],[-0.38656250000000003,0.03481481481481473,6.407900000095367],[-0.38656250000000003,0.03481481481481473,6.424199999809261],[-0.34406249999999994,0.0772222222222223,6.440900000095361],[-0.2445833333333333,0.03814814814814819,6.45759999990463],[-0.2445833333333333,0.03814814814814819,6.474299999713892],[-0.1360416666666667,-0.02111111111111107,6.490799999713893],[-0.013645833333333357,-0.09537037037037037,6.5075999999046275],[0.0696875000000001,-0.12518518518518523,6.524799999713892],[0.15875000000000009,-0.1588888888888889,6.5409000000953625],[0.24708333333333338,-0.18796296296296297,6.557599999904632],[0.3536458333333333,-0.24000000000000005,6.574299999713894],[0.44468750000000007,-0.2785185185185185,6.590999999999994],[0.5373958333333334,-0.33796296296296297,6.607499999999995],[0.6060416666666666,-0.3824074074074074,6.624900000095366],[0.6070833333333333,-0.42833333333333334,6.640900000095364],[0.6247916666666666,-0.4596296296296296,6.657499999999999],[0.6286458333333333,-0.4759259259259259,6.674199999809261],[0.628125,-0.4570370370370371,6.691199999809264],[0.6276041666666666,-0.4381481481481482,6.707499999999996],[0.6129166666666668,-0.38685185185185184,6.724299999713892],[0.6230208333333332,-0.4057407407407408,6.740799999713893],[0.6306250000000001,-0.38870370370370366,6.757499999999993],[0.6256249999999999,-0.3557407407407408,6.774199999809262],[0.6030208333333335,-0.36500000000000005,6.796299999713895],[0.6030208333333335,-0.36500000000000005,6.807499999999997],[0.5717708333333335,-0.32037037037037036,6.824299999713894],[0.5717708333333335,-0.32037037037037036,6.840900000095367],[0.5405208333333335,-0.2757407407407407,6.857599999904629],[0.5405208333333335,-0.2757407407407407,6.874199999809264],[0.5104166666666666,-0.2403703703703704,6.890900000095364],[0.5104166666666666,-0.2403703703703704,6.907599999904626],[0.47020833333333345,-0.2146296296296296,6.924299999713895],[0.47020833333333345,-0.2146296296296296,6.940900000095361],[0.4366666666666667,-0.19296296296296295,6.95759999990463],[0.37822916666666656,-0.14425925925925923,6.979299999713895],[0.30343749999999997,-0.07000000000000002,6.994099999904627],[0.24291666666666673,-0.037037037037037035,7.008299999713891],[0.18239583333333323,-0.004074074074074159,7.025900000095362],[0.13447916666666657,0.08074074074074078,7.040799999713897],[0.1015625,0.12148148148148152,7.057499999999997],[0.06864583333333343,0.16222222222222227,7.0741999998092595],[0.03885416666666662,0.2153703703703703,7.090900000095367],[0.019583333333333286,0.2668518518518519,7.107499999999995],[0.01864583333333331,0.30388888888888893,7.125900000095363],[0.0546875,0.2927777777777778,7.140799999713892],[0.1053124999999999,0.2361111111111111,7.157599999904626],[0.1375,0.19148148148148145,7.174199999809261],[0.1788541666666667,0.11296296296296296,7.190900000095361],[0.22520833333333337,0.024814814814814772,7.207499999999996],[0.2730208333333332,-0.06518518518518517,7.224199999809265],[0.32083333333333336,-0.1551851851851852,7.240799999713893],[0.3625,-0.20907407407407402,7.257499999999993],[0.4041666666666667,-0.26296296296296295,7.274199999809262],[0.41604166666666675,-0.3290740740740741,7.290799999713897],[0.4279166666666666,-0.39518518518518514,7.307599999904632],[0.4331249999999999,-0.3861111111111111,7.324799999713896],[0.44500000000000006,-0.38370370370370366,7.340999999999994],[0.43802083333333336,-0.4022222222222222,7.357599999904629],[0.4301041666666668,-0.4124074074074074,7.374699999809259],[0.4301041666666668,-0.4124074074074074,7.390900000095364],[0.4265625,-0.37407407407407406,7.407599999904626],[0.42302083333333323,-0.36870370370370376,7.424699999809263],[0.4331249999999999,-0.4105555555555555,7.440900000095361],[0.4432291666666667,-0.4524074074074074,7.45759999990463],[0.45812499999999995,-0.46351851851851855,7.477499999999999],[0.4782291666666666,-0.47074074074074074,7.493400000095363],[0.46604166666666674,-0.5520370370370371,7.507799999713896],[0.4748958333333334,-0.6190740740740741,7.528400000095367],[0.48552083333333323,-0.6392592592592592,7.542199999809263],[0.51125,-0.6327777777777778,7.558900000095363],[0.5275000000000001,-0.7062962962962962,7.5741999998092595],[0.5275000000000001,-0.7062962962962962,7.593499999999999],[0.5314583333333334,-0.6983333333333334,7.607699999809263],[0.5314583333333334,-0.6983333333333334,7.624400000095363],[0.5490624999999999,-0.707037037037037,7.644499999999994],[0.5484375,-0.7003703703703703,7.660099999904631],[0.5478125000000001,-0.6937037037037037,7.674299999713895],[0.5452083333333334,-0.7231481481481481,7.693199999809259],[0.5645833333333333,-0.6681481481481482,7.707999999999998],[0.5576041666666666,-0.6298148148148148,7.726299999713895],[0.5533333333333333,-0.5653703703703704,7.742199999809259],[0.5417708333333332,-0.5618518518518518,7.760400000095366],[0.5397916666666667,-0.4868518518518518,7.7760999999046305],[0.5397916666666667,-0.4868518518518518,7.7909000000953625],[0.5501041666666666,-0.46037037037037043,7.807499999999997],[0.5228125000000001,-0.40796296296296297,7.826900000095364],[0.47552083333333334,-0.29203703703703704,7.8434000000953645],[0.4283333333333334,-0.20166666666666663,7.857499999999995],[0.3758333333333333,-0.026111111111111154,7.876799999713896],[0.36708333333333343,0.01314814814814819,7.896400000095362],[0.3636458333333332,0.05481481481481486,7.910900000095367],[0.37770833333333326,0.020740740740740823,7.929400000095363],[0.38312499999999994,0.034999999999999955,7.9435],[0.39114583333333336,-0.006481481481481481,7.9584000000953665],[0.3953125,-0.023333333333333376,7.979400000095367],[0.39260416666666675,-0.025370370370370456,7.994999999999997],[0.4357291666666666,-0.11240740740740739,8.009400000095361],[0.46593749999999995,-0.18722222222222226,8.030299999713897],[0.46593749999999995,-0.18722222222222226,8.041099999904631],[0.5297916666666665,-0.3418518518518519,8.057699999809259],[0.5522916666666667,-0.40018518518518525,8.075499999999998],[0.5705208333333334,-0.45796296296296296,8.093799999713895],[0.5682291666666667,-0.44425925925925924,8.109299999713897],[0.5591666666666666,-0.4612962962962963,8.1265],[0.5514583333333334,-0.47370370370370374,8.143400000095362],[0.5476041666666667,-0.5107407407407407,8.15769999980926],[0.5557291666666667,-0.5183333333333333,8.174699999809263],[0.55625,-0.5198148148148148,8.190900000095361],[0.5746875,-0.542037037037037,8.207499999999996],[0.5615624999999999,-0.5374074074074073,8.226999999999997],[0.5502083333333334,-0.49962962962962965,8.242299999713893],[0.5285416666666668,-0.5062962962962962,8.259099999904628],[0.5209374999999999,-0.5224074074074074,8.275900000095362],[0.5334374999999999,-0.4848148148148148,8.293799999713897],[0.5360416666666665,-0.43425925925925923,8.311400000095361]]","[0.0001999998092614419,0.059499999999999886,0.07629999971389623,0.0839000000953618,0.10959999990463132,0.1189000000953655,0.1445999999046279,0.15129999971389196,0.1760999999046291,0.18359999990462939,0.20959999990463274,0.21690000009536448,0.24529999971389316,0.25229999971389105,0.2779000000953644,0.28559999990462615,0.31140000009536095,0.31890000009536124,0.34340000009536453,0.3530999999046287,0.37869999980926394,0.38759999990463,0.4121999998092605,0.41969999980926076,0.4487999997138914,0.4556999998092621,0.4806999998092607,0.48890000009536294,0.513699999809262,0.5219000000953642,0.5461999998092608,0.5534999999999997,0.5795999999046302,0.5866999998092624,0.5962999997138922,0.6299999999999955,0.6379000000953639,0.6629000000953624,0.669400000095365,0.6966999998092618,0.7139000000953644,0.7294000000953673,0.7369999999999948,0.7650999999046277,0.7722999997138942,0.792900000095365,0.7999999999999972,0.8279000000953616,0.8351999998092623,0.8599000000953652,0.867299999713893,0.8939000000953641,0.9007999997138967,0.9265999999046315,0.9339000000953632,0.9627999997138943,0.970099999904626,0.9929000000953607,0.9997999997138933,1.0297999997138945,1.0364000000953624,1.059599999904627,1.0670999999046273,1.0929999999999964,1.0999000000953671,1.1264000000953658,1.1339999999999932,1.1594999999999942,1.1662999997138925,1.1929000000953636,1.2002999997138915,1.2294999999999945,1.2372999997138976,1.2594999999999956,1.266699999809262,1.2952999997138974,1.3019000000953653,1.3262999997138962,1.33469999980926,1.3632999997138953,1.3737999997138957,1.3930999999046279,1.399799999713892,1.4299999999999997,1.437199999809259,1.460099999904628,1.4669999999999987,1.5045999999046273,1.511499999999998,1.5244999999999962,1.541099999904631,1.5602999997138909,1.57509999990463,1.5910999999046282,1.6111999998092585,1.6245999999046319,1.6410999999046325,1.6577999997138946,1.6742999997138952,1.6921999998092616,1.7075999999046303,1.7244000000953648,1.7409999999999997,1.7575999999046275,1.7744999999999962,1.791099999904631,1.8076999998092589,1.8285999999046325,1.8449000000953646,1.8595999999046313,1.8744999999999976,1.8957999997138941,1.9114000000953624,1.9244999999999948,1.9410999999046297,1.9604000000953619,1.974499999999999,1.9910999999046268,2.0135999999046277,2.0242999997138966,2.040999999999997,2.058499999999995,2.074299999713894,2.091400000095362,2.107599999904629,2.1262999997138934,2.1434000000953617,2.1581999998092627,2.174199999809261,2.190900000095361,2.21119999980926,2.228900000095365,2.242999999999995,2.2616999998092595,2.2764999999999986,2.2949000000953674,2.3141999998092615,2.324400000095366,2.341400000095362,2.357999999999997,2.3785999999046297,2.3919000000953616,2.4077999997138946,2.434999999999995,2.4421999998092616,2.4577999997138917,2.474599999904626,2.4942999997138955,2.509699999809264,2.5271999998092625,2.543999999999997,2.560699999809259,2.574299999713894,2.590999999999994,2.611400000095365,2.6244999999999976,2.6409999999999982,2.663099999904631,2.6744000000953676,2.6910999999046297,2.707900000095364,2.7379000000953653,2.747,2.757799999713896,2.774400000095362,2.7960999999046265,2.8079000000953656,2.824699999809262,2.8410999999046282,2.862499999999997,2.8744000000953633,2.8910999999046325,2.9076999998092603,2.9304000000953607,2.9410999999046297,2.9577999997138917,2.9742999997138924,2.9954000000953656,3.0094999999999956,3.024499999999996,3.0434999999999945,3.057699999809259,3.074400000095366,3.0910999999046282,3.110599999904629,3.124699999809259,3.1419000000953616,3.160599999904626,3.1744000000953676,3.191199999809264,3.213099999904628,3.224499999999999,3.241199999809261,3.2579999999999956,3.2767999997138944,3.2927999997138926,3.3085999999046294,3.328799999713894,3.3411999998092625,3.357999999999997,3.381299999713896,3.3929000000953664,3.4077999997138946,3.426400000095363,3.444599999904632,3.459400000095364,3.4744000000953648,3.491099999904627,3.5075999999046275,3.5260999999046305,3.543699999809263,3.5579000000953656,3.574400000095366,3.5941999998092626,3.6094000000953628,3.625,3.643199999809262,3.6576999998092603,3.6744999999999948,3.6909999999999954,3.7075999999046303,3.7244000000953648,3.7435999999046317,3.7594999999999956,3.774400000095362,3.7937999997138974,3.8094000000953656,3.8264000000953615,3.840999999999994,3.8604000000953675,3.8749000000953657,3.8937999997138917,3.907900000095367,3.928999999999995,3.941199999809264,3.9577999997138917,3.974499999999999,3.994900000095363,4.00959999990463,4.028099999904626,4.045999999999999,4.060799999713893,4.0752999997138915,4.091099999904628,4.1107999997138975,4.129099999904632,4.14119999980926,4.157900000095367,4.180299999713895,4.191299999713891,4.207799999713892,4.226400000095367,4.245099999904632,4.261299999713891,4.276599999904626,4.291099999904631,4.308900000095363,4.324400000095366,4.341099999904628,4.357599999904629,4.374299999713891,4.390999999999998,4.40769999980926,4.429599999904632,4.444900000095366,4.468499999999999,4.475099999904629,4.491,4.507799999713896,4.526199999809265,4.541099999904631,4.557599999904632,4.5741999998092595,4.590900000095367,4.608999999999995,4.625900000095363,4.640900000095364,4.660099999904631,4.674199999809261,4.690900000095361,4.707699999809265,4.727400000095365,4.743499999999997,4.758499999999998,4.774400000095362,4.791099999904631,4.811299999713896,4.824599999904628,4.844799999713892,4.865299999713898,4.874699999809259,4.8910999999046325,4.90769999980926,4.931299999713893,4.941199999809264,4.957900000095364,4.974499999999999,4.994900000095363,5.009299999713896,5.026799999713894,5.043799999713897,5.059299999713893,5.074400000095366,5.094699999809265,5.109499999999997,5.1266999998092615,5.141599999904628,5.161299999713897,5.175799999713895,5.19259999990463,5.210499999999996,5.226799999713897,5.242299999713893,5.258799999713894,5.276799999713894,5.292199999809263,5.307599999904632,5.326900000095364,5.340999999999994,5.362199999809263,5.374499999999998,5.391299999713894,5.410799999713895,5.426799999713893,5.44109999990463,5.4646999998092625,5.474299999713892,5.491199999809261,5.507499999999993,5.524699999809265,5.5409000000953625,5.557599999904632,5.574299999713894,5.592599999904628,5.607799999713897,5.625799999713891,5.640900000095364,5.6610999999046285,5.674499999999995,5.690900000095361,5.707499999999996,5.724499999999999,5.742099999904632,5.7575999999046275,5.774199999809262,5.790999999999997,5.8079000000953656,5.827799999713896,5.8434000000953645,5.857599999904629,5.874199999809264,5.892299999713892,5.907599999904626,5.9280999999046315,5.943400000095366,5.958299999713894,5.978199999809263,5.994799999713898,6.008799999713894,6.025799999713897,6.043599999904629,6.061099999904627,6.07569999980926,6.090900000095367,6.107799999713897,6.125799999713891,6.142499999999998,6.157599999904626,6.174199999809261,6.190900000095361,6.20759999990463,6.224599999904626,6.240900000095365,6.257499999999993,6.274199999809262,6.2909000000953625,6.307599999904632,6.324299999713894,6.340900000095367,6.357699999809263,6.374199999809264,6.390900000095364,6.407900000095367,6.424199999809261,6.440900000095361,6.45759999990463,6.474299999713892,6.490799999713893,6.5075999999046275,6.524799999713892,6.5409000000953625,6.557599999904632,6.574299999713894,6.590999999999994,6.607499999999995,6.624900000095366,6.640900000095364,6.657499999999999,6.674199999809261,6.691199999809264,6.707499999999996,6.724299999713892,6.740799999713893,6.757499999999993,6.774199999809262,6.796299999713895,6.807499999999997,6.824299999713894,6.840900000095367,6.857599999904629,6.874199999809264,6.890900000095364,6.907599999904626,6.924299999713895,6.940900000095361,6.95759999990463,6.979299999713895,6.994099999904627,7.008299999713891,7.025900000095362,7.040799999713897,7.057499999999997,7.0741999998092595,7.090900000095367,7.107499999999995,7.125900000095363,7.140799999713892,7.157599999904626,7.174199999809261,7.190900000095361,7.207499999999996,7.224199999809265,7.240799999713893,7.257499999999993,7.274199999809262,7.290799999713897,7.307599999904632,7.324799999713896,7.340999999999994,7.357599999904629,7.374699999809259,7.390900000095364,7.407599999904626,7.424699999809263,7.440900000095361,7.45759999990463,7.477499999999999,7.493400000095363,7.507799999713896,7.528400000095367,7.542199999809263,7.558900000095363,7.5741999998092595,7.593499999999999,7.607699999809263,7.624400000095363,7.644499999999994,7.660099999904631,7.674299999713895,7.693199999809259,7.707999999999998,7.726299999713895,7.742199999809259,7.760400000095366,7.7760999999046305,7.7909000000953625,7.807499999999997,7.826900000095364,7.8434000000953645,7.857499999999995,7.876799999713896,7.896400000095362,7.910900000095367,7.929400000095363,7.9435,7.9584000000953665,7.979400000095367,7.994999999999997,8.009400000095361,8.030299999713897,8.041099999904631,8.057699999809259,8.075499999999998,8.093799999713895,8.109299999713897,8.1265,8.143400000095362,8.15769999980926,8.174699999809263,8.190900000095361,8.207499999999996,8.226999999999997,8.242299999713893,8.259099999904628,8.275900000095362,8.293799999713897,8.311400000095361]","[1731991729964,1731991730012,1731991730029,1731991730036,1731991730062,1731991730071,1731991730097,1731991730104,1731991730128,1731991730136,1731991730162,1731991730169,1731991730197,1731991730205,1731991730230,1731991730238,1731991730264,1731991730271,1731991730296,1731991730305,1731991730331,1731991730340,1731991730364,1731991730372,1731991730401,1731991730408,1731991730433,1731991730441,1731991730466,1731991730474,1731991730498,1731991730506,1731991730532,1731991730539,1731991730548,1731991730582,1731991730590,1731991730615,1731991730622,1731991730649,1731991730666,1731991730682,1731991730689,1731991730717,1731991730725,1731991730745,1731991730752,1731991730780,1731991730787,1731991730812,1731991730819,1731991730846,1731991730853,1731991730879,1731991730886,1731991730915,1731991730922,1731991730945,1731991730952,1731991730982,1731991730989,1731991731012,1731991731019,1731991731045,1731991731052,1731991731079,1731991731086,1731991731112,1731991731118,1731991731145,1731991731152,1731991731182,1731991731190,1731991731212,1731991731219,1731991731247,1731991731254,1731991731279,1731991731287,1731991731316,1731991731326,1731991731345,1731991731352,1731991731382,1731991731389,1731991731412,1731991731419,1731991731457,1731991731464,1731991731477,1731991731493,1731991731512,1731991731527,1731991731543,1731991731563,1731991731577,1731991731593,1731991731610,1731991731626,1731991731644,1731991731660,1731991731677,1731991731693,1731991731710,1731991731727,1731991731743,1731991731760,1731991731781,1731991731797,1731991731812,1731991731827,1731991731848,1731991731864,1731991731877,1731991731893,1731991731913,1731991731927,1731991731943,1731991731966,1731991731977,1731991731993,1731991732011,1731991732026,1731991732044,1731991732060,1731991732078,1731991732096,1731991732110,1731991732126,1731991732143,1731991732163,1731991732181,1731991732195,1731991732214,1731991732229,1731991732247,1731991732266,1731991732277,1731991732294,1731991732310,1731991732333,1731991732346,1731991732362,1731991732389,1731991732396,1731991732412,1731991732429,1731991732448,1731991732464,1731991732481,1731991732498,1731991732515,1731991732528,1731991732545,1731991732565,1731991732578,1731991732595,1731991732617,1731991732628,1731991732645,1731991732662,1731991732692,1731991732701,1731991732712,1731991732728,1731991732750,1731991732762,1731991732779,1731991732795,1731991732816,1731991732828,1731991732845,1731991732862,1731991732884,1731991732895,1731991732912,1731991732928,1731991732949,1731991732963,1731991732978,1731991732997,1731991733012,1731991733028,1731991733045,1731991733064,1731991733079,1731991733096,1731991733114,1731991733128,1731991733145,1731991733167,1731991733178,1731991733195,1731991733212,1731991733231,1731991733247,1731991733263,1731991733283,1731991733295,1731991733312,1731991733335,1731991733347,1731991733362,1731991733380,1731991733399,1731991733413,1731991733428,1731991733445,1731991733461,1731991733480,1731991733498,1731991733512,1731991733528,1731991733548,1731991733563,1731991733579,1731991733597,1731991733612,1731991733628,1731991733645,1731991733661,1731991733678,1731991733697,1731991733713,1731991733728,1731991733748,1731991733763,1731991733780,1731991733795,1731991733814,1731991733829,1731991733848,1731991733862,1731991733883,1731991733895,1731991733912,1731991733928,1731991733949,1731991733964,1731991733982,1731991734000,1731991734015,1731991734029,1731991734045,1731991734065,1731991734083,1731991734095,1731991734112,1731991734134,1731991734145,1731991734162,1731991734180,1731991734199,1731991734215,1731991734230,1731991734245,1731991734263,1731991734278,1731991734295,1731991734311,1731991734328,1731991734345,1731991734362,1731991734384,1731991734399,1731991734422,1731991734429,1731991734445,1731991734462,1731991734480,1731991734495,1731991734511,1731991734528,1731991734545,1731991734563,1731991734580,1731991734595,1731991734614,1731991734628,1731991734645,1731991734662,1731991734681,1731991734697,1731991734712,1731991734728,1731991734745,1731991734765,1731991734778,1731991734799,1731991734819,1731991734829,1731991734845,1731991734862,1731991734885,1731991734895,1731991734912,1731991734928,1731991734949,1731991734963,1731991734981,1731991734998,1731991735013,1731991735028,1731991735048,1731991735063,1731991735081,1731991735095,1731991735115,1731991735130,1731991735146,1731991735164,1731991735181,1731991735196,1731991735213,1731991735231,1731991735246,1731991735261,1731991735281,1731991735295,1731991735316,1731991735328,1731991735345,1731991735365,1731991735381,1731991735395,1731991735419,1731991735428,1731991735445,1731991735461,1731991735479,1731991735495,1731991735511,1731991735528,1731991735546,1731991735562,1731991735580,1731991735595,1731991735615,1731991735628,1731991735645,1731991735661,1731991735678,1731991735696,1731991735711,1731991735728,1731991735745,1731991735762,1731991735782,1731991735797,1731991735811,1731991735828,1731991735846,1731991735861,1731991735882,1731991735897,1731991735912,1731991735932,1731991735949,1731991735963,1731991735980,1731991735997,1731991736015,1731991736030,1731991736045,1731991736062,1731991736080,1731991736096,1731991736111,1731991736128,1731991736145,1731991736161,1731991736178,1731991736195,1731991736211,1731991736228,1731991736245,1731991736261,1731991736278,1731991736295,1731991736312,1731991736328,1731991736345,1731991736362,1731991736378,1731991736395,1731991736411,1731991736428,1731991736445,1731991736461,1731991736479,1731991736495,1731991736511,1731991736528,1731991736545,1731991736561,1731991736579,1731991736595,1731991736611,1731991736628,1731991736645,1731991736661,1731991736678,1731991736695,1731991736711,1731991736728,1731991736750,1731991736761,1731991736778,1731991736795,1731991736811,1731991736828,1731991736845,1731991736861,1731991736878,1731991736895,1731991736911,1731991736933,1731991736948,1731991736962,1731991736980,1731991736995,1731991737011,1731991737028,1731991737045,1731991737061,1731991737080,1731991737095,1731991737111,1731991737128,1731991737145,1731991737161,1731991737178,1731991737195,1731991737211,1731991737228,1731991737245,1731991737262,1731991737279,1731991737295,1731991737311,1731991737329,1731991737345,1731991737362,1731991737379,1731991737395,1731991737411,1731991737431,1731991737447,1731991737462,1731991737482,1731991737496,1731991737513,1731991737528,1731991737547,1731991737562,1731991737578,1731991737598,1731991737614,1731991737628,1731991737647,1731991737662,1731991737680,1731991737696,1731991737714,1731991737730,1731991737745,1731991737761,1731991737781,1731991737797,1731991737811,1731991737831,1731991737850,1731991737865,1731991737883,1731991737897,1731991737912,1731991737933,1731991737949,1731991737963,1731991737984,1731991737995,1731991738012,1731991738029,1731991738048,1731991738063,1731991738080,1731991738097,1731991738112,1731991738129,1731991738145,1731991738161,1731991738181,1731991738196,1731991738213,1731991738230,1731991738248,1731991738265]","[[894.4,295],[894.4,295],[922.5,269.4],[922.5,269.4],[939.3,272.5],[939.3,272.5],[954.3,305.5],[954.3,305.5],[948.7,334.8],[948.7,334.8],[968.4,380.8],[968.4,380.8],[969.7,388.7],[969.7,388.7],[959.1,430.7],[959.1,430.7],[941.4,451],[941.4,451],[924.4,483],[924.4,483],[931.9,518.6],[931.9,518.6],[912,546.6],[912,546.6],[907.6,605.2],[907.6,605.2],[916.8,595.7],[916.8,595.7],[931.9,588.1],[931.9,588.1],[942.7,573],[942.7,573],[941.5,558.5],[941.5,558.5],[941.5,558.5],[949.9,521.6],[949.9,521.6],[971.8,484.8],[971.8,484.8],[1006.8,431.2],[1006.8,431.2],[999.6,420.9],[999.6,420.9],[992.2,387.2],[992.2,387.2],[998.1,395.6],[998.1,395.6],[990,410.7],[990,410.7],[1003.2,422.6],[1003.2,422.6],[986.6,440.2],[986.6,440.2],[1007,471.4],[1007,471.4],[1018.2,470.8],[1018.2,470.8],[1026.1,534],[1026.1,534],[1030.6,601.8],[1030.6,601.8],[1052.1,661.5],[1052.1,661.5],[1045.9,755.3],[1045.9,755.3],[1063.5,815.2],[1063.5,815.2],[1079.7,922.5],[1079.7,922.5],[1036.5,1068],[1036.5,1068],[1019.8,1162],[1019.8,1162],[1003.1,1146.1],[1003.1,1146.1],[1013.8,1178],[1013.8,1178],[1013.3,1149.5],[1013.3,1149.5],[999.4,1119.2],[999.4,1119.2],[1012.2,1065],[1012.2,1065],[1031.6,1044.5],[1031.6,1044.5],[1040.7,954.6],[1040.7,954.6],[1053.4,848.8],[1053.4,848.8],[1110.6,689.3],[1142.2,569],[1154,552.3],[1134.1,537.5],[1134.1,537.5],[1104.4,523.9],[1104.4,523.9],[1114.9,523.1],[1144.6,513.9],[1175.9,451.6],[1203.4,436.7],[1220.3,402.3],[1261.3,407.6],[1309.4,416.8],[1318.5,409.5],[1348.7,394.6],[1385.2,385.7],[1391.3,355.6],[1380.1,326.9],[1374.5,324.8],[1352.4,318.2],[1340.9,331.1],[1305.2,323.8],[1274.8,324],[1274.8,324],[1281.1,325.2],[1301.6,328.9],[1302.8,346.3],[1300.8,392.7],[1305.9,437.4],[1305.9,437.4],[1330.6,439.2],[1325.4,450.8],[1335.8,465.8],[1352.6,466.7],[1364.1,460.1],[1371.8,469.6],[1365.9,481.2],[1379.3,479.1],[1383.9,460.7],[1392.6,443.9],[1379.5,447.1],[1388.4,449.1],[1394.5,453.4],[1402.2,467.4],[1396.9,476.6],[1398.1,472.1],[1394.7,463.4],[1394.7,463.4],[1386.6,459.6],[1386.6,459.6],[1380.2,473.1],[1380.2,473.1],[1368.7,466.4],[1352,489.2],[1352,489.2],[1351.8,497.1],[1338.8,499.3],[1333.1,514],[1327.1,527.1],[1311.6,552.3],[1292.8,560.8],[1285.1,573.8],[1285.1,573.8],[1280.4,562.4],[1280.4,562.4],[1269.7,578.9],[1269.7,578.9],[1279.1,571.5],[1279.1,571.5],[1285.6,569.1],[1285.6,569.1],[1283,560.6],[1283,560.6],[1264,543],[1264,543],[1265.2,529.3],[1265.2,529.3],[1267.8,524.3],[1267.8,524.3],[1268.7,536.8],[1268.7,536.8],[1287,531.2],[1287,531.2],[1301,534.5],[1301,534.5],[1319.1,528.5],[1319.1,528.5],[1283.7,565.7],[1231,581.2],[1189.7,604.9],[1167.8,638.6],[1169.3,658],[1169.4,668.7],[1171.4,675.6],[1171.4,675.6],[1151.6,698.4],[1160,714.2],[1160.1,742],[1160.1,742],[1187.2,738],[1229.1,744.7],[1229.1,744.7],[1269.5,751.2],[1295.3,724.9],[1290.8,715.4],[1283.4,710.1],[1286.8,731.9],[1290.2,730.7],[1290.2,730.7],[1276.2,739.1],[1269.7,729.7],[1269.7,729.7],[1272.9,725.7],[1278.8,730.1],[1278.7,737.4],[1266.5,761.1],[1254.3,784.8],[1260.6,791.3],[1259.2,773.7],[1253.7,778.8],[1253.7,778.8],[1245.3,785.4],[1245.3,785.4],[1233.9,786.5],[1219.7,808.5],[1219.3,803.3],[1207.1,804.4],[1218.1,790.2],[1248.1,775],[1248.1,775],[1245.6,766.7],[1250.5,754.1],[1272.5,735.8],[1263.6,704.8],[1263.6,704.8],[1261.1,701.2],[1268,667.8],[1253.4,667.9],[1253.4,667.9],[1272.7,659.2],[1277.9,668.6],[1271,699.3],[1271,699.3],[1279.6,735.6],[1279.6,735.6],[1282.1,748.9],[1282.1,748.9],[1266.8,750.3],[1279.4,766.1],[1295.1,753.1],[1301.7,734.5],[1317.4,708.6],[1319.9,691.2],[1330.7,670.6],[1336.5,633],[1328.4,580.3],[1328.4,580.3],[1319.5,551.2],[1312.8,527.5],[1312.8,527.5],[1306.6,497.4],[1293.8,474.7],[1292.1,463.9],[1283.5,452],[1271.2,429.3],[1252.6,407.6],[1232.1,382.6],[1240.5,368.9],[1248.4,358.9],[1248.4,358.9],[1260.9,360.4],[1260.9,360.4],[1267.4,365.2],[1258.7,375.8],[1258.9,369.8],[1242,360.9],[1242,360.9],[1227.6,352.4],[1218.5,346.3],[1205.5,359.2],[1155.8,379.6],[1106.1,400],[1052.4,414.2],[994.4,420.3],[947.5,431.5],[888.7,449.2],[857,471.8],[817,511.7],[777,551.6],[749.1,551.1],[744.3,547.4],[748.9,526.8],[749.3,516.3],[791.2,492.4],[812.4,462.3],[872.9,438.1],[872.9,438.1],[927,419.6],[991.1,391.2],[1066.7,354.3],[1066.7,354.3],[1124.3,341],[1124.3,341],[1179.8,313.9],[1179.8,313.9],[1221.3,322.5],[1221.3,322.5],[1278.6,321.1],[1286.5,335.2],[1323,349.9],[1350.3,343.3],[1358.6,357.2],[1370,338.2],[1369.8,337.4],[1383.8,344.4],[1391.4,377.5],[1402.5,388.8],[1398.9,397.4],[1423.2,377.5],[1444.8,353.5],[1428.6,339.8],[1467.6,318.3],[1499.3,321.9],[1501.8,312],[1499.9,292.1],[1490.7,259],[1482.6,228.9],[1466.2,213.3],[1466.2,213.3],[1434.7,223.7],[1434.7,223.7],[1438.6,248.6],[1444.8,279.1],[1415.5,275.1],[1339.1,313.2],[1282.8,355.1],[1282.8,355.1],[1283.8,358.7],[1282.9,373.7],[1313.8,413.5],[1354,448.1],[1409,475.3],[1431.3,492.1],[1428.2,506.2],[1420.4,540.4],[1450.6,524.1],[1492.6,510.7],[1476.7,531.2],[1486,533.1],[1469.9,500.4],[1441.1,477.7],[1424.9,442.8],[1403.9,425.6],[1409.3,375.2],[1401.4,344.5],[1402.3,323.7],[1397.3,323.3],[1405.9,298.2],[1422.5,262.6],[1417.4,257.7],[1439.7,225.7],[1417.7,231.5],[1421.1,201.6],[1408.3,236.3],[1423.1,229.4],[1442.9,217.4],[1466,182.1],[1464.7,186.3],[1443.7,205.5],[1428,215.7],[1399.7,236.3],[1399.7,236.3],[1384.6,253.3],[1384.6,253.3],[1355.7,291.6],[1309.6,269.6],[1224.6,252.9],[1125.7,270.7],[1028.8,297.2],[950.2,291.3],[869.1,305.1],[798.3,304.9],[731.6,344.2],[648.7,373.9],[559,400.3],[548.4,420.9],[556.9,460.2],[577.3,460],[570.1,487.6],[570.1,487.6],[570.9,529.9],[570.9,529.9],[588.9,558.8],[588.9,558.8],[629.7,581.7],[725.2,560.6],[725.2,560.6],[829.4,528.6],[946.9,488.5],[1026.9,472.4],[1112.4,454.2],[1197.2,438.5],[1299.5,410.4],[1386.9,389.6],[1475.9,357.5],[1541.8,333.5],[1542.8,308.7],[1559.8,291.8],[1563.5,283],[1563,293.2],[1562.5,303.4],[1548.4,331.1],[1558.1,320.9],[1565.4,330.1],[1560.6,347.9],[1538.9,342.9],[1538.9,342.9],[1508.9,367],[1508.9,367],[1478.9,391.1],[1478.9,391.1],[1450,410.2],[1450,410.2],[1411.4,424.1],[1411.4,424.1],[1379.2,435.8],[1323.1,462.1],[1251.3,502.2],[1193.2,520],[1135.1,537.8],[1089.1,583.6],[1057.5,605.6],[1025.9,627.6],[997.3,656.3],[978.8,684.1],[977.9,704.1],[1012.5,698.1],[1061.1,667.5],[1092,643.4],[1131.7,601],[1176.2,553.4],[1222.1,504.8],[1268,456.2],[1308,427.1],[1348,398],[1359.4,362.3],[1370.8,326.6],[1375.8,331.5],[1387.2,332.8],[1380.5,322.8],[1372.9,317.3],[1372.9,317.3],[1369.5,338],[1366.1,340.9],[1375.8,318.3],[1385.5,295.7],[1399.8,289.7],[1419.1,285.8],[1407.4,241.9],[1415.9,205.7],[1426.1,194.8],[1450.8,198.3],[1466.4,158.6],[1466.4,158.6],[1470.2,162.9],[1470.2,162.9],[1487.1,158.2],[1486.5,161.8],[1485.9,165.4],[1483.4,149.5],[1502,179.2],[1495.3,199.9],[1491.2,234.7],[1480.1,236.6],[1478.2,277.1],[1478.2,277.1],[1488.1,291.4],[1461.9,319.7],[1416.5,382.3],[1371.2,431.1],[1320.8,525.9],[1312.4,547.1],[1309.1,569.6],[1322.6,551.2],[1327.8,558.9],[1335.5,536.5],[1339.5,527.4],[1336.9,526.3],[1378.3,479.3],[1407.3,438.9],[1407.3,438.9],[1468.6,355.4],[1490.2,323.9],[1507.7,292.7],[1505.5,300.1],[1496.8,290.9],[1489.4,284.2],[1485.7,264.2],[1493.5,260.1],[1494,259.3],[1511.7,247.3],[1499.1,249.8],[1488.2,270.2],[1467.4,266.6],[1460.1,257.9],[1472.1,278.2],[1474.6,305.5]]","[-0.2,0.6000000000000001]","[0.2,0.6000000000000001]","[0.6000000000000001,0.6000000000000001]","[-0.6000000000000001,-0.6000000000000001]","[-0.6000000000000001,-0.2]","[-0.6000000000000001,0.2]","[-0.2,-0.6000000000000001]","[0.2,-0.6000000000000001]","[0.6000000000000001,-0.6000000000000001]","[-0.2,-0.2]","[0.2,-0.2]","[0.6000000000000001,-0.2]","[-0.2,0.2]","[0.2,0.2]","[0.6000000000000001,0.2]",0,0,0,0,1,1,Monitor,20,20,7,2,70,4,2,70,4
