inst1_resp.keys,inst1_resp.rt,calibrationMouse.x,calibrationMouse.y,calibrationMouse.leftButton,calibrationMouse.midButton,calibrationMouse.rightButton,calibrationClick.x,calibrationClick.y,calibrationClick.leftButton,calibrationClick.midButton,calibrationClick.rightButton,trialsc.thisRepN,trialsc.thisTrialN,trialsc.thisN,trialsc.thisIndex,trialsc.ran,calibration_x,calibration_y,participant,session,date,expName,psychopyVersion,OS,frameRate,ScreenRes_pixels,Camera_pixels,mouse_2.x,mouse_2.y,mouse_2.leftButton,mouse_2.midButton,mouse_2.rightButton,mouse_2.time,mouse_2.clicked_name,mouse.x,mouse.y,mouse.leftButton,mouse.midButton,mouse.rightButton,mouse.time,mouse.clicked_name,Choice,Trial,TrialDuration,MOUSE_GAZE,ET_GAZE,ET_GAZE_x_T,time,unixTime,ET_GAZE_NF,Loc_Bus_label,Loc_Metro_label,Loc_RH_label,Loc_Cost_label,Loc_Travel_label,Loc_Comfort_label,Loc_Bus_cost,Loc_Metro_cost,Loc_RH_cost,Loc_Bus_travel,Loc_Metro_travel,Loc_RH_travel,Loc_Bus_comfort,Loc_Metro_comfort,Loc_RH_comfort,trials.thisRepN,trials.thisTrialN,trials.thisN,trials.thisIndex,trials.ran,Block,Device,RH_cost,RH_travel_time,RH_Comfort,metro_cost,metro_travel_time,metro_Comfort,Bus_cost,Bus_travel_time,Bus_Comfort
space,3.9682,0.454166667,-0.174074074,1,0,0,0.451041667,-0.175925926,1,0,0,0,0,0,9,1,0,-0.67,49,001,2024-11-19_14h14.19.633,Attention_exp_legacy,2023.1.0,Win32,60.24096386,,,,,,,,,,,,,,,,,,,,,,,,,,,,,,,,,,,,,,,,,,,,,,,,,,,,,,,,
,,,,,,,0.451041667,-0.175925926,0,0,0,0,1,1,16,1,0.33,0,49,001,2024-11-19_14h14.19.633,Attention_exp_legacy,2023.1.0,Win32,60.24096386,,,,,,,,,,,,,,,,,,,,,,,,,,,,,,,,,,,,,,,,,,,,,,,,,,,,,,,,
,,,,,,,0.451041667,-0.175925926,0,0,0,0,2,2,11,1,0,0,49,001,2024-11-19_14h14.19.633,Attention_exp_legacy,2023.1.0,Win32,60.24096386,,,,,,,,,,,,,,,,,,,,,,,,,,,,,,,,,,,,,,,,,,,,,,,,,,,,,,,,
,,,,,,,0.451041667,-0.175925926,0,0,0,0,3,3,13,1,0,0.67,49,001,2024-11-19_14h14.19.633,Attention_exp_legacy,2023.1.0,Win32,60.24096386,,,,,,,,,,,,,,,,,,,,,,,,,,,,,,,,,,,,,,,,,,,,,,,,,,,,,,,,
,,,,,,,0.445833333,-0.181481481,0,0,0,0,4,4,8,1,-0.33,0.67,49,001,2024-11-19_14h14.19.633,Attention_exp_legacy,2023.1.0,Win32,60.24096386,,,,,,,,,,,,,,,,,,,,,,,,,,,,,,,,,,,,,,,,,,,,,,,,,,,,,,,,
,,,,,,,0.445833333,-0.181481481,0,0,0,0,5,5,4,1,-0.33,-0.67,49,001,2024-11-19_14h14.19.633,Attention_exp_legacy,2023.1.0,Win32,60.24096386,,,,,,,,,,,,,,,,,,,,,,,,,,,,,,,,,,,,,,,,,,,,,,,,,,,,,,,,
,,,,,,,0.445833333,-0.181481481,0,0,0,0,6,6,18,1,0.33,0.67,49,001,2024-11-19_14h14.19.633,Attention_exp_legacy,2023.1.0,Win32,60.24096386,,,,,,,,,,,,,,,,,,,,,,,,,,,,,,,,,,,,,,,,,,,,,,,,,,,,,,,,
,,,,,,,0.445833333,-0.181481481,0,0,0,0,7,7,7,1,-0.33,0.33,49,001,2024-11-19_14h14.19.633,Attention_exp_legacy,2023.1.0,Win32,60.24096386,,,,,,,,,,,,,,,,,,,,,,,,,,,,,,,,,,,,,,,,,,,,,,,,,,,,,,,,
,,,,,,,0.445833333,-0.181481481,0,0,0,0,8,8,20,1,0.67,-0.67,49,001,2024-11-19_14h14.19.633,Attention_exp_legacy,2023.1.0,Win32,60.24096386,,,,,,,,,,,,,,,,,,,,,,,,,,,,,,,,,,,,,,,,,,,,,,,,,,,,,,,,
,,,,,,,0.445833333,-0.181481481,0,0,0,0,9,9,5,1,-0.33,-0.33,49,001,2024-11-19_14h14.19.633,Attention_exp_legacy,2023.1.0,Win32,60.24096386,,,,,,,,,,,,,,,,,,,,,,,,,,,,,,,,,,,,,,,,,,,,,,,,,,,,,,,,
,,,,,,,0.445833333,-0.181481481,0,0,0,0,10,10,17,1,0.33,0.33,49,001,2024-11-19_14h14.19.633,Attention_exp_legacy,2023.1.0,Win32,60.24096386,,,,,,,,,,,,,,,,,,,,,,,,,,,,,,,,,,,,,,,,,,,,,,,,,,,,,,,,
,,,,,,,0.445833333,-0.181481481,0,0,0,0,11,11,10,1,0,-0.33,49,001,2024-11-19_14h14.19.633,Attention_exp_legacy,2023.1.0,Win32,60.24096386,,,,,,,,,,,,,,,,,,,,,,,,,,,,,,,,,,,,,,,,,,,,,,,,,,,,,,,,
,,,,,,,0.445833333,-0.181481481,0,0,0,0,12,12,19,1,0.67,0.67,49,001,2024-11-19_14h14.19.633,Attention_exp_legacy,2023.1.0,Win32,60.24096386,,,,,,,,,,,,,,,,,,,,,,,,,,,,,,,,,,,,,,,,,,,,,,,,,,,,,,,,
,,,,,,,0.445833333,-0.181481481,0,0,0,0,13,13,1,1,-0.67,-0.33,49,001,2024-11-19_14h14.19.633,Attention_exp_legacy,2023.1.0,Win32,60.24096386,,,,,,,,,,,,,,,,,,,,,,,,,,,,,,,,,,,,,,,,,,,,,,,,,,,,,,,,
,,,,,,,0.445833333,-0.181481481,0,0,0,0,14,14,3,1,-0.67,0.33,49,001,2024-11-19_14h14.19.633,Attention_exp_legacy,2023.1.0,Win32,60.24096386,,,,,,,,,,,,,,,,,,,,,,,,,,,,,,,,,,,,,,,,,,,,,,,,,,,,,,,,
,,,,,,,0.445833333,-0.181481481,0,0,0,0,15,15,0,1,-0.67,-0.67,49,001,2024-11-19_14h14.19.633,Attention_exp_legacy,2023.1.0,Win32,60.24096386,,,,,,,,,,,,,,,,,,,,,,,,,,,,,,,,,,,,,,,,,,,,,,,,,,,,,,,,
,,,,,,,0.445833333,-0.181481481,0,0,0,0,16,16,12,1,0,0.33,49,001,2024-11-19_14h14.19.633,Attention_exp_legacy,2023.1.0,Win32,60.24096386,,,,,,,,,,,,,,,,,,,,,,,,,,,,,,,,,,,,,,,,,,,,,,,,,,,,,,,,
,,,,,,,0.445833333,-0.181481481,0,0,0,0,17,17,14,1,0.33,-0.67,49,001,2024-11-19_14h14.19.633,Attention_exp_legacy,2023.1.0,Win32,60.24096386,,,,,,,,,,,,,,,,,,,,,,,,,,,,,,,,,,,,,,,,,,,,,,,,,,,,,,,,
,,,,,,,0.445833333,-0.181481481,0,0,0,0,18,18,6,1,-0.33,0,49,001,2024-11-19_14h14.19.633,Attention_exp_legacy,2023.1.0,Win32,60.24096386,,,,,,,,,,,,,,,,,,,,,,,,,,,,,,,,,,,,,,,,,,,,,,,,,,,,,,,,
,,,,,,,0.445833333,-0.181481481,0,0,0,0,19,19,2,1,-0.67,0,49,001,2024-11-19_14h14.19.633,Attention_exp_legacy,2023.1.0,Win32,60.24096386,,,,,,,,,,,,,,,,,,,,,,,,,,,,,,,,,,,,,,,,,,,,,,,,,,,,,,,,
,,,,,,,0.445833333,-0.181481481,0,0,0,0,20,20,15,1,0.33,-0.33,49,001,2024-11-19_14h14.19.633,Attention_exp_legacy,2023.1.0,Win32,60.24096386,,,,,,,,,,,,,,,,,,,,,,,,,,,,,,,,,,,,,,,,,,,,,,,,,,,,,,,,
,,,,,,,,,,,,,,,,,,,49,001,2024-11-19_14h14.19.633,Attention_exp_legacy,2023.1.0,Win32,60.24096386,"[1920,1080]","[640,480]",[0.04895833333333333],[-0.5],[1],[0],[0],[17.863400000095368],"[""StartButton""]",[0.14583333333333334],[0.4148148148148148],[1],[0],[0],[12.117000000000019],"[""Metro_label""]",Metro_label,1,13.127,"[[0.052083333333333336,-0.49444444444444446],[0.052083333333333336,-0.49444444444444446],[0.052083333333333336,-0.49444444444444446],[0.052083333333333336,-0.49444444444444446],[0.052083333333333336,-0.49444444444444446],[0.052083333333333336,-0.49444444444444446],[0.052083333333333336,-0.49444444444444446],[0.052083333333333336,-0.49444444444444446],[0.052083333333333336,-0.49444444444444446],[0.052083333333333336,-0.49444444444444446],[0.052083333333333336,-0.49444444444444446],[0.052083333333333336,-0.49444444444444446],[0.052083333333333336,-0.49444444444444446],[0.052083333333333336,-0.49444444444444446],[0.052083333333333336,-0.49444444444444446],[0.052083333333333336,-0.49444444444444446],[0.052083333333333336,-0.49444444444444446],[0.052083333333333336,-0.49444444444444446],[0.052083333333333336,-0.49444444444444446],[0.052083333333333336,-0.49444444444444446],[0.052083333333333336,-0.49444444444444446],[0.052083333333333336,-0.49444444444444446],[0.052083333333333336,-0.49444444444444446],[0.052083333333333336,-0.49444444444444446],[0.052083333333333336,-0.49444444444444446],[0.052083333333333336,-0.49444444444444446],[0.052083333333333336,-0.49444444444444446],[0.052083333333333336,-0.49444444444444446],[0.052083333333333336,-0.49444444444444446],[0.052083333333333336,-0.49444444444444446],[0.052083333333333336,-0.49444444444444446],[0.052083333333333336,-0.49444444444444446],[0.052083333333333336,-0.49444444444444446],[0.052083333333333336,-0.49444444444444446],[0.052083333333333336,-0.49444444444444446],[0.052083333333333336,-0.49444444444444446],[0.052083333333333336,-0.49444444444444446],[0.052083333333333336,-0.49444444444444446],[0.052083333333333336,-0.49444444444444446],[0.052083333333333336,-0.49444444444444446],[0.052083333333333336,-0.49444444444444446],[0.052083333333333336,-0.49444444444444446],[0.052083333333333336,-0.49444444444444446],[0.052083333333333336,-0.49444444444444446],[0.052083333333333336,-0.49444444444444446],[0.052083333333333336,-0.49444444444444446],[0.052083333333333336,-0.49444444444444446],[0.052083333333333336,-0.49444444444444446],[0.052083333333333336,-0.49444444444444446],[0.052083333333333336,-0.49444444444444446],[0.052083333333333336,-0.49444444444444446],[0.052083333333333336,-0.49444444444444446],[0.052083333333333336,-0.49444444444444446],[0.052083333333333336,-0.49444444444444446],[0.052083333333333336,-0.49444444444444446],[0.052083333333333336,-0.49444444444444446],[0.052083333333333336,-0.49444444444444446],[0.052083333333333336,-0.49444444444444446],[0.052083333333333336,-0.49444444444444446],[0.052083333333333336,-0.49444444444444446],[0.052083333333333336,-0.49444444444444446],[0.052083333333333336,-0.49444444444444446],[0.052083333333333336,-0.49444444444444446],[0.052083333333333336,-0.49444444444444446],[0.052083333333333336,-0.49444444444444446],[0.052083333333333336,-0.49444444444444446],[0.052083333333333336,-0.49444444444444446],[0.052083333333333336,-0.49444444444444446],[0.052083333333333336,-0.49444444444444446],[0.052083333333333336,-0.49444444444444446],[0.052083333333333336,-0.49444444444444446],[0.052083333333333336,-0.49444444444444446],[0.052083333333333336,-0.49444444444444446],[0.052083333333333336,-0.49444444444444446],[0.052083333333333336,-0.49444444444444446],[0.052083333333333336,-0.49444444444444446],[0.052083333333333336,-0.49444444444444446],[0.052083333333333336,-0.49444444444444446],[0.052083333333333336,-0.49444444444444446],[0.052083333333333336,-0.49444444444444446],[0.052083333333333336,-0.49444444444444446],[0.052083333333333336,-0.49444444444444446],[0.052083333333333336,-0.49444444444444446],[0.052083333333333336,-0.49444444444444446],[0.052083333333333336,-0.49444444444444446],[0.052083333333333336,-0.49444444444444446],[0.052083333333333336,-0.49444444444444446],[0.052083333333333336,-0.49444444444444446],[0.052083333333333336,-0.49444444444444446],[0.052083333333333336,-0.49444444444444446],[0.052083333333333336,-0.49444444444444446],[0.052083333333333336,-0.49444444444444446],[0.052083333333333336,-0.49444444444444446],[0.052083333333333336,-0.49444444444444446],[0.052083333333333336,-0.49444444444444446],[0.052083333333333336,-0.49444444444444446],[0.052083333333333336,-0.49444444444444446],[0.052083333333333336,-0.49444444444444446],[0.052083333333333336,-0.49444444444444446],[0.052083333333333336,-0.49444444444444446],[0.052083333333333336,-0.49444444444444446],[0.052083333333333336,-0.49444444444444446],[0.052083333333333336,-0.49444444444444446],[0.052083333333333336,-0.49444444444444446],[0.052083333333333336,-0.49444444444444446],[0.052083333333333336,-0.49444444444444446],[0.052083333333333336,-0.49444444444444446],[0.052083333333333336,-0.49444444444444446],[0.052083333333333336,-0.49444444444444446],[0.052083333333333336,-0.49444444444444446],[0.052083333333333336,-0.49444444444444446],[0.052083333333333336,-0.49444444444444446],[0.052083333333333336,-0.49444444444444446],[0.052083333333333336,-0.49444444444444446],[0.052083333333333336,-0.49444444444444446],[0.052083333333333336,-0.49444444444444446],[0.052083333333333336,-0.49444444444444446],[0.052083333333333336,-0.49444444444444446],[0.052083333333333336,-0.49444444444444446],[0.052083333333333336,-0.49444444444444446],[0.052083333333333336,-0.49444444444444446],[0.052083333333333336,-0.49444444444444446],[0.052083333333333336,-0.49444444444444446],[0.052083333333333336,-0.49444444444444446],[0.052083333333333336,-0.49444444444444446],[0.052083333333333336,-0.49444444444444446],[0.052083333333333336,-0.49444444444444446],[0.052083333333333336,-0.49444444444444446],[0.052083333333333336,-0.49444444444444446],[0.052083333333333336,-0.49444444444444446],[0.052083333333333336,-0.49444444444444446],[0.052083333333333336,-0.49444444444444446],[0.052083333333333336,-0.49444444444444446],[0.052083333333333336,-0.49444444444444446],[0.052083333333333336,-0.49444444444444446],[0.052083333333333336,-0.49444444444444446],[0.052083333333333336,-0.49444444444444446],[0.052083333333333336,-0.49444444444444446],[0.052083333333333336,-0.49444444444444446],[0.052083333333333336,-0.49444444444444446],[0.052083333333333336,-0.49444444444444446],[0.052083333333333336,-0.49444444444444446],[0.052083333333333336,-0.49444444444444446],[0.052083333333333336,-0.49444444444444446],[0.052083333333333336,-0.49444444444444446],[0.052083333333333336,-0.49444444444444446],[0.052083333333333336,-0.49444444444444446],[0.052083333333333336,-0.49444444444444446],[0.052083333333333336,-0.49444444444444446],[0.052083333333333336,-0.49444444444444446],[0.052083333333333336,-0.49444444444444446],[0.052083333333333336,-0.49444444444444446],[0.052083333333333336,-0.49444444444444446],[0.052083333333333336,-0.49444444444444446],[0.052083333333333336,-0.49444444444444446],[0.052083333333333336,-0.49444444444444446],[0.052083333333333336,-0.49444444444444446],[0.052083333333333336,-0.49444444444444446],[0.052083333333333336,-0.49444444444444446],[0.052083333333333336,-0.49444444444444446],[0.052083333333333336,-0.49444444444444446],[0.052083333333333336,-0.49444444444444446],[0.052083333333333336,-0.49444444444444446],[0.052083333333333336,-0.49444444444444446],[0.052083333333333336,-0.49444444444444446],[0.052083333333333336,-0.49444444444444446],[0.052083333333333336,-0.49444444444444446],[0.052083333333333336,-0.49444444444444446],[0.052083333333333336,-0.49444444444444446],[0.052083333333333336,-0.49444444444444446],[0.052083333333333336,-0.49444444444444446],[0.052083333333333336,-0.49444444444444446],[0.052083333333333336,-0.49444444444444446],[0.052083333333333336,-0.49444444444444446],[0.052083333333333336,-0.49444444444444446],[0.052083333333333336,-0.49444444444444446],[0.052083333333333336,-0.49444444444444446],[0.052083333333333336,-0.49444444444444446],[0.052083333333333336,-0.49444444444444446],[0.052083333333333336,-0.49444444444444446],[0.052083333333333336,-0.49444444444444446],[0.052083333333333336,-0.49444444444444446],[0.052083333333333336,-0.49444444444444446],[0.052083333333333336,-0.49444444444444446],[0.052083333333333336,-0.49444444444444446],[0.052083333333333336,-0.49444444444444446],[0.052083333333333336,-0.49444444444444446],[0.052083333333333336,-0.49444444444444446],[0.052083333333333336,-0.49444444444444446],[0.052083333333333336,-0.49444444444444446],[0.052083333333333336,-0.49444444444444446],[0.052083333333333336,-0.49444444444444446],[0.052083333333333336,-0.49444444444444446],[0.052083333333333336,-0.49444444444444446],[0.052083333333333336,-0.49444444444444446],[0.052083333333333336,-0.49444444444444446],[0.052083333333333336,-0.49444444444444446],[0.052083333333333336,-0.49444444444444446],[0.052083333333333336,-0.49444444444444446],[0.052083333333333336,-0.49444444444444446],[0.052083333333333336,-0.49444444444444446],[0.052083333333333336,-0.49444444444444446],[0.052083333333333336,-0.49444444444444446],[0.052083333333333336,-0.49444444444444446],[0.052083333333333336,-0.49444444444444446],[0.052083333333333336,-0.49444444444444446],[0.052083333333333336,-0.49444444444444446],[0.052083333333333336,-0.49444444444444446],[0.052083333333333336,-0.49444444444444446],[0.052083333333333336,-0.49444444444444446],[0.052083333333333336,-0.49444444444444446],[0.052083333333333336,-0.49444444444444446],[0.052083333333333336,-0.49444444444444446],[0.052083333333333336,-0.49444444444444446],[0.052083333333333336,-0.49444444444444446],[0.052083333333333336,-0.49444444444444446],[0.052083333333333336,-0.49444444444444446],[0.052083333333333336,-0.49444444444444446],[0.052083333333333336,-0.49444444444444446],[0.052083333333333336,-0.49444444444444446],[0.052083333333333336,-0.49444444444444446],[0.052083333333333336,-0.49444444444444446],[0.052083333333333336,-0.49444444444444446],[0.052083333333333336,-0.49444444444444446],[0.052083333333333336,-0.49444444444444446],[0.052083333333333336,-0.49444444444444446],[0.052083333333333336,-0.49444444444444446],[0.052083333333333336,-0.49444444444444446],[0.052083333333333336,-0.49444444444444446],[0.052083333333333336,-0.49444444444444446],[0.052083333333333336,-0.49444444444444446],[0.052083333333333336,-0.49444444444444446],[0.052083333333333336,-0.49444444444444446],[0.052083333333333336,-0.49444444444444446],[0.052083333333333336,-0.49444444444444446],[0.052083333333333336,-0.49444444444444446],[0.052083333333333336,-0.49444444444444446],[0.052083333333333336,-0.49444444444444446],[0.052083333333333336,-0.49444444444444446],[0.052083333333333336,-0.49444444444444446],[0.052083333333333336,-0.49444444444444446],[0.052083333333333336,-0.49444444444444446],[0.052083333333333336,-0.49444444444444446],[0.052083333333333336,-0.49444444444444446],[0.052083333333333336,-0.49444444444444446],[0.052083333333333336,-0.49444444444444446],[0.052083333333333336,-0.49444444444444446],[0.052083333333333336,-0.49444444444444446],[0.052083333333333336,-0.49444444444444446],[0.052083333333333336,-0.49444444444444446],[0.052083333333333336,-0.49444444444444446],[0.052083333333333336,-0.49444444444444446],[0.052083333333333336,-0.49444444444444446],[0.052083333333333336,-0.49444444444444446],[0.052083333333333336,-0.49444444444444446],[0.052083333333333336,-0.49444444444444446],[0.052083333333333336,-0.49444444444444446],[0.052083333333333336,-0.49444444444444446],[0.052083333333333336,-0.49444444444444446],[0.052083333333333336,-0.49444444444444446],[0.052083333333333336,-0.49444444444444446],[0.052083333333333336,-0.49444444444444446],[0.052083333333333336,-0.49444444444444446],[0.052083333333333336,-0.49444444444444446],[0.052083333333333336,-0.49444444444444446],[0.052083333333333336,-0.49444444444444446],[0.052083333333333336,-0.49444444444444446],[0.052083333333333336,-0.49444444444444446],[0.052083333333333336,-0.49444444444444446],[0.052083333333333336,-0.49444444444444446],[0.052083333333333336,-0.49444444444444446],[0.052083333333333336,-0.49444444444444446],[0.052083333333333336,-0.49444444444444446],[0.052083333333333336,-0.49444444444444446],[0.052083333333333336,-0.49444444444444446],[0.052083333333333336,-0.49444444444444446],[0.052083333333333336,-0.49444444444444446],[0.052083333333333336,-0.49444444444444446],[0.052083333333333336,-0.49444444444444446],[0.052083333333333336,-0.49444444444444446],[0.052083333333333336,-0.49444444444444446],[0.052083333333333336,-0.49444444444444446],[0.052083333333333336,-0.49444444444444446],[0.052083333333333336,-0.49444444444444446],[0.052083333333333336,-0.49444444444444446],[0.052083333333333336,-0.49444444444444446],[0.052083333333333336,-0.49444444444444446],[0.052083333333333336,-0.49444444444444446],[0.052083333333333336,-0.49444444444444446],[0.052083333333333336,-0.49444444444444446],[0.052083333333333336,-0.49444444444444446],[0.052083333333333336,-0.49444444444444446],[0.052083333333333336,-0.49444444444444446],[0.052083333333333336,-0.49444444444444446],[0.052083333333333336,-0.49444444444444446],[0.052083333333333336,-0.49444444444444446],[0.052083333333333336,-0.49444444444444446],[0.052083333333333336,-0.49444444444444446],[0.052083333333333336,-0.49444444444444446],[0.052083333333333336,-0.49444444444444446],[0.052083333333333336,-0.49444444444444446],[0.052083333333333336,-0.49444444444444446],[0.052083333333333336,-0.49444444444444446],[0.052083333333333336,-0.49444444444444446],[0.052083333333333336,-0.49444444444444446],[0.052083333333333336,-0.49444444444444446],[0.052083333333333336,-0.49444444444444446],[0.052083333333333336,-0.49444444444444446],[0.052083333333333336,-0.49444444444444446],[0.052083333333333336,-0.49444444444444446],[0.052083333333333336,-0.49444444444444446],[0.052083333333333336,-0.49444444444444446],[0.052083333333333336,-0.49444444444444446],[0.052083333333333336,-0.49444444444444446],[0.052083333333333336,-0.49444444444444446],[0.052083333333333336,-0.49444444444444446],[0.052083333333333336,-0.49444444444444446],[0.052083333333333336,-0.49444444444444446],[0.052083333333333336,-0.49444444444444446],[0.052083333333333336,-0.49444444444444446],[0.052083333333333336,-0.49444444444444446],[0.052083333333333336,-0.49444444444444446],[0.052083333333333336,-0.49444444444444446],[0.052083333333333336,-0.49444444444444446],[0.052083333333333336,-0.49444444444444446],[0.052083333333333336,-0.49444444444444446],[0.052083333333333336,-0.49444444444444446],[0.052083333333333336,-0.49444444444444446],[0.052083333333333336,-0.49444444444444446],[0.052083333333333336,-0.49444444444444446],[0.052083333333333336,-0.49444444444444446],[0.052083333333333336,-0.49444444444444446],[0.052083333333333336,-0.49444444444444446],[0.052083333333333336,-0.49444444444444446],[0.052083333333333336,-0.49444444444444446],[0.052083333333333336,-0.49444444444444446],[0.052083333333333336,-0.49444444444444446],[0.052083333333333336,-0.49444444444444446],[0.052083333333333336,-0.49444444444444446],[0.052083333333333336,-0.49444444444444446],[0.052083333333333336,-0.49444444444444446],[0.052083333333333336,-0.49444444444444446],[0.052083333333333336,-0.49444444444444446],[0.052083333333333336,-0.49444444444444446],[0.052083333333333336,-0.49444444444444446],[0.052083333333333336,-0.49444444444444446],[0.052083333333333336,-0.49444444444444446],[0.052083333333333336,-0.49444444444444446],[0.052083333333333336,-0.49444444444444446],[0.052083333333333336,-0.49444444444444446],[0.052083333333333336,-0.49444444444444446],[0.052083333333333336,-0.49444444444444446],[0.052083333333333336,-0.49444444444444446],[0.052083333333333336,-0.49444444444444446],[0.052083333333333336,-0.49444444444444446],[0.052083333333333336,-0.49444444444444446],[0.052083333333333336,-0.49444444444444446],[0.052083333333333336,-0.49444444444444446],[0.052083333333333336,-0.49444444444444446],[0.052083333333333336,-0.49444444444444446],[0.052083333333333336,-0.49444444444444446],[0.052083333333333336,-0.49444444444444446],[0.052083333333333336,-0.49444444444444446],[0.052083333333333336,-0.49444444444444446],[0.052083333333333336,-0.49444444444444446],[0.052083333333333336,-0.49444444444444446],[0.052083333333333336,-0.49444444444444446],[0.052083333333333336,-0.49444444444444446],[0.052083333333333336,-0.49444444444444446],[0.052083333333333336,-0.49444444444444446],[0.052083333333333336,-0.49444444444444446],[0.052083333333333336,-0.49444444444444446],[0.052083333333333336,-0.49444444444444446],[0.052083333333333336,-0.49444444444444446],[0.052083333333333336,-0.49444444444444446],[0.052083333333333336,-0.49444444444444446],[0.052083333333333336,-0.49444444444444446],[0.052083333333333336,-0.49444444444444446],[0.052083333333333336,-0.49444444444444446],[0.052083333333333336,-0.49444444444444446],[0.052083333333333336,-0.49444444444444446],[0.052083333333333336,-0.49444444444444446],[0.052083333333333336,-0.49444444444444446],[0.052083333333333336,-0.49444444444444446],[0.052083333333333336,-0.49444444444444446],[0.052083333333333336,-0.49444444444444446],[0.052083333333333336,-0.49444444444444446],[0.052083333333333336,-0.49444444444444446],[0.052083333333333336,-0.49444444444444446],[0.052083333333333336,-0.49444444444444446],[0.052083333333333336,-0.49444444444444446],[0.052083333333333336,-0.49444444444444446],[0.052083333333333336,-0.49444444444444446],[0.052083333333333336,-0.49444444444444446],[0.052083333333333336,-0.49444444444444446],[0.052083333333333336,-0.49444444444444446],[0.052083333333333336,-0.49444444444444446],[0.052083333333333336,-0.49444444444444446],[0.052083333333333336,-0.49444444444444446],[0.052083333333333336,-0.49444444444444446],[0.052083333333333336,-0.49444444444444446],[0.052083333333333336,-0.49444444444444446],[0.052083333333333336,-0.49444444444444446],[0.052083333333333336,-0.49444444444444446],[0.052083333333333336,-0.49444444444444446],[0.052083333333333336,-0.49444444444444446],[0.052083333333333336,-0.49444444444444446],[0.052083333333333336,-0.49444444444444446],[0.052083333333333336,-0.49444444444444446],[0.052083333333333336,-0.49444444444444446],[0.052083333333333336,-0.49444444444444446],[0.052083333333333336,-0.49444444444444446],[0.052083333333333336,-0.49444444444444446],[0.052083333333333336,-0.49444444444444446],[0.052083333333333336,-0.49444444444444446],[0.052083333333333336,-0.49444444444444446],[0.052083333333333336,-0.49444444444444446],[0.052083333333333336,-0.49444444444444446],[0.052083333333333336,-0.49444444444444446],[0.052083333333333336,-0.49444444444444446],[0.052083333333333336,-0.49444444444444446],[0.052083333333333336,-0.49444444444444446],[0.052083333333333336,-0.49444444444444446],[0.052083333333333336,-0.49444444444444446],[0.052083333333333336,-0.49444444444444446],[0.05625,-0.48148148148148145],[0.0625,-0.4444444444444444],[0.06354166666666666,-0.43333333333333335],[0.06354166666666666,-0.43148148148148147],[0.06354166666666666,-0.43148148148148147],[0.06354166666666666,-0.43148148148148147],[0.06354166666666666,-0.43148148148148147],[0.06354166666666666,-0.43148148148148147],[0.06354166666666666,-0.43148148148148147],[0.06354166666666666,-0.43148148148148147],[0.06354166666666666,-0.43148148148148147],[0.06354166666666666,-0.43148148148148147],[0.06770833333333333,-0.4185185185185185],[0.07916666666666666,-0.3814814814814815],[0.08645833333333333,-0.362962962962963],[0.0875,-0.35555555555555557],[0.08958333333333333,-0.34629629629629627],[0.08958333333333333,-0.34074074074074073],[0.090625,-0.3351851851851852],[0.090625,-0.3314814814814815],[0.09166666666666666,-0.32592592592592595],[0.09166666666666666,-0.32592592592592595],[0.09166666666666666,-0.32592592592592595],[0.09166666666666666,-0.32407407407407407],[0.09166666666666666,-0.32407407407407407],[0.09166666666666666,-0.32407407407407407],[0.09166666666666666,-0.32407407407407407],[0.09166666666666666,-0.32407407407407407],[0.09166666666666666,-0.32407407407407407],[0.09166666666666666,-0.31851851851851853],[0.09270833333333334,-0.3055555555555556],[0.09270833333333334,-0.28888888888888886],[0.09270833333333334,-0.27037037037037037],[0.09270833333333334,-0.25],[0.09270833333333334,-0.22777777777777777],[0.08958333333333333,-0.2],[0.0875,-0.1537037037037037],[0.0875,-0.13703703703703704],[0.084375,-0.1],[0.084375,-0.05555555555555555],[0.084375,0.005555555555555556],[0.084375,0.040740740740740744],[0.08333333333333333,0.08703703703703704],[0.08333333333333333,0.11666666666666667],[0.08333333333333333,0.12777777777777777],[0.08333333333333333,0.14074074074074075],[0.084375,0.15555555555555556],[0.08541666666666667,0.17222222222222222],[0.08645833333333333,0.18518518518518517],[0.08645833333333333,0.19444444444444445],[0.08854166666666667,0.2111111111111111],[0.08854166666666667,0.23148148148148148],[0.08854166666666667,0.24074074074074073],[0.08854166666666667,0.2518518518518518],[0.08854166666666667,0.25925925925925924],[0.08854166666666667,0.26481481481481484],[0.08854166666666667,0.26851851851851855],[0.08854166666666667,0.2759259259259259],[0.08854166666666667,0.2759259259259259],[0.08854166666666667,0.2777777777777778],[0.08854166666666667,0.2796296296296296],[0.08854166666666667,0.2833333333333333],[0.0875,0.28703703703703703],[0.0875,0.29259259259259257],[0.08645833333333333,0.2962962962962963],[0.08645833333333333,0.29814814814814816],[0.08541666666666667,0.3],[0.08541666666666667,0.3055555555555556],[0.08541666666666667,0.3074074074074074],[0.08541666666666667,0.3111111111111111],[0.08541666666666667,0.31666666666666665],[0.08541666666666667,0.32037037037037036],[0.08541666666666667,0.3277777777777778],[0.08541666666666667,0.3296296296296296],[0.08541666666666667,0.3333333333333333],[0.08541666666666667,0.3351851851851852],[0.08541666666666667,0.34074074074074073],[0.08541666666666667,0.34444444444444444],[0.084375,0.34814814814814815],[0.084375,0.3537037037037037],[0.084375,0.362962962962963],[0.08229166666666667,0.36666666666666664],[0.08125,0.37222222222222223],[0.08020833333333334,0.37592592592592594],[0.078125,0.3814814814814815],[0.078125,0.38333333333333336],[0.07604166666666666,0.3888888888888889],[0.075,0.39444444444444443],[0.07291666666666667,0.3962962962962963],[0.071875,0.4],[0.07083333333333333,0.40185185185185185],[0.06875,0.40555555555555556],[0.06770833333333333,0.4074074074074074],[0.065625,0.4111111111111111],[0.06354166666666666,0.412962962962963],[0.06145833333333333,0.4166666666666667],[0.05625,0.4185185185185185],[0.053125,0.4203703703703704],[0.046875,0.4222222222222222],[0.040625,0.4222222222222222],[0.026041666666666668,0.4222222222222222],[0.015625,0.4222222222222222],[0.007291666666666667,0.4222222222222222],[-0.004166666666666667,0.4222222222222222],[-0.0125,0.4222222222222222],[-0.023958333333333335,0.4222222222222222],[-0.03229166666666667,0.4222222222222222],[-0.03958333333333333,0.4222222222222222],[-0.04479166666666667,0.4222222222222222],[-0.051041666666666666,0.4203703703703704],[-0.05520833333333333,0.4185185185185185],[-0.057291666666666664,0.4185185185185185],[-0.0625,0.4166666666666667],[-0.06666666666666667,0.4148148148148148],[-0.06875,0.4148148148148148],[-0.07083333333333333,0.4111111111111111],[-0.07291666666666667,0.4111111111111111],[-0.07291666666666667,0.4111111111111111],[-0.07291666666666667,0.4111111111111111],[-0.07291666666666667,0.4111111111111111],[-0.07291666666666667,0.4111111111111111],[-0.07291666666666667,0.4111111111111111],[-0.07291666666666667,0.4111111111111111],[-0.07291666666666667,0.4111111111111111],[-0.07291666666666667,0.4111111111111111],[-0.07291666666666667,0.4111111111111111],[-0.07291666666666667,0.4111111111111111],[-0.07291666666666667,0.4111111111111111],[-0.07291666666666667,0.4111111111111111],[-0.07291666666666667,0.4111111111111111],[-0.07291666666666667,0.4111111111111111],[-0.07291666666666667,0.4111111111111111],[-0.07291666666666667,0.4111111111111111],[-0.07291666666666667,0.4111111111111111],[-0.07291666666666667,0.4111111111111111],[-0.07291666666666667,0.4111111111111111],[-0.07291666666666667,0.4111111111111111],[-0.07291666666666667,0.4111111111111111],[-0.07291666666666667,0.4111111111111111],[-0.07291666666666667,0.4111111111111111],[-0.07291666666666667,0.4111111111111111],[-0.07291666666666667,0.4111111111111111],[-0.07291666666666667,0.4111111111111111],[-0.07291666666666667,0.4111111111111111],[-0.07291666666666667,0.4111111111111111],[-0.07291666666666667,0.4111111111111111],[-0.07291666666666667,0.4111111111111111],[-0.07291666666666667,0.4111111111111111],[-0.07291666666666667,0.4111111111111111],[-0.07291666666666667,0.4111111111111111],[-0.07291666666666667,0.4111111111111111],[-0.07291666666666667,0.4111111111111111],[-0.07291666666666667,0.4111111111111111],[-0.07291666666666667,0.4111111111111111],[-0.07291666666666667,0.4111111111111111],[-0.07291666666666667,0.4111111111111111],[-0.07291666666666667,0.4111111111111111],[-0.07291666666666667,0.4111111111111111],[-0.07291666666666667,0.4111111111111111],[-0.07291666666666667,0.4111111111111111],[-0.07291666666666667,0.4111111111111111],[-0.07291666666666667,0.4111111111111111],[-0.07291666666666667,0.4111111111111111],[-0.07291666666666667,0.4111111111111111],[-0.07291666666666667,0.4111111111111111],[-0.07291666666666667,0.4111111111111111],[-0.07291666666666667,0.4111111111111111],[-0.07291666666666667,0.4111111111111111],[-0.07291666666666667,0.4111111111111111],[-0.07291666666666667,0.4111111111111111],[-0.07291666666666667,0.4111111111111111],[-0.07291666666666667,0.4111111111111111],[-0.07291666666666667,0.4111111111111111],[-0.07291666666666667,0.4111111111111111],[-0.07291666666666667,0.4111111111111111],[-0.07291666666666667,0.4111111111111111],[-0.07291666666666667,0.4111111111111111],[-0.07291666666666667,0.4111111111111111],[-0.07291666666666667,0.4111111111111111],[-0.07291666666666667,0.4111111111111111],[-0.07291666666666667,0.4111111111111111],[-0.07291666666666667,0.4111111111111111],[-0.07291666666666667,0.4111111111111111],[-0.07291666666666667,0.4111111111111111],[-0.07291666666666667,0.4111111111111111],[-0.07291666666666667,0.4111111111111111],[-0.07291666666666667,0.4111111111111111],[-0.07291666666666667,0.4111111111111111],[-0.07291666666666667,0.4111111111111111],[-0.07291666666666667,0.4111111111111111],[-0.07291666666666667,0.4111111111111111],[-0.07291666666666667,0.4111111111111111],[-0.07291666666666667,0.4111111111111111],[-0.07291666666666667,0.4111111111111111],[-0.07291666666666667,0.4111111111111111],[-0.07291666666666667,0.4111111111111111],[-0.07291666666666667,0.4111111111111111],[-0.07291666666666667,0.4111111111111111],[-0.07291666666666667,0.4111111111111111],[-0.07291666666666667,0.4111111111111111],[-0.07291666666666667,0.4111111111111111],[-0.07291666666666667,0.4111111111111111],[-0.07291666666666667,0.4111111111111111],[-0.07291666666666667,0.4111111111111111],[-0.07291666666666667,0.4111111111111111],[-0.07291666666666667,0.4111111111111111],[-0.07291666666666667,0.4111111111111111],[-0.07291666666666667,0.4111111111111111],[-0.07291666666666667,0.4111111111111111],[-0.07291666666666667,0.4111111111111111],[-0.07291666666666667,0.4111111111111111],[-0.07291666666666667,0.4111111111111111],[-0.07291666666666667,0.4111111111111111],[-0.07291666666666667,0.4111111111111111],[-0.07291666666666667,0.4111111111111111],[-0.07291666666666667,0.4111111111111111],[-0.07291666666666667,0.4111111111111111],[-0.07291666666666667,0.4111111111111111],[-0.06770833333333333,0.4111111111111111],[-0.065625,0.4111111111111111],[-0.04791666666666667,0.412962962962963],[-0.036458333333333336,0.4148148148148148],[-0.022916666666666665,0.4148148148148148],[-0.008333333333333333,0.4148148148148148],[0.007291666666666667,0.4148148148148148],[0.025,0.4148148148148148],[0.04479166666666667,0.4148148148148148],[0.065625,0.4148148148148148],[0.08333333333333333,0.4148148148148148],[0.09895833333333333,0.4148148148148148],[0.11666666666666667,0.4148148148148148],[0.12395833333333334,0.4148148148148148],[0.13020833333333334,0.4148148148148148],[0.134375,0.4148148148148148],[0.13958333333333334,0.4148148148148148],[0.14166666666666666,0.4148148148148148],[0.14375,0.4148148148148148],[0.14479166666666668,0.4148148148148148],[0.14583333333333334,0.4148148148148148],[0.14583333333333334,0.4148148148148148],[0.14583333333333334,0.4148148148148148],[0.14583333333333334,0.4148148148148148],[0.14583333333333334,0.4148148148148148],[0.14583333333333334,0.4148148148148148],[0.14583333333333334,0.4148148148148148],[0.14583333333333334,0.4148148148148148],[0.14583333333333334,0.4148148148148148],[0.14583333333333334,0.4148148148148148],[0.14583333333333334,0.4148148148148148],[0.14583333333333334,0.4148148148148148],[0.14583333333333334,0.4148148148148148],[0.14583333333333334,0.4148148148148148],[0.14583333333333334,0.4148148148148148],[0.14583333333333334,0.4148148148148148],[0.14583333333333334,0.4148148148148148],[0.14583333333333334,0.4148148148148148],[0.14583333333333334,0.4148148148148148],[0.14583333333333334,0.4148148148148148],[0.14583333333333334,0.4148148148148148],[0.14583333333333334,0.4148148148148148],[0.14583333333333334,0.4148148148148148],[0.14583333333333334,0.4148148148148148],[0.14583333333333334,0.4148148148148148],[0.14583333333333334,0.4148148148148148],[0.14583333333333334,0.4148148148148148],[0.14583333333333334,0.4148148148148148],[0.14583333333333334,0.4148148148148148],[0.14583333333333334,0.4148148148148148],[0.14583333333333334,0.4148148148148148],[0.14583333333333334,0.4148148148148148],[0.14583333333333334,0.4148148148148148],[0.14583333333333334,0.4148148148148148],[0.14583333333333334,0.4148148148148148],[0.14583333333333334,0.4148148148148148],[0.14583333333333334,0.4148148148148148],[0.14583333333333334,0.4148148148148148],[0.14583333333333334,0.4148148148148148],[0.14583333333333334,0.4148148148148148],[0.14583333333333334,0.4148148148148148],[0.14583333333333334,0.4148148148148148],[0.14583333333333334,0.4148148148148148],[0.14583333333333334,0.4148148148148148],[0.14583333333333334,0.4148148148148148],[0.14583333333333334,0.4148148148148148],[0.14583333333333334,0.4148148148148148],[0.14583333333333334,0.4148148148148148],[0.14583333333333334,0.4148148148148148],[0.14583333333333334,0.4148148148148148],[0.14583333333333334,0.4148148148148148],[0.14583333333333334,0.4148148148148148],[0.14583333333333334,0.4148148148148148],[0.14583333333333334,0.4148148148148148],[0.14583333333333334,0.4148148148148148],[0.14583333333333334,0.4148148148148148],[0.14583333333333334,0.4148148148148148],[0.14583333333333334,0.4148148148148148],[0.14583333333333334,0.4148148148148148],[0.14583333333333334,0.4148148148148148],[0.14583333333333334,0.4148148148148148],[0.14583333333333334,0.4148148148148148],[0.14583333333333334,0.4148148148148148],[0.14583333333333334,0.4148148148148148],[0.14583333333333334,0.4148148148148148],[0.14583333333333334,0.4148148148148148],[0.14583333333333334,0.4148148148148148],[0.14583333333333334,0.4148148148148148],[0.14583333333333334,0.4148148148148148],[0.14583333333333334,0.4148148148148148],[0.14583333333333334,0.4148148148148148],[0.14583333333333334,0.4148148148148148],[0.14583333333333334,0.4148148148148148],[0.14583333333333334,0.4148148148148148],[0.14583333333333334,0.4148148148148148],[0.14583333333333334,0.4148148148148148],[0.14583333333333334,0.4148148148148148],[0.14583333333333334,0.4148148148148148],[0.14583333333333334,0.4148148148148148],[0.14583333333333334,0.4148148148148148],[0.14583333333333334,0.4148148148148148],[0.14583333333333334,0.4148148148148148],[0.14583333333333334,0.4148148148148148],[0.14583333333333334,0.4148148148148148],[0.14583333333333334,0.4148148148148148],[0.14583333333333334,0.4148148148148148],[0.14583333333333334,0.4148148148148148],[0.14583333333333334,0.4148148148148148],[0.14583333333333334,0.4148148148148148],[0.14583333333333334,0.4148148148148148],[0.14583333333333334,0.4148148148148148],[0.14583333333333334,0.4148148148148148],[0.14583333333333334,0.4148148148148148],[0.14583333333333334,0.4148148148148148],[0.14583333333333334,0.4148148148148148],[0.14583333333333334,0.4148148148148148],[0.14583333333333334,0.4148148148148148],[0.14583333333333334,0.4148148148148148],[0.14583333333333334,0.4148148148148148],[0.14583333333333334,0.4148148148148148],[0.146875,0.412962962962963],[0.146875,0.4111111111111111],[0.146875,0.4074074074074074],[0.146875,0.40370370370370373],[0.146875,0.40185185185185185],[0.14583333333333334,0.4],[0.14583333333333334,0.4],[0.14583333333333334,0.39814814814814814],[0.14583333333333334,0.3962962962962963],[0.14583333333333334,0.3962962962962963],[0.14479166666666668,0.39444444444444443],[0.14479166666666668,0.39444444444444443],[0.14479166666666668,0.39444444444444443],[0.14479166666666668,0.39444444444444443],[0.14375,0.3907407407407407],[0.14375,0.3907407407407407],[0.14375,0.3907407407407407],[0.14375,0.3907407407407407],[0.14375,0.3907407407407407],[0.14375,0.3907407407407407],[0.14375,0.3907407407407407],[0.14375,0.3907407407407407],[0.14375,0.3907407407407407],[0.14375,0.3907407407407407]]","[[0.2107291666666666,0.39092592592592595],[0.2107291666666666,0.39092592592592595],[0.22218749999999995,0.38074074074074077],[0.23875000000000005,0.3675925925925926],[0.2553124999999999,0.3544444444444444],[0.2553124999999999,0.3544444444444444],[0.2646874999999999,0.35],[0.2639583333333334,0.3522222222222223],[0.2639583333333334,0.3522222222222223],[0.25270833333333326,0.35907407407407405],[0.25270833333333326,0.35907407407407405],[0.23770833333333338,0.3727777777777777],[0.23770833333333338,0.3727777777777777],[0.23770833333333338,0.3661111111111112],[0.23770833333333338,0.3661111111111112],[0.23270833333333343,0.3725925925925927],[0.22229166666666675,0.3875925925925925],[0.21802083333333327,0.38574074074074066],[0.2111458333333334,0.3903703703703703],[0.20447916666666663,0.40185185185185185],[0.20802083333333338,0.4027777777777778],[0.22208333333333338,0.3987037037037036],[0.2361458333333334,0.39462962962962966],[0.2543750000000001,0.37777777777777777],[0.2638541666666666,0.3709259259259258],[0.2751041666666666,0.36074074074074064],[0.28135416666666657,0.35240740740740734],[0.28270833333333345,0.352962962962963],[0.2805208333333333,0.3581481481481481],[0.284375,0.34962962962962957],[0.28312499999999996,0.3483333333333334],[0.28125,0.3455555555555556],[0.27937500000000004,0.3427777777777778],[0.27197916666666655,0.34888888888888886],[0.2587500000000001,0.36425925925925934],[0.2522916666666667,0.37222222222222223],[0.25625,0.3698148148148149],[0.2585416666666667,0.3635185185185184],[0.26437499999999997,0.35259259259259257],[0.2617708333333333,0.35037037037037044],[0.2591666666666666,0.34814814814814815],[0.2638541666666666,0.3387037037037037],[0.2685416666666666,0.3292592592592592],[0.2771874999999999,0.31925925925925924],[0.2916666666666667,0.3],[0.2934375000000001,0.2957407407407408],[0.2952083333333334,0.29148148148148145],[0.2912499999999999,0.29074074074074074],[0.2872916666666666,0.29000000000000004],[0.29187500000000005,0.2857407407407407],[0.2928124999999999,0.2862962962962963],[0.29489583333333325,0.2935185185185185],[0.29697916666666657,0.3007407407407407],[0.29052083333333345,0.30462962962962964],[0.28406250000000005,0.3085185185185186],[0.28937499999999994,0.302962962962963],[0.2946875000000001,0.29740740740740745],[0.3,0.29666666666666675],[0.30531249999999993,0.29555555555555557],[0.3090625000000001,0.29222222222222216],[0.3164583333333333,0.28407407407407403],[0.32177083333333345,0.27462962962962956],[0.32708333333333334,0.26518518518518525],[0.3323958333333332,0.26944444444444443],[0.34343750000000006,0.26425925925925936],[0.3380208333333333,0.275],[0.33260416666666665,0.2857407407407407],[0.32541666666666674,0.28833333333333344],[0.3182291666666667,0.2912962962962962],[0.3182291666666667,0.2912962962962962],[0.30520833333333336,0.29888888888888887],[0.2961458333333333,0.30703703703703694],[0.28187499999999993,0.31425925925925935],[0.2665625000000001,0.3227777777777777],[0.25583333333333325,0.32148148148148153],[0.23510416666666673,0.3418518518518519],[0.22583333333333327,0.3490740740740741],[0.22260416666666671,0.3453703703703704],[0.21427083333333338,0.3544444444444444],[0.20031249999999995,0.35425925925925916],[0.18739583333333343,0.3533333333333332],[0.17052083333333337,0.35185185185185186],[0.1586458333333333,0.35351851851851845],[0.14958333333333323,0.35648148148148145],[0.14052083333333343,0.3594444444444445],[0.1318749999999999,0.34685185185185174],[0.12625000000000006,0.331111111111111],[0.12625000000000006,0.331111111111111],[0.11729166666666657,0.3266666666666666],[0.121875,0.3212962962962963],[0.13208333333333327,0.32518518518518524],[0.1319791666666667,0.3375925925925925],[0.13802083333333334,0.35111111111111115],[0.14447916666666671,0.36129629629629634],[0.14916666666666673,0.368888888888889],[0.15187499999999995,0.3731481481481482],[0.1584374999999999,0.38074074074074077],[0.15656249999999997,0.39462962962962966],[0.15302083333333344,0.40851851851851856],[0.14364583333333342,0.41999999999999993],[0.13468749999999996,0.4300000000000001],[0.14197916666666663,0.42851851851851847],[0.14312500000000009,0.42592592592592593],[0.14312500000000009,0.42592592592592593],[0.13854166666666667,0.4270370370370371],[0.13552083333333323,0.4300000000000001],[0.13395833333333323,0.4292592592592592],[0.12552083333333333,0.43870370370370365],[0.1224999999999999,0.4449999999999999],[0.12291666666666666,0.444074074074074],[0.13239583333333324,0.4381481481481482],[0.1384375000000001,0.4396296296296296],[0.13854166666666667,0.444074074074074],[0.1330208333333334,0.44592592592592584],[0.13291666666666657,0.44370370370370377],[0.1414583333333333,0.43185185185185193],[0.1421875,0.43407407407407406],[0.1554166666666667,0.42592592592592593],[0.17635416666666662,0.41574074074074074],[0.18718750000000003,0.4131481481481482],[0.1881249999999999,0.4142592592592593],[0.20541666666666672,0.4038888888888889],[0.22270833333333329,0.39351851851851855],[0.22270833333333329,0.39351851851851855],[0.23822916666666671,0.3838888888888888],[0.25125000000000003,0.38259259259259265],[0.25125000000000003,0.38259259259259265],[0.2591666666666666,0.3822222222222222],[0.2591666666666666,0.3822222222222222],[0.27541666666666675,0.37481481481481477],[0.27541666666666675,0.37481481481481477],[0.28916666666666657,0.3648148148148148],[0.28916666666666657,0.3648148148148148],[0.2911458333333333,0.3624074074074075],[0.2911458333333333,0.3624074074074075],[0.2976041666666667,0.3566666666666667],[0.29874999999999996,0.3568518518518519],[0.25729166666666664,0.3714814814814815],[0.21927083333333333,0.3846296296296297],[0.18260416666666662,0.3903703703703703],[0.15052083333333333,0.38925925925925936],[0.10906250000000005,0.39740740740740743],[0.06468750000000002,0.4057407407407408],[0.024166666666666715,0.4192592592592592],[-0.01229166666666662,0.4272222222222223],[-0.04854166666666669,0.44518518518518513],[-0.07947916666666661,0.4572222222222222],[-0.07947916666666661,0.4572222222222222],[-0.07999999999999995,0.4642592592592593],[-0.07406250000000002,0.46592592592592597],[-0.06208333333333336,0.47685185185185186],[-0.050833333333333286,0.4872222222222223],[-0.03937499999999995,0.4922222222222221],[-0.016458333333333287,0.49074074074074076],[-0.0005208333333333333,0.4868518518518518],[0.024166666666666715,0.4807407407407408],[0.049791666666666616,0.46722222222222215],[0.07197916666666657,0.45555555555555555],[0.09302083333333329,0.44000000000000006],[0.1056250000000001,0.43185185185185193],[0.11822916666666666,0.42370370370370364],[0.13239583333333324,0.412962962962963],[0.15072916666666672,0.40481481481481485],[0.16552083333333342,0.4],[0.1803124999999999,0.39518518518518514],[0.19364583333333343,0.387037037037037],[0.20697916666666671,0.37888888888888894],[0.2321875000000001,0.36666666666666664],[0.2540625000000001,0.35611111111111104],[0.26749999999999996,0.3446296296296297],[0.2804166666666667,0.3351851851851852],[0.2804166666666667,0.3351851851851852],[0.2920833333333334,0.32444444444444454],[0.31052083333333325,0.3131481481481482],[0.32395833333333335,0.30481481481481487],[0.3328125,0.29796296296296293],[0.3258333333333333,0.29666666666666675],[0.3216666666666666,0.29518518518518516],[0.3078125,0.3014814814814814],[0.2982291666666666,0.30462962962962964],[0.28666666666666674,0.3183333333333333],[0.2867708333333333,0.3164814814814814],[0.2852083333333333,0.3175925925925926],[0.25927083333333345,0.33796296296296297],[0.22770833333333323,0.36018518518518516],[0.20770833333333344,0.3792592592592592],[0.20177083333333337,0.39148148148148143],[0.19208333333333344,0.4050000000000001],[0.1877083333333334,0.4072222222222222],[0.17604166666666668,0.41444444444444434],[0.17333333333333342,0.41148148148148156],[0.16635416666666672,0.42240740740740745],[0.159375,0.43333333333333335],[0.1631249999999999,0.4272222222222223],[0.1724999999999999,0.4192592592592592],[0.1805208333333333,0.4107407407407407],[0.1805208333333333,0.4107407407407407],[0.1805208333333333,0.41092592592592586],[0.18614583333333337,0.4087037037037038],[0.18447916666666658,0.41092592592592586],[0.18947916666666675,0.40925925925925927],[0.1944791666666667,0.4075925925925926],[0.1944791666666667,0.40611111111111103],[0.19500000000000003,0.40259259259259256],[0.2022916666666667,0.3977777777777777],[0.2111458333333334,0.39166666666666666],[0.21437499999999995,0.3877777777777777],[0.2205208333333334,0.38055555555555554],[0.22197916666666656,0.37462962962962953],[0.22197916666666656,0.37462962962962953],[0.22395833333333334,0.3738888888888888],[0.23093750000000005,0.37240740740740746],[0.23791666666666675,0.3709259259259258],[0.23791666666666675,0.3709259259259258],[0.25239583333333326,0.3633333333333334],[0.2546875,0.3668518518518519],[0.2569791666666667,0.37037037037037035],[0.25833333333333336,0.37185185185185177],[0.25833333333333336,0.37185185185185177],[0.2642708333333334,0.36944444444444446],[0.26843750000000005,0.36944444444444446],[0.265625,0.3738888888888888],[0.2615624999999999,0.37777777777777777],[0.2289583333333333,0.38574074074074066],[0.2289583333333333,0.38574074074074066],[0.19718749999999996,0.3983333333333334],[0.14697916666666658,0.4035185185185185],[0.10427083333333324,0.40018518518518525],[0.06156250000000003,0.3968518518518518],[0.021458333333333357,0.40314814814814826],[-0.03239583333333336,0.41333333333333344],[-0.06906249999999996,0.4233333333333334],[-0.09874999999999995,0.42888888888888893],[-0.12281249999999998,0.43796296296296294],[-0.12364583333333339,0.444074074074074],[-0.12364583333333339,0.444074074074074],[-0.12270833333333328,0.44722222222222224],[-0.12270833333333328,0.44722222222222224],[-0.11083333333333331,0.4566666666666667],[-0.09197916666666663,0.47092592592592586],[-0.07312500000000005,0.4781481481481482],[-0.049374999999999974,0.4762962962962964],[-0.016458333333333287,0.4744444444444445],[-0.016458333333333287,0.4744444444444445],[-0.0006250000000000236,0.46888888888888897],[-0.0006250000000000236,0.46888888888888897],[0.010416666666666666,0.4737037037037036],[0.018020833333333285,0.47462962962962957],[0.025625000000000023,0.47555555555555545],[0.025625000000000023,0.47555555555555545],[0.036666666666666715,0.47018518518518515],[0.04520833333333331,0.4751851851851852],[0.050937499999999976,0.47481481481481475],[0.050937499999999976,0.47481481481481475],[0.05510416666666664,0.48092592592592603],[0.04874999999999995,0.49074074074074076],[0.04239583333333338,0.5005555555555554],[0.04718749999999995,0.5075925925925926],[0.05677083333333333,0.5042592592592592],[0.07374999999999995,0.4948148148148149],[0.09072916666666657,0.4853703703703704],[0.09520833333333342,0.48333333333333334],[0.10031249999999996,0.47759259259259257],[0.10927083333333343,0.47166666666666673],[0.12770833333333323,0.4587037037037038],[0.14708333333333337,0.447037037037037],[0.15499999999999994,0.44425925925925924],[0.1540625000000001,0.44351851851851853],[0.153125,0.4427777777777778],[0.15010416666666657,0.4448148148148149],[0.14708333333333337,0.4468518518518518],[0.1466666666666666,0.44537037037037036],[0.1462500000000001,0.443888888888889],[0.14197916666666663,0.4425925925925926],[0.13427083333333342,0.4462962962962963],[0.12854166666666675,0.45185185185185184],[0.13427083333333342,0.4485185185185186],[0.12354166666666658,0.4566666666666667],[0.12302083333333323,0.45629629629629626],[0.12625000000000006,0.45111111111111113],[0.12947916666666662,0.44592592592592584],[0.1209374999999999,0.45314814814814824],[0.11239583333333343,0.46037037037037043],[0.11052083333333323,0.4624074074074075],[0.11052083333333323,0.4624074074074075],[0.10416666666666667,0.46703703703703714],[0.09604166666666672,0.469074074074074],[0.09031250000000005,0.47018518518518515],[0.1,0.46351851851851844],[0.09874999999999995,0.4648148148148148],[0.09020833333333324,0.47129629629629627],[0.0806250000000001,0.4800000000000001],[0.08666666666666671,0.4770370370370371],[0.09302083333333329,0.47555555555555545],[0.09270833333333334,0.47925925925925916],[0.09270833333333334,0.47925925925925916],[0.09239583333333339,0.4807407407407408],[0.0943749999999999,0.4800000000000001],[0.10187499999999995,0.4737037037037036],[0.109375,0.47129629629629627],[0.11760416666666676,0.46944444444444444],[0.12062499999999995,0.47018518518518515],[0.12468750000000005,0.46870370370370373],[0.12270833333333328,0.4677777777777778],[0.12041666666666657,0.46537037037037027],[0.1196875000000001,0.46222222222222226],[0.11427083333333338,0.4607407407407407],[0.10812499999999996,0.46055555555555566],[0.0990624999999999,0.4661111111111112],[0.09541666666666657,0.465],[0.0890625,0.46351851851851844],[0.07979166666666657,0.4646296296296296],[0.07052083333333338,0.46574074074074073],[0.07052083333333338,0.4666666666666667],[0.07052083333333338,0.4675925925925926],[0.06906249999999996,0.4661111111111112],[0.07229166666666677,0.46518518518518526],[0.07354166666666657,0.4661111111111112],[0.06979166666666667,0.4677777777777778],[0.05677083333333333,0.4735185185185186],[0.05166666666666669,0.4777777777777778],[0.06135416666666664,0.475],[0.07447916666666667,0.47074074074074085],[0.08208333333333329,0.4668518518518519],[0.08802083333333334,0.4609259259259259],[0.09375,0.4648148148148148],[0.0978125000000001,0.4644444444444444],[0.10041666666666677,0.46351851851851844],[0.10302083333333342,0.4625925925925925],[0.11218750000000005,0.4564814814814815],[0.11614583333333334,0.4522222222222223],[0.11239583333333343,0.4505555555555555],[0.10520833333333333,0.4514814814814814],[0.09770833333333329,0.455925925925926],[0.09187500000000005,0.4624074074074075],[0.08541666666666667,0.4601851851851852],[0.0806250000000001,0.46222222222222226],[0.07354166666666657,0.4644444444444444],[0.06645833333333329,0.4666666666666667],[0.06229166666666662,0.4696296296296297],[0.058124999999999954,0.4725925925925927],[0.059791666666666646,0.4762962962962964],[0.06395833333333331,0.4733333333333334],[0.06395833333333331,0.4733333333333334],[0.05604166666666662,0.4737037037037036],[0.06041666666666667,0.4675925925925926],[0.05635416666666669,0.4705555555555556],[0.06322916666666671,0.46888888888888897],[0.06604166666666664,0.46944444444444444],[0.06729166666666657,0.47018518518518515],[0.06291666666666665,0.4740740740740741],[0.06593749999999995,0.46944444444444444],[0.0734375,0.4692592592592592],[0.06822916666666666,0.46592592592592597],[0.06854166666666663,0.46574074074074073],[0.05260416666666667,0.4759259259259259],[0.04583333333333333,0.47907407407407415],[0.030208333333333334,0.48518518518518516],[0.024062500000000025,0.48703703703703705],[0.021979166666666692,0.48629629629629634],[0.017604166666666643,0.4890740740740741],[0.017604166666666643,0.4890740740740741],[0.017812500000000023,0.4896296296296296],[0.017812500000000023,0.4896296296296296],[0.0007291666666667141,0.49425925925925923],[0.0007291666666667141,0.49425925925925923],[-0.0005208333333333333,0.5042592592592592],[0.0078125,0.5024074074074073],[0.0078125,0.5024074074074073],[0.02010416666666662,0.49666666666666676],[0.02010416666666662,0.49666666666666676],[0.027708333333333356,0.4946296296296297],[0.027708333333333356,0.4946296296296297],[0.03760416666666669,0.48777777777777775],[0.03760416666666669,0.48777777777777775],[0.041770833333333354,0.4888888888888889],[0.04375,0.49444444444444446],[0.04541666666666669,0.49444444444444446],[0.035104166666666714,0.5051851851851851],[0.03822916666666672,0.5051851851851851],[0.03270833333333331,0.5085185185185186],[0.030520833333333285,0.5157407407407407],[0.02833333333333338,0.522962962962963],[0.029895833333333382,0.5248148148148147],[0.027083333333333334,0.5331481481481481],[0.027083333333333334,0.5331481481481481],[0.027708333333333356,0.5346296296296297],[0.030729166666666665,0.5272222222222223],[0.036354166666666646,0.5218518518518518],[0.043958333333333384,0.5179629629629631],[0.044166666666666646,0.515],[0.05281250000000005,0.5133333333333334],[0.05770833333333331,0.5088888888888888],[0.0626041666666667,0.5044444444444444],[0.05385416666666672,0.4987037037037036],[0.036249999999999956,0.4927777777777778],[0.017916666666666713,0.48629629629629634],[-0.005416666666666714,0.4735185185185186],[-0.028750000000000022,0.4607407407407407],[-0.04739583333333333,0.45],[-0.0640625,0.4390740740740741],[-0.07791666666666662,0.42981481481481487],[-0.09947916666666666,0.4305555555555556],[-0.1,0.4225925925925927],[-0.0859375,0.41759259259259257],[-0.07604166666666666,0.422037037037037],[-0.057604166666666616,0.422037037037037],[-0.03114583333333331,0.4337037037037038],[-0.03114583333333331,0.4337037037037038],[-0.005937500000000048,0.44648148148148153],[0.00302083333333331,0.4596296296296297],[0.016250000000000025,0.47018518518518515],[0.027187500000000024,0.47740740740740734],[0.04479166666666667,0.47074074074074085],[0.03999999999999997,0.4722222222222222],[0.03781249999999995,0.4740740740740741],[0.04864583333333338,0.4666666666666667],[0.04750000000000002,0.4638888888888889],[0.040625,0.4625925925925925],[0.042916666666666714,0.4507407407407407],[0.05479166666666669,0.43499999999999994],[0.06187499999999998,0.419074074074074],[0.06302083333333333,0.4035185185185185],[0.0709374999999999,0.39462962962962966],[0.08947916666666676,0.3831481481481481],[0.10666666666666676,0.3762962962962964],[0.09874999999999995,0.37814814814814823],[0.09947916666666666,0.3774074074074073],[0.09947916666666666,0.3774074074074073],[0.09385416666666657,0.3742592592592593],[0.08927083333333338,0.387037037037037],[0.07843749999999995,0.40333333333333327],[0.06468750000000002,0.4203703703703704],[0.05770833333333331,0.4331481481481481],[0.05770833333333331,0.4331481481481481],[0.04500000000000005,0.44314814814814807],[0.021875,0.4624074074074075],[-0.000416666666666643,0.467962962962963],[0.004270833333333357,0.47074074074074085],[0.0067708333333333336,0.47537037037037044],[0.0067708333333333336,0.47537037037037044],[0.015625,0.4824074074074074],[0.021562500000000047,0.47685185185185186],[0.035416666666666666,0.47092592592592586],[0.05270833333333336,0.46703703703703714],[0.06020833333333329,0.46722222222222215],[0.06020833333333329,0.46722222222222215],[0.07104166666666671,0.4685185185185185],[0.08250000000000005,0.45388888888888895],[0.08250000000000005,0.45388888888888895],[0.08406250000000005,0.452962962962963],[0.08791666666666677,0.4414814814814814],[0.08791666666666677,0.4414814814814814],[0.09177083333333323,0.4300000000000001],[0.09645833333333324,0.4177777777777778],[0.08927083333333338,0.4142592592592593],[0.08572916666666662,0.4035185185185185],[0.07916666666666666,0.3998148148148148],[0.07916666666666666,0.3998148148148148],[0.07593750000000009,0.3877777777777777],[0.06937499999999991,0.37462962962962953],[0.058645833333333286,0.37814814814814823],[0.058645833333333286,0.37814814814814823],[0.06531250000000005,0.3581481481481481],[0.06531250000000005,0.3581481481481481],[0.0678124999999999,0.3427777777777778],[0.07156250000000004,0.32888888888888895],[0.07156250000000004,0.32888888888888895],[0.06479166666666672,0.3237037037037036],[0.06479166666666672,0.3237037037037036],[0.06427083333333337,0.3044444444444444],[0.06427083333333337,0.3044444444444444],[0.06218750000000005,0.30037037037037045],[0.06114583333333338,0.2764814814814814],[0.059791666666666646,0.2611111111111111],[0.06197916666666667,0.24574074074074082],[0.0696875000000001,0.18407407407407403],[0.06729166666666657,0.13518518518518519],[0.06489583333333329,0.08629629629629634],[0.06145833333333333,0.0492592592592593],[0.06770833333333333,0.004259259259259175],[0.07156250000000004,-0.03370370370370379],[0.07020833333333343,-0.09166666666666666],[0.07020833333333343,-0.09166666666666666],[0.07489583333333343,-0.11703703703703702],[0.07489583333333343,-0.11703703703703702],[0.08177083333333333,-0.147037037037037],[0.07718749999999991,-0.18925925925925924],[0.07718749999999991,-0.18925925925925924],[0.07177083333333342,-0.192037037037037],[0.07177083333333342,-0.192037037037037],[0.07843749999999995,-0.1638888888888889],[0.07843749999999995,-0.1638888888888889],[0.08781249999999995,-0.12833333333333335],[0.08781249999999995,-0.12833333333333335],[0.08979166666666671,-0.08185185185185183],[0.08468749999999996,-0.026666666666666623],[0.08604166666666657,-0.021481481481481525],[0.08885416666666662,-0.007407407407407408],[0.09572916666666677,0.0020370370370370794],[0.09572916666666677,0.0020370370370370794],[0.09302083333333329,-0.01962962962962967],[0.10135416666666662,-0.01314814814814819],[0.10520833333333333,-0.009259259259259259],[0.10135416666666662,-0.03129629629629625],[0.0974999999999999,-0.08555555555555554],[0.0974999999999999,-0.08555555555555554],[0.09552083333333337,-0.15499999999999997],[0.09979166666666663,-0.23018518518518521],[0.09916666666666671,-0.23537037037037042],[0.09854166666666657,-0.24055555555555552],[0.08854166666666667,-0.2375925925925926],[0.0875,-0.24314814814814817],[0.08333333333333333,-0.2646296296296296],[0.08145833333333338,-0.2661111111111111],[0.07572916666666671,-0.2668518518518519],[0.07020833333333343,-0.24962962962962965],[0.0703125,-0.2383333333333333],[0.0703125,-0.2383333333333333],[0.06927083333333334,-0.24592592592592594],[0.06635416666666671,-0.2661111111111111],[0.06499999999999997,-0.29129629629629633],[0.06499999999999997,-0.29129629629629633],[0.06468750000000002,-0.3387037037037037],[0.06468750000000002,-0.3387037037037037],[0.06479166666666672,-0.3168518518518519],[0.07010416666666662,-0.3111111111111111],[0.07239583333333334,-0.3257407407407407],[0.07468750000000005,-0.3403703703703704],[0.06708333333333343,-0.3483333333333334],[0.05916666666666662,-0.3594444444444445],[0.05406249999999998,-0.3527777777777778],[0.04656250000000005,-0.3568518518518518],[0.04468749999999998,-0.35481481481481486],[0.043020833333333286,-0.3538888888888889],[0.03322916666666664,-0.3416666666666667],[0.016250000000000025,-0.3301851851851852],[-0.0014583333333333095,-0.3387037037037037],[-0.011874999999999976,-0.36018518518518516],[-0.010312499999999976,-0.367037037037037],[-0.008749999999999977,-0.3738888888888888],[-0.008749999999999977,-0.3738888888888888],[-0.013854166666666619,-0.3911111111111111],[-0.013854166666666619,-0.3911111111111111],[-0.02041666666666669,-0.3537037037037037],[-0.03125,-0.3464814814814815],[-0.04208333333333331,-0.33925925925925926],[-0.04083333333333338,-0.35481481481481486],[-0.03760416666666669,-0.35351851851851845],[-0.03291666666666669,-0.31351851851851853],[-0.035520833333333356,-0.26055555555555554],[-0.04104166666666664,-0.22759259259259254],[-0.04656250000000005,-0.19462962962962968],[-0.04854166666666669,-0.17555555555555558],[-0.044375000000000026,-0.20333333333333337],[-0.04677083333333331,-0.18555555555555553],[-0.04916666666666671,-0.16777777777777783],[-0.0515625,-0.16777777777777783],[-0.05395833333333329,-0.16777777777777783],[-0.04750000000000002,-0.1948148148148148],[-0.04104166666666664,-0.22185185185185188],[-0.036666666666666715,-0.2433333333333333],[-0.03250000000000005,-0.22462962962962965],[-0.02000000000000005,-0.18462962962962962],[-0.007500000000000047,-0.14462962962962966],[0.009062500000000048,-0.11500000000000005],[0.025625000000000023,-0.08537037037037042],[0.025625000000000023,-0.08537037037037042],[0.03979166666666671,-0.0735185185185185],[0.05281250000000005,-0.057777777777777754],[0.06145833333333333,-0.02907407407407416],[0.07041666666666657,-0.009999999999999959],[0.0796875,0.013518518518518435],[0.09229166666666658,0.007037037037036953],[0.09885416666666676,0.0016666666666666245],[0.10708333333333328,-0.002407407407407323],[0.11395833333333343,-0.010925925925925884],[0.10656249999999995,-0.04259259259259259],[0.09937500000000009,-0.049074074074074076],[0.09572916666666677,-0.05851851851851856],[0.09208333333333343,-0.06962962962962967],[0.08802083333333334,-0.060370370370370414],[0.08291666666666657,-0.052222222222222205],[0.07760416666666667,-0.0824074074074074],[0.07229166666666677,-0.11259259259259262],[0.05510416666666664,-0.1257407407407407],[0.03885416666666662,-0.14055555555555552],[0.03812500000000003,-0.13055555555555556],[0.033645833333333285,-0.12370370370370372],[0.029999999999999954,-0.12888888888888894],[0.024166666666666715,-0.13333333333333333],[0.022083333333333382,-0.13444444444444448],[0.020937500000000022,-0.1388888888888889],[0.013750000000000047,-0.11481481481481481],[0.006562499999999953,-0.09074074074074075],[0.018124999999999978,-0.07240740740740745],[0.03166666666666664,-0.05888888888888891],[0.04468749999999998,-0.030555555555555555],[0.0578125,-0.001851851851851852],[0.07041666666666657,0.03981481481481482],[0.08520833333333329,0.08074074074074078],[0.09541666666666657,0.1300000000000001],[0.1015625,0.17629629629629637],[0.1015625,0.17629629629629637],[0.11729166666666657,0.22185185185185177],[0.11729166666666657,0.22185185185185177],[0.1224999999999999,0.27074074074074084],[0.12260416666666671,0.30111111111111116],[0.12260416666666671,0.30111111111111116],[0.12072916666666676,0.3362962962962963],[0.12072916666666676,0.3362962962962963],[0.11541666666666663,0.3516666666666666],[0.11541666666666663,0.3516666666666666],[0.11083333333333342,0.3701851851851851],[0.11083333333333342,0.3701851851851851],[0.10760416666666663,0.38425925925925924],[0.10645833333333338,0.40018518518518525],[0.1046875,0.39277777777777784],[0.10677083333333333,0.3883333333333334],[0.10572916666666667,0.38499999999999995],[0.115625,0.37833333333333324],[0.1196875000000001,0.37888888888888894],[0.12729166666666672,0.3768518518518518],[0.13354166666666673,0.37814814814814823],[0.13895833333333343,0.37592592592592594],[0.1337500000000001,0.3875925925925925],[0.12645833333333342,0.39740740740740743],[0.12406249999999991,0.4103703703703704],[0.12166666666666662,0.4233333333333334],[0.1140625,0.43574074074074065],[0.10604166666666662,0.44814814814814813],[0.0978125000000001,0.45999999999999996],[0.08604166666666657,0.4744444444444445],[0.07833333333333338,0.4888888888888889],[0.0756249999999999,0.49962962962962953],[0.07822916666666657,0.5027777777777778],[0.08083333333333324,0.505925925925926],[0.084375,0.5025925925925926],[0.0890625,0.49907407407407406],[0.09479166666666666,0.49833333333333335],[0.10052083333333334,0.4975925925925927],[0.11354166666666667,0.4925925925925926],[0.12552083333333333,0.4872222222222223],[0.12552083333333333,0.4872222222222223],[0.13166666666666677,0.4503703703703705],[0.1290625000000001,0.4118518518518518],[0.12770833333333323,0.3696296296296297],[0.11500000000000009,0.2837037037037038],[0.09802083333333324,0.20203703703703707],[0.07864583333333333,0.12481481481481477],[0.060104166666666715,0.04462962962962967],[0.049687500000000044,-0.03759259259259251],[0.03458333333333338,-0.11629629629629631],[0.022291666666666644,-0.19166666666666668],[0.01583333333333338,-0.23555555555555555],[0.013333333333333286,-0.28203703703703703],[0.013125000000000024,-0.3194444444444444],[0.021562500000000047,-0.30111111111111116],[0.03802083333333333,-0.307962962962963],[0.05395833333333329,-0.3188888888888889],[0.06656249999999998,-0.33425925925925926],[0.06760416666666676,-0.34018518518518515],[0.07854166666666676,-0.3492592592592593],[0.08114583333333343,-0.35259259259259257],[0.08375000000000009,-0.3559259259259259],[0.07708333333333334,-0.35851851851851857],[0.07708333333333334,-0.35851851851851857],[0.071875,-0.3594444444444445],[0.071875,-0.3594444444444445],[0.07260416666666672,-0.38],[0.07260416666666672,-0.38],[0.0578125,-0.37462962962962965],[0.05427083333333336,-0.3562962962962963],[0.060000000000000026,-0.2903703703703704],[0.06916666666666677,-0.23185185185185184],[0.0696875000000001,-0.172037037037037],[0.07677083333333339,-0.12092592592592595],[0.08020833333333334,-0.08666666666666668],[0.09270833333333334,-0.04518518518518514],[0.10208333333333333,-0.021296296296296296],[0.10802083333333339,0.034444444444444486],[0.1224999999999999,0.06407407407407412],[0.12750000000000009,0.08055555555555556],[0.12781250000000005,0.0544444444444444],[0.128125,0.02833333333333325],[0.12427083333333329,-0.016111111111111194],[0.12041666666666657,-0.060555555555555536],[0.11604166666666677,-0.08814814814814818],[0.11166666666666672,-0.11574074074074074],[0.10635416666666657,-0.15537037037037033],[0.10125000000000005,-0.2192592592592592],[0.10187499999999995,-0.2361111111111111],[0.10250000000000009,-0.252962962962963],[0.08833333333333329,-0.2957407407407407],[0.07416666666666671,-0.33851851851851855],[0.06979166666666667,-0.32222222222222224],[0.07041666666666657,-0.2957407407407407],[0.07895833333333328,-0.25388888888888894],[0.0875,-0.21203703703703702],[0.09052083333333343,-0.18944444444444447],[0.09354166666666662,-0.1668518518518519],[0.07364583333333338,-0.1307407407407408],[0.058645833333333286,-0.08722222222222227],[0.04093749999999995,0.02388888888888885],[0.04093749999999995,0.02388888888888885],[0.00625,0.09351851851851851],[-0.042708333333333334,0.1449999999999999],[-0.08614583333333338,0.18185185185185193],[-0.12270833333333328,0.19870370370370363],[-0.15885416666666666,0.2146296296296296],[-0.18916666666666668,0.2687037037037037],[-0.2111458333333334,0.322037037037037],[-0.2169791666666666,0.34018518518518526],[-0.22781250000000006,0.34666666666666673],[-0.22239583333333332,0.3109259259259259],[-0.19125000000000003,0.31796296296296306],[-0.14854166666666668,0.2977777777777777],[-0.11875,0.2881481481481482],[-0.09979166666666663,0.2875925925925925],[-0.07645833333333331,0.2890740740740741],[-0.05343749999999995,0.2927777777777778],[-0.036666666666666715,0.28833333333333344],[-0.036666666666666715,0.28833333333333344],[-0.020937500000000022,0.30166666666666664],[-0.020937500000000022,0.30166666666666664],[-0.003333333333333381,0.31962962962962965],[-0.003333333333333381,0.31962962962962965],[0.021875,0.34],[0.021875,0.34],[0.03791666666666664,0.3609259259259259],[0.03791666666666664,0.3609259259259259],[0.05166666666666669,0.387037037037037],[0.05166666666666669,0.387037037037037],[0.06864583333333343,0.405925925925926],[0.06864583333333343,0.405925925925926],[0.07333333333333343,0.34037037037037027],[0.08645833333333333,0.29666666666666675],[0.09885416666666676,0.26129629629629636],[0.11114583333333337,0.23648148148148157],[0.1256249999999999,0.2012962962962964],[0.13052083333333328,0.169074074074074],[0.13229166666666667,0.1587037037037038],[0.13729166666666662,0.14055555555555552],[0.13729166666666662,0.14055555555555552],[0.13927083333333337,0.12370370370370362],[0.14052083333333343,0.09759259259259268],[0.14052083333333343,0.09759259259259268],[0.15427083333333325,0.15148148148148138],[0.15656249999999997,0.1962962962962963],[0.15343749999999995,0.2125925925925925],[0.1553124999999999,0.24444444444444444],[0.14916666666666673,0.25574074074074077],[0.15229166666666671,0.26666666666666666],[0.1538541666666667,0.26129629629629636],[0.15927083333333342,0.2633333333333334],[0.16270833333333337,0.27037037037037037],[0.16604166666666675,0.28777777777777774],[0.1734375,0.25555555555555554],[0.17614583333333325,0.24814814814814815],[0.18135416666666657,0.23537037037037042],[0.17822916666666658,0.1955555555555556],[0.18875000000000006,0.16999999999999993],[0.19781250000000009,0.14148148148148143],[0.19781250000000009,0.14148148148148143],[0.19281249999999991,0.07185185185185176],[0.17645833333333344,0.044444444444444446],[0.1664583333333333,-0.027777777777777776],[0.1634375000000001,-0.12462962962962965],[0.1634375000000001,-0.12462962962962965],[0.15635416666666657,-0.17185185185185187],[0.1466666666666666,-0.24592592592592594],[0.1466666666666666,-0.24592592592592594],[0.14645833333333325,-0.2814814814814815],[0.14656250000000004,-0.2631481481481482],[0.13989583333333327,-0.24592592592592594],[0.13395833333333323,-0.24462962962962967],[0.13395833333333323,-0.24462962962962967],[0.13916666666666658,-0.2101851851851852],[0.14812500000000003,-0.257962962962963],[0.15125000000000005,-0.2542592592592593],[0.14770833333333327,-0.22592592592592592],[0.1460416666666667,-0.20685185185185184],[0.14989583333333342,-0.19962962962962966],[0.13531250000000009,-0.1655555555555555],[0.12177083333333343,-0.17555555555555558],[0.11593749999999996,-0.19981481481481478],[0.109375,-0.2081481481481481]]","[[0.2107291666666666,0.39092592592592595,0.000299999713902821],[0.2107291666666666,0.39092592592592595,0.05319999980926582],[0.22218749999999995,0.38074074074074077,0.06440000009536107],[0.23875000000000005,0.3675925925925926,0.08240000009536175],[0.2553124999999999,0.3544444444444444,0.09890000009536948],[0.2553124999999999,0.3544444444444444,0.11050000000000182],[0.2646874999999999,0.35,0.1270999999046296],[0.2639583333333334,0.3522222222222223,0.1506999998092624],[0.2639583333333334,0.3522222222222223,0.1604000000953647],[0.25270833333333326,0.35907407407407405,0.17709999990462677],[0.25270833333333326,0.35907407407407405,0.19379999971390305],[0.23770833333333338,0.3727777777777777,0.21609999990462825],[0.23770833333333338,0.3727777777777777,0.22709999990462393],[0.23770833333333338,0.3661111111111112,0.2437999997139002],[0.23770833333333338,0.3661111111111112,0.2604999999999933],[0.23270833333333343,0.3725925925925927,0.2770999999046353],[0.22229166666666675,0.3875925925925925,0.2936999998092631],[0.21802083333333327,0.38574074074074066,0.31050000000000466],[0.2111458333333334,0.3903703703703703,0.32709999990463245],[0.20447916666666663,0.40185185185185185,0.3452999997139017],[0.20802083333333338,0.4027777777777778,0.36090000009536993],[0.22208333333333338,0.3987037037037036,0.3770999999046296],[0.2361458333333334,0.39462962962962966,0.3936999998092574],[0.2543750000000001,0.37777777777777777,0.4104000000953647],[0.2638541666666666,0.3709259259259258,0.42719999980926104],[0.2751041666666666,0.36074074074074064,0.445299999713896],[0.28135416666666657,0.35240740740740734,0.46049999999999613],[0.28270833333333345,0.352962962962963,0.47700000000000387],[0.2805208333333333,0.3581481481481481,0.49369999980926593],[0.284375,0.34962962962962957,0.510400000095359],[0.28312499999999996,0.3483333333333334,0.527000000000001],[0.28125,0.3455555555555556,0.5436999998092631],[0.27937500000000004,0.3427777777777778,0.5604000000953704],[0.27197916666666655,0.34888888888888886,0.5770999999046325],[0.2587500000000001,0.36425925925925934,0.5937999997138945],[0.2522916666666667,0.37222222222222223,0.6104000000953675],[0.25625,0.3698148148148149,0.6269999999999953],[0.2585416666666667,0.3635185185185184,0.6437999997138917],[0.26437499999999997,0.35259259259259257,0.6605999999046333],[0.2617708333333333,0.35037037037037044,0.6772999997138953],[0.2591666666666666,0.34814814814814815,0.693799999713903],[0.2638541666666666,0.3387037037037037,0.7104999999999961],[0.2685416666666666,0.3292592592592592,0.7270000000000039],[0.2771874999999999,0.31925925925925924,0.7445000000000022],[0.2916666666666667,0.3,0.7607999997138961],[0.2934375000000001,0.2957407407407408,0.7770999999046353],[0.2952083333333334,0.29148148148148145,0.7937999997138974],[0.2912499999999999,0.29074074074074074,0.8104000000953704],[0.2872916666666666,0.29000000000000004,0.8269999999999982],[0.29187500000000005,0.2857407407407407,0.8437999997138945],[0.2928124999999999,0.2862962962962963,0.8627999997139],[0.29489583333333325,0.2935185185185185,0.8770999999046296],[0.29697916666666657,0.3007407407407407,0.8939000000953712],[0.29052083333333345,0.30462962962962964,0.9104000000953647],[0.28406250000000005,0.3085185185185186,0.9270999999046268],[0.28937499999999994,0.302962962962963,0.943799999713903],[0.2946875000000001,0.29740740740740745,0.9604000000953619],[0.3,0.29666666666666675,0.9770999999046239],[0.30531249999999993,0.29555555555555557,0.9936999998092659],[0.3090625000000001,0.29222222222222216,1.0134000000953591],[0.3164583333333333,0.28407407407407403,1.0270999999046353],[0.32177083333333345,0.27462962962962956,1.043699999809263],[0.32708333333333334,0.26518518518518525,1.0605000000000047],[0.3323958333333332,0.26944444444444443,1.0769999999999982],[0.34343750000000006,0.26425925925925936,1.0936999998092602],[0.3380208333333333,0.275,1.1104000000953675],[0.33260416666666665,0.2857407407407407,1.1270999999046296],[0.32541666666666674,0.28833333333333344,1.1437999997138917],[0.3182291666666667,0.2912962962962962,1.1604000000953647],[0.3182291666666667,0.2912962962962962,1.1770999999046268],[0.30520833333333336,0.29888888888888887,1.1936999998092688],[0.2961458333333333,0.30703703703703694,1.2104000000953619],[0.28187499999999993,0.31425925925925935,1.227099999904624],[0.2665625000000001,0.3227777777777777,1.243699999809266],[0.25583333333333325,0.32148148148148153,1.2627999997138915],[0.23510416666666673,0.3418518518518519,1.277000000000001],[0.22583333333333327,0.3490740740740741,1.293699999809263],[0.22260416666666671,0.3453703703703704,1.3104000000953704],[0.21427083333333338,0.3544444444444444,1.3270999999046325],[0.20031249999999995,0.35425925925925916,1.3436999998092602],[0.18739583333333343,0.3533333333333332,1.3604000000953675],[0.17052083333333337,0.35185185185185186,1.3769999999999953],[0.1586458333333333,0.35351851851851845,1.3936999998092574],[0.14958333333333323,0.35648148148148145,1.4106999998092675],[0.14052083333333343,0.3594444444444445,1.4270999999046268],[0.1318749999999999,0.34685185185185174,1.4451999998092617],[0.12625000000000006,0.331111111111111,1.4631999998092624],[0.12625000000000006,0.331111111111111,1.4771999998092582],[0.11729166666666657,0.3266666666666666,1.493699999809266],[0.121875,0.3212962962962963,1.5139000000953615],[0.13208333333333327,0.32518518518518524,1.529199999809265],[0.1319791666666667,0.3375925925925925,1.5440999999046312],[0.13802083333333334,0.35111111111111115,1.5605999999046247],[0.14447916666666671,0.36129629629629634,1.5769999999999982],[0.14916666666666673,0.368888888888889,1.5936999998092602],[0.15187499999999995,0.3731481481481482,1.610599999904636],[0.1584374999999999,0.38074074074074077,1.6270999999046296],[0.15656249999999997,0.39462962962962966,1.6452999997138988],[0.15302083333333344,0.40851851851851856,1.6621999998092605],[0.14364583333333342,0.41999999999999993,1.6772999997138953],[0.13468749999999996,0.4300000000000001,1.695299999713896],[0.14197916666666663,0.42851851851851847,1.7109999999999985],[0.14312500000000009,0.42592592592592593,1.729299999713902],[0.14312500000000009,0.42592592592592593,1.7439000000953655],[0.13854166666666667,0.4270370370370371,1.760400000095359],[0.13552083333333323,0.4300000000000001,1.7770999999046353],[0.13395833333333323,0.4292592592592592,1.7957999997138927],[0.12552083333333333,0.43870370370370365,1.8116999998092638],[0.1224999999999999,0.4449999999999999,1.8271999998092667],[0.12291666666666666,0.444074074074074,1.8436999998092602],[0.13239583333333324,0.4381481481481482,1.860599999904636],[0.1384375000000001,0.4396296296296296,1.8770999999046296],[0.13854166666666667,0.444074074074074,1.8939000000953712],[0.1330208333333334,0.44592592592592584,1.9104000000953647],[0.13291666666666657,0.44370370370370377,1.9269999999999925],[0.1414583333333333,0.43185185185185193,1.9440000000000026],[0.1421875,0.43407407407407406,1.9606999998092647],[0.1554166666666667,0.42592592592592593,1.977400000095372],[0.17635416666666662,0.41574074074074074,1.993699999809266],[0.18718750000000003,0.4131481481481482,2.0104999999999933],[0.1881249999999999,0.4142592592592593,2.0309000000953716],[0.20541666666666672,0.4038888888888889,2.0472999997139],[0.22270833333333329,0.39351851851851855,2.0649999999999977],[0.22270833333333329,0.39351851851851855,2.0770999999046325],[0.23822916666666671,0.3838888888888888,2.0936999998092602],[0.25125000000000003,0.38259259259259265,2.115099999904629],[0.25125000000000003,0.38259259259259265,2.1270999999046296],[0.2591666666666666,0.3822222222222222,2.143900000095371],[0.2591666666666666,0.3822222222222222,2.1604000000953647],[0.27541666666666675,0.37481481481481477,2.177199999809261],[0.27541666666666675,0.37481481481481477,2.1936999998092688],[0.28916666666666657,0.3648148148148148,2.210499999999996],[0.28916666666666657,0.3648148148148148,2.227099999904624],[0.2911458333333333,0.3624074074074075,2.2437999997139],[0.2911458333333333,0.3624074074074075,2.260400000095359],[0.2976041666666667,0.3566666666666667,2.2770999999046353],[0.29874999999999996,0.3568518518518519,2.293699999809263],[0.25729166666666664,0.3714814814814815,2.3140999999046272],[0.21927083333333333,0.3846296296296297,2.327299999713901],[0.18260416666666662,0.3903703703703703,2.34390000009536],[0.15052083333333333,0.38925925925925936,2.3602999997139023],[0.10906250000000005,0.39740740740740743,2.377199999809264],[0.06468750000000002,0.4057407407407408,2.3936999998092574],[0.024166666666666715,0.4192592592592592,2.4106999998092675],[-0.01229166666666662,0.4272222222222223,2.4270999999046268],[-0.04854166666666669,0.44518518518518513,2.4436999998092688],[-0.07947916666666661,0.4572222222222222,2.4686999998092602],[-0.07947916666666661,0.4572222222222222,2.477099999904624],[-0.07999999999999995,0.4642592592592593,2.493699999809266],[-0.07406250000000002,0.46592592592592597,2.51109999990463],[-0.06208333333333336,0.47685185185185186,2.5270999999046353],[-0.050833333333333286,0.4872222222222223,2.543699999809263],[-0.03937499999999995,0.4922222222222221,2.5639000000953587],[-0.016458333333333287,0.49074074074074076,2.579900000095364],[-0.0005208333333333333,0.4868518518518518,2.5936999998092602],[0.024166666666666715,0.4807407407407408,2.612099999904629],[0.049791666666666616,0.46722222222222215,2.6292999997138935],[0.07197916666666657,0.45555555555555555,2.645699999809267],[0.09302083333333329,0.44000000000000006,2.662699999809263],[0.1056250000000001,0.43185185185185193,2.6795999999046245],[0.11822916666666666,0.42370370370370364,2.6939000000953683],[0.13239583333333324,0.412962962962963,2.710400000095362],[0.15072916666666672,0.40481481481481485,2.727000000000004],[0.16552083333333342,0.4,2.7454000000953727],[0.1803124999999999,0.39518518518518514,2.7620999999046347],[0.19364583333333343,0.387037037037037,2.7770999999046353],[0.20697916666666671,0.37888888888888894,2.793699999809263],[0.2321875000000001,0.36666666666666664,2.8119999999999976],[0.2540625000000001,0.35611111111111104,2.827599999904635],[0.26749999999999996,0.3446296296296297,2.8440999999046284],[0.2804166666666667,0.3351851851851852,2.8604000000953675],[0.2804166666666667,0.3351851851851852,2.8770999999046296],[0.2920833333333334,0.32444444444444454,2.8937999997138917],[0.31052083333333325,0.3131481481481482,2.910799999713902],[0.32395833333333335,0.30481481481481487,2.9270999999046268],[0.3328125,0.29796296296296293,2.944099999904637],[0.3258333333333333,0.29666666666666675,2.960400000095362],[0.3216666666666666,0.29518518518518516,2.977000000000004],[0.3078125,0.3014814814814814,2.993699999809266],[0.2982291666666666,0.30462962962962964,3.0120999999046347],[0.28666666666666674,0.3183333333333333,3.0270999999046353],[0.2867708333333333,0.3164814814814814,3.045099999904636],[0.2852083333333333,0.3175925925925926,3.061099999904627],[0.25927083333333345,0.33796296296296297,3.0789999999999935],[0.22770833333333323,0.36018518518518516,3.0936999998092602],[0.20770833333333344,0.3792592592592592,3.1106999998092704],[0.20177083333333337,0.39148148148148143,3.1269999999999953],[0.19208333333333344,0.4050000000000001,3.1436999998092574],[0.1877083333333334,0.4072222222222222,3.160900000095367],[0.17604166666666668,0.41444444444444434,3.1784000000953654],[0.17333333333333342,0.41148148148148156,3.1936999998092688],[0.16635416666666672,0.42240740740740745,3.2106999998092647],[0.159375,0.43333333333333335,3.227499999999992],[0.1631249999999999,0.4272222222222223,3.2439000000953655],[0.1724999999999999,0.4192592592592592,3.2604999999999933],[0.1805208333333333,0.4107407407407407,3.2770999999046353],[0.1805208333333333,0.4107407407407407,3.2937999997138974],[0.1805208333333333,0.41092592592592586,3.3104000000953704],[0.18614583333333337,0.4087037037037038,3.3270999999046325],[0.18447916666666658,0.41092592592592586,3.3440999999046284],[0.18947916666666675,0.40925925925925927,3.3604000000953675],[0.1944791666666667,0.4075925925925926,3.3769999999999953],[0.1944791666666667,0.40611111111111103,3.3936999998092574],[0.19500000000000003,0.40259259259259256,3.4117999997138924],[0.2022916666666667,0.3977777777777777,3.4270999999046268],[0.2111458333333334,0.39166666666666666,3.445699999809264],[0.21437499999999995,0.3877777777777777,3.4616999998092695],[0.2205208333333334,0.38055555555555554,3.4784000000953625],[0.22197916666666656,0.37462962962962953,3.493699999809266],[0.22197916666666656,0.37462962962962953,3.5104999999999933],[0.22395833333333334,0.3738888888888888,3.5270999999046353],[0.23093750000000005,0.37240740740740746,3.545099999904636],[0.23791666666666675,0.3709259259259258,3.5631999998092567],[0.23791666666666675,0.3709259259259258,3.5770999999046325],[0.25239583333333326,0.3633333333333334,3.5936999998092602],[0.2546875,0.3668518518518519,3.610599999904636],[0.2569791666666667,0.37037037037037035,3.6269999999999953],[0.25833333333333336,0.37185185185185177,3.6487999997139013],[0.25833333333333336,0.37185185185185177,3.6604000000953647],[0.2642708333333334,0.36944444444444446,3.6770999999046268],[0.26843750000000005,0.36944444444444446,3.6939000000953683],[0.265625,0.3738888888888888,3.7120999999046376],[0.2615624999999999,0.37777777777777777,3.727000000000004],[0.2289583333333333,0.38574074074074066,3.744099999904634],[0.2289583333333333,0.38574074074074066,3.7604999999999933],[0.19718749999999996,0.3983333333333334,3.7770999999046353],[0.14697916666666658,0.4035185185185185,3.793599999904629],[0.10427083333333324,0.40018518518518525,3.8105999999046247],[0.06156250000000003,0.3968518518518518,3.8271999998092667],[0.021458333333333357,0.40314814814814826,3.8437999997138945],[-0.03239583333333336,0.41333333333333344,3.8622999997138976],[-0.06906249999999996,0.4233333333333334,3.8769999999999953],[-0.09874999999999995,0.42888888888888893,3.8936999998092574],[-0.12281249999999998,0.43796296296296294,3.9104000000953647],[-0.12364583333333339,0.444074074074074,3.9272999997138953],[-0.12364583333333339,0.444074074074074,3.9512999997138962],[-0.12270833333333328,0.44722222222222224,3.9671999998092673],[-0.12270833333333328,0.44722222222222224,3.977099999904624],[-0.11083333333333331,0.4566666666666667,3.993699999809266],[-0.09197916666666663,0.47092592592592586,4.010400000095359],[-0.07312500000000005,0.4781481481481482,4.027000000000001],[-0.049374999999999974,0.4762962962962964,4.043599999904629],[-0.016458333333333287,0.4744444444444445,4.06040000009537],[-0.016458333333333287,0.4744444444444445,4.0770999999046325],[-0.0006250000000000236,0.46888888888888897,4.09369999980926],[-0.0006250000000000236,0.46888888888888897,4.110500000000002],[0.010416666666666666,0.4737037037037036,4.12709999990463],[0.018020833333333285,0.47462962962962957,4.143999999999991],[0.025625000000000023,0.47555555555555545,4.16540000009536],[0.025625000000000023,0.47555555555555545,4.179099999904636],[0.036666666666666715,0.47018518518518515,4.193799999713903],[0.04520833333333331,0.4751851851851852,4.215299999713892],[0.050937499999999976,0.47481481481481475,4.2347999997139],[0.050937499999999976,0.47481481481481475,4.243599999904632],[0.05510416666666664,0.48092592592592603,4.26109999990463],[0.04874999999999995,0.49074074074074076,4.277000000000001],[0.04239583333333338,0.5005555555555554,4.293799999713897],[0.04718749999999995,0.5075925925925926,4.31040000009537],[0.05677083333333333,0.5042592592592592,4.326999999999998],[0.07374999999999995,0.4948148148148149,4.34369999980926],[0.09072916666666657,0.4853703703703704,4.360299999713902],[0.09520833333333342,0.48333333333333334,4.376999999999995],[0.10031249999999996,0.47759259259259257,4.393599999904637],[0.10927083333333343,0.47166666666666673,4.410400000095365],[0.12770833333333323,0.4587037037037038,4.4269999999999925],[0.14708333333333337,0.447037037037037,4.4435999999046345],[0.15499999999999994,0.44425925925925924,4.461900000095369],[0.1540625000000001,0.44351851851851853,4.477099999904624],[0.153125,0.4427777777777778,4.493699999809266],[0.15010416666666657,0.4448148148148149,4.510299999713894],[0.14708333333333337,0.4468518518518518,4.527000000000001],[0.1466666666666666,0.44537037037037036,4.543699999809263],[0.1462500000000001,0.443888888888889,4.560299999713891],[0.14197916666666663,0.4425925925925926,4.576999999999998],[0.13427083333333342,0.4462962962962963,4.59369999980926],[0.12854166666666675,0.45185185185185184,4.612699999809266],[0.13427083333333342,0.4485185185185186,4.62709999990463],[0.12354166666666658,0.4566666666666667,4.643599999904637],[0.12302083333333323,0.45629629629629626,4.661000000000001],[0.12625000000000006,0.45111111111111113,4.6769999999999925],[0.12947916666666662,0.44592592592592584,4.693699999809269],[0.1209374999999999,0.45314814814814824,4.71059999990463],[0.11239583333333343,0.46037037037037043,4.727000000000004],[0.11052083333333323,0.4624074074074075,4.743699999809266],[0.11052083333333323,0.4624074074074075,4.760499999999993],[0.10416666666666667,0.46703703703703714,4.777099999904635],[0.09604166666666672,0.469074074074074,4.793699999809263],[0.09031250000000005,0.47018518518518515,4.810500000000005],[0.1,0.46351851851851844,4.826999999999998],[0.09874999999999995,0.4648148148148148,4.84369999980926],[0.09020833333333324,0.47129629629629627,4.860299999713902],[0.0806250000000001,0.4800000000000001,4.876999999999995],[0.08666666666666671,0.4770370370370371,4.893599999904637],[0.09302083333333329,0.47555555555555545,4.910499999999999],[0.09270833333333334,0.47925925925925916,4.930099999904627],[0.09270833333333334,0.47925925925925916,4.943699999809269],[0.09239583333333339,0.4807407407407408,4.960499999999996],[0.0943749999999999,0.4800000000000001,4.977099999904624],[0.10187499999999995,0.4737037037037036,4.993699999809266],[0.109375,0.47129629629629627,5.010400000095359],[0.11760416666666676,0.46944444444444444,5.027099999904635],[0.12062499999999995,0.47018518518518515,5.043799999713897],[0.12468750000000005,0.46870370370370373,5.060500000000005],[0.12270833333333328,0.4677777777777778,5.076999999999998],[0.12041666666666657,0.46537037037037027,5.09369999980926],[0.1196875000000001,0.46222222222222226,5.1104000000953675],[0.11427083333333338,0.4607407407407407,5.12709999990463],[0.10812499999999996,0.46055555555555566,5.143900000095371],[0.0990624999999999,0.4661111111111112,5.160499999999999],[0.09541666666666657,0.465,5.1769999999999925],[0.0890625,0.46351851851851844,5.1935999999046345],[0.07979166666666657,0.4646296296296296,5.210299999713897],[0.07052083333333338,0.46574074074074073,5.227000000000004],[0.07052083333333338,0.4666666666666667,5.243599999904632],[0.07052083333333338,0.4675925925925926,5.260299999713894],[0.06906249999999996,0.4661111111111112,5.277099999904635],[0.07229166666666677,0.46518518518518526,5.293599999904629],[0.07354166666666657,0.4661111111111112,5.3134000000953705],[0.06979166666666667,0.4677777777777778,5.326999999999998],[0.05677083333333333,0.4735185185185186,5.34369999980926],[0.05166666666666669,0.4777777777777778,5.3604000000953675],[0.06135416666666664,0.475,5.376999999999995],[0.07447916666666667,0.47074074074074085,5.393699999809257],[0.08208333333333329,0.4668518518518519,5.410400000095365],[0.08802083333333334,0.4609259259259259,5.427199999809261],[0.09375,0.4648148148148148,5.4435999999046345],[0.0978125000000001,0.4644444444444444,5.460400000095362],[0.10041666666666677,0.46351851851851844,5.477099999904624],[0.10302083333333342,0.4625925925925925,5.4946999998092565],[0.11218750000000005,0.4564814814814815,5.510299999713894],[0.11614583333333334,0.4522222222222223,5.526900000095367],[0.11239583333333343,0.4505555555555555,5.543599999904629],[0.10520833333333333,0.4514814814814814,5.560500000000005],[0.09770833333333329,0.455925925925926,5.5770999999046325],[0.09187500000000005,0.4624074074074075,5.593599999904626],[0.08541666666666667,0.4601851851851852,5.610299999713902],[0.0806250000000001,0.46222222222222226,5.626999999999995],[0.07354166666666657,0.4644444444444444,5.643699999809257],[0.06645833333333329,0.4666666666666667,5.662299999713895],[0.06229166666666662,0.4696296296296297,5.6769999999999925],[0.058124999999999954,0.4725925925925927,5.6935999999046345],[0.059791666666666646,0.4762962962962964,5.7109999999999985],[0.06395833333333331,0.4733333333333334,5.727199999809258],[0.06395833333333331,0.4733333333333334,5.743699999809266],[0.05604166666666662,0.4737037037037036,5.760400000095359],[0.06041666666666667,0.4675925925925926,5.777000000000001],[0.05635416666666669,0.4705555555555556,5.7941999998092655],[0.06322916666666671,0.46888888888888897,5.8115999999046295],[0.06604166666666664,0.46944444444444444,5.826999999999998],[0.06729166666666657,0.47018518518518515,5.84690000009536],[0.06291666666666665,0.4740740740740741,5.864299999713893],[0.06593749999999995,0.46944444444444444,5.880900000095366],[0.0734375,0.4692592592592592,5.896900000095371],[0.06822916666666666,0.46592592592592597,5.912900000095362],[0.06854166666666663,0.46574074074074073,5.928400000095365],[0.05260416666666667,0.4759259259259259,5.944999999999993],[0.04583333333333333,0.47907407407407415,5.960699999809265],[0.030208333333333334,0.48518518518518516,5.97979999971389],[0.024062500000000025,0.48703703703703705,5.994099999904634],[0.021979166666666692,0.48629629629629634,6.010499999999993],[0.017604166666666643,0.4890740740740741,6.027000000000001],[0.017604166666666643,0.4890740740740741,6.043799999713897],[0.017812500000000023,0.4896296296296296,6.060299999713891],[0.017812500000000023,0.4896296296296296,6.076999999999998],[0.0007291666666667141,0.49425925925925923,6.093599999904626],[0.0007291666666667141,0.49425925925925923,6.1104000000953675],[-0.0005208333333333333,0.5042592592592592,6.12709999990463],[0.0078125,0.5024074074074073,6.152699999809258],[0.0078125,0.5024074074074073,6.160499999999999],[0.02010416666666662,0.49666666666666676,6.177099999904627],[0.02010416666666662,0.49666666666666676,6.1935999999046345],[0.027708333333333356,0.4946296296296297,6.210400000095362],[0.027708333333333356,0.4946296296296297,6.227000000000004],[0.03760416666666669,0.48777777777777775,6.243699999809266],[0.03760416666666669,0.48777777777777775,6.260599999904628],[0.041770833333333354,0.4888888888888889,6.277099999904635],[0.04375,0.49444444444444446,6.29540000009537],[0.04541666666666669,0.49444444444444446,6.312400000095366],[0.035104166666666714,0.5051851851851851,6.327400000095366],[0.03822916666666672,0.5051851851851851,6.344299999713897],[0.03270833333333331,0.5085185185185186,6.3637999997138905],[0.030520833333333285,0.5157407407407407,6.380199999809264],[0.02833333333333338,0.522962962962963,6.393900000095371],[0.029895833333333382,0.5248148148148147,6.410599999904633],[0.027083333333333334,0.5331481481481481,6.440099999904632],[0.027083333333333334,0.5331481481481481,6.447400000095371],[0.027708333333333356,0.5346296296296297,6.460400000095362],[0.030729166666666665,0.5272222222222223,6.477599999904626],[0.036354166666666646,0.5218518518518518,6.494099999904634],[0.043958333333333384,0.5179629629629631,6.510400000095359],[0.044166666666666646,0.515,6.528099999904626],[0.05281250000000005,0.5133333333333334,6.544599999904634],[0.05770833333333331,0.5088888888888888,6.5625],[0.0626041666666667,0.5044444444444444,6.577699999809269],[0.05385416666666672,0.4987037037037036,6.596199999809258],[0.036249999999999956,0.4927777777777778,6.6127999997139],[0.017916666666666713,0.48629629629629634,6.629599999904627],[-0.005416666666666714,0.4735185185185186,6.6466999998092575],[-0.028750000000000022,0.4607407407407407,6.663400000095365],[-0.04739583333333333,0.45,6.6795999999046245],[-0.0640625,0.4390740740740741,6.696400000095366],[-0.07791666666666662,0.42981481481481487,6.712099999904638],[-0.09947916666666666,0.4305555555555556,6.729299999713902],[-0.1,0.4225925925925927,6.745599999904627],[-0.0859375,0.41759259259259257,6.763599999904628],[-0.07604166666666666,0.422037037037037,6.7805000000000035],[-0.057604166666666616,0.422037037037037,6.796199999809261],[-0.03114583333333331,0.4337037037037038,6.813599999904625],[-0.03114583333333331,0.4337037037037038,6.826999999999998],[-0.005937500000000048,0.44648148148148153,6.8437999997138945],[0.00302083333333331,0.4596296296296297,6.8644999999999925],[0.016250000000000025,0.47018518518518515,6.881400000095368],[0.027187500000000024,0.47740740740740734,6.897699999809262],[0.04479166666666667,0.47074074074074085,6.914500000000004],[0.03999999999999997,0.4722222222222222,6.929799999713893],[0.03781249999999995,0.4740740740740741,6.945499999999996],[0.04864583333333338,0.4666666666666667,6.963299999713897],[0.04750000000000002,0.4638888888888889,6.978999999999999],[0.040625,0.4625925925925925,6.993699999809266],[0.042916666666666714,0.4507407407407407,7.012099999904635],[0.05479166666666669,0.43499999999999994,7.02719999980927],[0.06187499999999998,0.419074074074074,7.046299999713895],[0.06302083333333333,0.4035185185185185,7.0634000000953705],[0.0709374999999999,0.39462962962962966,7.080099999904633],[0.08947916666666676,0.3831481481481481,7.096000000000004],[0.10666666666666676,0.3762962962962964,7.114999999999995],[0.09874999999999995,0.37814814814814823,7.130699999809266],[0.09947916666666666,0.3774074074074073,7.15040000009536],[0.09947916666666666,0.3774074074074073,7.160499999999999],[0.09385416666666657,0.3742592592592593,7.177099999904627],[0.08927083333333338,0.387037037037037,7.1950999999046275],[0.07843749999999995,0.40333333333333327,7.213099999904628],[0.06468750000000002,0.4203703703703704,7.227699999809261],[0.05770833333333331,0.4331481481481481,7.248599999904627],[0.05770833333333331,0.4331481481481481,7.260400000095359],[0.04500000000000005,0.44314814814814807,7.277000000000001],[0.021875,0.4624074074074075,7.2942999997139],[-0.000416666666666643,0.467962962962963,7.315699999809269],[0.004270833333333357,0.47074074074074085,7.3315999999046255],[0.0067708333333333336,0.47537037037037044,7.34990000009536],[0.0067708333333333336,0.47537037037037044,7.36069999980927],[0.015625,0.4824074074074074,7.3810999999046345],[0.021562500000000047,0.47685185185185186,7.397499999999994],[0.035416666666666666,0.47092592592592586,7.413099999904631],[0.05270833333333336,0.46703703703703714,7.431599999904634],[0.06020833333333329,0.46722222222222215,7.449199999809267],[0.06020833333333329,0.46722222222222215,7.460299999713897],[0.07104166666666671,0.4685185185185185,7.477099999904624],[0.08250000000000005,0.45388888888888895,7.497099999904634],[0.08250000000000005,0.45388888888888895,7.510400000095359],[0.08406250000000005,0.452962962962963,7.527000000000001],[0.08791666666666677,0.4414814814814814,7.545500000000004],[0.08791666666666677,0.4414814814814814,7.56040000009537],[0.09177083333333323,0.4300000000000001,7.5770999999046325],[0.09645833333333324,0.4177777777777778,7.598099999904633],[0.08927083333333338,0.4142592592592593,7.614900000095361],[0.08572916666666662,0.4035185185185185,7.630499999999998],[0.07916666666666666,0.3998148148148148,7.650900000095362],[0.07916666666666666,0.3998148148148148,7.660499999999999],[0.07593750000000009,0.3877777777777777,7.677299999713895],[0.06937499999999991,0.37462962962962953,7.693900000095368],[0.058645833333333286,0.37814814814814823,7.7194999999999965],[0.058645833333333286,0.37814814814814823,7.727199999809258],[0.06531250000000005,0.3581481481481481,7.7439000000953655],[0.06531250000000005,0.3581481481481481,7.760699999809262],[0.0678124999999999,0.3427777777777778,7.78140000009536],[0.07156250000000004,0.32888888888888895,7.796299999713895],[0.07156250000000004,0.32888888888888895,7.817900000095364],[0.06479166666666672,0.3237037037037036,7.834499999999991],[0.06479166666666672,0.3237037037037036,7.8437999997138945],[0.06427083333333337,0.3044444444444444,7.860599999904636],[0.06427083333333337,0.3044444444444444,7.877299999713898],[0.06218750000000005,0.30037037037037045,7.897299999713894],[0.06114583333333338,0.2764814814814814,7.91129999971389],[0.059791666666666646,0.2611111111111111,7.927400000095361],[0.06197916666666667,0.24574074074074082,7.945900000095364],[0.0696875000000001,0.18407407407407403,7.963199999809262],[0.06729166666666657,0.13518518518518519,7.977999999999994],[0.06489583333333329,0.08629629629629634,7.996199999809264],[0.06145833333333333,0.0492592592592593,8.010499999999993],[0.06770833333333333,0.004259259259259175,8.02719999980927],[0.07156250000000004,-0.03370370370370379,8.046099999904627],[0.07020833333333343,-0.09166666666666666,8.065199999809266],[0.07020833333333343,-0.09166666666666666,8.076999999999998],[0.07489583333333343,-0.11703703703703702,8.093799999713895],[0.07489583333333343,-0.11703703703703702,8.115499999999997],[0.08177083333333333,-0.147037037037037,8.12709999990463],[0.07718749999999991,-0.18925925925925924,8.144699999809262],[0.07718749999999991,-0.18925925925925924,8.160499999999999],[0.07177083333333342,-0.192037037037037,8.182099999904636],[0.07177083333333342,-0.192037037037037,8.193900000095368],[0.07843749999999995,-0.1638888888888889,8.210499999999996],[0.07843749999999995,-0.1638888888888889,8.227099999904624],[0.087812499