inst1_resp.keys,inst1_resp.rt,calibrationMouse.x,calibrationMouse.y,calibrationMouse.leftButton,calibrationMouse.midButton,calibrationMouse.rightButton,calibrationClick.x,calibrationClick.y,calibrationClick.leftButton,calibrationClick.midButton,calibrationClick.rightButton,calibrationClick.clicked_name,trialsc.thisRepN,trialsc.thisTrialN,trialsc.thisN,trialsc.thisIndex,trialsc.ran,calibration_x,calibration_y,participant,session,date,expName,psychopyVersion,OS,frameRate,ScreenRes_pixels,mouse_2.x,mouse_2.y,mouse_2.leftButton,mouse_2.midButton,mouse_2.rightButton,mouse_2.time,mouse_2.clicked_name,Camera_pixels,mouse.x,mouse.y,mouse.leftButton,mouse.midButton,mouse.rightButton,mouse.time,mouse.clicked_name,Choice,Trial,TrialDuration,MOUSE_GAZE,ET_GAZE,ET_GAZE_x_T,time,unixTime,ET_GAZE_NF,Loc_Bus_label,Loc_Metro_label,Loc_RH_label,Loc_Cost_label,Loc_Travel_label,Loc_Comfort_label,Loc_Bus_cost,Loc_Metro_cost,Loc_RH_cost,Loc_Bus_travel,Loc_Metro_travel,Loc_RH_travel,Loc_Bus_comfort,Loc_Metro_comfort,Loc_RH_comfort,trials.thisRepN,trials.thisTrialN,trials.thisN,trials.thisIndex,trials.ran,Block,Device,RH_cost,RH_travel_time,RH_Comfort,metro_cost,metro_travel_time,metro_Comfort,Bus_cost,Bus_travel_time,Bus_Comfort
space,1.5493,0.138541667,-0.062962963,1,0,0,-0.33125,-0.674074074,1,0,0,calibration_square,0,0,0,4,1,-0.33,-0.67,24,001,2024-11-19_17h08.08.143,Attention_exp_legacy,2023.1.0,Win32,60.24096386,,,,,,,,,,,,,,,,,,,,,,,,,,,,,,,,,,,,,,,,,,,,,,,,,,,,,,,,
,,,,,,,0.333333333,0.005555556,1,0,0,calibration_square,0,1,1,16,1,0.33,0,24,001,2024-11-19_17h08.08.143,Attention_exp_legacy,2023.1.0,Win32,60.24096386,,,,,,,,,,,,,,,,,,,,,,,,,,,,,,,,,,,,,,,,,,,,,,,,,,,,,,,,
,,,,,,,-0.66875,0.327777778,1,0,0,calibration_square,0,2,2,3,1,-0.67,0.33,24,001,2024-11-19_17h08.08.143,Attention_exp_legacy,2023.1.0,Win32,60.24096386,,,,,,,,,,,,,,,,,,,,,,,,,,,,,,,,,,,,,,,,,,,,,,,,,,,,,,,,
,,,,,,,-0.663541667,-0.664814815,1,0,0,calibration_square,0,3,3,0,1,-0.67,-0.67,24,001,2024-11-19_17h08.08.143,Attention_exp_legacy,2023.1.0,Win32,60.24096386,,,,,,,,,,,,,,,,,,,,,,,,,,,,,,,,,,,,,,,,,,,,,,,,,,,,,,,,
,,,,,,,0.007291667,-0.32962963,1,0,0,calibration_square,0,4,4,10,1,0,-0.33,24,001,2024-11-19_17h08.08.143,Attention_exp_legacy,2023.1.0,Win32,60.24096386,,,,,,,,,,,,,,,,,,,,,,,,,,,,,,,,,,,,,,,,,,,,,,,,,,,,,,,,
,,,,,,,-0.33125,0.681481481,1,0,0,,0,5,5,8,1,-0.33,0.67,24,001,2024-11-19_17h08.08.143,Attention_exp_legacy,2023.1.0,Win32,60.24096386,,,,,,,,,,,,,,,,,,,,,,,,,,,,,,,,,,,,,,,,,,,,,,,,,,,,,,,,
,,,,,,,0.003125,-0.657407407,1,0,0,,0,6,6,9,1,0,-0.67,24,001,2024-11-19_17h08.08.143,Attention_exp_legacy,2023.1.0,Win32,60.24096386,,,,,,,,,,,,,,,,,,,,,,,,,,,,,,,,,,,,,,,,,,,,,,,,,,,,,,,,
,,,,,,,-0.344791667,-0.32037037,1,0,0,,0,7,7,5,1,-0.33,-0.33,24,001,2024-11-19_17h08.08.143,Attention_exp_legacy,2023.1.0,Win32,60.24096386,,,,,,,,,,,,,,,,,,,,,,,,,,,,,,,,,,,,,,,,,,,,,,,,,,,,,,,,
,,,,,,,0.654166667,0.681481481,1,0,0,,0,8,8,19,1,0.67,0.67,24,001,2024-11-19_17h08.08.143,Attention_exp_legacy,2023.1.0,Win32,60.24096386,,,,,,,,,,,,,,,,,,,,,,,,,,,,,,,,,,,,,,,,,,,,,,,,,,,,,,,,
,,,,,,,0.338541667,0.672222222,1,0,0,calibration_square,0,9,9,18,1,0.33,0.67,24,001,2024-11-19_17h08.08.143,Attention_exp_legacy,2023.1.0,Win32,60.24096386,,,,,,,,,,,,,,,,,,,,,,,,,,,,,,,,,,,,,,,,,,,,,,,,,,,,,,,,
,,,,,,,-0.680208333,-0.318518519,1,0,0,,0,10,10,1,1,-0.67,-0.33,24,001,2024-11-19_17h08.08.143,Attention_exp_legacy,2023.1.0,Win32,60.24096386,,,,,,,,,,,,,,,,,,,,,,,,,,,,,,,,,,,,,,,,,,,,,,,,,,,,,,,,
,,,,,,,0.332291667,0.335185185,1,0,0,calibration_square,0,11,11,17,1,0.33,0.33,24,001,2024-11-19_17h08.08.143,Attention_exp_legacy,2023.1.0,Win32,60.24096386,,,,,,,,,,,,,,,,,,,,,,,,,,,,,,,,,,,,,,,,,,,,,,,,,,,,,,,,
,,,,,,,0.339583333,-0.662962963,1,0,0,calibration_square,0,12,12,14,1,0.33,-0.67,24,001,2024-11-19_17h08.08.143,Attention_exp_legacy,2023.1.0,Win32,60.24096386,,,,,,,,,,,,,,,,,,,,,,,,,,,,,,,,,,,,,,,,,,,,,,,,,,,,,,,,
,,,,,,,-0.001041667,0.333333333,1,0,0,calibration_square,0,13,13,12,1,0,0.33,24,001,2024-11-19_17h08.08.143,Attention_exp_legacy,2023.1.0,Win32,60.24096386,,,,,,,,,,,,,,,,,,,,,,,,,,,,,,,,,,,,,,,,,,,,,,,,,,,,,,,,
,,,,,,,-0.00625,-0.005555556,1,0,0,calibration_square,0,14,14,11,1,0,0,24,001,2024-11-19_17h08.08.143,Attention_exp_legacy,2023.1.0,Win32,60.24096386,,,,,,,,,,,,,,,,,,,,,,,,,,,,,,,,,,,,,,,,,,,,,,,,,,,,,,,,
,,,,,,,-0.3375,0.32962963,1,0,0,calibration_square,0,15,15,7,1,-0.33,0.33,24,001,2024-11-19_17h08.08.143,Attention_exp_legacy,2023.1.0,Win32,60.24096386,,,,,,,,,,,,,,,,,,,,,,,,,,,,,,,,,,,,,,,,,,,,,,,,,,,,,,,,
,,,,,,,-0.011458333,0.672222222,1,0,0,,0,16,16,13,1,0,0.67,24,001,2024-11-19_17h08.08.143,Attention_exp_legacy,2023.1.0,Win32,60.24096386,,,,,,,,,,,,,,,,,,,,,,,,,,,,,,,,,,,,,,,,,,,,,,,,,,,,,,,,
,,,,,,,-0.31875,0.001851852,1,0,0,,0,17,17,6,1,-0.33,0,24,001,2024-11-19_17h08.08.143,Attention_exp_legacy,2023.1.0,Win32,60.24096386,,,,,,,,,,,,,,,,,,,,,,,,,,,,,,,,,,,,,,,,,,,,,,,,,,,,,,,,
,,,,,,,0.321875,-0.314814815,1,0,0,,0,18,18,15,1,0.33,-0.33,24,001,2024-11-19_17h08.08.143,Attention_exp_legacy,2023.1.0,Win32,60.24096386,,,,,,,,,,,,,,,,,,,,,,,,,,,,,,,,,,,,,,,,,,,,,,,,,,,,,,,,
,,,,,,,-0.678125,-0.003703704,1,0,0,calibration_square,0,19,19,2,1,-0.67,0,24,001,2024-11-19_17h08.08.143,Attention_exp_legacy,2023.1.0,Win32,60.24096386,,,,,,,,,,,,,,,,,,,,,,,,,,,,,,,,,,,,,,,,,,,,,,,,,,,,,,,,
,,,,,,,0.664583333,-0.672222222,1,0,0,calibration_square,0,20,20,20,1,0.67,-0.67,24,001,2024-11-19_17h08.08.143,Attention_exp_legacy,2023.1.0,Win32,60.24096386,,,,,,,,,,,,,,,,,,,,,,,,,,,,,,,,,,,,,,,,,,,,,,,,,,,,,,,,
,,,,,,,,,,,,,,,,,,,,24,001,2024-11-19_17h08.08.143,Attention_exp_legacy,2023.1.0,Win32,60.24096386,"[1920,1080]",[0.04479166666666667],[-0.5166666666666667],[1],[0],[0],[0.8969000000953642],"[""StartButton""]","[640,480]",[0.17604166666666668],[0.562962962962963],[1],[0],[0],[4.18410000038147],"[""Metro_label""]",Metro_label,1,5.1956,"[[0.07083333333333333,0.037037037037037035],[0.065625,0.022222222222222223],[0.059375,0.014814814814814815],[0.04791666666666667,0.003703703703703704],[0.03125,-0.007407407407407408],[0.022916666666666665,-0.012962962962962963],[0.021875,-0.014814814814814815],[0.020833333333333332,-0.016666666666666666],[0.020833333333333332,-0.018518518518518517],[0.020833333333333332,-0.022222222222222223],[0.020833333333333332,-0.024074074074074074],[0.020833333333333332,-0.025925925925925925],[0.020833333333333332,-0.03148148148148148],[0.022916666666666665,-0.037037037037037035],[0.025,-0.040740740740740744],[0.026041666666666668,-0.044444444444444446],[0.028125,-0.046296296296296294],[0.028125,-0.046296296296296294],[0.028125,-0.046296296296296294],[0.028125,-0.046296296296296294],[0.028125,-0.046296296296296294],[0.028125,-0.046296296296296294],[0.028125,-0.046296296296296294],[0.028125,-0.046296296296296294],[0.028125,-0.046296296296296294],[0.028125,-0.046296296296296294],[0.028125,-0.046296296296296294],[0.028125,-0.046296296296296294],[0.028125,-0.046296296296296294],[0.028125,-0.046296296296296294],[0.028125,-0.046296296296296294],[0.028125,-0.046296296296296294],[0.028125,-0.046296296296296294],[0.028125,-0.046296296296296294],[0.028125,-0.046296296296296294],[0.028125,-0.046296296296296294],[0.028125,-0.046296296296296294],[0.028125,-0.046296296296296294],[0.029166666666666667,-0.04814814814814815],[0.027083333333333334,-0.05185185185185185],[0.023958333333333335,-0.053703703703703705],[0.019791666666666666,-0.053703703703703705],[0.019791666666666666,-0.053703703703703705],[0.01875,-0.053703703703703705],[0.015625,-0.053703703703703705],[0.011458333333333333,-0.053703703703703705],[0.009375,-0.053703703703703705],[0.007291666666666667,-0.05740740740740741],[0.00625,-0.05925925925925926],[0.00625,-0.05925925925925926],[0.00625,-0.05925925925925926],[0.00625,-0.05925925925925926],[0.00625,-0.05925925925925926],[0.00625,-0.05925925925925926],[0.00625,-0.05925925925925926],[0.00625,-0.05925925925925926],[0.00625,-0.05925925925925926],[0.00625,-0.05925925925925926],[0.00625,-0.05925925925925926],[0.00625,-0.05925925925925926],[0.00625,-0.05925925925925926],[0.008333333333333333,-0.05925925925925926],[0.011458333333333333,-0.05925925925925926],[0.013541666666666667,-0.05925925925925926],[0.019791666666666666,-0.05925925925925926],[0.040625,-0.053703703703703705],[0.06458333333333334,-0.04259259259259259],[0.09375,-0.027777777777777776],[0.12395833333333334,-0.011111111111111112],[0.14895833333333333,0],[0.1625,0.009259259259259259],[0.16458333333333333,0.012962962962962963],[0.16458333333333333,0.012962962962962963],[0.16458333333333333,0.012962962962962963],[0.16458333333333333,0.012962962962962963],[0.16458333333333333,0.012962962962962963],[0.16458333333333333,0.012962962962962963],[0.16458333333333333,0.012962962962962963],[0.16458333333333333,0.012962962962962963],[0.16458333333333333,0.012962962962962963],[0.16458333333333333,0.012962962962962963],[0.16458333333333333,0.012962962962962963],[0.16458333333333333,0.012962962962962963],[0.16458333333333333,0.012962962962962963],[0.16458333333333333,0.012962962962962963],[0.16458333333333333,0.012962962962962963],[0.16458333333333333,0.012962962962962963],[0.16458333333333333,0.012962962962962963],[0.16458333333333333,0.012962962962962963],[0.16458333333333333,0.012962962962962963],[0.16666666666666666,0.012962962962962963],[0.16875,0.011111111111111112],[0.16979166666666667,0.011111111111111112],[0.17083333333333334,0.009259259259259259],[0.17083333333333334,0.009259259259259259],[0.17083333333333334,0.009259259259259259],[0.17083333333333334,0.009259259259259259],[0.17083333333333334,0.009259259259259259],[0.17083333333333334,0.009259259259259259],[0.17083333333333334,0.009259259259259259],[0.17083333333333334,0.009259259259259259],[0.17083333333333334,0.009259259259259259],[0.17083333333333334,0.009259259259259259],[0.17083333333333334,0.009259259259259259],[0.17083333333333334,0.009259259259259259],[0.17083333333333334,0.009259259259259259],[0.17083333333333334,0.009259259259259259],[0.17083333333333334,0.009259259259259259],[0.17083333333333334,0.009259259259259259],[0.17083333333333334,0.009259259259259259],[0.17083333333333334,0.009259259259259259],[0.17083333333333334,0.009259259259259259],[0.17083333333333334,0.009259259259259259],[0.17083333333333334,0.009259259259259259],[0.17083333333333334,0.009259259259259259],[0.17083333333333334,0.009259259259259259],[0.17083333333333334,0.009259259259259259],[0.17083333333333334,0.009259259259259259],[0.17083333333333334,0.009259259259259259],[0.17083333333333334,0.009259259259259259],[0.17083333333333334,0.009259259259259259],[0.17083333333333334,0.009259259259259259],[0.17083333333333334,0.009259259259259259],[0.17083333333333334,0.009259259259259259],[0.171875,0.009259259259259259],[0.17291666666666666,0.009259259259259259],[0.17395833333333333,0.009259259259259259],[0.17395833333333333,0.009259259259259259],[0.17395833333333333,0.009259259259259259],[0.175,0.009259259259259259],[0.175,0.009259259259259259],[0.175,0.009259259259259259],[0.175,0.009259259259259259],[0.175,0.009259259259259259],[0.175,0.009259259259259259],[0.175,0.009259259259259259],[0.175,0.009259259259259259],[0.175,0.009259259259259259],[0.175,0.009259259259259259],[0.175,0.009259259259259259],[0.175,0.009259259259259259],[0.175,0.009259259259259259],[0.175,0.009259259259259259],[0.175,0.009259259259259259],[0.175,0.009259259259259259],[0.175,0.009259259259259259],[0.175,0.009259259259259259],[0.175,0.009259259259259259],[0.175,0.009259259259259259],[0.175,0.009259259259259259],[0.175,0.009259259259259259],[0.175,0.009259259259259259],[0.175,0.009259259259259259],[0.175,0.009259259259259259],[0.175,0.009259259259259259],[0.175,0.009259259259259259],[0.175,0.009259259259259259],[0.175,0.009259259259259259],[0.175,0.009259259259259259],[0.175,0.009259259259259259],[0.175,0.009259259259259259],[0.175,0.009259259259259259],[0.175,0.009259259259259259],[0.175,0.009259259259259259],[0.175,0.009259259259259259],[0.175,0.009259259259259259],[0.175,0.009259259259259259],[0.175,0.009259259259259259],[0.175,0.009259259259259259],[0.175,0.009259259259259259],[0.175,0.009259259259259259],[0.175,0.009259259259259259],[0.175,0.009259259259259259],[0.175,0.009259259259259259],[0.175,0.009259259259259259],[0.175,0.009259259259259259],[0.175,0.009259259259259259],[0.175,0.009259259259259259],[0.175,0.009259259259259259],[0.175,0.009259259259259259],[0.175,0.009259259259259259],[0.175,0.009259259259259259],[0.175,0.009259259259259259],[0.175,0.009259259259259259],[0.175,0.009259259259259259],[0.175,0.009259259259259259],[0.175,0.009259259259259259],[0.175,0.009259259259259259],[0.175,0.009259259259259259],[0.175,0.009259259259259259],[0.175,0.009259259259259259],[0.175,0.009259259259259259],[0.175,0.009259259259259259],[0.175,0.009259259259259259],[0.178125,0.06111111111111111],[0.178125,0.15185185185185185],[0.165625,0.23333333333333334],[0.16145833333333334,0.26481481481481484],[0.159375,0.29074074074074074],[0.15625,0.32592592592592595],[0.15520833333333334,0.35],[0.15520833333333334,0.38333333333333336],[0.15520833333333334,0.4166666666666667],[0.15520833333333334,0.43703703703703706],[0.15520833333333334,0.4537037037037037],[0.15625,0.4759259259259259],[0.15625,0.48148148148148145],[0.15729166666666666,0.49074074074074076],[0.15833333333333333,0.49444444444444446],[0.15833333333333333,0.49444444444444446],[0.15833333333333333,0.4962962962962963],[0.159375,0.5],[0.159375,0.5],[0.16041666666666668,0.5],[0.1625,0.5037037037037037],[0.17604166666666668,0.5185185185185185],[0.20208333333333334,0.5333333333333333],[0.22708333333333333,0.5425925925925926],[0.24166666666666667,0.55],[0.246875,0.5518518518518518],[0.24791666666666667,0.5537037037037037],[0.24791666666666667,0.5537037037037037],[0.24791666666666667,0.5537037037037037],[0.246875,0.5555555555555556],[0.23229166666666667,0.5555555555555556],[0.21354166666666666,0.5555555555555556],[0.19583333333333333,0.5574074074074075],[0.184375,0.5611111111111111],[0.17708333333333334,0.5611111111111111],[0.17604166666666668,0.562962962962963],[0.17604166666666668,0.562962962962963],[0.17604166666666668,0.562962962962963],[0.17604166666666668,0.562962962962963],[0.17604166666666668,0.562962962962963],[0.17604166666666668,0.562962962962963],[0.17604166666666668,0.562962962962963],[0.17604166666666668,0.562962962962963],[0.17604166666666668,0.562962962962963],[0.17604166666666668,0.562962962962963],[0.17604166666666668,0.562962962962963],[0.17604166666666668,0.562962962962963],[0.17604166666666668,0.562962962962963],[0.17604166666666668,0.562962962962963],[0.17604166666666668,0.562962962962963],[0.17604166666666668,0.562962962962963],[0.17604166666666668,0.562962962962963],[0.17604166666666668,0.562962962962963],[0.17604166666666668,0.562962962962963],[0.17604166666666668,0.562962962962963],[0.17604166666666668,0.562962962962963],[0.17604166666666668,0.562962962962963],[0.17604166666666668,0.562962962962963],[0.17604166666666668,0.562962962962963],[0.17604166666666668,0.562962962962963],[0.17604166666666668,0.562962962962963],[0.17604166666666668,0.562962962962963],[0.17604166666666668,0.562962962962963],[0.17604166666666668,0.562962962962963],[0.17604166666666668,0.562962962962963],[0.17604166666666668,0.562962962962963],[0.17604166666666668,0.562962962962963],[0.17604166666666668,0.562962962962963],[0.17604166666666668,0.562962962962963],[0.17604166666666668,0.562962962962963],[0.17604166666666668,0.562962962962963],[0.17604166666666668,0.562962962962963],[0.17604166666666668,0.562962962962963],[0.17604166666666668,0.562962962962963],[0.17604166666666668,0.562962962962963],[0.17604166666666668,0.562962962962963],[0.17604166666666668,0.562962962962963],[0.17604166666666668,0.562962962962963],[0.17604166666666668,0.562962962962963],[0.17604166666666668,0.562962962962963],[0.17604166666666668,0.562962962962963],[0.17604166666666668,0.562962962962963],[0.17604166666666668,0.562962962962963],[0.17604166666666668,0.562962962962963],[0.17604166666666668,0.562962962962963],[0.17604166666666668,0.562962962962963],[0.17604166666666668,0.562962962962963],[0.17604166666666668,0.562962962962963],[0.17604166666666668,0.562962962962963],[0.17604166666666668,0.562962962962963],[0.17604166666666668,0.562962962962963],[0.17604166666666668,0.562962962962963],[0.17604166666666668,0.562962962962963],[0.17604166666666668,0.562962962962963],[0.17604166666666668,0.562962962962963],[0.17604166666666668,0.562962962962963],[0.17604166666666668,0.562962962962963],[0.17604166666666668,0.562962962962963],[0.17604166666666668,0.562962962962963],[0.17604166666666668,0.562962962962963],[0.17604166666666668,0.562962962962963],[0.17604166666666668,0.562962962962963],[0.17604166666666668,0.562962962962963],[0.17604166666666668,0.562962962962963],[0.17604166666666668,0.562962962962963],[0.17604166666666668,0.562962962962963],[0.178125,0.5574074074074075],[0.18645833333333334,0.5425925925925926],[0.18854166666666666,0.5407407407407407],[0.18958333333333333,0.5388888888888889],[0.19270833333333334,0.5351851851851852],[0.19270833333333334,0.5351851851851852],[0.19270833333333334,0.5351851851851852],[0.19270833333333334,0.5351851851851852],[0.19479166666666667,0.5351851851851852],[0.19583333333333333,0.5351851851851852]]","[[0.09468750000000009,-0.0338888888888888],[0.09468750000000009,-0.0338888888888888],[0.08052083333333329,-0.04666666666666675],[0.08052083333333329,-0.04666666666666675],[0.0703125,-0.07518518518518523],[0.06875,-0.09185185185185189],[0.049270833333333285,-0.08203703703703706],[0.03677083333333329,-0.10888888888888891],[0.013854166666666619,-0.12259259259259257],[0.004791666666666691,-0.11407407407407412],[0.030208333333333334,-0.10611111111111113],[0.052083333333333336,-0.06148148148148146],[0.04635416666666667,-0.07462962962962966],[0.04072916666666669,-0.07481481481481478],[0.035208333333333286,-0.03685185185185181],[0.035208333333333286,-0.03685185185185181],[0.02781250000000005,-0.022777777777777692],[0.028437499999999952,-0.021851851851851768],[0.024583333333333356,-0.002962962962963005],[0.01854166666666662,0.010925925925925884],[0.035520833333333356,0.006851851851851936],[0.03572916666666662,0],[0.03822916666666672,-0.0242592592592593],[0.03895833333333331,-0.0025925925925925505],[0.04072916666666669,0.01518518518518527],[0.04802083333333336,0.002777777777777778],[0.043229166666666666,0.012407407407407492],[0.05135416666666662,0.024814814814814772],[0.07552083333333333,0.0007407407407406986],[0.08583333333333343,-0.018333333333333292],[0.0787499999999999,-0.009259259259259259],[0.0756249999999999,0.01314814814814819],[0.07906250000000009,0.040740740740740744],[0.09135416666666671,0.038703703703703664],[0.09135416666666671,0.038703703703703664],[0.1015625,0.03629629629629634],[0.08802083333333334,0.039074074074074115],[0.07979166666666657,0.03185185185185194],[0.03875000000000005,0.02444444444444453],[0.027291666666666714,0.02166666666666675],[0.01583333333333338,0.026851851851851852],[0.021145833333333287,0.028518518518518478],[0.021145833333333287,0.028518518518518478],[0.008854166666666666,0.020555555555555598],[-0.05656249999999995,0.0014814814814813973],[-0.13125,-0.025],[-0.13125,-0.025],[-0.16145833333333334,-0.019259259259259216],[-0.15843750000000004,-0.040740740740740744],[-0.1554166666666667,-0.028888888888888933],[-0.12895833333333329,-0.01444444444444436],[-0.1391666666666667,0.01518518518518527],[-0.14229166666666668,0.01796296296296305],[-0.15843750000000004,0.01962962962962967],[-0.14781249999999999,0.056296296296296254],[-0.14781249999999999,0.056296296296296254],[-0.11166666666666672,0.049629629629629544],[-0.11166666666666672,0.049629629629629544],[-0.05437500000000005,0.044999999999999915],[-0.05437500000000005,0.044999999999999915],[-0.06791666666666671,0.0257407407407407],[-0.06791666666666671,0.0257407407407407],[-0.05249999999999998,0.026111111111111154],[-0.05249999999999998,0.026111111111111154],[-0.03947916666666664,-0.0005555555555554713],[-0.03947916666666664,-0.0005555555555554713],[-0.03937499999999995,-0.03981481481481482],[-0.04208333333333331,-0.06833333333333329],[-0.02510416666666669,-0.08351851851851856],[-0.005208333333333333,-0.10111111111111115],[0.01854166666666662,-0.1359259259259259],[0.0484375,-0.11814814814814817],[0.05802083333333338,-0.12537037037037035],[0.05802083333333338,-0.12537037037037035],[0.09562499999999995,-0.14944444444444444],[0.09989583333333343,-0.16444444444444448],[0.12072916666666676,-0.14648148148148152],[0.165625,-0.09703703703703699],[0.26197916666666665,-0.05092592592592592],[0.31749999999999995,-0.01185185185185181],[0.3351041666666667,0.02388888888888885],[0.3519791666666668,0.055000000000000084],[0.3523958333333333,0.0588888888888888],[0.3810416666666666,0.07851851851851847],[0.4243750000000001,0.12666666666666662],[0.43895833333333345,0.16129629629629633],[0.43479166666666674,0.14759259259259266],[0.4205208333333334,0.125],[0.4205208333333334,0.125],[0.3570833333333333,0.06740740740740736],[0.321875,0.026851851851851852],[0.30666666666666675,0.013888888888888888],[0.27020833333333344,-0.019444444444444445],[0.27020833333333344,-0.019444444444444445],[0.2646874999999999,-0.03462962962962971],[0.2646874999999999,-0.03462962962962971],[0.24770833333333328,-0.025],[0.20052083333333334,-0.075],[0.17291666666666666,-0.11592592592592597],[0.1446875000000001,-0.16074074074074077],[0.11645833333333329,-0.20555555555555555],[0.08499999999999991,-0.2059259259259259],[0.04708333333333338,-0.207962962962963],[0.01593749999999995,-0.23296296296296298],[-0.010208333333333286,-0.2544444444444444],[-0.029270833333333357,-0.26592592592592595],[-0.057083333333333285,-0.29074074074074074],[-0.06625000000000002,-0.27814814814814814],[-0.06625000000000002,-0.27814814814814814],[-0.07479166666666662,-0.26500000000000007],[-0.09156249999999998,-0.23425925925925925],[-0.08572916666666662,-0.18944444444444447],[-0.07614583333333336,-0.16148148148148145],[-0.07645833333333331,-0.15259259259259256],[-0.06854166666666663,-0.1425925925925926],[-0.044062499999999956,-0.09444444444444444],[-0.024895833333333308,-0.03925925925925934],[-0.011770833333333286,-0.010370370370370412],[0.010000000000000024,0.029259259259259176],[0.03177083333333333,0.06888888888888897],[0.04739583333333333,0.06666666666666667],[0.07020833333333343,0.08000000000000008],[0.09302083333333329,0.0933333333333333],[0.11218750000000005,0.11925925925925922],[0.13135416666666658,0.14518518518518514],[0.13552083333333323,0.11277777777777774],[0.15354166666666677,0.07185185185185176],[0.17447916666666666,0.0977777777777777],[0.19177083333333325,0.1111111111111111],[0.19645833333333323,0.09962962962962954],[0.21760416666666677,0.1124074074074075],[0.21124999999999997,0.10407407407407415],[0.2048958333333334,0.09574074074074082],[0.2131249999999999,0.10555555555555556],[0.22135416666666666,0.11537037037037029],[0.22989583333333338,0.15425925925925918],[0.22322916666666662,0.19037037037037027],[0.215625,0.14537037037037037],[0.20802083333333338,0.14685185185185176],[0.19572916666666676,0.13537037037037042],[0.19052083333333342,0.14166666666666666],[0.18302083333333338,0.13944444444444437],[0.17395833333333333,0.15111111111111114],[0.15041666666666675,0.1725925925925927],[0.12687499999999996,0.19407407407407398],[0.11010416666666671,0.17981481481481484],[0.09854166666666657,0.22296296296296292],[0.0821875000000001,0.255925925925926],[0.0578125,0.23796296296296296],[0.05666666666666664,0.2942592592592592],[0.04562499999999995,0.36648148148148146],[0.024895833333333308,0.40314814814814826],[-0.001979166666666643,0.43555555555555564],[-0.001979166666666643,0.43555555555555564],[-0.007395833333333357,0.4233333333333334],[-0.01114583333333338,0.42314814814814816],[-0.01114583333333338,0.42314814814814816],[-0.02354166666666669,0.4498148148148148],[-0.034062500000000044,0.39740740740740743],[-0.04739583333333333,0.4053703703703703],[-0.06020833333333329,0.42777777777777776],[-0.11979166666666667,0.3948148148148149],[-0.18999999999999997,0.34037037037037027],[-0.23500000000000001,0.3274074074074073],[-0.26760416666666664,0.30277777777777776],[-0.30822916666666667,0.3012962962962964],[-0.3579166666666667,0.2653703703703703],[-0.41124999999999995,0.2588888888888888],[-0.4703125,0.2627777777777777],[-0.5267708333333333,0.2681481481481481],[-0.58375,0.259074074074074],[-0.5903125,0.2818518518518519],[-0.5803125,0.30537037037037035],[-0.5813541666666667,0.33000000000000007],[-0.5922916666666667,0.3416666666666667],[-0.60625,0.3594444444444445],[-0.6128125,0.39962962962962956],[-0.611875,0.4035185185185185],[-0.6122916666666666,0.41870370370370374],[-0.5988541666666667,0.412962962962963],[-0.5854166666666667,0.4072222222222222],[-0.5498958333333334,0.4035185185185185],[-0.5102083333333334,0.381111111111111],[-0.44177083333333333,0.33240740740740743],[-0.44177083333333333,0.33240740740740743],[-0.3607291666666666,0.30037037037037045],[-0.27666666666666667,0.26222222222222225],[-0.19541666666666668,0.22666666666666663],[-0.11031249999999998,0.19814814814814816],[-0.03291666666666669,0.16944444444444445],[0.044479166666666715,0.14462962962962966],[0.12604166666666666,0.13351851851851856],[0.1759375000000001,0.10740740740740741],[0.23302083333333337,0.07277777777777769],[0.23302083333333337,0.07277777777777769],[0.23687500000000009,0.06148148148148157],[0.23645833333333333,0.05537037037037033],[0.23177083333333334,0.06296296296296296],[0.23083333333333325,0.058703703703703786],[0.23083333333333325,0.058703703703703786],[0.22156250000000005,0.04296296296296305],[0.20989583333333334,0.04277777777777782],[0.203125,0.006851851851851936],[0.19854166666666656,-0.05277777777777778],[0.17833333333333337,-0.08277777777777776],[0.14458333333333329,-0.08925925925925923],[0.14458333333333329,-0.08925925925925923],[0.13583333333333342,-0.10777777777777775],[0.13812499999999991,-0.15111111111111114],[0.13812499999999991,-0.15111111111111114],[0.13145833333333337,-0.2227777777777778],[0.1446875000000001,-0.24962962962962965],[0.1446875000000001,-0.24962962962962965],[0.1446875000000001,-0.24962962962962965],[0.14364583333333342,-0.2933333333333333],[0.14364583333333342,-0.2933333333333333],[0.19583333333333333,-0.3292592592592593],[0.19583333333333333,-0.3292592592592593],[0.20822916666666677,-0.2940740740740741],[0.20822916666666677,-0.2940740740740741],[0.23427083333333343,-0.3714814814814815],[0.23427083333333343,-0.3714814814814815],[0.2768749999999999,-0.44722222222222224],[0.3228125000000001,-0.5227777777777778],[0.3400000000000001,-0.5468518518518519],[0.35739583333333325,-0.43555555555555553],[0.35739583333333325,-0.43555555555555553],[0.3845833333333334,-0.3212962962962963],[0.3935416666666666,-0.3405555555555555],[0.38177083333333334,-0.33907407407407414],[0.3394791666666668,-0.33907407407407414],[0.3042708333333332,-0.36500000000000005],[0.25625,-0.2683333333333333],[0.2033333333333334,-0.21574074074074073],[0.13677083333333329,-0.18129629629629626],[0.09291666666666672,-0.19796296296296292],[0.034687499999999954,-0.3320370370370371],[-0.02010416666666662,-0.45444444444444443],[-0.1094791666666667,-0.45129629629629625],[-0.1632291666666667,-0.44074074074074077],[-0.25499999999999995,-0.5025925925925926],[-0.25499999999999995,-0.5025925925925926],[-0.31979166666666664,-0.5583333333333333],[-0.37854166666666667,-0.6244444444444445],[-0.43333333333333335,-0.6777777777777778],[-0.4891666666666667,-0.7201851851851852],[-0.5439583333333334,-0.755],[-0.583125,-0.7959259259259259],[-0.6266666666666667,-0.8131481481481482],[-0.5860416666666667,-0.8161111111111111],[-0.5454166666666667,-0.8190740740740741],[-0.46124999999999994,-0.7812962962962963],[-0.37999999999999995,-0.7529629629629631],[-0.29666666666666663,-0.7166666666666667],[-0.23885416666666662,-0.7138888888888889],[-0.1766666666666667,-0.6509259259259259],[-0.1234375,-0.5812962962962962],[-0.04468749999999998,-0.5742592592592592],[0.03843749999999998,-0.590925925925926],[0.07312500000000005,-0.64],[0.1078125,-0.6890740740740741],[0.1243750000000001,-0.7281481481481481],[0.11552083333333343,-0.7624074074074074],[0.10697916666666671,-0.7781481481481481],[0.12395833333333334,-0.7603703703703704],[0.15177083333333338,-0.8009259259259259],[0.18854166666666666,-0.8481481481481481],[0.18791666666666676,-0.8368518518518518],[0.1696875000000001,-0.8290740740740741],[0.16177083333333328,-0.8255555555555556],[0.1538541666666667,-0.822037037037037],[0.14416666666666675,-0.8233333333333334],[0.17979166666666657,-0.8388888888888889],[0.16666666666666666,-0.8644444444444445],[0.19104166666666675,-0.8855555555555555],[0.19104166666666675,-0.8855555555555555],[0.21343750000000009,-0.9005555555555556],[0.22260416666666671,-0.9014814814814816],[0.2491666666666667,-0.8692592592592592],[0.2700000000000001,-0.8531481481481481],[0.2842708333333334,-0.8601851851851852],[0.29447916666666674,-0.867037037037037],[0.3064583333333334,-0.8690740740740741],[0.31062500000000004,-0.8566666666666667],[0.34614583333333326,-0.8422222222222222],[0.3553124999999999,-0.87],[0.36479166666666674,-0.895],[0.3866666666666667,-0.9161111111111111],[0.3883333333333333,-0.9562962962962962],[0.41041666666666665,-0.9609259259259259],[0.41041666666666665,-0.9609259259259259],[0.425,-0.9475925925925925],[0.4473958333333333,-0.9375925925925926],[0.47625000000000006,-0.9107407407407407],[0.4930208333333333,-0.8888888888888888],[0.5051041666666668,-0.8690740740740741],[0.5060416666666666,-0.8114814814814815],[0.5028125,-0.7675925925925926],[0.5004166666666667,-0.7416666666666667],[0.5,-0.7418518518518519],[0.5,-0.7418518518518519],[0.4875,-0.7146296296296296],[0.4875,-0.7146296296296296],[0.4722916666666668,-0.6905555555555555],[0.45333333333333337,-0.6633333333333333],[0.4041666666666667,-0.6640740740740741],[0.3549999999999999,-0.6648148148148149],[0.3320833333333333,-0.6838888888888889],[0.30916666666666665,-0.702962962962963],[0.2703125,-0.6811111111111111]]","[[0.09468750000000009,-0.0338888888888888,0.00040000009536811376],[0.09468750000000009,-0.0338888888888888,0.053800000190740604],[0.08052083333333329,-0.04666666666666675,0.059499999999999886],[0.08052083333333329,-0.04666666666666675,0.07659999990463717],[0.0703125,-0.07518518518518523,0.0930999999046378],[0.06875,-0.09185185185185189,0.11470000028610627],[0.049270833333333285,-0.08203703703703706,0.12959999990463444],[0.03677083333333329,-0.10888888888888891,0.14400000000000546],[0.013854166666666619,-0.12259259259259257,0.15980000019073515],[0.004791666666666691,-0.11407407407407412,0.17999999999999972],[0.030208333333333334,-0.10611111111111113,0.19559999990463695],[0.052083333333333336,-0.06148148148148146,0.21220000028610286],[0.04635416666666667,-0.07462962962962966,0.2287000002861035],[0.04072916666666669,-0.07481481481481478,0.24290000009536783],[0.035208333333333286,-0.03685185185185181,0.259599999904637],[0.035208333333333286,-0.03685185185185181,0.27640000009537147],[0.02781250000000005,-0.022777777777777692,0.29620000028610605],[0.028437499999999952,-0.021851851851851768,0.3120000000000047],[0.024583333333333356,-0.002962962962963005,0.3260999999046348],[0.01854166666666662,0.010925925925925884,0.3427000002861078],[0.035520833333333356,0.006851851851851936,0.3593000001907356],[0.03572916666666662,0,0.37650000000000006],[0.03822916666666672,-0.0242592592592593,0.39270000028610497],[0.03895833333333331,-0.0025925925925925505,0.40940000009536703],[0.04072916666666669,0.01518518518518527,0.4260999999046362],[0.04802083333333336,0.002777777777777778,0.4428000001907364],[0.043229166666666666,0.012407407407407492,0.4602000002861075],[0.05135416666666662,0.024814814814814772,0.4808000001907402],[0.07552083333333333,0.0007407407407406986,0.49540000009537266],[0.08583333333333343,-0.018333333333333292,0.5097000002861023],[0.0787499999999999,-0.009259259259259259,0.5260999999046376],[0.0756249999999999,0.01314814814814819,0.5428000001907378],[0.07906250000000009,0.040740740740740744,0.5594000000953727],[0.09135416666666671,0.038703703703703664,0.5762000002861072],[0.09135416666666671,0.038703703703703664,0.592800000190735],[0.1015625,0.03629629629629634,0.6095000000000041],[0.08802083333333334,0.039074074074074115,0.629800000190734],[0.07979166666666657,0.03185185185185194,0.6435999999046373],[0.03875000000000005,0.02444444444444453,0.6624000000953671],[0.027291666666666714,0.02166666666666675,0.6809000000953702],[0.01583333333333338,0.026851851851851852,0.6965999999046346],[0.021145833333333287,0.028518518518518478,0.7160999999046354],[0.021145833333333287,0.028518518518518478,0.7260999999046334],[0.008854166666666666,0.020555555555555598,0.7430000000000021],[-0.05656249999999995,0.0014814814814813973,0.7597000002861023],[-0.13125,-0.025,0.7890999999046358],[-0.13125,-0.025,0.7955999999046384],[-0.16145833333333334,-0.019259259259259216,0.8095999999046342],[-0.15843750000000004,-0.040740740740740744,0.8263000001907344],[-0.1554166666666667,-0.028888888888888933,0.8430999999046378],[-0.12895833333333329,-0.01444444444444436,0.8620999999046361],[-0.1391666666666667,0.01518518518518527,0.8800999999046368],[-0.14229166666666668,0.01796296296296305,0.8939000000953712],[-0.15843750000000004,0.01962962962962967,0.9120999999046333],[-0.14781249999999999,0.056296296296296254,0.9319000000953679],[-0.14781249999999999,0.056296296296296254,0.9427000002861021],[-0.11166666666666672,0.049629629629629544,0.9595000000000056],[-0.11166666666666672,0.049629629629629544,0.9762000002861058],[-0.05437500000000005,0.044999999999999915,0.9927000002861064],[-0.05437500000000005,0.044999999999999915,1.0094000000953685],[-0.06791666666666671,0.0257407407407407,1.0260999999046376],[-0.06791666666666671,0.0257407407407407,1.047300000190738],[-0.05249999999999998,0.026111111111111154,1.0598000001907408],[-0.05249999999999998,0.026111111111111154,1.0764000000953686],[-0.03947916666666664,-0.0005555555555554713,1.09980000019074],[-0.03947916666666664,-0.0005555555555554713,1.1095000000000041],[-0.03937499999999995,-0.03981481481481482,1.1263000001907386],[-0.04208333333333331,-0.06833333333333329,1.146099999904635],[-0.02510416666666669,-0.08351851851851856,1.1630000000000038],[-0.005208333333333333,-0.10111111111111115,1.1795000000000044],[0.01854166666666662,-0.1359259259259259,1.1964000000953732],[0.0484375,-0.11814814814814817,1.2132000002861076],[0.05802083333333338,-0.12537037037037035,1.230000000000004],[0.05802083333333338,-0.12537037037037035,1.243700000286104],[0.09562499999999995,-0.14944444444444444,1.2594000000953685],[0.09989583333333343,-0.16444444444444448,1.276200000286103],[0.12072916666666676,-0.14648148148148152,1.2927000002861035],[0.165625,-0.09703703703703699,1.3094000000953727],[0.26197916666666665,-0.05092592592592592,1.3260999999046348],[0.31749999999999995,-0.01185185185185181,1.3427000002861078],[0.3351041666666667,0.02388888888888885,1.3594000000953699],[0.3519791666666668,0.055000000000000084,1.376099999904632],[0.3523958333333333,0.0588888888888888,1.3928000001907392],[0.3810416666666666,0.07851851851851847,1.4093000001907399],[0.4243750000000001,0.12666666666666662,1.4260999999046362],[0.43895833333333345,0.16129629629629633,1.4427000002861021],[0.43479166666666674,0.14759259259259266,1.4595999999046327],[0.4205208333333334,0.125,1.4760999999046334],[0.4205208333333334,0.125,1.4928000001907407],[0.3570833333333333,0.06740740740740736,1.5095000000000027],[0.321875,0.026851851851851852,1.529200000286103],[0.30666666666666675,0.013888888888888888,1.543599999904636],[0.27020833333333344,-0.019444444444444445,1.5630999999046367],[0.27020833333333344,-0.019444444444444445,1.6029000000953673],[0.2646874999999999,-0.03462962962962971,1.6144000000953724],[0.2646874999999999,-0.03462962962962971,1.626099999904632],[0.24770833333333328,-0.025,1.642700000286105],[0.20052083333333334,-0.075,1.659400000095367],[0.17291666666666666,-0.11592592592592597,1.6769000000953724],[0.1446875000000001,-0.16074074074074077,1.6928000001907364],[0.11645833333333329,-0.20555555555555555,1.7094000000953713],[0.08499999999999991,-0.2059259259259259,1.7294000000953673],[0.04708333333333338,-0.207962962962963,1.7432000002861017],[0.01593749999999995,-0.23296296296296298,1.7593000001907342],[-0.010208333333333286,-0.2544444444444444,1.7760999999046376],[-0.029270833333333357,-0.26592592592592595,1.7927000002861035],[-0.057083333333333285,-0.29074074074074074,1.8094000000953727],[-0.06625000000000002,-0.27814814814814814,1.8263000001907344],[-0.06625000000000002,-0.27814814814814814,1.842800000190735],[-0.07479166666666662,-0.26500000000000007,1.8595000000000041],[-0.09156249999999998,-0.23425925925925925,1.876099999904632],[-0.08572916666666662,-0.18944444444444447,1.8928000001907392],[-0.07614583333333336,-0.16148148148148145,1.909400000095367],[-0.07645833333333331,-0.15259259259259256,1.926000000000002],[-0.06854166666666663,-0.1425925925925926,1.9429000000953707],[-0.044062499999999956,-0.09444444444444444,1.9594000000953713],[-0.024895833333333308,-0.03925925925925934,1.9760999999046334],[-0.011770833333333286,-0.010370370370370412,1.9928000001907407],[0.010000000000000024,0.029259259259259176,2.0094000000953685],[0.03177083333333333,0.06888888888888897,2.0260999999046376],[0.04739583333333333,0.06666666666666667,2.0429999999999993],[0.07020833333333343,0.08000000000000008,2.059599999904634],[0.09302083333333329,0.0933333333333333,2.076099999904635],[0.11218750000000005,0.11925925925925922,2.092700000286108],[0.13135416666666658,0.14518518518518514,2.112099999904636],[0.13552083333333323,0.11277777777777774,2.1263000001907386],[0.15354166666666677,0.07185185185185176,2.1429000000953664],[0.17447916666666666,0.0977777777777777,2.159400000095367],[0.19177083333333325,0.1111111111111111,2.1798000001907383],[0.19645833333333323,0.09962962962962954,2.195200000286107],[0.21760416666666677,0.1124074074074075,2.2094000000953713],[0.21124999999999997,0.10407407407407415,2.2260999999046334],[0.2048958333333334,0.09574074074074082,2.2428000001907407],[0.2131249999999999,0.10555555555555556,2.2594000000953685],[0.22135416666666666,0.11537037037037029,2.2769000000953667],[0.22989583333333338,0.15425925925925918,2.2927000002861035],[0.22322916666666662,0.19037037037037027,2.3094000000953727],[0.215625,0.14537037037037037,2.326099999904635],[0.20802083333333338,0.14685185185185176,2.342800000190735],[0.19572916666666676,0.13537037037037042,2.35940000009537],[0.19052083333333342,0.14166666666666666,2.376099999904632],[0.18302083333333338,0.13944444444444437,2.392700000286105],[0.17395833333333333,0.15111111111111114,2.4107000002861056],[0.15041666666666675,0.1725925925925927,2.430400000095368],[0.12687499999999996,0.19407407407407398,2.446700000286107],[0.11010416666666671,0.17981481481481484,2.462200000286103],[0.09854166666666657,0.22296296296296292,2.4773000001907377],[0.0821875000000001,0.255925925925926,2.4927000002861064],[0.0578125,0.23796296296296296,2.5095000000000027],[0.05666666666666664,0.2942592592592592,2.5260000000000034],[0.04562499999999995,0.36648148148148146,2.5427000002861035],[0.024895833333333308,0.40314814814814826,2.5594000000953727],[-0.001979166666666643,0.43555555555555564,2.576099999904635],[-0.001979166666666643,0.43555555555555564,2.592800000190735],[-0.007395833333333357,0.4233333333333334,2.609500000000004],[-0.01114583333333338,0.42314814814814816,2.629800000190734],[-0.01114583333333338,0.42314814814814816,2.642700000286105],[-0.02354166666666669,0.4498148148148148,2.65930000019074],[-0.034062500000000044,0.39740740740740743,2.676099999904636],[-0.04739583333333333,0.4053703703703703,2.6928000001907364],[-0.06020833333333329,0.42777777777777776,2.7095000000000056],[-0.11979166666666667,0.3948148148148149,2.725999999999999],[-0.18999999999999997,0.34037037037037027,2.7427000002861064],[-0.23500000000000001,0.3274074074074073,2.7594000000953685],[-0.26760416666666664,0.30277777777777776,2.7767000002861053],[-0.30822916666666667,0.3012962962962964,2.7927000002861035],[-0.3579166666666667,0.2653703703703703,2.8094000000953727],[-0.41124999999999995,0.2588888888888888,2.8270999999046325],[-0.4703125,0.2627777777777777,2.842800000190735],[-0.5267708333333333,0.2681481481481481,2.8593000001907356],[-0.58375,0.259074074074074,2.8799000000953683],[-0.5903125,0.2818518518518519,2.8963000001907346],[-0.5803125,0.30537037037037035,2.911999999999999],[-0.5813541666666667,0.33000000000000007,2.926800000190738],[-0.5922916666666667,0.3416666666666667,2.943300000190739],[-0.60625,0.3594444444444445,2.9594000000953713],[-0.6128125,0.39962962962962956,2.9760999999046334],[-0.611875,0.4035185185185185,2.9928000001907407],[-0.6122916666666666,0.41870370370370374,3.0094000000953685],[-0.5988541666666667,0.412962962962963,3.026200000286103],[-0.5854166666666667,0.4072222222222222,3.0474000000953723],[-0.5498958333333334,0.4035185185185185,3.063599999904632],[-0.5102083333333334,0.381111111111111,3.080900000095369],[-0.44177083333333333,0.33240740740740743,3.1073000001907403],[-0.44177083333333333,0.33240740740740743,3.1159000000953725],[-0.3607291666666666,0.30037037037037045,3.126099999904632],[-0.27666666666666667,0.26222222222222225,3.1429000000953664],[-0.19541666666666668,0.22666666666666663,3.159800000190735],[-0.11031249999999998,0.19814814814814816,3.177500000000002],[-0.03291666666666669,0.16944444444444445,3.195900000095371],[0.044479166666666715,0.14462962962962966,3.2120999999046376],[0.12604166666666666,0.13351851851851856,3.22930000019074],[0.1759375000000001,0.10740740740740741,3.2465000000000046],[0.23302083333333337,0.07277777777777769,3.2613000001907366],[0.23302083333333337,0.07277777777777769,3.2805000000000035],[0.23687500000000009,0.06148148148148157,3.2929999999999993],[0.23645833333333333,0.05537037037037033,3.309800000190741],[0.23177083333333334,0.06296296296296296,3.326200000286107],[0.23083333333333325,0.058703703703703786,3.3482000002861056],[0.23083333333333325,0.058703703703703786,3.3597000002861037],[0.22156250000000005,0.04296296296296305,3.3763000001907386],[0.20989583333333334,0.04277777777777782,3.396099999904635],[0.203125,0.006851851851851936,3.41230000019074],[0.19854166666666656,-0.05277777777777778,3.4290999999046363],[0.17833333333333337,-0.08277777777777776,3.4465999999046346],[0.14458333333333329,-0.08925925925925923,3.463300000190735],[0.14458333333333329,-0.08925925925925923,3.4762000002861058],[0.13583333333333342,-0.10777777777777775,3.493000000000002],[0.13812499999999991,-0.15111111111111114,3.5160000000000053],[0.13812499999999991,-0.15111111111111114,3.5264000000953715],[0.13145833333333337,-0.2227777777777778,3.544000000000004],[0.1446875000000001,-0.24962962962962965,3.5682000002861045],[0.1446875000000001,-0.24962962962962965,3.581000000000003],[0.1446875000000001,-0.24962962962962965,3.5949000000953717],[0.14364583333333342,-0.2933333333333333,3.6097000002861037],[0.14364583333333342,-0.2933333333333333,3.6374000000953686],[0.19583333333333333,-0.3292592592592593,3.6429000000953664],[0.19583333333333333,-0.3292592592592593,3.6595000000000013],[0.20822916666666677,-0.2940740740740741,3.681599999904634],[0.20822916666666677,-0.2940740740740741,3.6929000000953707],[0.23427083333333343,-0.3714814814814815,3.7095999999046327],[0.23427083333333343,-0.3714814814814815,3.7260999999046334],[0.2768749999999999,-0.44722222222222224,3.7428000001907407],[0.3228125000000001,-0.5227777777777778,3.7628000001907367],[0.3400000000000001,-0.5468518518518519,3.780599999904638],[0.35739583333333325,-0.43555555555555553,3.7955999999046384],[0.35739583333333325,-0.43555555555555553,3.8095],[0.3845833333333334,-0.3212962962962963,3.829500000000003],[0.3935416666666666,-0.3405555555555555,3.846599999904633],[0.38177083333333334,-0.33907407407407414,3.8622000002861014],[0.3394791666666668,-0.33907407407407414,3.8799000000953683],[0.3042708333333332,-0.36500000000000005,3.8947000002861074],[0.25625,-0.2683333333333333,3.911300000190735],[0.2033333333333334,-0.21574074074074073,3.9287000002861063],[0.13677083333333329,-0.18129629629629626,3.943000000000005],[0.09291666666666672,-0.19796296296296292,3.959300000190737],[0.034687499999999954,-0.3320370370370371,3.976400000095367],[-0.02010416666666662,-0.45444444444444443,3.9927000002861064],[-0.1094791666666667,-0.45129629629629625,4.009599999904637],[-0.1632291666666667,-0.44074074074074077,4.026700000286105],[-0.25499999999999995,-0.5025925925925926,4.0427000002861035],[-0.25499999999999995,-0.5025925925925926,4.0593000001907384],[-0.31979166666666664,-0.5583333333333333,4.076099999904635],[-0.37854166666666667,-0.6244444444444445,4.09530000019074],[-0.43333333333333335,-0.6777777777777778,4.109500000000004],[-0.4891666666666667,-0.7201851851851852,4.126099999904632],[-0.5439583333333334,-0.755,4.143200000286107],[-0.583125,-0.7959259259259259,4.159400000095367],[-0.6266666666666667,-0.8131481481481482,4.176099999904636],[-0.5860416666666667,-0.8161111111111111,4.194099999904637],[-0.5454166666666667,-0.8190740740740741,4.210500000000003],[-0.46124999999999994,-0.7812962962962963,4.226400000095367],[-0.37999999999999995,-0.7529629629629631,4.242599999904634],[-0.29666666666666663,-0.7166666666666667,4.2594000000953685],[-0.23885416666666662,-0.7138888888888889,4.276200000286103],[-0.1766666666666667,-0.6509259259259259,4.2927000002861035],[-0.1234375,-0.5812962962962962,4.313800000190739],[-0.04468749999999998,-0.5742592592592592,4.328700000286105],[0.03843749999999998,-0.590925925925926,4.346000000000004],[0.07312500000000005,-0.64,4.359800000190738],[0.1078125,-0.6890740740740741,4.376099999904632],[0.1243750000000001,-0.7281481481481481,4.392700000286105],[0.11552083333333343,-0.7624074074074074,4.410200000286103],[0.10697916666666671,-0.7781481481481481,4.426099999904636],[0.12395833333333334,-0.7603703703703704,4.445599999904637],[0.15177083333333338,-0.8009259259259259,4.460099999904635],[0.18854166666666666,-0.8481481481481481,4.477700000286106],[0.18791666666666676,-0.8368518518518518,4.496000000000002],[0.1696875000000001,-0.8290740740740741,4.509900000095371],[0.16177083333333328,-0.8255555555555556,4.526000000000003],[0.1538541666666667,-0.822037037037037,4.5427000002861035],[0.14416666666666675,-0.8233333333333334,4.559400000095373],[0.17979166666666657,-0.8388888888888889,4.576500000000003],[0.16666666666666666,-0.8644444444444445,4.592900000095369],[0.19104166666666675,-0.8855555555555555,4.6145],[0.19104166666666675,-0.8855555555555555,4.626099999904632],[0.21343750000000009,-0.9005555555555556,4.642700000286105],[0.22260416666666671,-0.9014814814814816,4.65930000019074],[0.2491666666666667,-0.8692592592592592,4.676000000000002],[0.2700000000000001,-0.8531481481481481,4.692900000095371],[0.2842708333333334,-0.8601851851851852,4.709400000095371],[0.29447916666666674,-0.867037037037037,4.726099999904633],[0.3064583333333334,-0.8690740740740741,4.742700000286106],[0.31062500000000004,-0.8566666666666667,4.7594000000953685],[0.34614583333333326,-0.8422222222222222,4.780599999904638],[0.3553124999999999,-0.87,4.796800000190736],[0.36479166666666674,-0.895,4.813700000286104],[0.3866666666666667,-0.9161111111111111,4.830099999904633],[0.3883333333333333,-0.9562962962962962,4.845800000190735],[0.41041666666666665,-0.9609259259259259,4.860700000286101],[0.41041666666666665,-0.9609259259259259,4.876099999904632],[0.425,-0.9475925925925925,4.892800000190739],[0.4473958333333333,-0.9375925925925926,4.909400000095367],[0.47625000000000006,-0.9107407407407407,4.926000000000002],[0.4930208333333333,-0.8888888888888888,4.942900000095371],[0.5051041666666668,-0.8690740740740741,4.959599999904633],[0.5060416666666666,-0.8114814814814815,4.978300000190735],[0.5028125,-0.7675925925925926,4.995400000095373],[0.5004166666666667,-0.7416666666666667,5.013900000095369],[0.5,-0.7418518518518519,5.0327000002861055],[0.5,-0.7418518518518519,5.064099999904634],[0.4875,-0.7146296296296296,5.073599999904637],[0.4875,-0.7146296296296296,5.080500000000001],[0.4722916666666668,-0.6905555555555555,5.0930000000000035],[0.45333333333333337,-0.6633333333333333,5.112000000000002],[0.4041666666666667,-0.6640740740740741,5.126000000000005],[0.3549999999999999,-0.6648148148148149,5.142700000286105],[0.3320833333333333,-0.6838888888888889,5.15930000019074],[0.30916666666666665,-0.702962962962963,5.180099999904634],[0.2703125,-0.6811111111111111,5.195599999904637]]","[0.00040000009536811376,0.053800000190740604,0.059499999999999886,0.07659999990463717,0.0930999999046378,0.11470000028610627,0.12959999990463444,0.14400000000000546,0.15980000019073515,0.17999999999999972,0.19559999990463695,0.21220000028610286,0.2287000002861035,0.24290000009536783,0.259599999904637,0.27640000009537147,0.29620000028610605,0.3120000000000047,0.3260999999046348,0.3427000002861078,0.3593000001907356,0.37650000000000006,0.39270000028610497,0.40940000009536703,0.4260999999046362,0.4428000001907364,0.4602000002861075,0.4808000001907402,0.49540000009537266,0.5097000002861023,0.5260999999046376,0.5428000001907378,0.5594000000953727,0.5762000002861072,0.592800000190735,0.6095000000000041,0.629800000190734,0.6435999999046373,0.6624000000953671,0.6809000000953702,0.6965999999046346,0.7160999999046354,0.7260999999046334,0.7430000000000021,0.7597000002861023,0.7890999999046358,0.7955999999046384,0.8095999999046342,0.8263000001907344,0.8430999999046378,0.8620999999046361,0.8800999999046368,0.8939000000953712,0.9120999999046333,0.9319000000953679,0.9427000002861021,0.9595000000000056,0.9762000002861058,0.9927000002861064,1.0094000000953685,1.0260999999046376,1.047300000190738,1.0598000001907408,1.0764000000953686,1.09980000019074,1.1095000000000041,1.1263000001907386,1.146099999904635,1.1630000000000038,1.1795000000000044,1.1964000000953732,1.2132000002861076,1.230000000000004,1.243700000286104,1.2594000000953685,1.276200000286103,1.2927000002861035,1.3094000000953727,1.3260999999046348,1.3427000002861078,1.3594000000953699,1.376099999904632,1.3928000001907392,1.4093000001907399,1.4260999999046362,1.4427000002861021,1.4595999999046327,1.4760999999046334,1.4928000001907407,1.5095000000000027,1.529200000286103,1.543599999904636,1.5630999999046367,1.6029000000953673,1.6144000000953724,1.626099999904632,1.642700000286105,1.659400000095367,1.6769000000953724,1.6928000001907364,1.7094000000953713,1.7294000000953673,1.7432000002861017,1.7593000001907342,1.7760999999046376,1.7927000002861035,1.8094000000953727,1.8263000001907344,1.842800000190735,1.8595000000000041,1.876099999904632,1.8928000001907392,1.909400000095367,1.926000000000002,1.9429000000953707,1.9594000000953713,1.9760999999046334,1.9928000001907407,2.0094000000953685,2.0260999999046376,2.0429999999999993,2.059599999904634,2.076099999904635,2.092700000286108,2.112099999904636,2.1263000001907386,2.1429000000953664,2.159400000095367,2.1798000001907383,2.195200000286107,2.2094000000953713,2.2260999999046334,2.2428000001907407,2.2594000000953685,2.2769000000953667,2.2927000002861035,2.3094000000953727,2.326099999904635,2.342800000190735,2.35940000009537,2.376099999904632,2.392700000286105,2.4107000002861056,2.430400000095368,2.446700000286107,2.462200000286103,2.4773000001907377,2.4927000002861064,2.5095000000000027,2.5260000000000034,2.5427000002861035,2.5594000000953727,2.576099999904635,2.592800000190735,2.609500000000004,2.629800000190734,2.642700000286105,2.65930000019074,2.676099999904636,2.6928000001907364,2.7095000000000056,2.725999999999999,2.7427000002861064,2.7594000000953685,2.7767000002861053,2.7927000002861035,2.8094000000953727,2.8270999999046325,2.842800000190735,2.8593000001907356,2.8799000000953683,2.8963000001907346,2.911999999999999,2.926800000190738,2.943300000190739,2.9594000000953713,2.9760999999046334,2.9928000001907407,3.0094000000953685,3.026200000286103,3.0474000000953723,3.063599999904632,3.080900000095369,3.1073000001907403,3.1159000000953725,3.126099999904632,3.1429000000953664,3.159800000190735,3.177500000000002,3.195900000095371,3.2120999999046376,3.22930000019074,3.2465000000000046,3.2613000001907366,3.2805000000000035,3.2929999999999993,3.309800000190741,3.326200000286107,3.3482000002861056,3.3597000002861037,3.3763000001907386,3.396099999904635,3.41230000019074,3.4290999999046363,3.4465999999046346,3.463300000190735,3.4762000002861058,3.493000000000002,3.5160000000000053,3.5264000000953715,3.544000000000004,3.5682000002861045,3.581000000000003,3.5949000000953717,3.6097000002861037,3.6374000000953686,3.6429000000953664,3.6595000000000013,3.681599999904634,3.6929000000953707,3.7095999999046327,3.7260999999046334,3.7428000001907407,3.7628000001907367,3.780599999904638,3.7955999999046384,3.8095,3.829500000000003,3.846599999904633,3.8622000002861014,3.8799000000953683,3.8947000002861074,3.911300000190735,3.9287000002861063,3.943000000000005,3.959300000190737,3.976400000095367,3.9927000002861064,4.009599999904637,4.026700000286105,4.0427000002861035,4.0593000001907384,4.076099999904635,4.09530000019074,4.109500000000004,4.126099999904632,4.143200000286107,4.159400000095367,4.176099999904636,4.194099999904637,4.210500000000003,4.226400000095367,4.242599999904634,4.2594000000953685,4.276200000286103,4.2927000002861035,4.313800000190739,4.328700000286105,4.346000000000004,4.359800000190738,4.376099999904632,4.392700000286105,4.410200000286103,4.426099999904636,4.445599999904637,4.460099999904635,4.477700000286106,4.496000000000002,4.509900000095371,4.526000000000003,4.5427000002861035,4.559400000095373,4.576500000000003,4.592900000095369,4.6145,4.626099999904632,4.642700000286105,4.65930000019074,4.676000000000002,4.692900000095371,4.709400000095371,4.726099999904633,4.742700000286106,4.7594000000953685,4.780599999904638,4.796800000190736,4.813700000286104,4.830099999904633,4.845800000190735,4.860700000286101,4.876099999904632,4.892800000190739,4.909400000095367,4.926000000000002,4.942900000095371,4.959599999904633,4.978300000190735,4.995400000095373,5.013900000095369,5.0327000002861055,5.064099999904634,5.073599999904637,5.080500000000001,5.0930000000000035,5.112000000000002,5.126000000000005,5.142700000286105,5.15930000019074,5.180099999904634,5.195599999904637]","[1732007328874,1732007328917,1732007328923,1732007328940,1732007328957,1732007328978,1732007328993,1732007329007,1732007329023,1732007329044,1732007329059,1732007329076,1732007329092,1732007329106,1732007329123,1732007329140,1732007329160,1732007329175,1732007329190,1732007329206,1732007329223,1732007329240,1732007329256,1732007329273,1732007329290,1732007329306,1732007329324,1732007329344,1732007329359,1732007329373,1732007329390,1732007329406,1732007329423,1732007329440,1732007329456,1732007329473,1732007329493,1732007329507,1732007329526,1732007329544,1732007329560,1732007329580,1732007329590,1732007329607,1732007329623,1732007329653,1732007329659,1732007329673,1732007329690,1732007329707,1732007329726,1732007329744,1732007329757,1732007329776,1732007329795,1732007329806,1732007329823,1732007329840,1732007329856,1732007329873,1732007329890,1732007329911,1732007329923,1732007329940,1732007329963,1732007329973,1732007329990,1732007330010,1732007330027,1732007330043,1732007330060,1732007330077,1732007330094,1732007330107,1732007330123,1732007330140,1732007330156,1732007330173,1732007330190,1732007330206,1732007330223,1732007330240,1732007330256,1732007330273,1732007330290,1732007330306,1732007330323,1732007330340,1732007330356,1732007330373,1732007330393,1732007330407,1732007330427,1732007330466,1732007330478,1732007330490,1732007330506,1732007330523,1732007330540,1732007330556,1732007330573,1732007330593,1732007330607,1732007330623,1732007330640,1732007330656,1732007330673,1732007330690,1732007330706,1732007330723,1732007330740,1732007330756,1732007330773,1732007330790,1732007330806,1732007330823,1732007330840,1732007330856,1732007330874,1732007330890,1732007330907,1732007330924,1732007330940,1732007330957,1732007330976,1732007330990,1732007331007,1732007331024,1732007331044,1732007331059,1732007331074,1732007331090,1732007331107,1732007331124,1732007331141,1732007331157,1732007331174,1732007331190,1732007331207,1732007331224,1732007331240,1732007331257,1732007331275,1732007331295,1732007331311,1732007331326,1732007331341,1732007331357,1732007331374,1732007331390,1732007331407,1732007331424,1732007331440,1732007331457,1732007331474,1732007331494,1732007331507,1732007331524,1732007331540,1732007331557,1732007331574,1732007331590,1732007331607,1732007331624,1732007331641,1732007331657,1732007331674,1732007331691,1732007331707,1732007331724,1732007331744,1732007331760,1732007331776,1732007331791,1732007331807,1732007331824,1732007331840,1732007331857,1732007331874,1732007331890,1732007331912,1732007331928,1732007331945,1732007331972,1732007331980,1732007331990,1732007332007,1732007332024,1732007332042,1732007332060,1732007332076,1732007332094,1732007332111,1732007332125,1732007332145,1732007332157,1732007332174,1732007332190,1732007332212,1732007332224,1732007332240,1732007332260,1732007332277,1732007332293,1732007332311,1732007332327,1732007332340,1732007332357,1732007332380,1732007332391,1732007332408,1732007332432,1732007332445,1732007332459,1732007332474,1732007332502,1732007332507,1732007332524,1732007332546,1732007332557,1732007332574,1732007332590,1732007332607,1732007332627,1732007332645,1732007332660,1732007332674,1732007332694,1732007332711,1732007332726,1732007332744,1732007332759,1732007332776,1732007332793,1732007332807,1732007332824,1732007332841,1732007332857,1732007332874,1732007332891,1732007332907,1732007332924,1732007332940,1732007332959,1732007332974,1732007332990,1732007333007,1732007333024,1732007333040,1732007333058,1732007333075,1732007333091,1732007333107,1732007333124,1732007333140,1732007333157,1732007333178,1732007333193,1732007333210,1732007333224,1732007333240,1732007333257,1732007333274,1732007333290,1732007333310,1732007333324,1732007333342,1732007333360,1732007333374,1732007333390,1732007333407,1732007333424,1732007333441,1732007333457,1732007333479,1732007333490,1732007333507,1732007333524,1732007333540,1732007333557,1732007333574,1732007333590,1732007333607,1732007333624,1732007333645,1732007333661,1732007333678,1732007333694,1732007333710,1732007333725,1732007333740,1732007333757,1732007333774,1732007333790,1732007333807,1732007333824,1732007333842,1732007333860,1732007333878,1732007333897,1732007333928,1732007333938,1732007333945,1732007333957,1732007333976,1732007333990,1732007334007,1732007334024,1732007334044,1732007334060]","[[1050.9,521.7],[1050.9,521.7],[1037.3,514.8],[1037.3,514.8],[1027.5,499.4],[1026,490.4],[1007.3,495.7],[995.3,481.2],[973.3,473.8],[964.6,478.4],[989,482.7],[1010,506.8],[1004.5,499.7],[999.1,499.6],[993.8,520.1],[993.8,520.1],[986.7,527.7],[987.3,528.2],[983.6,538.4],[977.8,545.9],[994.1,543.7],[994.3,540],[996.7,526.9],[997.4,538.6],[999.1,548.2],[1006.1,541.5],[1001.5,546.7],[1009.3,553.4],[1032.5,540.4],[1042.4,530.1],[1035.6,535],[1032.6,547.1],[1035.9,562],[1047.7,560.9],[1047.7,560.9],[1057.5,559.6],[1044.5,561.1],[1036.6,557.2],[997.2,553.2],[986.2,551.7],[975.2,554.5],[980.3,555.4],[980.3,555.4],[968.5,551.1],[905.7,540.8],[834,526.5],[834,526.5],[805,529.6],[807.9,518],[810.8,524.4],[836.2,532.2],[826.4,548.2],[823.4,549.7],[807.9,550.6],[818.1,570.4],[818.1,570.4],[852.8,566.8],[852.8,566.8],[907.8,564.3],[907.8,564.3],[894.8,553.9],[894.8,553.9],[909.6,554.1],[909.6,554.1],[922.1,539.7],[922.1,539.7],[922.2,518.5],[919.6,503.1],[935.9,494.9],[955,485.4],[977.8,466.6],[1006.5,476.2],[1015.7,472.3],[1015.7,472.3],[1051.8,459.3],[1055.9,451.2],[1075.9,460.9],[1119,487.6],[1211.5,512.5],[1264.8,533.6],[1281.7,552.9],[1297.9,569.7],[1298.3,571.8],[1325.8,582.4],[1367.4,608.4],[1381.4,627.1],[1377.4,619.7],[1363.7,607.5],[1363.7,607.5],[1302.8,576.4],[1269,554.5],[1254.4,547.5],[1219.4,529.5],[1219.4,529.5],[1214.1,521.3],[1214.1,521.3],[1197.8,526.5],[1152.5,499.5],[1126,477.4],[1098.9,453.2],[1071.8,429],[1041.6,428.8],[1005.2,427.7],[975.3,414.2],[950.2,402.6],[931.9,396.4],[905.2,383],[896.4,389.8],[896.4,389.8],[888.2,396.9],[872.1,413.5],[877.7,437.7],[886.9,452.8],[886.6,457.6],[894.2,463],[917.7,489],[936.1,518.8],[948.7,534.4],[969.6,555.8],[990.5,577.2],[1005.5,576],[1027.4,583.2],[1049.3,590.4],[1067.7,604.4],[1086.1,618.4],[1090.1,600.9],[1107.4,578.8],[1127.5,592.8],[1144.1,600],[1148.6,593.8],[1168.9,600.7],[1162.8,596.2],[1156.7,591.7],[1164.6,597],[1172.5,602.3],[1180.7,623.3],[1174.3,642.8],[1167,618.5],[1159.7,619.3],[1147.9,613.1],[1142.9,616.5],[1135.7,615.3],[1127,621.6],[1104.4,633.2],[1081.8,644.8],[1065.7,637.1],[1054.6,660.4],[1038.9,678.2],[1015.5,668.5],[1014.4,698.9],[1003.8,737.9],[983.9,757.7],[958.1,775.2],[958.1,775.2],[952.9,768.6],[949.3,768.5],[949.3,768.5],[937.4,782.9],[927.3,754.6],[914.5,758.9],[902.2,771],[845,753.2],[777.6,723.8],[734.4,716.8],[703.1,703.5],[664.1,702.7],[616.4,683.3],[565.2,679.8],[508.5,681.9],[454.3,684.8],[399.6,679.9],[393.3,692.2],[402.9,704.9],[401.9,718.2],[391.4,724.5],[378,734.1],[371.7,755.8],[372.6,757.9],[372.2,766.1],[385.1,763],[398,759.9],[432.1,757.9],[470.2,745.8],[535.9,719.5],[535.9,719.5],[613.7,702.2],[694.4,681.6],[772.4,662.4],[854.1,647],[928.4,631.5],[1002.7,618.1],[1081,612.1],[1128.9,598],[1183.7,579.3],[1183.7,579.3],[1187.4,573.2],[1187,569.9],[1182.5,574],[1181.6,571.7],[1181.6,571.7],[1172.7,563.2],[1161.5,563.1],[1155,543.7],[1150.6,511.5],[1131.2,495.3],[1098.8,491.8],[1098.8,491.8],[1090.4,481.8],[1092.6,458.4],[1092.6,458.4],[1086.2,419.7],[1098.9,405.2],[1098.9,405.2],[1098.9,405.2],[1097.9,381.6],[1097.9,381.6],[1148,362.2],[1148,362.2],[1159.9,381.2],[1159.9,381.2],[1184.9,339.4],[1184.9,339.4],[1225.8,298.5],[1269.9,257.7],[1286.4,244.7],[1303.1,304.8],[1303.1,304.8],[1329.2,366.5],[1337.8,356.1],[1326.5,356.9],[1285.9,356.9],[1252.1,342.9],[1206,395.1],[1155.2,423.5],[1091.3,442.1],[1049.2,433.1],[993.3,360.7],[940.7,294.6],[854.9,296.3],[803.3,302],[715.2,268.6],[715.2,268.6],[653,238.5],[596.6,202.8],[544,174],[490.4,151.1],[437.8,132.3],[400.2,110.2],[358.4,100.9],[397.4,99.3],[436.4,97.7],[517.2,118.1],[595.2,133.4],[675.2,153],[730.7,154.5],[790.4,188.5],[841.5,226.1],[917.1,229.9],[996.9,220.9],[1030.2,194.4],[1063.5,167.9],[1079.4,146.8],[1070.9,128.3],[1062.7,119.8],[1079,129.4],[1105.7,107.5],[1141,82],[1140.4,88.1],[1122.9,92.3],[1115.3,94.2],[1107.7,96.1],[1098.4,95.4],[1132.6,87],[1120,73.2],[1143.4,61.8],[1143.4,61.8],[1164.9,53.7],[1173.7,53.2],[1199.2,70.6],[1219.2,79.3],[1232.9,75.5],[1242.7,71.8],[1254.2,70.7],[1258.2,77.4],[1292.3,85.2],[1301.1,70.2],[1310.2,56.7],[1331.2,45.3],[1332.8,23.6],[1354,21.1],[1354,21.1],[1368,28.3],[1389.5,33.7],[1417.2,48.2],[1433.3,60],[1444.9,70.7],[1445.8,101.8],[1442.7,125.5],[1440.4,139.5],[1440,139.4],[1440,139.4],[1428,154.1],[1428,154.1],[1413.4,167.1],[1395.2,181.8],[1348,181.4],[1300.8,181],[1278.8,170.7],[1256.8,160.4],[1219.5,172.2]]","[-0.2,0.6000000000000001]","[0.2,0.6000000000000001]","[0.6000000000000001,0.6000000000000001]","[-0.6000000000000001,-0.2]","[-0.6000000000000001,0.2]","[-0.6000000000000001,-0.6000000000000001]","[-0.2,-0.2]","[0.2,-0.2]","[0.6000000000000001,-0.2]","[-0.2,0.2]","[0.2,0.2]","[0.6000000000000001,0.2]","[-0.2,-0.6000000000000001]","[0.2,-0.6000000000000001]","[0.6000000000000001,-0.6000000000000001]",0,0,0,0,1,3,Monitor,25,40,9,1,50,4,1,60,5
