inst1_resp.keys,inst1_resp.rt,calibrationMouse.x,calibrationMouse.y,calibrationMouse.leftButton,calibrationMouse.midButton,calibrationMouse.rightButton,calibrationClick.x,calibrationClick.y,calibrationClick.leftButton,calibrationClick.midButton,calibrationClick.rightButton,calibrationClick.clicked_name,trialsc.thisRepN,trialsc.thisTrialN,trialsc.thisN,trialsc.thisIndex,trialsc.ran,calibration_x,calibration_y,participant,session,date,expName,psychopyVersion,OS,frameRate,ScreenRes_pixels,Camera_pixels,mouse_2.x,mouse_2.y,mouse_2.leftButton,mouse_2.midButton,mouse_2.rightButton,mouse_2.time,mouse_2.clicked_name,mouse.x,mouse.y,mouse.leftButton,mouse.midButton,mouse.rightButton,mouse.time,mouse.clicked_name,Choice,Trial,TrialDuration,MOUSE_GAZE,ET_GAZE,ET_GAZE_x_T,time,unixTime,ET_GAZE_NF,Loc_Bus_label,Loc_Metro_label,Loc_RH_label,Loc_Cost_label,Loc_Travel_label,Loc_Comfort_label,Loc_Bus_cost,Loc_Metro_cost,Loc_RH_cost,Loc_Bus_travel,Loc_Metro_travel,Loc_RH_travel,Loc_Bus_comfort,Loc_Metro_comfort,Loc_RH_comfort,trials.thisRepN,trials.thisTrialN,trials.thisN,trials.thisIndex,trials.ran,Block,Device,RH_cost,RH_travel_time,RH_Comfort,metro_cost,metro_travel_time,metro_Comfort,Bus_cost,Bus_travel_time,Bus_Comfort
space,2.4523,-0.435416667,0.035185185,1,0,0,-0.677083333,-0.662962963,1,0,0,calibration_square,0,0,0,0,1,-0.67,-0.67,13,001,2024-11-19_14h20.25.152,Attention_exp_legacy,2023.1.0,Win32,60.60606061,,,,,,,,,,,,,,,,,,,,,,,,,,,,,,,,,,,,,,,,,,,,,,,,,,,,,,,,
,,,,,,,-0.678125,-0.340740741,1,0,0,,0,1,1,1,1,-0.67,-0.33,13,001,2024-11-19_14h20.25.152,Attention_exp_legacy,2023.1.0,Win32,60.60606061,,,,,,,,,,,,,,,,,,,,,,,,,,,,,,,,,,,,,,,,,,,,,,,,,,,,,,,,
,,,,,,,-0.338541667,0.003703704,1,0,0,calibration_square,0,2,2,6,1,-0.33,0,13,001,2024-11-19_14h20.25.152,Attention_exp_legacy,2023.1.0,Win32,60.60606061,,,,,,,,,,,,,,,,,,,,,,,,,,,,,,,,,,,,,,,,,,,,,,,,,,,,,,,,
,,,,,,,0.004166667,0.007407407,1,0,0,calibration_square,0,3,3,11,1,0,0,13,001,2024-11-19_14h20.25.152,Attention_exp_legacy,2023.1.0,Win32,60.60606061,,,,,,,,,,,,,,,,,,,,,,,,,,,,,,,,,,,,,,,,,,,,,,,,,,,,,,,,
,,,,,,,0.33125,0.333333333,1,0,0,calibration_square,0,4,4,17,1,0.33,0.33,13,001,2024-11-19_14h20.25.152,Attention_exp_legacy,2023.1.0,Win32,60.60606061,,,,,,,,,,,,,,,,,,,,,,,,,,,,,,,,,,,,,,,,,,,,,,,,,,,,,,,,
,,,,,,,0.328125,0.681481481,1,0,0,,0,5,5,18,1,0.33,0.67,13,001,2024-11-19_14h20.25.152,Attention_exp_legacy,2023.1.0,Win32,60.60606061,,,,,,,,,,,,,,,,,,,,,,,,,,,,,,,,,,,,,,,,,,,,,,,,,,,,,,,,
,,,,,,,-0.001041667,-0.342592593,1,0,0,,0,6,6,10,1,0,-0.33,13,001,2024-11-19_14h20.25.152,Attention_exp_legacy,2023.1.0,Win32,60.60606061,,,,,,,,,,,,,,,,,,,,,,,,,,,,,,,,,,,,,,,,,,,,,,,,,,,,,,,,
,,,,,,,0.003125,-0.674074074,1,0,0,calibration_square,0,7,7,9,1,0,-0.67,13,001,2024-11-19_14h20.25.152,Attention_exp_legacy,2023.1.0,Win32,60.60606061,,,,,,,,,,,,,,,,,,,,,,,,,,,,,,,,,,,,,,,,,,,,,,,,,,,,,,,,
,,,,,,,-0.327083333,0.333333333,1,0,0,calibration_square,0,8,8,7,1,-0.33,0.33,13,001,2024-11-19_14h20.25.152,Attention_exp_legacy,2023.1.0,Win32,60.60606061,,,,,,,,,,,,,,,,,,,,,,,,,,,,,,,,,,,,,,,,,,,,,,,,,,,,,,,,
,,,,,,,-0.329166667,-0.677777778,1,0,0,calibration_square,0,9,9,4,1,-0.33,-0.67,13,001,2024-11-19_14h20.25.152,Attention_exp_legacy,2023.1.0,Win32,60.60606061,,,,,,,,,,,,,,,,,,,,,,,,,,,,,,,,,,,,,,,,,,,,,,,,,,,,,,,,
,,,,,,,0.328125,-0.003703704,1,0,0,calibration_square,0,10,10,16,1,0.33,0,13,001,2024-11-19_14h20.25.152,Attention_exp_legacy,2023.1.0,Win32,60.60606061,,,,,,,,,,,,,,,,,,,,,,,,,,,,,,,,,,,,,,,,,,,,,,,,,,,,,,,,
,,,,,,,-0.333333333,-0.335185185,1,0,0,calibration_square,0,11,11,5,1,-0.33,-0.33,13,001,2024-11-19_14h20.25.152,Attention_exp_legacy,2023.1.0,Win32,60.60606061,,,,,,,,,,,,,,,,,,,,,,,,,,,,,,,,,,,,,,,,,,,,,,,,,,,,,,,,
,,,,,,,-0.684375,0.009259259,1,0,0,,0,12,12,2,1,-0.67,0,13,001,2024-11-19_14h20.25.152,Attention_exp_legacy,2023.1.0,Win32,60.60606061,,,,,,,,,,,,,,,,,,,,,,,,,,,,,,,,,,,,,,,,,,,,,,,,,,,,,,,,
,,,,,,,0.326041667,-0.674074074,1,0,0,calibration_square,0,13,13,14,1,0.33,-0.67,13,001,2024-11-19_14h20.25.152,Attention_exp_legacy,2023.1.0,Win32,60.60606061,,,,,,,,,,,,,,,,,,,,,,,,,,,,,,,,,,,,,,,,,,,,,,,,,,,,,,,,
,,,,,,,0.005208333,0.331481481,1,0,0,calibration_square,0,14,14,12,1,0,0.33,13,001,2024-11-19_14h20.25.152,Attention_exp_legacy,2023.1.0,Win32,60.60606061,,,,,,,,,,,,,,,,,,,,,,,,,,,,,,,,,,,,,,,,,,,,,,,,,,,,,,,,
,,,,,,,0.670833333,0.662962963,1,0,0,calibration_square,0,15,15,19,1,0.67,0.67,13,001,2024-11-19_14h20.25.152,Attention_exp_legacy,2023.1.0,Win32,60.60606061,,,,,,,,,,,,,,,,,,,,,,,,,,,,,,,,,,,,,,,,,,,,,,,,,,,,,,,,
,,,,,,,-0.676041667,0.327777778,1,0,0,calibration_square,0,16,16,3,1,-0.67,0.33,13,001,2024-11-19_14h20.25.152,Attention_exp_legacy,2023.1.0,Win32,60.60606061,,,,,,,,,,,,,,,,,,,,,,,,,,,,,,,,,,,,,,,,,,,,,,,,,,,,,,,,
,,,,,,,0.66875,-0.675925926,1,0,0,calibration_square,0,17,17,20,1,0.67,-0.67,13,001,2024-11-19_14h20.25.152,Attention_exp_legacy,2023.1.0,Win32,60.60606061,,,,,,,,,,,,,,,,,,,,,,,,,,,,,,,,,,,,,,,,,,,,,,,,,,,,,,,,
,,,,,,,0.330208333,-0.327777778,1,0,0,calibration_square,0,18,18,15,1,0.33,-0.33,13,001,2024-11-19_14h20.25.152,Attention_exp_legacy,2023.1.0,Win32,60.60606061,,,,,,,,,,,,,,,,,,,,,,,,,,,,,,,,,,,,,,,,,,,,,,,,,,,,,,,,
,,,,,,,-0.326041667,0.688888889,1,0,0,,0,19,19,8,1,-0.33,0.67,13,001,2024-11-19_14h20.25.152,Attention_exp_legacy,2023.1.0,Win32,60.60606061,,,,,,,,,,,,,,,,,,,,,,,,,,,,,,,,,,,,,,,,,,,,,,,,,,,,,,,,
,,,,,,,-0.005208333,0.683333333,1,0,0,,0,20,20,13,1,0,0.67,13,001,2024-11-19_14h20.25.152,Attention_exp_legacy,2023.1.0,Win32,60.60606061,,,,,,,,,,,,,,,,,,,,,,,,,,,,,,,,,,,,,,,,,,,,,,,,,,,,,,,,
,,,,,,,,,,,,,,,,,,,,13,001,2024-11-19_14h20.25.152,Attention_exp_legacy,2023.1.0,Win32,60.60606061,"[1920,1080]","[640,480]",[0.03958333333333333],[-0.4888888888888889],[1],[0],[0],[5.1758999996185295],"[""StartButton""]",[0.19583333333333333],[0.6277777777777778],[1],[0],[0],[8.212699999809253],"[""Metro_label""]",Metro_label,1,9.2383,"[[0.03958333333333333,-0.4888888888888889],[0.03958333333333333,-0.4888888888888889],[0.03958333333333333,-0.4888888888888889],[0.03958333333333333,-0.4888888888888889],[0.03958333333333333,-0.4888888888888889],[0.03958333333333333,-0.4888888888888889],[0.03958333333333333,-0.4888888888888889],[0.03958333333333333,-0.4888888888888889],[0.03958333333333333,-0.4888888888888889],[0.03958333333333333,-0.4888888888888889],[0.03958333333333333,-0.4888888888888889],[0.03958333333333333,-0.4888888888888889],[0.03958333333333333,-0.4888888888888889],[0.03958333333333333,-0.4888888888888889],[0.03958333333333333,-0.4888888888888889],[0.03958333333333333,-0.4888888888888889],[0.03958333333333333,-0.4888888888888889],[0.03958333333333333,-0.4888888888888889],[0.03958333333333333,-0.4888888888888889],[0.03958333333333333,-0.4888888888888889],[0.03958333333333333,-0.4888888888888889],[0.03958333333333333,-0.4888888888888889],[0.03958333333333333,-0.4888888888888889],[0.03958333333333333,-0.4888888888888889],[0.03958333333333333,-0.4888888888888889],[0.03958333333333333,-0.4888888888888889],[0.03958333333333333,-0.4888888888888889],[0.03958333333333333,-0.4888888888888889],[0.03958333333333333,-0.4888888888888889],[0.03958333333333333,-0.4888888888888889],[0.03958333333333333,-0.4888888888888889],[0.03958333333333333,-0.4888888888888889],[0.03958333333333333,-0.4888888888888889],[0.03958333333333333,-0.4888888888888889],[0.03958333333333333,-0.4888888888888889],[0.03958333333333333,-0.4888888888888889],[0.03958333333333333,-0.4888888888888889],[0.03958333333333333,-0.4888888888888889],[0.03958333333333333,-0.4888888888888889],[0.03958333333333333,-0.4888888888888889],[0.03958333333333333,-0.4888888888888889],[0.03958333333333333,-0.4888888888888889],[0.03958333333333333,-0.4888888888888889],[0.03958333333333333,-0.4888888888888889],[0.03958333333333333,-0.4888888888888889],[0.03958333333333333,-0.4888888888888889],[0.03958333333333333,-0.4888888888888889],[0.03958333333333333,-0.4888888888888889],[0.03958333333333333,-0.4888888888888889],[0.03958333333333333,-0.4888888888888889],[0.03958333333333333,-0.4888888888888889],[0.03958333333333333,-0.4888888888888889],[0.03958333333333333,-0.4888888888888889],[0.03958333333333333,-0.4888888888888889],[0.03958333333333333,-0.4888888888888889],[0.03958333333333333,-0.4888888888888889],[0.03958333333333333,-0.4888888888888889],[0.03958333333333333,-0.4888888888888889],[0.03958333333333333,-0.4888888888888889],[0.03958333333333333,-0.4888888888888889],[0.03958333333333333,-0.4888888888888889],[0.03958333333333333,-0.4888888888888889],[0.03958333333333333,-0.4888888888888889],[0.03958333333333333,-0.4888888888888889],[0.03958333333333333,-0.4888888888888889],[0.03958333333333333,-0.4888888888888889],[0.03958333333333333,-0.4888888888888889],[0.03958333333333333,-0.4888888888888889],[0.03958333333333333,-0.4888888888888889],[0.03958333333333333,-0.4888888888888889],[0.03958333333333333,-0.4888888888888889],[0.03958333333333333,-0.4888888888888889],[0.03958333333333333,-0.4888888888888889],[0.03958333333333333,-0.4888888888888889],[0.03958333333333333,-0.4888888888888889],[0.03958333333333333,-0.4888888888888889],[0.03958333333333333,-0.4888888888888889],[0.03958333333333333,-0.4888888888888889],[0.03958333333333333,-0.4888888888888889],[0.03958333333333333,-0.4888888888888889],[0.03958333333333333,-0.4888888888888889],[0.03958333333333333,-0.4888888888888889],[0.03958333333333333,-0.4888888888888889],[0.03958333333333333,-0.4888888888888889],[0.03958333333333333,-0.4888888888888889],[0.03958333333333333,-0.4888888888888889],[0.03958333333333333,-0.4888888888888889],[0.03958333333333333,-0.4888888888888889],[0.03958333333333333,-0.4888888888888889],[0.03958333333333333,-0.4888888888888889],[0.03958333333333333,-0.4888888888888889],[0.03958333333333333,-0.4888888888888889],[0.03958333333333333,-0.4888888888888889],[0.03958333333333333,-0.4888888888888889],[0.03958333333333333,-0.4888888888888889],[0.03958333333333333,-0.4888888888888889],[0.03958333333333333,-0.4888888888888889],[0.03958333333333333,-0.4888888888888889],[0.03958333333333333,-0.4888888888888889],[0.03958333333333333,-0.4888888888888889],[0.03958333333333333,-0.4888888888888889],[0.03958333333333333,-0.4888888888888889],[0.03958333333333333,-0.4888888888888889],[0.03958333333333333,-0.4888888888888889],[0.03958333333333333,-0.4888888888888889],[0.03958333333333333,-0.4888888888888889],[0.03958333333333333,-0.4888888888888889],[0.03958333333333333,-0.4888888888888889],[0.03958333333333333,-0.4888888888888889],[0.03958333333333333,-0.4888888888888889],[0.03958333333333333,-0.4888888888888889],[0.03958333333333333,-0.4888888888888889],[0.03958333333333333,-0.4888888888888889],[0.03958333333333333,-0.4888888888888889],[0.03958333333333333,-0.4888888888888889],[0.03958333333333333,-0.4888888888888889],[0.03958333333333333,-0.4888888888888889],[0.03958333333333333,-0.4888888888888889],[0.03958333333333333,-0.4888888888888889],[0.03958333333333333,-0.4888888888888889],[0.03958333333333333,-0.4888888888888889],[0.03958333333333333,-0.4888888888888889],[0.03958333333333333,-0.4888888888888889],[0.03958333333333333,-0.4888888888888889],[0.03958333333333333,-0.4888888888888889],[0.03958333333333333,-0.4888888888888889],[0.03958333333333333,-0.4888888888888889],[0.03958333333333333,-0.4888888888888889],[0.03958333333333333,-0.4888888888888889],[0.03958333333333333,-0.4888888888888889],[0.03958333333333333,-0.4888888888888889],[0.03958333333333333,-0.4888888888888889],[0.03958333333333333,-0.4888888888888889],[0.03958333333333333,-0.4888888888888889],[0.03958333333333333,-0.4888888888888889],[0.03958333333333333,-0.4888888888888889],[0.03958333333333333,-0.4888888888888889],[0.03958333333333333,-0.4888888888888889],[0.03958333333333333,-0.4888888888888889],[0.03958333333333333,-0.4888888888888889],[0.03958333333333333,-0.4888888888888889],[0.03958333333333333,-0.4888888888888889],[0.03958333333333333,-0.4888888888888889],[0.03958333333333333,-0.4888888888888889],[0.03958333333333333,-0.4888888888888889],[0.03958333333333333,-0.4888888888888889],[0.03958333333333333,-0.4888888888888889],[0.03958333333333333,-0.4888888888888889],[0.03958333333333333,-0.4888888888888889],[0.03958333333333333,-0.4888888888888889],[0.03958333333333333,-0.4888888888888889],[0.03958333333333333,-0.4888888888888889],[0.03958333333333333,-0.4888888888888889],[0.03958333333333333,-0.4888888888888889],[0.03958333333333333,-0.4888888888888889],[0.03958333333333333,-0.4888888888888889],[0.03958333333333333,-0.4888888888888889],[0.03958333333333333,-0.4888888888888889],[0.03958333333333333,-0.4888888888888889],[0.03958333333333333,-0.4888888888888889],[0.03958333333333333,-0.4888888888888889],[0.03958333333333333,-0.4888888888888889],[0.03958333333333333,-0.4888888888888889],[0.03958333333333333,-0.4888888888888889],[0.03958333333333333,-0.4888888888888889],[0.03958333333333333,-0.4888888888888889],[0.03958333333333333,-0.4888888888888889],[0.03958333333333333,-0.4888888888888889],[0.03958333333333333,-0.4888888888888889],[0.03958333333333333,-0.4888888888888889],[0.03958333333333333,-0.4888888888888889],[0.03958333333333333,-0.4888888888888889],[0.03958333333333333,-0.4888888888888889],[0.03958333333333333,-0.4888888888888889],[0.03958333333333333,-0.4888888888888889],[0.03958333333333333,-0.4888888888888889],[0.03958333333333333,-0.4888888888888889],[0.03958333333333333,-0.4888888888888889],[0.03958333333333333,-0.4888888888888889],[0.03958333333333333,-0.4888888888888889],[0.03958333333333333,-0.4888888888888889],[0.03958333333333333,-0.4888888888888889],[0.03958333333333333,-0.4888888888888889],[0.03958333333333333,-0.4888888888888889],[0.03958333333333333,-0.4888888888888889],[0.03958333333333333,-0.4888888888888889],[0.03958333333333333,-0.4888888888888889],[0.03958333333333333,-0.4888888888888889],[0.03958333333333333,-0.4888888888888889],[0.03958333333333333,-0.4888888888888889],[0.03958333333333333,-0.4888888888888889],[0.03958333333333333,-0.4888888888888889],[0.03958333333333333,-0.4888888888888889],[0.03958333333333333,-0.4888888888888889],[0.03958333333333333,-0.4888888888888889],[0.03958333333333333,-0.4888888888888889],[0.03958333333333333,-0.4888888888888889],[0.03958333333333333,-0.4888888888888889],[0.03958333333333333,-0.4888888888888889],[0.03958333333333333,-0.4888888888888889],[0.03958333333333333,-0.4888888888888889],[0.03958333333333333,-0.4888888888888889],[0.03958333333333333,-0.4888888888888889],[0.03958333333333333,-0.4888888888888889],[0.03958333333333333,-0.4888888888888889],[0.03958333333333333,-0.4888888888888889],[0.03958333333333333,-0.4888888888888889],[0.03958333333333333,-0.4888888888888889],[0.03958333333333333,-0.4888888888888889],[0.03958333333333333,-0.4888888888888889],[0.03958333333333333,-0.4888888888888889],[0.03958333333333333,-0.4888888888888889],[0.03958333333333333,-0.4888888888888889],[0.03958333333333333,-0.4888888888888889],[0.03958333333333333,-0.4888888888888889],[0.03958333333333333,-0.4888888888888889],[0.03958333333333333,-0.4888888888888889],[0.03958333333333333,-0.4888888888888889],[0.03958333333333333,-0.4888888888888889],[0.03958333333333333,-0.4888888888888889],[0.03958333333333333,-0.4888888888888889],[0.03958333333333333,-0.4888888888888889],[0.03958333333333333,-0.4888888888888889],[0.03958333333333333,-0.4888888888888889],[0.03958333333333333,-0.4888888888888889],[0.03958333333333333,-0.4888888888888889],[0.03958333333333333,-0.4888888888888889],[0.03958333333333333,-0.4888888888888889],[0.03958333333333333,-0.4888888888888889],[0.03958333333333333,-0.4888888888888889],[0.03958333333333333,-0.4888888888888889],[0.03958333333333333,-0.4888888888888889],[0.03958333333333333,-0.4888888888888889],[0.03958333333333333,-0.4888888888888889],[0.03958333333333333,-0.4888888888888889],[0.03958333333333333,-0.4888888888888889],[0.03958333333333333,-0.4888888888888889],[0.03958333333333333,-0.4888888888888889],[0.03958333333333333,-0.4888888888888889],[0.03958333333333333,-0.4888888888888889],[0.03958333333333333,-0.4888888888888889],[0.03958333333333333,-0.4888888888888889],[0.03958333333333333,-0.4888888888888889],[0.03958333333333333,-0.4888888888888889],[0.03958333333333333,-0.4888888888888889],[0.03958333333333333,-0.4888888888888889],[0.03958333333333333,-0.4888888888888889],[0.03958333333333333,-0.4888888888888889],[0.03958333333333333,-0.4888888888888889],[0.03958333333333333,-0.4888888888888889],[0.03958333333333333,-0.4888888888888889],[0.03958333333333333,-0.4888888888888889],[0.03958333333333333,-0.4888888888888889],[0.03958333333333333,-0.4888888888888889],[0.03958333333333333,-0.4888888888888889],[0.03958333333333333,-0.4888888888888889],[0.03958333333333333,-0.4888888888888889],[0.03958333333333333,-0.4888888888888889],[0.03958333333333333,-0.4888888888888889],[0.03958333333333333,-0.4888888888888889],[0.03958333333333333,-0.4888888888888889],[0.03958333333333333,-0.4888888888888889],[0.03958333333333333,-0.4888888888888889],[0.03958333333333333,-0.4888888888888889],[0.03958333333333333,-0.4888888888888889],[0.03958333333333333,-0.4888888888888889],[0.03958333333333333,-0.4888888888888889],[0.03958333333333333,-0.4888888888888889],[0.03958333333333333,-0.4888888888888889],[0.03958333333333333,-0.4888888888888889],[0.03958333333333333,-0.4888888888888889],[0.03958333333333333,-0.4888888888888889],[0.03854166666666667,-0.48518518518518516],[0.05,-0.46111111111111114],[0.06875,-0.42962962962962964],[0.09166666666666666,-0.3888888888888889],[0.13020833333333334,-0.3351851851851852],[0.16666666666666666,-0.2814814814814815],[0.20520833333333333,-0.2222222222222222],[0.25729166666666664,-0.14444444444444443],[0.27291666666666664,-0.11851851851851852],[0.29583333333333334,-0.07962962962962963],[0.31354166666666666,-0.040740740740740744],[0.325,-0.012962962962962963],[0.32708333333333334,-0.003703703703703704],[0.33125,0.022222222222222223],[0.33541666666666664,0.03888888888888889],[0.33645833333333336,0.04814814814814815],[0.3375,0.05925925925925926],[0.3375,0.06851851851851852],[0.3385416666666667,0.08148148148148149],[0.3385416666666667,0.1111111111111111],[0.3385416666666667,0.12407407407407407],[0.3385416666666667,0.15185185185185185],[0.33958333333333335,0.18333333333333332],[0.340625,0.23333333333333334],[0.34375,0.26296296296296295],[0.34375,0.2962962962962963],[0.34375,0.3296296296296296],[0.34375,0.35555555555555557],[0.34375,0.36666666666666664],[0.34375,0.37222222222222223],[0.34375,0.37222222222222223],[0.34375,0.37222222222222223],[0.34375,0.37222222222222223],[0.34375,0.37222222222222223],[0.34375,0.37222222222222223],[0.34270833333333334,0.37222222222222223],[0.33229166666666665,0.37222222222222223],[0.32708333333333334,0.37222222222222223],[0.31145833333333334,0.3611111111111111],[0.284375,0.34444444444444444],[0.2833333333333333,0.34444444444444444],[0.2833333333333333,0.34444444444444444],[0.2833333333333333,0.34444444444444444],[0.2833333333333333,0.34444444444444444],[0.2833333333333333,0.34444444444444444],[0.2833333333333333,0.34444444444444444],[0.2833333333333333,0.34444444444444444],[0.2833333333333333,0.34444444444444444],[0.2833333333333333,0.34444444444444444],[0.2833333333333333,0.34444444444444444],[0.2833333333333333,0.34444444444444444],[0.2833333333333333,0.34444444444444444],[0.2833333333333333,0.34444444444444444],[0.2833333333333333,0.34444444444444444],[0.2833333333333333,0.34444444444444444],[0.2833333333333333,0.34444444444444444],[0.2833333333333333,0.34444444444444444],[0.2833333333333333,0.34444444444444444],[0.2833333333333333,0.34444444444444444],[0.2833333333333333,0.34444444444444444],[0.2833333333333333,0.34444444444444444],[0.2833333333333333,0.34444444444444444],[0.2833333333333333,0.34444444444444444],[0.2833333333333333,0.34444444444444444],[0.2833333333333333,0.34444444444444444],[0.2833333333333333,0.34444444444444444],[0.27708333333333335,0.337037037037037],[0.27395833333333336,0.337037037037037],[0.27291666666666664,0.337037037037037],[0.27291666666666664,0.337037037037037],[0.27291666666666664,0.337037037037037],[0.27291666666666664,0.337037037037037],[0.27291666666666664,0.3333333333333333],[0.27291666666666664,0.3333333333333333],[0.27291666666666664,0.3333333333333333],[0.27291666666666664,0.3333333333333333],[0.27291666666666664,0.3333333333333333],[0.271875,0.3314814814814815],[0.2708333333333333,0.3277777777777778],[0.26979166666666665,0.3277777777777778],[0.26875,0.32407407407407407],[0.26666666666666666,0.32222222222222224],[0.26145833333333335,0.31851851851851853],[0.259375,0.31666666666666665],[0.25416666666666665,0.31296296296296294],[0.25,0.3074074074074074],[0.24895833333333334,0.3055555555555556],[0.24479166666666666,0.30185185185185187],[0.24375,0.3],[0.24166666666666667,0.3],[0.23854166666666668,0.2962962962962963],[0.23645833333333333,0.2962962962962963],[0.234375,0.2962962962962963],[0.23229166666666667,0.2962962962962963],[0.22916666666666666,0.29444444444444445],[0.228125,0.29444444444444445],[0.22604166666666667,0.29444444444444445],[0.225,0.29444444444444445],[0.22291666666666668,0.29444444444444445],[0.21979166666666666,0.3],[0.21458333333333332,0.3055555555555556],[0.209375,0.31851851851851853],[0.20520833333333333,0.337037037037037],[0.2,0.3574074074074074],[0.19375,0.3814814814814815],[0.18854166666666666,0.40925925925925927],[0.184375,0.42592592592592593],[0.18125,0.4388888888888889],[0.18020833333333333,0.45740740740740743],[0.17916666666666667,0.4685185185185185],[0.17916666666666667,0.47962962962962963],[0.17708333333333334,0.4925925925925926],[0.17604166666666668,0.5037037037037037],[0.17604166666666668,0.5148148148148148],[0.17604166666666668,0.5259259259259259],[0.17604166666666668,0.5370370370370371],[0.17604166666666668,0.55],[0.17604166666666668,0.5611111111111111],[0.178125,0.5722222222222222],[0.18125,0.5907407407407408],[0.18229166666666666,0.6],[0.184375,0.6074074074074074],[0.18645833333333334,0.6185185185185185],[0.18958333333333333,0.6240740740740741],[0.19270833333333334,0.6333333333333333],[0.19375,0.6351851851851852],[0.19375,0.6370370370370371],[0.19479166666666667,0.6388888888888888],[0.19479166666666667,0.6388888888888888],[0.19479166666666667,0.6388888888888888],[0.19479166666666667,0.6388888888888888],[0.19479166666666667,0.6388888888888888],[0.19479166666666667,0.6388888888888888],[0.19479166666666667,0.6388888888888888],[0.19479166666666667,0.6388888888888888],[0.19479166666666667,0.6388888888888888],[0.19479166666666667,0.6388888888888888],[0.19479166666666667,0.6388888888888888],[0.19479166666666667,0.6388888888888888],[0.19479166666666667,0.6388888888888888],[0.19479166666666667,0.6388888888888888],[0.19479166666666667,0.6388888888888888],[0.19479166666666667,0.6388888888888888],[0.19479166666666667,0.6388888888888888],[0.19479166666666667,0.6388888888888888],[0.19479166666666667,0.6388888888888888],[0.19479166666666667,0.6388888888888888],[0.19479166666666667,0.6388888888888888],[0.19479166666666667,0.6388888888888888],[0.19479166666666667,0.6388888888888888],[0.19479166666666667,0.6388888888888888],[0.19479166666666667,0.6388888888888888],[0.19479166666666667,0.6388888888888888],[0.19479166666666667,0.6388888888888888],[0.19479166666666667,0.6388888888888888],[0.19479166666666667,0.6388888888888888],[0.19479166666666667,0.6388888888888888],[0.19479166666666667,0.6388888888888888],[0.19479166666666667,0.6388888888888888],[0.19479166666666667,0.6388888888888888],[0.19479166666666667,0.6388888888888888],[0.19479166666666667,0.6388888888888888],[0.19479166666666667,0.6388888888888888],[0.19479166666666667,0.6388888888888888],[0.19479166666666667,0.6388888888888888],[0.19479166666666667,0.6388888888888888],[0.19479166666666667,0.6388888888888888],[0.19479166666666667,0.6388888888888888],[0.19479166666666667,0.6388888888888888],[0.19479166666666667,0.6388888888888888],[0.19479166666666667,0.6388888888888888],[0.19479166666666667,0.6388888888888888],[0.19479166666666667,0.6388888888888888],[0.19479166666666667,0.6388888888888888],[0.19479166666666667,0.6388888888888888],[0.19479166666666667,0.6388888888888888],[0.19479166666666667,0.6388888888888888],[0.19479166666666667,0.6388888888888888],[0.19479166666666667,0.6388888888888888],[0.19479166666666667,0.6388888888888888],[0.19479166666666667,0.6388888888888888],[0.19479166666666667,0.6388888888888888],[0.19479166666666667,0.6388888888888888],[0.19479166666666667,0.6388888888888888],[0.19479166666666667,0.6388888888888888],[0.19479166666666667,0.6388888888888888],[0.19479166666666667,0.6388888888888888],[0.19479166666666667,0.6370370370370371],[0.19479166666666667,0.6351851851851852],[0.19479166666666667,0.6314814814814815],[0.19479166666666667,0.6296296296296297],[0.19583333333333333,0.6296296296296297],[0.19583333333333333,0.6296296296296297],[0.19583333333333333,0.6296296296296297],[0.19583333333333333,0.6296296296296297],[0.19583333333333333,0.6277777777777778],[0.19583333333333333,0.6277777777777778],[0.19583333333333333,0.6277777777777778],[0.19583333333333333,0.6277777777777778],[0.19583333333333333,0.6277777777777778],[0.19583333333333333,0.6277777777777778],[0.19583333333333333,0.6277777777777778],[0.19583333333333333,0.6277777777777778],[0.19583333333333333,0.6277777777777778],[0.19583333333333333,0.6277777777777778],[0.19583333333333333,0.6277777777777778],[0.19583333333333333,0.6277777777777778],[0.19583333333333333,0.6277777777777778],[0.19583333333333333,0.6277777777777778],[0.19583333333333333,0.6277777777777778],[0.19583333333333333,0.6277777777777778],[0.19583333333333333,0.6277777777777778],[0.19583333333333333,0.6277777777777778],[0.19583333333333333,0.6277777777777778],[0.19583333333333333,0.6277777777777778],[0.19583333333333333,0.6277777777777778],[0.19583333333333333,0.6277777777777778],[0.19583333333333333,0.6277777777777778],[0.19583333333333333,0.6277777777777778],[0.19583333333333333,0.6277777777777778],[0.19583333333333333,0.6277777777777778],[0.19583333333333333,0.6277777777777778],[0.19583333333333333,0.6277777777777778],[0.19583333333333333,0.6277777777777778],[0.19583333333333333,0.6277777777777778],[0.19583333333333333,0.6277777777777778],[0.19583333333333333,0.6277777777777778],[0.19583333333333333,0.6277777777777778],[0.19583333333333333,0.6277777777777778],[0.19583333333333333,0.6277777777777778],[0.19583333333333333,0.6277777777777778],[0.19583333333333333,0.6277777777777778],[0.19583333333333333,0.6277777777777778],[0.19583333333333333,0.6277777777777778],[0.19583333333333333,0.6277777777777778],[0.19583333333333333,0.6277777777777778],[0.19583333333333333,0.6277777777777778],[0.19583333333333333,0.6277777777777778],[0.19583333333333333,0.6277777777777778],[0.19583333333333333,0.6277777777777778],[0.19583333333333333,0.6277777777777778],[0.19583333333333333,0.6277777777777778],[0.19583333333333333,0.6277777777777778],[0.19583333333333333,0.6277777777777778],[0.19583333333333333,0.6277777777777778],[0.19583333333333333,0.6277777777777778],[0.19583333333333333,0.6277777777777778],[0.19583333333333333,0.6277777777777778],[0.19583333333333333,0.6277777777777778],[0.19583333333333333,0.6277777777777778],[0.19583333333333333,0.6277777777777778],[0.19583333333333333,0.6277777777777778],[0.19583333333333333,0.6277777777777778],[0.19583333333333333,0.6277777777777778],[0.19583333333333333,0.6277777777777778],[0.19583333333333333,0.6277777777777778],[0.19583333333333333,0.6277777777777778],[0.19583333333333333,0.6277777777777778],[0.19583333333333333,0.6277777777777778],[0.19583333333333333,0.6277777777777778],[0.19583333333333333,0.6277777777777778],[0.19583333333333333,0.6277777777777778],[0.19583333333333333,0.6277777777777778],[0.19583333333333333,0.6277777777777778],[0.19583333333333333,0.6277777777777778],[0.19583333333333333,0.6277777777777778],[0.19583333333333333,0.6277777777777778],[0.19583333333333333,0.6277777777777778],[0.19583333333333333,0.6277777777777778],[0.19583333333333333,0.6277777777777778],[0.19583333333333333,0.6277777777777778],[0.19583333333333333,0.6277777777777778],[0.19583333333333333,0.6277777777777778],[0.19583333333333333,0.6277777777777778],[0.19583333333333333,0.6277777777777778],[0.19583333333333333,0.6277777777777778],[0.19583333333333333,0.6277777777777778],[0.19583333333333333,0.6277777777777778],[0.19583333333333333,0.6277777777777778],[0.19583333333333333,0.6277777777777778]]","[[-0.11364583333333336,0.17074074074074083],[-0.11364583333333336,0.17074074074074083],[-0.08614583333333338,0.19185185185185188],[-0.08614583333333338,0.19185185185185188],[-0.06197916666666667,0.18870370370370365],[-0.06197916666666667,0.18870370370370365],[-0.01572916666666669,0.21796296296296305],[-0.01572916666666669,0.21796296296296305],[0.008229166666666643,0.2192592592592592],[0.008229166666666643,0.2192592592592592],[0.07312500000000005,0.2524074074074073],[0.07312500000000005,0.2524074074074073],[0.09822916666666662,0.30462962962962964],[0.09822916666666662,0.30462962962962964],[0.06802083333333328,0.3148148148148148],[0.06802083333333328,0.3148148148148148],[0.06645833333333329,0.31259259259259253],[0.06645833333333329,0.31259259259259253],[0.08260416666666662,0.29740740740740745],[0.08260416666666662,0.29740740740740745],[0.08135416666666657,0.2916666666666667],[0.08135416666666657,0.2916666666666667],[0.07906250000000009,0.28833333333333344],[0.07906250000000009,0.28833333333333344],[0.05,0.3077777777777779],[0.05,0.3077777777777779],[0.000416666666666643,0.277962962962963],[0.000416666666666643,0.277962962962963],[-0.03447916666666669,0.27518518518518525],[-0.03447916666666669,0.27518518518518525],[-0.078125,0.28888888888888886],[-0.078125,0.28888888888888886],[-0.15197916666666664,0.29870370370370364],[-0.15197916666666664,0.29870370370370364],[-0.22906249999999997,0.2822222222222222],[-0.22906249999999997,0.2822222222222222],[-0.3194791666666667,0.25462962962962965],[-0.3194791666666667,0.25462962962962965],[-0.42999999999999994,0.2264814814814814],[-0.42999999999999994,0.2264814814814814],[-0.498125,0.22277777777777769],[-0.498125,0.22277777777777769],[-0.6039583333333333,0.20537037037037034],[-0.6039583333333333,0.20537037037037034],[-0.6929166666666667,0.17111111111111107],[-0.6929166666666667,0.17111111111111107],[-0.7432291666666667,0.1646296296296296],[-0.7432291666666667,0.1646296296296296],[-0.7938541666666666,0.1537037037037037],[-0.7938541666666666,0.1537037037037037],[-0.8809375,0.07851851851851847],[-0.8809375,0.07851851851851847],[-0.8780208333333334,0.01722222222222214],[-0.8780208333333334,0.01722222222222214],[-0.8096875,0.01444444444444436],[-0.8096875,0.01444444444444436],[-0.7196874999999999,-0.01314814814814819],[-0.7196874999999999,-0.01314814814814819],[-0.61375,-0.012962962962962963],[-0.61375,-0.012962962962962963],[-0.5095833333333333,-0.003703703703703704],[-0.5095833333333333,-0.003703703703703704],[-0.4390625,0.03370370370370379],[-0.4390625,0.03370370370370379],[-0.305625,0.06277777777777774],[-0.305625,0.06277777777777774],[-0.21916666666666665,0.16203703703703703],[-0.21916666666666665,0.16203703703703703],[-0.12239583333333333,0.262037037037037],[-0.12239583333333333,0.262037037037037],[-0.017916666666666713,0.3653703703703703],[-0.017916666666666713,0.3653703703703703],[0.03458333333333338,0.4492592592592593],[0.03458333333333338,0.4492592592592593],[0.07197916666666657,0.528888888888889],[0.07197916666666657,0.528888888888889],[0.09343750000000005,0.605925925925926],[0.09343750000000005,0.605925925925926],[0.12281250000000009,0.7187037037037037],[0.12281250000000009,0.7187037037037037],[0.17625000000000005,0.7890740740740741],[0.17625000000000005,0.7890740740740741],[0.19427083333333334,0.8364814814814816],[0.19427083333333334,0.8364814814814816],[0.17156250000000003,0.8987037037037037],[0.17156250000000003,0.8987037037037037],[0.1564583333333334,0.8898148148148148],[0.1318749999999999,0.865],[0.0943749999999999,0.8587037037037037],[0.058541666666666714,0.8781481481481482],[-0.014374999999999952,0.8968518518518518],[-0.08010416666666664,0.89],[-0.1423958333333334,0.8466666666666668],[-0.1423958333333334,0.8466666666666668],[-0.2390625,0.8514814814814814],[-0.30499999999999994,0.8453703703703703],[-0.37052083333333335,0.8411111111111111],[-0.3980208333333334,0.8224074074074075],[-0.4275,0.803888888888889],[-0.4605208333333334,0.7887037037037037],[-0.48625,0.7612962962962964],[-0.5002083333333334,0.7574074074074074],[-0.48708333333333337,0.8062962962962963],[-0.4739583333333333,0.855185185185185],[-0.44895833333333335,0.8853703703703704],[-0.44895833333333335,0.8853703703703704],[-0.35958333333333337,0.8746296296296295],[-0.2657291666666667,0.894074074074074],[-0.2657291666666667,0.894074074074074],[-0.19187500000000005,0.9316666666666665],[-0.19187500000000005,0.9316666666666665],[-0.13677083333333329,0.944074074074074],[-0.065625,0.9670370370370371],[-0.065625,0.9670370370370371],[-0.00302083333333331,0.9562962962962964],[0.04739583333333333,0.9198148148148149],[0.07000000000000005,0.8722222222222222],[0.09197916666666663,0.8651851851851853],[0.12666666666666657,0.8722222222222222],[0.10333333333333337,0.9335185185185183],[0.06979166666666667,0.9592592592592593],[0.059687499999999956,1.0035185185185187],[0.06833333333333323,1.0729629629629631],[0.06833333333333323,1.0729629629629631],[0.06833333333333323,1.0729629629629631],[0.05145833333333331,1.1149999999999998],[0.05145833333333331,1.1149999999999998],[0.049479166666666664,1.1781481481481482],[0.049479166666666664,1.1781481481481482],[0.049479166666666664,1.1781481481481482],[0.06114583333333338,1.237222222222222],[0.06114583333333338,1.237222222222222],[0.03177083333333333,1.2661111111111112],[0.03177083333333333,1.2661111111111112],[0.004999999999999952,1.2342592592592592],[0.003541666666666643,1.2124074074074076],[0.003541666666666643,1.2124074074074076],[-0.01083333333333331,1.139074074074074],[-0.03125,1.0585185185185184],[-0.07114583333333328,0.9661111111111111],[-0.07114583333333328,0.9661111111111111],[-0.11656249999999997,0.8696296296296296],[-0.11656249999999997,0.8696296296296296],[-0.10041666666666664,0.7974074074074075],[-0.10041666666666664,0.7974074074074075],[-0.09885416666666665,0.7416666666666667],[-0.13125,0.6644444444444444],[-0.11531250000000005,0.6227777777777777],[-0.09812500000000005,0.6325925925925926],[-0.11895833333333337,0.6183333333333333],[-0.10395833333333329,0.6183333333333333],[-0.0829166666666667,0.6255555555555554],[-0.05145833333333331,0.5998148148148148],[-0.014479166666666644,0.5781481481481482],[0.05145833333333331,0.5683333333333332],[0.1256249999999999,0.5546296296296296],[0.196875,0.5392592592592593],[0.2608333333333334,0.5185185185185185],[0.31187500000000007,0.46518518518518526],[0.3629166666666668,0.4118518518518518],[0.4110416666666666,0.3827777777777779],[0.4591666666666666,0.3537037037037037],[0.48583333333333345,0.3557407407407408],[0.5125,0.35777777777777786],[0.5125,0.35777777777777786],[0.42197916666666657,0.3707407407407408],[0.42197916666666657,0.3707407407407408],[0.42197916666666657,0.3707407407407408],[0.30916666666666665,0.41500000000000004],[0.2337500000000001,0.4853703703703704],[0.09104166666666676,0.5062962962962962],[-0.041979166666666616,0.5285185185185185],[-0.16156250000000003,0.547037037037037],[-0.28322916666666664,0.5607407407407407],[-0.40270833333333333,0.5866666666666666],[-0.5151041666666667,0.6077777777777779],[-0.6221875,0.6074074074074074],[-0.6770833333333334,0.5729629629629629],[-0.7072916666666667,0.5079629629629628],[-0.7512500000000001,0.4462962962962963],[-0.7297916666666667,0.45555555555555555],[-0.7305208333333333,0.4225925925925927],[-0.7445833333333333,0.3985185185185186],[-0.7586458333333332,0.3744444444444445],[-0.7586458333333332,0.3744444444444445],[-0.7445833333333333,0.35611111111111104],[-0.7582291666666666,0.3435185185185185],[-0.7582291666666666,0.3435185185185185],[-0.7529166666666666,0.3792592592592592],[-0.7463541666666667,0.402962962962963],[-0.7052083333333333,0.46148148148148155],[-0.6640625,0.5199999999999999],[-0.6596875,0.5066666666666667],[-0.5892708333333334,0.5925925925925926],[-0.5154166666666666,0.6657407407407407],[-0.44156249999999997,0.7388888888888889],[-0.40197916666666667,0.8081481481481481],[-0.3958333333333333,0.8825925925925926],[-0.4392708333333334,0.8903703703703703],[-0.4839583333333334,0.9101851851851852],[-0.5138541666666667,0.9081481481481484],[-0.54375,0.906111111111111],[-0.5826041666666666,0.9525925925925928],[-0.6653125000000001,0.9420370370370371],[-0.6684375,0.9507407407407409],[-0.6715625000000001,0.9594444444444443],[-0.6878124999999999,0.938148148148148],[-0.6429166666666667,0.905925925925926],[-0.5763541666666666,0.9203703703703704],[-0.5427083333333333,0.9225925925925926],[-0.5207291666666667,0.9238888888888891],[-0.49875,0.925185185185185],[-0.43322916666666667,0.9270370370370369],[-0.3576041666666666,0.975185185185185],[-0.3819791666666667,0.9655555555555557],[-0.4063541666666667,0.955925925925926],[-0.44864583333333335,0.9692592592592594],[-0.4909375,0.9825925925925925],[-0.48791666666666667,0.9996296296296295],[-0.47375,1.0422222222222222],[-0.49156249999999996,1.064074074074074],[-0.49447916666666664,1.0670370370370372],[-0.5234375,1.0562962962962965],[-0.5759375,1.0212962962962964],[-0.6141666666666666,1.0125925925925925],[-0.6141666666666666,1.0125925925925925],[-0.6523958333333333,1.0038888888888888],[-0.6728124999999999,0.9925925925925926],[-0.6728124999999999,0.9925925925925926],[-0.643125,0.9659259259259257],[-0.5803125,0.9781481481481482],[-0.5045833333333333,0.9637037037037038],[-0.4479166666666667,0.955925925925926],[-0.4061458333333333,0.9670370370370371],[-0.33864583333333337,0.9955555555555554],[-0.2577083333333333,1.0020370370370368],[-0.2375,0.987222222222222],[-0.2172916666666667,0.9724074074074073],[-0.15197916666666664,0.9718518518518517],[-0.13677083333333329,0.9866666666666666],[-0.18458333333333338,0.9761111111111109],[-0.2235416666666667,0.9788888888888887],[-0.20760416666666662,1.011851851851852],[-0.19166666666666668,1.0448148148148149],[-0.17395833333333333,1.0725925925925928],[-0.14906250000000001,1.0894444444444444],[-0.08645833333333333,1.1398148148148148],[-0.015104166666666667,1.2142592592592594],[0.016979166666666618,1.2675925925925926],[0.04885416666666664,1.325925925925926],[0.07291666666666667,1.3344444444444443],[0.09697916666666657,1.3429629629629631],[0.05927083333333331,1.3042592592592592],[0.021562500000000047,1.2655555555555558],[0.021562500000000047,1.2655555555555558],[-0.014479166666666644,1.2161111111111111],[-0.044062499999999956,1.1879629629629629],[-0.044062499999999956,1.1879629629629629],[-0.057187499999999974,1.1625925925925924],[-0.057187499999999974,1.1625925925925924],[-0.06656249999999998,1.1105555555555557],[-0.06656249999999998,1.1105555555555557],[-0.06677083333333336,1.0474074074074073],[-0.06635416666666671,0.9775925925925928],[-0.07312500000000005,0.9396296296296298],[-0.07312500000000005,0.9396296296296298],[-0.07989583333333337,0.9016666666666668],[-0.0625,0.8877777777777778],[-0.06635416666666671,0.855925925925926],[-0.06635416666666671,0.855925925925926],[-0.06927083333333334,0.8375925925925926],[-0.09937499999999998,0.8150000000000001],[-0.10739583333333336,0.7998148148148148],[-0.11041666666666666,0.7638888888888888],[-0.0828125,0.7338888888888888],[-0.05562499999999997,0.7055555555555556],[-0.043437500000000046,0.6864814814814816],[-0.025416666666666643,0.6370370370370371],[-0.02510416666666669,0.5659259259259259],[0.008229166666666643,0.5268518518518519],[0.008229166666666643,0.5268518518518519],[0.018333333333333358,0.4692592592592592],[0.06604166666666664,0.42111111111111105],[0.10062499999999991,0.3824074074074074],[0.10062499999999991,0.3824074074074074],[0.1508333333333333,0.3461111111111111],[0.15968749999999995,0.3066666666666667],[0.15791666666666657,0.23759259259259252],[0.15791666666666657,0.23759259259259252],[0.16447916666666676,0.18111111111111103],[0.21427083333333338,0.1609259259259259],[0.22552083333333334,0.1675925925925926],[0.22552083333333334,0.1675925925925926],[0.21947916666666673,0.15407407407407417],[0.2942708333333333,0.17333333333333337],[0.30187499999999995,0.15851851851851856],[0.2991666666666667,0.08444444444444449],[0.2665625000000001,0.03833333333333342],[0.29375,0.061666666666666585],[0.315625,0.08740740740740749],[0.2886458333333332,0.07703703703703708],[0.2886458333333332,0.07703703703703708],[0.2125,0.04333333333333329],[0.28395833333333326,0.009629629629629714],[0.2805208333333333,-0.020740740740740823],[0.20458333333333342,-0.04870370370370362],[0.2504166666666668,-0.028888888888888933],[0.2504166666666668,-0.028888888888888933],[0.2539583333333333,-0.01777777777777782],[0.21947916666666673,0.03166666666666671],[0.1462500000000001,0.0011111111111111532],[0.1318749999999999,-0.04018518518518527],[0.1196875000000001,-0.031111111111111027],[0.08822916666666672,-0.02814814814814823],[-0.05343749999999995,-0.07296296296296292],[-0.11468750000000003,-0.11500000000000005],[-0.11000000000000003,-0.14074074074074075],[-0.18395833333333336,-0.19574074074074072],[-0.15239583333333329,-0.16962962962962966],[-0.09874999999999995,-0.1962962962962963],[-0.04760416666666671,-0.21296296296296297],[-0.035312499999999976,-0.16796296296296295],[-0.035312499999999976,-0.16796296296296295],[0.03083333333333336,-0.1940740740740741],[0.06614583333333333,-0.20333333333333337],[0.11395833333333343,-0.1757407407407407],[0.14968750000000006,-0.18481481481481485],[0.134375,-0.22685185185185186],[0.09874999999999995,-0.24388888888888888],[0.010416666666666666,-0.2861111111111111],[-0.018020833333333285,-0.3087037037037037],[-0.12010416666666662,-0.36870370370370376],[-0.18197916666666672,-0.43444444444444447],[-0.25625,-0.3972222222222222],[-0.21260416666666668,-0.3957407407407407],[-0.2140625,-0.38740740740740737],[-0.24166666666666667,-0.3374074074074074],[-0.2703125,-0.2890740740740741],[-0.2219791666666667,-0.3133333333333333],[-0.16499999999999998,-0.2868518518518518],[-0.12364583333333339,-0.2788888888888889],[-0.010208333333333286,-0.2603703703703704],[0.02177083333333331,-0.2868518518518518],[0.06885416666666658,-0.38740740740740737],[0.07708333333333334,-0.41518518518518516],[0.07708333333333334,-0.41518518518518516],[0.11541666666666663,-0.43037037037037035],[0.1974999999999999,-0.47907407407407404],[0.1974999999999999,-0.47907407407407404],[0.2612499999999999,-0.5003703703703704],[0.3177083333333333,-0.48944444444444446],[0.3655208333333334,-0.5292592592592593],[0.3576041666666666,-0.5403703703703704],[0.3228125000000001,-0.48574074074074075],[0.3770833333333333,-0.44092592592592594],[0.3770833333333333,-0.44092592592592594],[0.4313541666666666,-0.3961111111111111],[0.4053124999999999,-0.3633333333333333],[0.446875,-0.36814814814814817],[0.4587500000000001,-0.33425925925925926],[0.43093750000000003,-0.3394444444444445],[0.39124999999999993,-0.32148148148148153],[0.3844791666666666,-0.27981481481481485],[0.4027083333333332,-0.2675925925925926],[0.40260416666666665,-0.27240740740740743],[0.3506249999999999,-0.2403703703703704],[0.3478125000000001,-0.16833333333333328],[0.3697916666666667,-0.10870370370370368],[0.3648958333333333,-0.05499999999999998],[0.3648958333333333,-0.05499999999999998],[0.30531249999999993,-0.044444444444444446],[0.30531249999999993,-0.044444444444444446],[0.34479166666666666,0.004629629629629629],[0.3302083333333333,0.0294444444444444],[0.3302083333333333,0.0294444444444444],[0.33395833333333325,0.042407407407407366],[0.33395833333333325,0.042407407407407366],[0.2805208333333333,0.032777777777777864],[0.2805208333333333,0.032777777777777864],[0.31239583333333343,0.03944444444444436],[0.31239583333333343,0.03944444444444436],[0.32145833333333323,0.009814814814814731],[0.32145833333333323,0.009814814814814731],[0.23447916666666657,-0.04259259259259259],[0.23447916666666657,-0.04259259259259259],[0.22312500000000005,-0.0824074074074074],[0.17645833333333344,-0.09648148148148153],[0.17645833333333344,-0.09648148148148153],[0.22989583333333338,-0.127962962962963],[0.24333333333333323,-0.18462962962962962],[0.28125,-0.20203703703703707],[0.23927083333333338,-0.26222222222222225],[0.26677083333333323,-0.33851851851851855],[0.24406249999999996,-0.4116666666666667],[0.24020833333333325,-0.43203703703703705],[0.24020833333333325,-0.43203703703703705],[0.28322916666666675,-0.4696296296296297],[0.30135416666666665,-0.5359259259259259],[0.28875000000000006,-0.5725925925925925],[0.2741666666666667,-0.609074074074074],[0.2783333333333334,-0.5938888888888889],[0.27458333333333323,-0.6014814814814815],[0.28843750000000007,-0.5848148148148148],[0.28916666666666657,-0.5224074074074074],[0.28916666666666657,-0.5224074074074074],[0.27395833333333336,-0.48333333333333334],[0.27395833333333336,-0.48333333333333334],[0.27666666666666656,-0.44296296296296295],[0.2693749999999999,-0.43388888888888894],[0.23802083333333332,-0.41462962962962957],[0.2504166666666668,-0.4251851851851852],[0.24354166666666663,-0.38555555555555554],[0.22322916666666662,-0.3638888888888889],[0.2029166666666666,-0.34222222222222226],[0.1631249999999999,-0.35611111111111116],[0.12333333333333343,-0.37],[0.06229166666666662,-0.35833333333333334],[0.06229166666666662,-0.35833333333333334],[-0.01270833333333338,-0.36444444444444446],[-0.05281250000000005,-0.3403703703703704],[-0.10843750000000002,-0.33370370370370367],[-0.16749999999999995,-0.3285185185185185],[-0.20833333333333334,-0.3103703703703704],[-0.25447916666666665,-0.32592592592592595],[-0.29802083333333335,-0.3635185185185185],[-0.3110416666666667,-0.3588888888888889],[-0.34135416666666674,-0.31500000000000006],[-0.34135416666666674,-0.31500000000000006],[-0.32843749999999994,-0.30333333333333334],[-0.30020833333333335,-0.32],[-0.32000000000000006,-0.3477777777777778],[-0.3242708333333333,-0.3581481481481481],[-0.3692708333333333,-0.3205555555555556],[-0.4345833333333334,-0.2992592592592593],[-0.5028125,-0.23074074074074077],[-0.5605208333333334,-0.1735185185185185],[-0.5469791666666667,-0.10425925925925927],[-0.5161458333333333,-0.0742592592592593],[-0.48322916666666665,-0.06722222222222224],[-0.465625,-0.03185185185185194],[-0.43635416666666665,-0.025],[-0.4070833333333333,-0.018148148148148063],[-0.3423958333333334,-0.02111111111111107],[-0.2570833333333333,-0.03888888888888889],[-0.1766666666666667,-0.09907407407407408],[-0.0984375,-0.1235185185185185],[-0.1109375,-0.15611111111111114],[-0.13614583333333338,-0.15833333333333333],[-0.14635416666666667,-0.1675925925925926],[-0.15656249999999997,-0.17685185185185184],[-0.17218749999999997,-0.15111111111111114],[-0.15427083333333336,-0.08962962962962959],[-0.1252083333333334,-0.0448148148148149],[-0.1514583333333333,0.01518518518518527],[-0.12854166666666664,0.07185185185185176],[-0.10833333333333334,0.13129629629629624],[-0.05447916666666662,0.18592592592592588],[0.012083333333333357,0.2101851851851852],[0.0703125,0.33499999999999996],[0.13562500000000005,0.4594444444444445],[0.17895833333333327,0.4411111111111112],[0.18875000000000006,0.387037037037037],[0.20958333333333337,0.34574074074074085],[0.25906250000000003,0.247037037037037],[0.25833333333333336,0.09518518518518514],[0.25833333333333336,0.09518518518518514],[0.2493750000000001,-0.06185185185185181],[0.24802083333333325,-0.17796296296296302],[0.24802083333333325,-0.17796296296296302],[0.178125,-0.2627777777777777],[0.1256249999999999,-0.3781481481481481],[0.06604166666666664,-0.49314814814814817],[0.06072916666666662,-0.5042592592592593],[0.05541666666666671,-0.5153703703703704],[0.05166666666666669,-0.5774074074074075],[0.05604166666666662,-0.5790740740740741],[0.07770833333333324,-0.4698148148148148],[0.09937500000000009,-0.3605555555555555],[0.0896874999999999,-0.3472222222222222],[0.14854166666666657,-0.36518518518518517],[0.1622916666666666,-0.4116666666666667],[0.17041666666666658,-0.47092592592592597],[0.18333333333333332,-0.4733333333333334],[0.1962500000000001,-0.4757407407407407],[0.17770833333333325,-0.49129629629629634],[0.15916666666666662,-0.5068518518518518],[0.13468749999999996,-0.5937037037037037],[0.12218749999999995,-0.6653703703703704],[0.09135416666666671,-0.7037037037037037],[0.06239583333333331,-0.7661111111111111],[0.041666666666666664,-0.8142592592592592],[0.0265625,-0.8496296296296296],[0.0265625,-0.8496296296296296],[-0.006979166666666714,-0.9348148148148149],[-0.006979166666666714,-0.9348148148148149],[-0.04583333333333333,-0.9735185185185186],[-0.058749999999999976,-1.017777777777778],[-0.058749999999999976,-1.017777777777778],[-0.07166666666666661,-1.0620370370370371],[-0.07166666666666661,-1.0620370370370371],[-0.09427083333333333,-1.108148148148148],[-0.09427083333333333,-1.108148148148148],[-0.13531249999999997,-1.079074074074074],[-0.13531249999999997,-1.079074074074074],[-0.14177083333333335,-1.087037037037037],[-0.14177083333333335,-1.087037037037037],[-0.16239583333333332,-1.1083333333333334],[-0.16239583333333332,-1.1083333333333334],[-0.2029166666666666,-1.0848148148148147],[-0.2029166666666666,-1.0848148148148147],[-0.2419791666666666,-1.076851851851852],[-0.2419791666666666,-1.076851851851852],[-0.2828125,-1.0312962962962962],[-0.2828125,-1.0312962962962962],[-0.3147916666666667,-1.0357407407407406],[-0.3147916666666667,-1.0357407407407406],[-0.34572916666666664,-0.9744444444444446],[-0.38958333333333334,-0.9440740740740741],[-0.4361458333333334,-0.9092592592592592],[-0.47625,-0.9648148148148148],[-0.5123958333333333,-0.8283333333333334],[-0.53625,-0.6544444444444444],[-0.4640625,-0.5142592592592592],[-0.3953125,-0.3537037037037037],[-0.33010416666666664,-0.24092592592592596],[-0.29260416666666667,-0.13555555555555554],[-0.29260416666666667,-0.13555555555555554],[-0.2609375,-0.09722222222222222],[-0.21531250000000005,0.015000000000000043],[-0.15979166666666664,0.13666666666666658],[-0.0936458333333333,0.2681481481481481],[-0.0936458333333333,0.2681481481481481],[-0.016770833333333356,0.25833333333333336],[0.060104166666666715,0.2485185185185186],[0.0806250000000001,0.17740740740740732],[0.103125,0.1014814814814814],[0.15135416666666662,0.07481481481481478],[0.22374999999999995,0.05907407407407403],[0.27312500000000006,0.07370370370370362],[0.3341666666666666,0.01703703703703712],[0.3793750000000001,-0.01722222222222214],[0.4273958333333333,-0.05259259259259255],[0.43624999999999997,-0.1287037037037037],[0.4306250000000001,-0.1809259259259259],[0.4397916666666667,-0.1881481481481482],[0.4357291666666666,-0.21722222222222223],[0.42374999999999996,-0.2742592592592593],[0.4117708333333333,-0.33129629629629626],[0.3931250000000001,-0.3757407407407407],[0.36177083333333326,-0.3918518518518519],[0.3993750000000001,-0.40018518518518525],[0.4235416666666666,-0.4172222222222222]]","[[-0.11364583333333336,0.17074074074074083,0.000299999713902821],[-0.11364583333333336,0.17074074074074083,0.05219999980926815],[-0.08614583333333338,0.19185185185185188,0.07609999990463479],[-0.08614583333333338,0.19185185185185188,0.08459999990463274],[-0.06197916666666667,0.18870370370370365,0.11040000009536755],[-0.06197916666666667,0.18870370370370365,0.11969999980927071],[-0.01572916666666669,0.21796296296296305,0.1441999998092669],[-0.01572916666666669,0.21796296296296305,0.15190000009536675],[0.008229166666666643,0.2192592592592592,0.177500000000002],[0.008229166666666643,0.2192592592592592,0.1847999997139027],[0.07312500000000005,0.2524074074074073,0.21069999980926468],[0.07312500000000005,0.2524074074074073,0.21829999971389924],[0.09822916666666662,0.30462962962962964,0.24540000009537266],[0.09822916666666662,0.30462962962962964,0.254799999713903],[0.06802083333333328,0.3148148148148148,0.2779000000953715],[0.06802083333333328,0.3148148148148148,0.2852999997138994],[0.06645833333333329,0.31259259259259253,0.3074000000953703],[0.06645833333333329,0.31259259259259253,0.315099999904632],[0.08260416666666662,0.29740740740740745,0.3407999997139015],[0.08260416666666662,0.29740740740740745,0.3477999997138994],[0.08135416666666657,0.2916666666666667,0.3741999998092709],[0.08135416666666657,0.2916666666666667,0.38190000009537073],[0.07906250000000009,0.28833333333333344,0.407199999809265],[0.07906250000000009,0.28833333333333344,0.4144000000953696],[0.05,0.3077777777777779,0.44029999971390055],[0.05,0.3077777777777779,0.4475000000000051],[0.000416666666666643,0.277962962962963,0.4736999998092699],[0.000416666666666643,0.277962962962963,0.4809000000953674],[-0.03447916666666669,0.27518518518518525,0.5071999998092664],[-0.03447916666666669,0.27518518518518525,0.514799999713901],[-0.078125,0.28888888888888886,0.5405999999046358],[-0.078125,0.28888888888888886,0.547699999809268],[-0.15197916666666664,0.29870370370370364,0.5741999998092666],[-0.15197916666666664,0.29870370370370364,0.5830999999046327],[-0.22906249999999997,0.2822222222222222,0.6062999997138974],[-0.22906249999999997,0.2822222222222222,0.6164000000953678],[-0.3194791666666667,0.25462962962962965,0.640500000000003],[-0.3194791666666667,0.25462962962962965,0.6472999997139013],[-0.42999999999999994,0.2264814814814814,0.6736999998092656],[-0.42999999999999994,0.2264814814814814,0.6812999997139002],[-0.498125,0.22277777777777769,0.7075000000000031],[-0.498125,0.22277777777777769,0.7154000000953715],[-0.6039583333333333,0.20537037037037034,0.7405000000000044],[-0.6039583333333333,0.20537037037037034,0.7475999999046365],[-0.6929166666666667,0.17111111111111107,0.7725999999046351],[-0.6929166666666667,0.17111111111111107,0.7799000000953669],[-0.7432291666666667,0.1646296296296296,0.8080999999046341],[-0.7432291666666667,0.1646296296296296,0.8179000000953707],[-0.7938541666666666,0.1537037037037037,0.840599999904633],[-0.7938541666666666,0.1537037037037037,0.8489000000953695],[-0.8809375,0.07851851851851847,0.8737999997139028],[-0.8809375,0.07851851851851847,0.8809000000953731],[-0.8780208333333334,0.01722222222222214,0.9060000000000059],[-0.8780208333333334,0.01722222222222214,0.9149999999999991],[-0.8096875,0.01444444444444436,0.9410999999046368],[-0.8096875,0.01444444444444436,0.9486999998092642],[-0.7196874999999999,-0.01314814814814819,0.9747999997139019],[-0.7196874999999999,-0.01314814814814819,0.9825000000000017],[-0.61375,-0.012962962962962963,1.007799999713903],[-0.61375,-0.012962962962962963,1.015900000095371],[-0.5095833333333333,-0.003703703703703704,1.04069999980927],[-0.5095833333333333,-0.003703703703703704,1.0504999999999995],[-0.4390625,0.03370370370370379,1.073900000095371],[-0.4390625,0.03370370370370379,1.0815000000000055],[-0.305625,0.06277777777777774,1.1070999999046336],[-0.305625,0.06277777777777774,1.115000000000002],[-0.21916666666666665,0.16203703703703703,1.1404000000953687],[-0.21916666666666665,0.16203703703703703,1.1481999998092647],[-0.12239583333333333,0.262037037037037,1.1724999999999994],[-0.12239583333333333,0.262037037037037,1.1802999997139025],[-0.017916666666666713,0.3653703703703703,1.2074000000953689],[-0.017916666666666713,0.3653703703703703,1.2150999999046377],[0.03458333333333338,0.4492592592592593,1.2405000000000044],[0.03458333333333338,0.4492592592592593,1.2484000000953728],[0.07197916666666657,0.528888888888889,1.2725999999046351],[0.07197916666666657,0.528888888888889,1.2809000000953716],[0.09343750000000005,0.605925925925926,1.307699999809266],[0.09343750000000005,0.605925925925926,1.3160000000000025],[0.12281250000000009,0.7187037037037037,1.3425999999046354],[0.12281250000000009,0.7187037037037037,1.3500999999046357],[0.17625000000000005,0.7890740740740741,1.3749000000953728],[0.17625000000000005,0.7890740740740741,1.3839000000953732],[0.19427083333333334,0.8364814814814816,1.4080999999046355],[0.19427083333333334,0.8364814814814816,1.416400000095372],[0.17156250000000003,0.8987037037037037,1.4490999999046323],[0.17156250000000003,0.8987037037037037,1.4570000000000007],[0.1564583333333334,0.8898148148148148,1.4717999997139017],[0.1318749999999999,0.865,1.4905000000000044],[0.0943749999999999,0.8587037037037037,1.5050999999046368],[0.058541666666666714,0.8781481481481482,1.521799999713899],[-0.014374999999999952,0.8968518518518518,1.538499999999999],[-0.08010416666666664,0.89,1.5579999999999998],[-0.1423958333333334,0.8466666666666668,1.574699999809269],[-0.1423958333333334,0.8466666666666668,1.5885000000000034],[-0.2390625,0.8514814814814814,1.6052999997138997],[-0.30499999999999994,0.8453703703703703,1.6240000000000023],[-0.37052083333333335,0.8411111111111111,1.6385000000000005],[-0.3980208333333334,0.8224074074074075,1.655699999809265],[-0.4275,0.803888888888889,1.6750000000000043],[-0.4605208333333334,0.7887037037037037,1.6899000000953706],[-0.48625,0.7612962962962964,1.7050999999046326],[-0.5002083333333334,0.7574074074074074,1.7250000000000014],[-0.48708333333333337,0.8062962962962963,1.741099999904634],[-0.4739583333333333,0.855185185185185,1.7576999998092688],[-0.44895833333333335,0.8853703703703704,1.776299999713899],[-0.44895833333333335,0.8853703703703704,1.7885999999046334],[-0.35958333333333337,0.8746296296296295,1.8052999997139025],[-0.2657291666666667,0.894074074074074,1.8264000000953686],[-0.2657291666666667,0.894074074074074,1.8385000000000034],[-0.19187500000000005,0.9316666666666665,1.8551999998092654],[-0.19187500000000005,0.9316666666666665,1.8717999997139003],[-0.13677083333333329,0.944074074074074,1.8885000000000005],[-0.065625,0.9670370370370371,1.9107999997139018],[-0.065625,0.9670370370370371,1.9217999997138975],[-0.00302083333333331,0.9562962962962964,1.9385000000000048],[0.04739583333333333,0.9198148148148149,1.9551999998092668],[0.07000000000000005,0.8722222222222222,1.9744000000953719],[0.09197916666666663,0.8651851851851853,1.9914000000953678],[0.12666666666666657,0.8722222222222222,2.005500000000005],[0.10333333333333337,0.9335185185185183,2.023699999809267],[0.06979166666666667,0.9592592592592593,2.03919999980927],[0.059687499999999956,1.0035185185185187,2.0551999998092683],[0.06833333333333323,1.0729629629629631,2.0756999998092667],[0.06833333333333323,1.0729629629629631,2.088699999809265],[0.06833333333333323,1.0729629629629631,2.106900000095372],[0.05145833333333331,1.1149999999999998,2.1440999999046326],[0.05145833333333331,1.1149999999999998,2.151199999809265],[0.049479166666666664,1.1781481481481482,2.1799000000953725],[0.049479166666666664,1.1781481481481482,2.186799999713898],[0.049479166666666664,1.1781481481481482,2.1945999999046393],[0.06114583333333338,1.237222222222222,2.225900000095365],[0.06114583333333338,1.237222222222222,2.233299999713907],[0.03177083333333333,1.2661111111111112,2.2611999998092642],[0.03177083333333333,1.2661111111111112,2.272199999809274],[0.004999999999999952,1.2342592592592592,2.2885999999046334],[0.003541666666666643,1.2124074074074076,2.311000000000007],[0.003541666666666643,1.2124074074074076,2.321799999713903],[-0.01083333333333331,1.139074074074074,2.3384999999999962],[-0.03125,1.0585185185185184,2.359499999999997],[-0.07114583333333328,0.9661111111111111,2.377599999904632],[-0.07114583333333328,0.9661111111111111,2.3885000000000076],[-0.11656249999999997,0.8696296296296296,2.4051999998092697],[-0.11656249999999997,0.8696296296296296,2.4217999997138975],[-0.10041666666666664,0.7974074074074075,2.4384000000953705],[-0.10041666666666664,0.7974074074074075,2.455199999809267],[-0.09885416666666665,0.7416666666666667,2.4717999997138946],[-0.13125,0.6644444444444444,2.4909999999999997],[-0.11531250000000005,0.6227777777777777,2.5050999999046297],[-0.09812500000000005,0.6325925925925926,2.5220000000000056],[-0.11895833333333337,0.6183333333333333,2.538400000095365],[-0.10395833333333329,0.6183333333333333,2.555199999809261],[-0.0829166666666667,0.6255555555555554,2.5736999998092642],[-0.05145833333333331,0.5998148148148148,2.591000000000008],[-0.014479166666666644,0.5781481481481482,2.6051999998092725],[0.05145833333333331,0.5683333333333332,2.622],[0.1256249999999999,0.5546296296296296,2.6384000000953733],[0.196875,0.5392592592592593,2.6589000000953718],[0.2608333333333334,0.5185185185185185,2.674299999713895],[0.31187500000000007,0.46518518518518526,2.688599999904639],[0.3629166666666668,0.4118518518518518,2.7050999999046326],[0.4110416666666666,0.3827777777777779,2.721900000095374],[0.4591666666666666,0.3537037037037037,2.7394000000953724],[0.48583333333333345,0.3557407407407408,2.7554000000953636],[0.5125,0.35777777777777786,2.772299999713894],[0.5125,0.35777777777777786,2.804799999713893],[0.42197916666666657,0.3707407407407408,2.822099999904637],[0.42197916666666657,0.3707407407407408,2.833900000095369],[0.42197916666666657,0.3707407407407408,2.8384999999999962],[0.30916666666666665,0.41500000000000004,2.8550999999046383],[0.2337500000000001,0.4853703703703704,2.8717999997139003],[0.09104166666666676,0.5062962962962962,2.8884000000953733],[-0.041979166666666616,0.5285185185185185,2.9050999999046354],[-0.16156250000000003,0.547037037037037,2.9217999997138975],[-0.28322916666666664,0.5607407407407407,2.9384000000953705],[-0.40270833333333333,0.5866666666666666,2.9550999999046326],[-0.5151041666666667,0.6077777777777779,2.9739000000953695],[-0.6221875,0.6074074074074074,2.989199999809273],[-0.6770833333333334,0.5729629629629629,3.0050999999046297],[-0.7072916666666667,0.5079629629629628,3.0216999998092717],[-0.7512500000000001,0.4462962962962963,3.038400000095365],[-0.7297916666666667,0.45555555555555555,3.055099999904641],[-0.7305208333333333,0.4225925925925927,3.0721999998092713],[-0.7445833333333333,0.3985185185185186,3.0884999999999962],[-0.7586458333333332,0.3744444444444445,3.1050999999046383],[-0.7586458333333332,0.3744444444444445,3.1219000000953656],[-0.7445833333333333,0.35611111111111104,3.1384000000953733],[-0.7582291666666666,0.3435185185185185,3.1551999998092697],[-0.7582291666666666,0.3435185185185185,3.1717999997138975],[-0.7529166666666666,0.3792592592592592,3.1885000000000048],[-0.7463541666666667,0.402962962962963,3.2050999999046326],[-0.7052083333333333,0.46148148148148155,3.2220000000000084],[-0.6640625,0.5199999999999999,3.2390999999046386],[-0.6596875,0.5066666666666667,3.255599999904632],[-0.5892708333333334,0.5925925925925926,3.2760999999046305],[-0.5154166666666666,0.6657407407407407,3.29219999980927],[-0.44156249999999997,0.7388888888888889,3.3082999997138955],[-0.40197916666666667,0.8081481481481481,3.326900000095364],[-0.3958333333333333,0.8825925925925926,3.341699999809265],[-0.4392708333333334,0.8903703703703703,3.3560000000000088],[-0.4839583333333334,0.9101851851851852,3.3749000000953657],[-0.5138541666666667,0.9081481481481484,3.390099999904635],[-0.54375,0.906111111111111,3.4051999998092697],[-0.5826041666666666,0.9525925925925928,3.4252999997139],[-0.6653125000000001,0.9420370370370371,3.439000000000007],[-0.6684375,0.9507407407407409,3.4550999999046326],[-0.6715625000000001,0.9594444444444443,3.4717999997138946],[-0.6878124999999999,0.938148148148148,3.4884000000953677],[-0.6429166666666667,0.905925925925926,3.5050999999046297],[-0.5763541666666666,0.9203703703703704,3.521799999713906],[-0.5427083333333333,0.9225925925925926,3.538499999999999],[-0.5207291666666667,0.9238888888888891,3.555099999904641],[-0.49875,0.925185185185185,3.571799999713903],[-0.43322916666666667,0.9270370370370369,3.588400000095376],[-0.3576041666666666,0.975185185185185,3.6050999999046383],[-0.3819791666666667,0.9655555555555557,3.6217999997139003],[-0.4063541666666667,0.955925925925926,3.6385000000000076],[-0.44864583333333335,0.9692592592592594,3.655699999809272],[-0.4909375,0.9825925925925925,3.6720999999046313],[-0.48791666666666667,0.9996296296296295,3.6885000000000048],[-0.47375,1.0422222222222222,3.705199999809267],[-0.49156249999999996,1.064074074074074,3.7217999997138946],[-0.49447916666666664,1.0670370370370372,3.7384000000953677],[-0.5234375,1.0562962962962965,3.7550999999046297],[-0.5759375,1.0212962962962964,3.774400000095369],[-0.6141666666666666,1.0125925925925925,3.789599999904638],[-0.6141666666666666,1.0125925925925925,3.805199999809261],[-0.6523958333333333,1.0038888888888888,3.821799999713903],[-0.6728124999999999,0.9925925925925926,3.842400000095367],[-0.6728124999999999,0.9925925925925926,3.8550999999046383],[-0.643125,0.9659259259259257,3.8719000000953656],[-0.5803125,0.9781481481481482,3.8885000000000076],[-0.5045833333333333,0.9637037037037038,3.9050999999046354],[-0.4479166666666667,0.955925925925926,3.9217999997138975],[-0.4061458333333333,0.9670370370370371,3.9385000000000048],[-0.33864583333333337,0.9955555555555554,3.9550999999046326],[-0.2577083333333333,1.0020370370370368,3.974099999904638],[-0.2375,0.987222222222222,3.9907999997139],[-0.2172916666666667,0.9724074074074073,4.00509999990463],[-0.15197916666666664,0.9718518518518517,4.021799999713906],[-0.13677083333333329,0.9866666666666666,4.038499999999999],[-0.18458333333333338,0.9761111111111109,4.056900000095368],[-0.2235416666666667,0.9788888888888887,4.074400000095366],[-0.20760416666666662,1.011851851851852,4.088799999713899],[-0.19166666666666668,1.0448148148148149,4.105099999904638],[-0.17395833333333333,1.0725925925925928,4.1217999997139],[-0.14906250000000001,1.0894444444444444,4.138400000095373],[-0.08645833333333333,1.1398148148148148,4.158599999904638],[-0.015104166666666667,1.2142592592592594,4.175099999904631],[0.016979166666666618,1.2675925925925926,4.190900000095368],[0.04885416666666664,1.325925925925926,4.205099999904633],[0.07291666666666667,1.3344444444444443,4.224299999713907],[0.09697916666666657,1.3429629629629631,4.238500000000002],[0.05927083333333331,1.3042592592592592,4.25509999990463],[0.021562500000000047,1.2655555555555558,4.275500000000008],[0.021562500000000047,1.2655555555555558,4.288400000095365],[-0.014479166666666644,1.2161111111111111,4.305099999904641],[-0.044062499999999956,1.1879629629629629,4.326400000095376],[-0.044062499999999956,1.1879629629629629,4.338900000095364],[-0.057187499999999974,1.1625925925925924,4.355099999904638],[-0.057187499999999974,1.1625925925925924,4.374000000000009],[-0.06656249999999998,1.1105555555555557,4.388500000000008],[-0.06656249999999998,1.1105555555555557,4.405099999904635],[-0.06677083333333336,1.0474074074074073,4.4217999997138975],[-0.06635416666666671,0.9775925925925928,4.4435999999046345],[-0.07312500000000005,0.9396296296296298,4.460199999809262],[-0.07312500000000005,0.9396296296296298,4.471799999713895],[-0.07989583333333337,0.9016666666666668,4.488400000095368],[-0.0625,0.8877777777777778,4.50509999990463],[-0.06635416666666671,0.855925925925926,4.521699999809272],[-0.06635416666666671,0.855925925925926,4.538400000095365],[-0.06927083333333334,0.8375925925925926,4.555099999904641],[-0.09937499999999998,0.8150000000000001,4.573400000095376],[-0.10739583333333336,0.7998148148148148,4.594299999713897],[-0.11041666666666666,0.7638888888888888,4.609699999809266],[-0.0828125,0.7338888888888888,4.625599999904637],[-0.05562499999999997,0.7055555555555556,4.6414000000953735],[-0.043437500000000046,0.6864814814814816,4.65909999990464],[-0.025416666666666643,0.6370370370370371,4.6761999998092705],[-0.02510416666666669,0.5659259259259259,4.692400000095375],[0.008229166666666643,0.5268518518518519,4.711500000000001],[0.008229166666666643,0.5268518518518519,4.721900000095374],[0.018333333333333358,0.4692592592592592,4.738799999713905],[0.06604166666666664,0.42111111111111105,4.757500000000007],[0.10062499999999991,0.3824074074074074,4.77719999980927],[0.10062499999999991,0.3824074074074074,4.788699999809268],[0.1508333333333333,0.3461111111111111,4.805400000095375],[0.15968749999999995,0.3066666666666667,4.824599999904635],[0.15791666666666657,0.23759259259259252,4.849400000095372],[0.15791666666666657,0.23759259259259252,4.856599999904631],[0.16447916666666676,0.18111111111111103,4.872],[0.21427083333333338,0.1609259259259259,4.888500000000008],[0.22552083333333334,0.1675925925925926,4.9106999998092675],[0.22552083333333334,0.1675925925925926,4.921900000095363],[0.21947916666666673,0.15407407407407417,4.938599999904639],[0.2942708333333333,0.17333333333333337,4.957099999904628],[0.30187499999999995,0.15851851851851856,4.977400000095372],[0.2991666666666667,0.08444444444444449,4.99190000009537],[0.2665625000000001,0.03833333333333342,5.005599999904632],[0.29375,0.061666666666666585,5.024500000000003],[0.315625,0.08740740740740749,5.042099999904636],[0.2886458333333332,0.07703703703703708,5.058900000095363],[0.2886458333333332,0.07703703703703708,5.0719000000953685],[0.2125,0.04333333333333329,5.088499999999996],[0.28395833333333326,0.009629629629629714,5.105099999904638],[0.2805208333333333,-0.020740740740740823,5.121699999809266],[0.20458333333333342,-0.04870370370370362,5.138400000095373],[0.2504166666666668,-0.028888888888888933,5.155099999904635],[0.2504166666666668,-0.028888888888888933,5.175199999809266],[0.2539583333333333,-0.01777777777777782,5.188599999904639],[0.21947916666666673,0.03166666666666671,5.2084000000953665],[0.1462500000000001,0.0011111111111111532,5.22669999980927],[0.1318749999999999,-0.04018518518518527,5.241500000000002],[0.1196875000000001,-0.031111111111111027,5.256799999713905],[0.08822916666666672,-0.02814814814814823,5.2734999999999985],[-0.05343749999999995,-0.07296296296296292,5.290900000095377],[-0.11468750000000003,-0.11500000000000005,5.305299999713895],[-0.11000000000000003,-0.14074074074074075,5.321799999713903],[-0.18395833333333336,-0.19574074074074072,5.338400000095376],[-0.15239583333333329,-0.16962962962962966,5.355000000000004],[-0.09874999999999995,-0.1962962962962963,5.372099999904634],[-0.04760416666666671,-0.21296296296296297,5.391000000000005],[-0.035312499999999976,-0.16796296296296295,5.4055000000000035],[-0.035312499999999976,-0.16796296296296295,5.421699999809263],[0.03083333333333336,-0.1940740740740741,5.4384000000953705],[0.06614583333333333,-0.20333333333333337,5.45659999990464],[0.11395833333333343,-0.1757407407407407,5.4750000000000085],[0.14968750000000006,-0.18481481481481485,5.490900000095365],[0.134375,-0.22685185185185186,5.50509999990463],[0.09874999999999995,-0.24388888888888888,5.521799999713906],[0.010416666666666666,-0.2861111111111111,5.538400000095365],[-0.018020833333333285,-0.3087037037037037,5.555799999713898],[-0.12010416666666662,-0.36870370370370376,5.574400000095366],[-0.18197916666666672,-0.43444444444444447,5.589799999713904],[-0.25625,-0.3972222222222222,5.605099999904638],[-0.21260416666666668,-0.3957407407407407,5.623199999809273],[-0.2140625,-0.38740740740740737,5.638500000000008],[-0.24166666666666667,-0.3374074074074074,5.655099999904635],[-0.2703125,-0.2890740740740741,5.674999999999997],[-0.2219791666666667,-0.3133333333333333,5.6924999999999955],[-0.16499999999999998,-0.2868518518518518,5.708199999809267],[-0.12364583333333339,-0.2788888888888889,5.724299999713907],[-0.010208333333333286,-0.2603703703703704,5.738799999713905],[0.02177083333333331,-0.2868518518518518,5.755599999904632],[0.06885416666666658,-0.38740740740740737,5.774299999713904],[0.07708333333333334,-0.41518518518518516,5.796500000000009],[0.07708333333333334,-0.41518518518518516,5.805099999904641],[0.11541666666666663,-0.43037037037037035,5.8219000000953685],[0.1974999999999999,-0.47907407407407404,5.843299999713906],[0.1974999999999999,-0.47907407407407404,5.855000000000004],[0.2612499999999999,-0.5003703703703704,5.874699999809266],[0.3177083333333333,-0.48944444444444446,5.891299999713894],[0.3655208333333334,-0.5292592592592593,5.906699999809263],[0.3576041666666666,-0.5403703703703704,5.9217999997138975],[0.3228125000000001,-0.48574074074074075,5.942999999999998],[0.3770833333333333,-0.44092592592592594,5.964199999809267],[0.3770833333333333,-0.44092592592592594,5.9720999999046285],[0.4313541666666666,-0.3961111111111111,5.988599999904636],[0.4053124999999999,-0.3633333333333333,6.009199999809269],[0.446875,-0.36814814814814817,6.025799999713897],[0.4587500000000001,-0.33425925925925926,6.040699999809263],[0.43093750000000003,-0.3394444444444445,6.055299999713895],[0.39124999999999993,-0.32148148148148153,6.075400000095371],[0.3844791666666666,-0.27981481481481485,6.091699999809258],[0.4027083333333332,-0.2675925925925926,6.106799999713893],[0.40260416666666665,-0.27240740740740743,6.122299999713896],[0.3506249999999999,-0.2403703703703704,6.1410999999046325],[0.3478125000000001,-0.16833333333333328,6.157099999904624],[0.3697916666666667,-0.10870370370370368,6.175099999904624],[0.3648958333333333,-0.05499999999999998,6.1939999999999955],[0.3648958333333333,-0.05499999999999998,6.20609999990463],[0.30531249999999993,-0.044444444444444446,6.224699999809253],[0.30531249999999993,-0.044444444444444446,6.238599999904629],[0.34479166666666666,0.004629629629629629,6.257900000095368],[0.3302083333333333,0.0294444444444444,6.272999999999989],[0.3302083333333333,0.0294444444444444,6.288499999999992],[0.33395833333333325,0.042407407407407366,6.309699999809261],[0.33395833333333325,0.042407407407407366,6.321900000095361],[0.2805208333333333,0.032777777777777864,6.338599999904623],[0.2805208333333333,0.032777777777777864,6.355199999809265],[0.31239583333333343,0.03944444444444436,6.375299999713896],[0.31239583333333343,0.03944444444444436,6.388599999904635],[0.32145833333333323,0.009814814814814731,6.405199999809263],[0.32145833333333323,0.009814814814814731,6.421900000095356],[0.23447916666666657,-0.04259259259259259,6.441799999713886],[0.23447916666666657,-0.04259259259259259,6.45519999980926],[0.22312500000000005,-0.0824074074074074,6.472900000095358],[0.17645833333333344,-0.09648148148148153,6.493199999809256],[0.17645833333333344,-0.09648148148148153,6.505199999809257],[0.22989583333333338,-0.127962962962963,6.5219999999999985],[0.24333333333333323,-0.18462962962962962,6.53890000009536],[0.28125,-0.20203703703703707,6.558],[0.23927083333333338,-0.26222222222222225,6.574999999999996],[0.26677083333333323,-0.33851851851851855,6.590900000095367],[0.24406249999999996,-0.4116666666666667,6.608499999999999],[0.24020833333333325,-0.43203703703703705,6.623599999904634],[0.24020833333333325,-0.43203703703703705,6.638699999809255],[0.28322916666666675,-0.4696296296296297,6.655299999713897],[0.30135416666666665,-0.5359259259259259,6.674299999713888],[0.28875000000000006,-0.5725925925925925,6.689400000095368],[0.2741666666666667,-0.609074074074074,6.705400000095359],[0.2783333333333334,-0.5938888888888889,6.7216999998092675],[0.27458333333333323,-0.6014814814814815,6.7384000000953606],[0.28843750000000007,-0.5848148148148148,6.755099999904623],[0.28916666666666657,-0.5224074074074074,6.774799999713899],[0.28916666666666657,-0.5224074074074074,6.788599999904626],[0.27395833333333336,-0.48333333333333334,6.805099999904634],[0.27395833333333336,-0.48333333333333334,6.821799999713896],[0.27666666666666656,-0.44296296296296295,6.838400000095369],[0.2693749999999999,-0.43388888888888894,6.858099999904631],[0.23802083333333332,-0.41462962962962957,6.873199999809266],[0.2504166666666668,-0.4251851851851852,6.888699999809255],[0.24354166666666663,-0.38555555555555554,6.904999999999994],[0.22322916666666662,-0.3638888888888889,6.922499999999992],[0.2029166666666666,-0.34222222222222226,6.938299999713898],[0.1631249999999999,-0.35611111111111116,6.955499999999994],[0.12333333333333343,-0.37,6.9717999997138875],[0.06229166666666662,-0.35833333333333334,6.9890999999046315],[0.06229166666666662,-0.35833333333333334,7.005099999904623],[-0.01270833333333338,-0.36444444444444446,7.021799999713899],[-0.05281250000000005,-0.3403703703703704,7.038400000095358],[-0.10843750000000002,-0.33370370370370367,7.055099999904634],[-0.16749999999999995,-0.3285185185185185,7.071999999999996],[-0.20833333333333334,-0.3103703703703704,7.088699999809258],[-0.25447916666666665,-0.32592592592592595,7.105099999904631],[-0.29802083333333335,-0.3635185185185185,7.121699999809259],[-0.3110416666666667,-0.3588888888888889,7.138400000095366],[-0.34135416666666674,-0.31500000000000006,7.1559000000953645],[-0.34135416666666674,-0.31500000000000006,7.17179999971389],[-0.32843749999999994,-0.30333333333333334,7.188400000095363],[-0.30020833333333335,-0.32,7.2050999999046255],[-0.32000000000000006,-0.3477777777777778,7.222199999809256],[-0.3242708333333333,-0.3581481481481481,7.238799999713898],[-0.3692708333333333,-0.3205555555555556,7.258299999713891],[-0.4345833333333334,-0.2992592592592593,7.275400000095367],[-0.5028125,-0.23074074074074077,7.289999999999999],[-0.5605208333333334,-0.1735185185185185,7.305099999904634],[-0.5469791666666667,-0.10425925925925927,7.321699999809262],[-0.5161458333333333,-0.0742592592592593,7.338400000095369],[-0.48322916666666665,-0.06722222222222224,7.355199999809265],[-0.465625,-0.03185185185185194,7.371699999809259],[-0.43635416666666665,-0.025,7.391299999713887],[-0.4070833333333333,-0.018148148148148063,7.406999999999989],[-0.3423958333333334,-0.02111111111111107,7.422400000095358],[-0.2570833333333333,-0.03888888888888889,7.439799999713891],[-0.1766666666666667,-0.09907407407407408,7.458299999713894],[-0.0984375,-0.1235185185185185,7.475599999904624],[-0.1109375,-0.15611111111111114,7.492199999809266],[-0.13614583333333338,-0.15833333333333333,7.508299999713891],[-0.14635416666666667,-0.1675925925925926,7.5245999999046305],[-0.15656249999999997,-0.17685185185185184,7.538499999999992],[-0.17218749999999997,-0.15111111111111114,7.555099999904634],[-0.15427083333333336,-0.08962962962962959,7.571699999809262],[-0.1252083333333334,-0.0448148148148149,7.588499999999989],[-0.1514583333333333,0.01518518518518527,7.604999999999997],[-0.12854166666666664,0.07185185185185176,7.621699999809259],[-0.10833333333333334,0.13129629629629624,7.6399999999999935],[-0.05447916666666662,0.18592592592592588,7.654999999999994],[0.012083333333333357,0.2101851851851852,7.671699999809256],[0.0703125,0.33499999999999996,7.6906999998092616],[0.13562500000000005,0.4594444444444445,7.7076999998092575],[0.17895833333333327,0.4411111111111112,7.721900000095367],[0.18875000000000006,0.387037037037037,7.738599999904629],[0.20958333333333337,0.34574074074074085,7.758099999904623],[0.25906250000000003,0.247037037037037,7.774999999999999],[0.25833333333333336,0.09518518518518514,7.792099999904629],[0.25833333333333336,0.09518518518518514,7.805199999809254],[0.2493750000000001,-0.06185185185185181,7.821799999713896],[0.24802083333333325,-0.17796296296296302,7.846400000095365],[0.24802083333333325,-0.17796296296296302,7.856599999904624],[0.178125,-0.2627777777777777,7.871699999809259],[0.1256249999999999,-0.3781481481481481,7.888400000095366],[0.06604166666666664,-0.49314814814814817,7.905099999904628],[0.06072916666666662,-0.5042592592592593,7.92199999999999],[0.05541666666666671,-0.5153703703703704,7.938299999713898],[0.05166666666666669,-0.5774074074074075,7.954999999999991],[0.05604166666666662,-0.5790740740740741,7.973099999904626],[0.07770833333333324,-0.4698148148148148,7.988999999999997],[0.09937500000000009,-0.3605555555555555,8.004999999999988],[0.0896874999999999,-0.3472222222222222,8.0225],[0.14854166666666657,-0.36518518518518517,8.038400000095358],[0.1622916666666666,-0.4116666666666667,8.058199999809254],[0.17041666666666658,-0.47092592592592597,8.074699999809262],[0.18333333333333332,-0.4733333333333334,8.089900000095362],[0.1962500000000001,-0.4757407407407407,8.105099999904631],[0.17770833333333325,-0.49129629629629634,8.123199999809266],[0.15916666666666662,-0.5068518518518518,8.138299999713887],[0.13468749999999996,-0.5937037037037037,8.155099999904628],[0.12218749999999995,-0.6653703703703704,8.173199999809263],[0.09135416666666671,-0.7037037037037037,8.189900000095356],[0.06239583333333331,-0.7661111111111111,8.20519999980926],[0.041666666666666664,-0.8142592592592592,8.222599999904624],[0.0265625,-0.8496296296296296,8.238900000095363],[0.0265625,-0.8496296296296296,8.255099999904623],[-0.006979166666666714,-0.9348148148148149,8.271699999809265],[-0.006979166666666714,-0.9348148148148149,8.288400000095358],[-0.04583333333333333,-0.9735185185185186,8.305099999904634],[-0.058749999999999976,-1.017777777777778,8.32719999980926],[-0.058749999999999976,-1.017777777777778,8.33849999999999],[-0.07166666666666661,-1.0620370370370371,8.355099999904631],[-0.07166666666666661,-1.0620370370370371,8.371699999809259],[-0.09427083333333333,-1.108148148148148,8.388400000095366],[-0.09427083333333333,-1.108148148148148,8.404999999999994],[-0.13531249999999997,-1.079074074074074,8.42179999971389],[-0.13531249999999997,-1.079074074074074,8.438400000095363],[-0.14177083333333335,-1.087037037037037,8.454999999999991],[-0.14177083333333335,-1.087037037037037,8.471799999713888],[-0.16239583333333332,-1.1083333333333334,8.488299999713895],[-0.16239583333333332,-1.1083333333333334,8.505099999904623],[-0.2029166666666666,-1.0848148148148147,8.521699999809265],[-0.2029166666666666,-1.0848148148148147,8.538400000095358],[-0.2419791666666666,-1.076851851851852,8.555299999713888],[-0.2419791666666666,-1.076851851851852,8.571799999713896],[-0.2828125,-1.0312962962962962,8.588400000095369],[-0.2828125,-1.0312962962962962,8.605099999904631],[-0.3147916666666667,-1.0357407407407406,8.621699999809259],[-0.3147916666666667,-1.0357407407407406,8.638299999713887],[-0.34572916666666664,-0.9744444444444446,8.655099999904628],[-0.38958333333333334,-0.9440740740740741,8.676900000095365],[-0.4361458333333334,-0.9092592592592592,8.692199999809255],[-0.47625,-0.9648148148148148,8.707599999904623],[-0.5123958333333333,-0.8283333333333334,8.722599999904624],[-0.53625,-0.6544444444444444,8.738299999713895],[-0.4640625,-0.5142592592592592,8.755599999904625],[-0.3953125,-0.3537037037037037,8.773199999809258],[-0.33010416666666664,-0.24092592592592596,8.791099999904624],[-0.29260416666666667,-0.13555555555555554,8.808199999809254],[-0.29260416666666667,-0.13555555555555554,8.821799999713896],[-0.2609375,-0.09722222222222222,8.838400000095369],[-0.21531250000000005,0.015000000000000043,8.857699999809263],[-0.15979166666666664,0.13666666666666658,8.874199999809257],[-0.0936458333333333,0.2681481481481481,8.899799999713899],[-0.0936458333333333,0.2681481481481481,8.906699999809256],[-0.016770833333333356,0.25833333333333336,8.921699999809256],[0.060104166666666715,0.2485185185185186,8.939699999809257],[0.0806250000000001,0.17740740740740732,8.956400000095364],[0.103125,0.1014814814814814,8.973599999904629],[0.15135416666666662,0.07481481481481478,8.992699999809254],[0.22374999999999995,0.05907407407407403,9.009499999999996],[0.27312500000000006,0.07370370370370362,9.025199999809267],[0.3341666666666666,0.01703703703703712,9.040099999904633],[0.3793750000000001,-0.01722222222222214,9.057599999904632],[0.4273958333333333,-0.05259259259259255,9.072499999999998],[0.43624999999999997,-0.1287037037037037,9.088400000095369],[0.4306250000000001,-0.1809259259259259,9.107499999999995],[0.4397916666666667,-0.1881481481481482,9.122199999809261],[0.4357291666666666,-0.21722222222222223,9.138400000095366],[0.42374999999999996,-0.2742592592592593,9.155299999713897],[0.4117708333333333,-0.33129629629629626,9.172099999904624],[0.3931250000000001,-0.3757407407407407,9.188400000095363],[0.36177083333333326,-0.3918518518518519,9.204999999999991],[0.3993750000000001,-0.40018518518518525,9.221699999809267],[0.4235416666666666,-0.4172222222222222,9.238299999713895]]","[0.000299999713902821,0.05219999980926815,0.07609999990463479,0.08459999990463274,0.11040000009536755,0.11969999980927071,0.1441999998092669,0.15190000009536675,0.177500000000002,0.1847999997139027,0.21069999980926468,0.21829999971389924,0.24540000009537266,0.254799999713903,0.2779000000953715,0.2852999997138994,0.3074000000953703,0.315099999904632,0.3407999997139015,0.3477999997138994,0.3741999998092709,0.38190000009537073,0.407199999809265,0.4144000000953696,0.44029999971390055,0.4475000000000051,0.4736999998092699,0.4809000000953674,0.5071999998092664,0.514799999713901,0.5405999999046358,0.547699999809268,0.5741999998092666,0.5830999999046327,0.6062999997138974,0.6164000000953678,0.640500000000003,0.6472999997139013,0.6736999998092656,0.6812999997139002,0.7075000000000031,0.7154000000953715,0.7405000000000044,0.7475999999046365,0.7725999999046351,0.7799000000953669,0.8080999999046341,0.8179000000953707,0.840599999904633,0.8489000000953695,0.8737999997139028,0.8809000000953731,0.9060000000000059,0.9149999999999991,0.9410999999046368,0.9486999998092642,0.9747999997139019,0.9825000000000017,1.007799999713903,1.015900000095371,1.04069999980927,1.0504999999999995,1.073900000095371,1.0815000000000055,1.1070999999046336,1.115000000000002,1.1404000000953687,1.1481999998092647,1.1724999999999994,1.1802999997139025,1.2074000000953689,1.2150999999046377,1.2405000000000044,1.2484000000953728,1.2725999999046351,1.2809000000953716,1.307699999809266,1.3160000000000025,1.3425999999046354,1.3500999999046357,1.3749000000953728,1.3839000000953732,1.4080999999046355,1.416400000095372,1.4490999999046323,1.4570000000000007,1.4717999997139017,1.4905000000000044,1.5050999999046368,1.521799999713899,1.538499999999999,1.5579999999999998,1.574699999809269,1.5885000000000034,1.6052999997138997,1.6240000000000023,1.6385000000000005,1.655699999809265,1.6750000000000043,1.6899000000953706,1.7050999999046326,1.7250000000000014,1.741099999904634,1.7576999998092688,1.776299999713899,1.7885999999046334,1.8052999997139025,1.8264000000953686,1.8385000000000034,1.8551999998092654,1.8717999997139003,1.8885000000000005,1.9107999997139018,1.9217999997138975,1.9385000000000048,1.9551999998092668,1.9744000000953719,1.9914000000953678,2.005500000000005,2.023699999809267,2.03919999980927,2.0551999998092683,2.0756999998092667,2.088699999809265,2.106900000095372,2.1440999999046326,2.151199999809265,2.1799000000953725,2.186799999713898,2.1945999999046393,2.225900000095365,2.233299999713907,2.2611999998092642,2.272199999809274,2.2885999999046334,2.311000000000007,2.321799999713903,2.3384999999999962,2.359499999999997,2.377599999904632,2.3885000000000076,2.4051999998092697,2.4217999997138975,2.4384000000953705,2.455199999809267,2.4717999997138946,2.4909999999999997,2.5050999999046297,2.5220000000000056,2.538400000095365,2.555199999809261,2.5736999998092642,2.591000000000008,2.6051999998092725,2.622,2.6384000000953733,2.6589000000953718,2.674299999713895,2.688599999904639,2.7050999999046326,2.721900000095374,2.7394000000953724,2.7554000000953636,2.772299999713894,2.804799999713893,2.822099999904637,2.833900000095369,2.8384999999999962,2.8550999999046383,2.8717999997139003,2.8884000000953733,2.9050999999046354,2.9217999997138975,2.9384000000953705,2.9550999999046326,2.9739000000953695,2.989199999809273,3.0050999999046297,3.0216999998092717,3.038400000095365,3.055099999904641,3.0721999998092713,3.0884999999999962,3.1050999999046383,3.1219000000953656,3.1384000000953733,3.1551999998092697,3.1717999997138975,3.1885000000000048,3.2050999999046326,3.2220000000000084,3.2390999999046386,3.255599999904632,3.2760999999046305,3.29219999980927,3.3082999997138955,3.326900000095364,3.341699999809265,3.3560000000000088,3.3749000000953657,3.390099999904635,3.4051999998092697,3.4252999997139,3.439000000000007,3.4550999999046326,3.4717999997138946,3.4884000000953677,3.5050999999046297,3.521799999713906,3.538499999999999,3.555099999904641,3.571799999713903,3.588400000095376,3.6050999999046383,3.6217999997139003,3.6385000000000076,3.655699999809272,3.6720999999046313,3.6885000000000048,3.705199999809267,3.7217999997138946,3.7384000000953677,3.7550999999046297,3.774400000095369,3.789599999904638,3.805199999809261,3.821799999713903,3.842400000095367,3.8550999999046383,3.8719000000953656,3.8885000000000076,3.9050999999046354,3.9217999997138975,3.9385000000000048,3.9550999999046326,3.974099999904638,3.9907999997139,4.00509999990463,4.021799999713906,4.038499999999999,4.056900000095368,4.074400000095366,4.088799999713899,4.105099999904638,4.1217999997139,4.138400000095373,4.158599999904638,4.175099999904631,4.190900000095368,4.205099999904633,4.224299999713907,4.238500000000002,4.25509999990463,4.275500000000008,4.288400000095365,4.305099999904641,4.326400000095376,4.338900000095364,4.355099999904638,4.374000000000009,4.388500000000008,4.405099999904635,4.4217999997138975,4.4435999999046345,4.460199999809262,4.471799999713895,4.488400000095368,4.50509999990463,4.521699999809272,4.538400000095365,4.555099999904641,4.573400000095376,4.594299999713897,4.609699999809266,4.625599999904637,4.6414000000953735,4.65909999990464,4.6761999998092705,4.692400000095375,4.711500000000001,4.721900000095374,4.738799999713905,4.757500000000007,4.77719999980927,4.788699999809268,4.805400000095375,4.824599999904635,4.849400000095372,4.856599999904631,4.872,4.888500000000008,4.9106999998092675,4.921900000095363,4.938599999904639,4.957099999904628,4.977400000095372,4.99190000009537,5.005599999904632,5.024500000000003,5.042099999904636,5.058900000095363,5.0719000000953685,5.088499999999996,5.105099999904638,5.121699999809266,5.138400000095373,5.155099999904635,5.175199999809266,5.188599999904639,5.2084000000953665,5.22669999980927,5.241500000000002,5.256799999713905,5.2734999999999985,5.290900000095377,5.305299999713895,5.321799999713903,5.338400000095376,5.355000000000004,5.372099999904634,5.391000000000005,5.4055000000000035,5.421699999809263,5.4384000000953705,5.45659999990464,5.4750000000000085,5.490900000095365,5.50509999990463,5.521799999713906,5.538400000095365,5.555799999713898,5.574400000095366,5.589799999713904,5.605099999904638,5.623199999809273,5.638500000000008,5.655099999904635,5.674999999999997,5.6924999999999955,5.708199999809267,5.724299999713907,5.738799999713905,5.755599999904632,5.774299999713904,5.796500000000009,5.805099999904641,5.8219000000953685,5.843299999713906,5.855000000000004,5.874699999809266,5.891299999713894,5.906699999809263,5.9217999997138975,5.942999999999998,5.964199999809267,5.9720999999046285,5.988599999904636,6.009199999809269,6.025799999713897,6.040699999809263,6.055299999713895,6.075400000095371,6.091699999809258,6.106799999713893,6.122299999713896,6.1410999999046325,6.157099999904624,6.175099999904624,6.1939999999999955,6.20609999990463,6.224699999809253,6.238599999904629,6.257900000095368,6.272999999999989,6.288499999999992,6.309699999809261,6.321900000095361,6.338599999904623,6.355199999809265,6.375299999713896,6.388599999904635,6.405199999809263,6.421900000095356,6.441799999713886,6.45519999980926,6.472900000095358,6.493199999809256,6.505199999809257,6.5219999999999985,6.53890000009536,6.558,6.574999999999996,6.590900000095367,6.608499999999999,6.623599999904634,6.638699999809255,6.655299999713897,6.674299999713888,6.689400000095368,6.705400000095359,6.7216999998092675,6.7384000000953606,6.755099999904623,6.774799999713899,6.788599999904626,6.805099999904634,6.821799999713896,6.838400000095369,6.858099999904631,6.873199999809266,6.888699999809255,6.904999999999994,6.922499999999992,6.938299999713898,6.955499999999994,6.9717999997138875,6.9890999999046315,7.005099999904623,7.021799999713899,7.038400000095358,7.055099999904634,7.071999999999996,7.088699999809258,7.105099999904631,7.121699999809259,7.138400000095366,7.1559000000953645,7.17179999971389,7.188400000095363,7.2050999999046255,7.222199999809256,7.238799999713898,7.258299999713891,7.275400000095367,7.289999999999999,7.305099999904634,7.321699999809262,7.338400000095369,7.355199999809265,7.371699999809259,7.391299999713887,7.406999999999989,7.422400000095358,7.439799999713891,7.458299999713894,7.475599999904624,7.492199999809266,7.508299999713891,7.5245999999046305,7.538499999999992,7.555099999904634,7.571699999809262,7.588499999999989,7.604999999999997,7.621699999809259,7.6399999999999935,7.654999999999994,7.671699999809256,7.6906999998092616,7.7076999998092575,7.721900000095367,7.738599999904629,7.758099999904623,7.774999999999999,7.792099999904629,7.805199999809254,7.821799999713896,7.846400000095365,7.856599999904624,7.871699999809259,7.888400000095366,7.905099999904628,7.92199999999999,7.938299999713898,7.954999999999991,7.973099999904626,7.988999999999997,8.004999999999988,8.0225,8.038400000095358,8.058199999809254,8.074699999809262,8.089900000095362,8.105099999904631,8.123199999809266,8.138299999713887,8.155099999904628,8.173199999809263,8.189900000095356,8.20519999980926,8.222599999904624,8.238900000095363,8.255099999904623,8.271699999809265,8.288400000095358,8.305099999904634,8.32719999980926,8.33849999999999,8.355099999904631,8.371699999809259,8.388400000095366,8.404999999999994,8.42179999971389,8.438400000095363,8.454999999999991,8.471799999713888,8.488299999713895,8.505099999904623,8.521699999809265,8.538400000095358,8.555299999713888,8.571799999713896,8.588400000095369,8.605099999904631,8.621699999809259,8.638299999713887,8.655099999904628,8.676900000095365,8.692199999809255,8.707599999904623,8.722599999904624,8.738299999713895,8.755599999904625,8.773199999809258,8.791099999904624,8.808199999809254,8.821799999713896,8.838400000095369,8.857699999809263,8.874199999809257,8.899799999713899,8.906699999809256,8.921699999809256,8.939699999809257,8.956400000095364,8.973599999904629,8.992699999809254,9.009499999999996,9.025199999809267,9.040099999904633,9.057599999904632,9.072499999999998,9.088400000095369,9.107499999999995,9.122199999809261,9.138400000095366,9.155299999713897,9.172099999904624,9.188400000095363,9.204999999999991,9.221699999809267,9.238299999713895]","[1731997277739,1731997277781,1731997277805,1731997277814,1731997277840,1731997277849,1731997277873,1731997277881,1731997277907,1731997277914,1731997277940,1731997277947,1731997277975,1731997277984,1731997278007,1731997278014,1731997278037,1731997278044,1731997278070,1731997278077,1731997278103,1731997278111,1731997278136,1731997278144,1731997278169,1731997278177,1731997278203,1731997278210,1731997278236,1731997278244,1731997278270,1731997278277,1731997278303,1731997278312,1731997278335,1731997278345,1731997278370,1731997278376,1731997278403,1731997278410,1731997278437,1731997278445,1731997278470,1731997278477,1731997278502,1731997278509,1731997278537,1731997278547,1731997278570,1731997278578,1731997278603,1731997278610,1731997278635,1731997278644,1731997278670,1731997278678,1731997278704,1731997278712,1731997278737,1731997278745,1731997278770,1731997278780,1731997278803,1731997278811,1731997278836,1731997278844,1731997278870,1731997278877,1731997278902,1731997278910,1731997278937,1731997278944,1731997278970,1731997278978,1731997279002,1731997279010,1731997279037,1731997279045,1731997279072,1731997279079,1731997279104,1731997279113,1731997279137,1731997279146,1731997279178,1731997279186,1731997279201,1731997279220,1731997279234,1731997279251,1731997279268,1731997279287,1731997279304,1731997279318,1731997279334,1731997279353,1731997279368,1731997279385,1731997279404,1731997279419,1731997279434,1731997279454,1731997279470,1731997279487,1731997279505,1731997279518,1731997279534,1731997279555,1731997279568,1731997279584,1731997279601,1731997279618,1731997279640,1731997279651,1731997279668,1731997279684,1731997279704,1731997279721,1731997279735,1731997279753,1731997279768,1731997279784,1731997279805,1731997279818,1731997279836,1731997279873,1731997279880,1731997279909,1731997279916,1731997279924,1731997279955,1731997279962,1731997279990,1731997280001,1731997280018,1731997280040,1731997280051,1731997280068,1731997280089,1731997280107,1731997280118,1731997280134,1731997280151,1731997280168,1731997280184,1731997280201,1731997280220,1731997280234,1731997280251,1731997280268,1731997280284,1731997280303,1731997280320,1731997280334,1731997280351,1731997280368,1731997280388,1731997280403,1731997280418,1731997280434,1731997280451,1731997280469,1731997280485,1731997280501,1731997280534,1731997280551,1731997280563,1731997280568,1731997280584,1731997280601,1731997280618,1731997280634,1731997280651,1731997280668,1731997280684,1731997280703,1731997280718,1731997280734,1731997280751,1731997280768,1731997280784,1731997280801,1731997280818,1731997280834,1731997280851,1731997280868,1731997280884,1731997280901,1731997280918,1731997280934,1731997280951,1731997280968,1731997280985,1731997281005,1731997281021,1731997281037,1731997281056,1731997281071,1731997281085,1731997281104,1731997281119,1731997281134,1731997281154,1731997281168,1731997281184,1731997281201,1731997281218,1731997281234,1731997281251,1731997281268,1731997281284,1731997281301,1731997281318,1731997281334,1731997281351,1731997281368,1731997281385,1731997281401,1731997281418,1731997281434,1731997281451,1731997281468,1731997281484,1731997281504,1731997281519,1731997281534,1731997281551,1731997281572,1731997281584,1731997281601,1731997281618,1731997281634,1731997281651,1731997281668,1731997281684,1731997281703,1731997281720,1731997281734,1731997281751,1731997281768,1731997281786,1731997281804,1731997281818,1731997281834,1731997281851,1731997281868,1731997281888,1731997281904,1731997281920,1731997281934,1731997281953,1731997281968,1731997281984,1731997282005,1731997282018,1731997282034,1731997282056,1731997282068,1731997282084,1731997282103,1731997282118,1731997282134,1731997282151,1731997282173,1731997282189,1731997282201,1731997282218,1731997282234,1731997282251,1731997282268,1731997282284,1731997282303,1731997282323,1731997282339,1731997282355,1731997282371,1731997282388,1731997282405,1731997282422,1731997282441,1731997282451,1731997282468,1731997282487,1731997282506,1731997282518,1731997282535,1731997282554,1731997282579,1731997282586,1731997282601,1731997282618,1731997282640,1731997282651,1731997282668,1731997282686,1731997282706,1731997282721,1731997282735,1731997282754,1731997282771,1731997282788,1731997282801,1731997282818,1731997282834,1731997282851,1731997282868,1731997282884,1731997282904,1731997282918,1731997282938,1731997282956,1731997282971,1731997282986,1731997283003,1731997283020,1731997283034,1731997283051,1731997283068,1731997283084,1731997283101,1731997283120,1731997283135,1731997283151,1731997283168,1731997283186,1731997283204,1731997283220,1731997283234,1731997283251,1731997283268,1731997283285,1731997283304,1731997283319,1731997283334,1731997283352,1731997283368,1731997283384,1731997283404,1731997283422,1731997283437,1731997283453,1731997283468,1731997283485,1731997283503,1731997283526,1731997283534,1731997283551,1731997283572,1731997283584,1731997283604,1731997283620,1731997283636,1731997283651,1731997283672,1731997283693,1731997283701,1731997283718,1731997283738,1731997283755,1731997283770,1731997283784,1731997283805,1731997283821,1731997283836,1731997283851,1731997283870,1731997283886,1731997283904,1731997283923,1731997283935,1731997283954,1731997283968,1731997283987,1731997284002,1731997284018,1731997284039,1731997284051,1731997284068,1731997284084,1731997284104,1731997284118,1731997284134,1731997284151,1731997284171,1731997284184,1731997284202,1731997284222,1731997284234,1731997284251,1731997284268,1731997284287,1731997284304,1731997284320,1731997284338,1731997284353,1731997284368,1731997284384,1731997284403,1731997284419,1731997284434,1731997284451,1731997284468,1731997284484,1731997284504,1731997284518,1731997284534,1731997284551,1731997284568,1731997284587,1731997284602,1731997284618,1731997284634,1731997284652,1731997284667,1731997284685,1731997284701,1731997284718,1731997284734,1731997284751,1731997284768,1731997284784,1731997284801,1731997284818,1731997284834,1731997284851,1731997284868,1731997284885,1731997284901,1731997284918,1731997284934,1731997284951,1731997284968,1731997284987,1731997285004,1731997285019,1731997285034,1731997285051,1731997285068,1731997285084,1731997285101,1731997285121,1731997285136,1731997285152,1731997285169,1731997285187,1731997285205,1731997285221,1731997285237,1731997285254,1731997285268,1731997285284,1731997285301,1731997285318,1731997285334,1731997285351,1731997285369,1731997285384,1731997285401,1731997285420,1731997285437,1731997285451,1731997285468,1731997285487,1731997285504,1731997285521,1731997285534,1731997285551,1731997285576,1731997285586,1731997285601,1731997285617,1731997285634,1731997285651,1731997285667,1731997285684,1731997