inst1_resp.keys,inst1_resp.rt,calibrationMouse.x,calibrationMouse.y,calibrationMouse.leftButton,calibrationMouse.midButton,calibrationMouse.rightButton,calibrationClick.x,calibrationClick.y,calibrationClick.leftButton,calibrationClick.midButton,calibrationClick.rightButton,trialsc.thisRepN,trialsc.thisTrialN,trialsc.thisN,trialsc.thisIndex,trialsc.ran,calibration_x,calibration_y,participant,session,date,expName,psychopyVersion,OS,frameRate,calibrationClick.clicked_name,ScreenRes_pixels,Camera_pixels,mouse_2.x,mouse_2.y,mouse_2.leftButton,mouse_2.midButton,mouse_2.rightButton,mouse_2.time,mouse_2.clicked_name,mouse.x,mouse.y,mouse.leftButton,mouse.midButton,mouse.rightButton,mouse.time,mouse.clicked_name,Choice,Trial,TrialDuration,MOUSE_GAZE,ET_GAZE,ET_GAZE_x_T,time,unixTime,ET_GAZE_NF,Loc_Bus_label,Loc_Metro_label,Loc_RH_label,Loc_Cost_label,Loc_Travel_label,Loc_Comfort_label,Loc_Bus_cost,Loc_Metro_cost,Loc_RH_cost,Loc_Bus_travel,Loc_Metro_travel,Loc_RH_travel,Loc_Bus_comfort,Loc_Metro_comfort,Loc_RH_comfort,trials.thisRepN,trials.thisTrialN,trials.thisN,trials.thisIndex,trials.ran,Block,Device,RH_cost,RH_travel_time,RH_Comfort,metro_cost,metro_travel_time,metro_Comfort,Bus_cost,Bus_travel_time,Bus_Comfort
space,1.7807,0.025,0.07962963,1,0,0,0.648958333,0.681481481,0,0,0,0,0,0,19,1,0.67,0.67,42,001,2024-11-20_12h08.23.661,Attention_exp_legacy,2023.1.0,Win32,59.88023952,,,,,,,,,,,,,,,,,,,,,,,,,,,,,,,,,,,,,,,,,,,,,,,,,,,,,,,,,
,,,,,,,0.334375,0.007407407,1,0,0,0,1,1,16,1,0.33,0,42,001,2024-11-20_12h08.23.661,Attention_exp_legacy,2023.1.0,Win32,59.88023952,calibration_square,,,,,,,,,,,,,,,,,,,,,,,,,,,,,,,,,,,,,,,,,,,,,,,,,,,,,,,,
,,,,,,,0.332291667,0.337037037,1,0,0,0,2,2,17,1,0.33,0.33,42,001,2024-11-20_12h08.23.661,Attention_exp_legacy,2023.1.0,Win32,59.88023952,calibration_square,,,,,,,,,,,,,,,,,,,,,,,,,,,,,,,,,,,,,,,,,,,,,,,,,,,,,,,,
,,,,,,,-0.004166667,-0.331481481,1,0,0,0,3,3,10,1,0,-0.33,42,001,2024-11-20_12h08.23.661,Attention_exp_legacy,2023.1.0,Win32,59.88023952,calibration_square,,,,,,,,,,,,,,,,,,,,,,,,,,,,,,,,,,,,,,,,,,,,,,,,,,,,,,,,
,,,,,,,-0.002083333,0.672222222,1,0,0,0,4,4,13,1,0,0.67,42,001,2024-11-20_12h08.23.661,Attention_exp_legacy,2023.1.0,Win32,59.88023952,calibration_square,,,,,,,,,,,,,,,,,,,,,,,,,,,,,,,,,,,,,,,,,,,,,,,,,,,,,,,,
,,,,,,,-0.328125,0,1,0,0,0,5,5,6,1,-0.33,0,42,001,2024-11-20_12h08.23.661,Attention_exp_legacy,2023.1.0,Win32,59.88023952,calibration_square,,,,,,,,,,,,,,,,,,,,,,,,,,,,,,,,,,,,,,,,,,,,,,,,,,,,,,,,
,,,,,,,-0.002083333,-0.664814815,1,0,0,0,6,6,9,1,0,-0.67,42,001,2024-11-20_12h08.23.661,Attention_exp_legacy,2023.1.0,Win32,59.88023952,calibration_square,,,,,,,,,,,,,,,,,,,,,,,,,,,,,,,,,,,,,,,,,,,,,,,,,,,,,,,,
,,,,,,,0.00625,0.338888889,1,0,0,0,7,7,12,1,0,0.33,42,001,2024-11-20_12h08.23.661,Attention_exp_legacy,2023.1.0,Win32,59.88023952,calibration_square,,,,,,,,,,,,,,,,,,,,,,,,,,,,,,,,,,,,,,,,,,,,,,,,,,,,,,,,
,,,,,,,-0.671875,-0.675925926,1,0,0,0,8,8,0,1,-0.67,-0.67,42,001,2024-11-20_12h08.23.661,Attention_exp_legacy,2023.1.0,Win32,59.88023952,calibration_square,,,,,,,,,,,,,,,,,,,,,,,,,,,,,,,,,,,,,,,,,,,,,,,,,,,,,,,,
,,,,,,,-0.666666667,0.001851852,1,0,0,0,9,9,2,1,-0.67,0,42,001,2024-11-20_12h08.23.661,Attention_exp_legacy,2023.1.0,Win32,59.88023952,calibration_square,,,,,,,,,,,,,,,,,,,,,,,,,,,,,,,,,,,,,,,,,,,,,,,,,,,,,,,,
,,,,,,,-0.6625,0.324074074,1,0,0,0,10,10,3,1,-0.67,0.33,42,001,2024-11-20_12h08.23.661,Attention_exp_legacy,2023.1.0,Win32,59.88023952,calibration_square,,,,,,,,,,,,,,,,,,,,,,,,,,,,,,,,,,,,,,,,,,,,,,,,,,,,,,,,
,,,,,,,-0.329166667,0.338888889,1,0,0,0,11,11,7,1,-0.33,0.33,42,001,2024-11-20_12h08.23.661,Attention_exp_legacy,2023.1.0,Win32,59.88023952,calibration_square,,,,,,,,,,,,,,,,,,,,,,,,,,,,,,,,,,,,,,,,,,,,,,,,,,,,,,,,
,,,,,,,0.658333333,-0.661111111,1,0,0,0,12,12,20,1,0.67,-0.67,42,001,2024-11-20_12h08.23.661,Attention_exp_legacy,2023.1.0,Win32,59.88023952,,,,,,,,,,,,,,,,,,,,,,,,,,,,,,,,,,,,,,,,,,,,,,,,,,,,,,,,,
,,,,,,,-0.329166667,-0.327777778,1,0,0,0,13,13,5,1,-0.33,-0.33,42,001,2024-11-20_12h08.23.661,Attention_exp_legacy,2023.1.0,Win32,59.88023952,calibration_square,,,,,,,,,,,,,,,,,,,,,,,,,,,,,,,,,,,,,,,,,,,,,,,,,,,,,,,,
,,,,,,,0.317708333,-0.661111111,1,0,0,0,14,14,14,1,0.33,-0.67,42,001,2024-11-20_12h08.23.661,Attention_exp_legacy,2023.1.0,Win32,59.88023952,,,,,,,,,,,,,,,,,,,,,,,,,,,,,,,,,,,,,,,,,,,,,,,,,,,,,,,,,
,,,,,,,-0.679166667,-0.32962963,1,0,0,0,15,15,1,1,-0.67,-0.33,42,001,2024-11-20_12h08.23.661,Attention_exp_legacy,2023.1.0,Win32,59.88023952,calibration_square,,,,,,,,,,,,,,,,,,,,,,,,,,,,,,,,,,,,,,,,,,,,,,,,,,,,,,,,
,,,,,,,-0.004166667,-0.005555556,1,0,0,0,16,16,11,1,0,0,42,001,2024-11-20_12h08.23.661,Attention_exp_legacy,2023.1.0,Win32,59.88023952,calibration_square,,,,,,,,,,,,,,,,,,,,,,,,,,,,,,,,,,,,,,,,,,,,,,,,,,,,,,,,
,,,,,,,-0.335416667,0.666666667,1,0,0,0,17,17,8,1,-0.33,0.67,42,001,2024-11-20_12h08.23.661,Attention_exp_legacy,2023.1.0,Win32,59.88023952,calibration_square,,,,,,,,,,,,,,,,,,,,,,,,,,,,,,,,,,,,,,,,,,,,,,,,,,,,,,,,
,,,,,,,-0.332291667,-0.668518519,1,0,0,0,18,18,4,1,-0.33,-0.67,42,001,2024-11-20_12h08.23.661,Attention_exp_legacy,2023.1.0,Win32,59.88023952,calibration_square,,,,,,,,,,,,,,,,,,,,,,,,,,,,,,,,,,,,,,,,,,,,,,,,,,,,,,,,
,,,,,,,0.319791667,0.681481481,1,0,0,0,19,19,18,1,0.33,0.67,42,001,2024-11-20_12h08.23.661,Attention_exp_legacy,2023.1.0,Win32,59.88023952,,,,,,,,,,,,,,,,,,,,,,,,,,,,,,,,,,,,,,,,,,,,,,,,,,,,,,,,,
,,,,,,,0.325,-0.331481481,1,0,0,0,20,20,15,1,0.33,-0.33,42,001,2024-11-20_12h08.23.661,Attention_exp_legacy,2023.1.0,Win32,59.88023952,calibration_square,,,,,,,,,,,,,,,,,,,,,,,,,,,,,,,,,,,,,,,,,,,,,,,,,,,,,,,,
,,,,,,,,,,,,,,,,,,,42,001,2024-11-20_12h08.23.661,Attention_exp_legacy,2023.1.0,Win32,59.88023952,,"[1920,1080]","[640,480]",[0.040625],[-0.5314814814814814],[1],[0],[0],[2.646400000095362],"[""StartButton""]",[0.057291666666666664],[0.17962962962962964],[1],[0],[0],[2.4680000000000035],"[""Metro_label""]",Metro_label,1,3.494,"[[0.10520833333333333,-0.22777777777777777],[0.10520833333333333,-0.22777777777777777],[0.10520833333333333,-0.22777777777777777],[0.10520833333333333,-0.22777777777777777],[0.10520833333333333,-0.22777777777777777],[0.10520833333333333,-0.22777777777777777],[0.10520833333333333,-0.22777777777777777],[0.10520833333333333,-0.22777777777777777],[0.10520833333333333,-0.22777777777777777],[0.10520833333333333,-0.22777777777777777],[0.10520833333333333,-0.22777777777777777],[0.10520833333333333,-0.22777777777777777],[0.10520833333333333,-0.22777777777777777],[0.10520833333333333,-0.22777777777777777],[0.10520833333333333,-0.22777777777777777],[0.10520833333333333,-0.22777777777777777],[0.10520833333333333,-0.22777777777777777],[0.10520833333333333,-0.22777777777777777],[0.10520833333333333,-0.22777777777777777],[0.10520833333333333,-0.22777777777777777],[0.10520833333333333,-0.22777777777777777],[0.10416666666666667,-0.21851851851851853],[0.103125,-0.21296296296296297],[0.10208333333333333,-0.20185185185185187],[0.1,-0.1925925925925926],[0.09895833333333333,-0.18703703703703703],[0.09791666666666667,-0.1814814814814815],[0.09791666666666667,-0.17592592592592593],[0.09583333333333334,-0.1685185185185185],[0.09479166666666666,-0.16296296296296298],[0.09375,-0.15185185185185185],[0.09166666666666666,-0.14074074074074075],[0.08958333333333333,-0.13148148148148148],[0.08854166666666667,-0.12407407407407407],[0.08645833333333333,-0.11481481481481481],[0.08541666666666667,-0.10555555555555556],[0.084375,-0.10185185185185185],[0.08333333333333333,-0.09259259259259259],[0.08333333333333333,-0.08703703703703704],[0.08020833333333334,-0.07777777777777778],[0.08020833333333334,-0.07407407407407407],[0.07916666666666666,-0.06851851851851852],[0.07916666666666666,-0.06111111111111111],[0.07708333333333334,-0.05740740740740741],[0.07604166666666666,-0.05],[0.075,-0.04259259259259259],[0.07291666666666667,-0.037037037037037035],[0.071875,-0.03148148148148148],[0.07083333333333333,-0.027777777777777776],[0.06875,-0.022222222222222223],[0.06666666666666667,-0.014814814814814815],[0.065625,-0.009259259259259259],[0.06354166666666666,-0.001851851851851852],[0.06145833333333333,0.005555555555555556],[0.06145833333333333,0.011111111111111112],[0.058333333333333334,0.020370370370370372],[0.057291666666666664,0.03148148148148148],[0.05416666666666667,0.04259259259259259],[0.05416666666666667,0.05185185185185185],[0.053125,0.06296296296296296],[0.052083333333333336,0.07037037037037037],[0.051041666666666666,0.08703703703703704],[0.05,0.09259259259259259],[0.05,0.1037037037037037],[0.04895833333333333,0.11296296296296296],[0.04895833333333333,0.11851851851851852],[0.04895833333333333,0.1259259259259259],[0.04895833333333333,0.12962962962962962],[0.04895833333333333,0.13333333333333333],[0.04895833333333333,0.13703703703703704],[0.04895833333333333,0.1388888888888889],[0.04895833333333333,0.1388888888888889],[0.04895833333333333,0.1425925925925926],[0.04895833333333333,0.14444444444444443],[0.04895833333333333,0.14814814814814814],[0.05,0.15185185185185185],[0.051041666666666666,0.15555555555555556],[0.053125,0.16296296296296298],[0.05416666666666667,0.16666666666666666],[0.05520833333333333,0.17037037037037037],[0.05625,0.17407407407407408],[0.057291666666666664,0.17592592592592593],[0.057291666666666664,0.17592592592592593],[0.057291666666666664,0.17777777777777778],[0.057291666666666664,0.17777777777777778],[0.057291666666666664,0.17777777777777778],[0.057291666666666664,0.17777777777777778],[0.057291666666666664,0.17777777777777778],[0.057291666666666664,0.17777777777777778],[0.057291666666666664,0.17777777777777778],[0.057291666666666664,0.17777777777777778],[0.057291666666666664,0.17777777777777778],[0.057291666666666664,0.17777777777777778],[0.057291666666666664,0.17777777777777778],[0.057291666666666664,0.17777777777777778],[0.057291666666666664,0.17777777777777778],[0.057291666666666664,0.17777777777777778],[0.057291666666666664,0.17777777777777778],[0.057291666666666664,0.17962962962962964],[0.057291666666666664,0.17962962962962964],[0.057291666666666664,0.17962962962962964],[0.057291666666666664,0.17962962962962964],[0.057291666666666664,0.17962962962962964],[0.057291666666666664,0.17962962962962964],[0.057291666666666664,0.17962962962962964],[0.057291666666666664,0.17962962962962964],[0.057291666666666664,0.17962962962962964],[0.057291666666666664,0.17962962962962964],[0.057291666666666664,0.17962962962962964],[0.057291666666666664,0.17962962962962964],[0.057291666666666664,0.17962962962962964],[0.057291666666666664,0.17962962962962964],[0.057291666666666664,0.17962962962962964],[0.057291666666666664,0.17962962962962964],[0.057291666666666664,0.17962962962962964],[0.057291666666666664,0.17962962962962964],[0.057291666666666664,0.17962962962962964],[0.057291666666666664,0.17962962962962964],[0.057291666666666664,0.17962962962962964],[0.057291666666666664,0.17962962962962964],[0.057291666666666664,0.17962962962962964],[0.057291666666666664,0.17962962962962964],[0.057291666666666664,0.17962962962962964],[0.057291666666666664,0.17962962962962964],[0.057291666666666664,0.17962962962962964],[0.057291666666666664,0.17962962962962964],[0.057291666666666664,0.17962962962962964],[0.057291666666666664,0.17962962962962964],[0.057291666666666664,0.17962962962962964],[0.057291666666666664,0.17962962962962964],[0.057291666666666664,0.17962962962962964],[0.057291666666666664,0.17962962962962964],[0.057291666666666664,0.17962962962962964],[0.057291666666666664,0.17962962962962964],[0.057291666666666664,0.17962962962962964],[0.057291666666666664,0.17962962962962964],[0.057291666666666664,0.17962962962962964],[0.057291666666666664,0.17962962962962964],[0.057291666666666664,0.17962962962962964],[0.057291666666666664,0.17962962962962964],[0.057291666666666664,0.17962962962962964],[0.057291666666666664,0.17962962962962964],[0.057291666666666664,0.17962962962962964],[0.057291666666666664,0.17962962962962964],[0.057291666666666664,0.17962962962962964],[0.057291666666666664,0.17962962962962964],[0.057291666666666664,0.17962962962962964],[0.057291666666666664,0.17962962962962964],[0.057291666666666664,0.17962962962962964],[0.057291666666666664,0.17962962962962964],[0.057291666666666664,0.17962962962962964],[0.057291666666666664,0.17962962962962964],[0.057291666666666664,0.17962962962962964],[0.057291666666666664,0.17962962962962964],[0.057291666666666664,0.17962962962962964],[0.057291666666666664,0.17962962962962964],[0.057291666666666664,0.17962962962962964],[0.057291666666666664,0.17962962962962964],[0.057291666666666664,0.17962962962962964],[0.057291666666666664,0.17962962962962964],[0.057291666666666664,0.17962962962962964],[0.057291666666666664,0.17962962962962964],[0.057291666666666664,0.17962962962962964],[0.057291666666666664,0.17962962962962964],[0.057291666666666664,0.17962962962962964],[0.057291666666666664,0.17962962962962964],[0.057291666666666664,0.17962962962962964],[0.057291666666666664,0.17962962962962964],[0.057291666666666664,0.17962962962962964],[0.057291666666666664,0.17962962962962964],[0.057291666666666664,0.17962962962962964],[0.057291666666666664,0.17962962962962964],[0.057291666666666664,0.17962962962962964],[0.057291666666666664,0.17962962962962964],[0.057291666666666664,0.17962962962962964],[0.057291666666666664,0.17962962962962964],[0.057291666666666664,0.17962962962962964],[0.057291666666666664,0.17962962962962964],[0.057291666666666664,0.17962962962962964],[0.057291666666666664,0.17962962962962964],[0.057291666666666664,0.17962962962962964],[0.057291666666666664,0.17962962962962964],[0.057291666666666664,0.17962962962962964],[0.057291666666666664,0.17962962962962964],[0.057291666666666664,0.17962962962962964],[0.057291666666666664,0.17962962962962964],[0.057291666666666664,0.17962962962962964],[0.057291666666666664,0.17962962962962964],[0.057291666666666664,0.17962962962962964],[0.057291666666666664,0.17962962962962964],[0.057291666666666664,0.17962962962962964],[0.057291666666666664,0.17962962962962964],[0.057291666666666664,0.17962962962962964],[0.057291666666666664,0.17962962962962964],[0.057291666666666664,0.17962962962962964],[0.057291666666666664,0.17962962962962964],[0.057291666666666664,0.17962962962962964],[0.057291666666666664,0.17962962962962964],[0.057291666666666664,0.17962962962962964],[0.057291666666666664,0.17962962962962964],[0.057291666666666664,0.17962962962962964],[0.057291666666666664,0.17962962962962964],[0.057291666666666664,0.17962962962962964],[0.057291666666666664,0.17962962962962964],[0.057291666666666664,0.17962962962962964],[0.057291666666666664,0.17962962962962964],[0.057291666666666664,0.17962962962962964],[0.057291666666666664,0.17962962962962964],[0.057291666666666664,0.17962962962962964]]","[[0.06927083333333334,0.26222222222222225],[0.06927083333333334,0.26222222222222225],[0.08614583333333338,0.2581481481481481],[0.08614583333333338,0.2581481481481481],[0.10927083333333343,0.2946296296296297],[0.10927083333333343,0.2946296296296297],[0.10750000000000005,0.2959259259259258],[0.10052083333333334,0.26370370370370366],[0.08822916666666672,0.252962962962963],[0.09156250000000009,0.22555555555555548],[0.09645833333333324,0.1551851851851851],[0.09645833333333324,0.1551851851851851],[0.10197916666666676,0.10907407407407403],[0.12302083333333323,0.07981481481481485],[0.09500000000000004,-0.0014814814814813973],[0.06291666666666665,-0.08148148148148149],[0.04697916666666669,-0.1403703703703704],[0.05552083333333328,-0.1772222222222222],[0.058541666666666714,-0.20537037037037034],[0.06541666666666662,-0.2505555555555556],[0.06541666666666662,-0.2505555555555556],[0.058333333333333334,-0.26592592592592595],[0.058333333333333334,-0.26592592592592595],[0.07312500000000005,-0.2337037037037037],[0.09052083333333343,-0.19537037037037036],[0.09052083333333343,-0.19537037037037036],[0.06812500000000009,-0.20055555555555557],[0.06812500000000009,-0.20055555555555557],[0.07625000000000005,-0.1427777777777778],[0.07625000000000005,-0.1427777777777778],[0.08937499999999995,-0.10925925925925926],[0.07885416666666671,-0.10574074074074079],[0.07489583333333343,-0.04148148148148144],[0.0734375,0.008148148148148106],[0.07291666666666667,0.04055555555555551],[0.08020833333333334,0.04314814814814806],[0.08020833333333334,0.04314814814814806],[0.08604166666666657,0.0824074074074074],[0.08604166666666657,0.0824074074074074],[0.09083333333333338,0.1346296296296297],[0.10854166666666672,0.1537037037037037],[0.1109375,0.12777777777777777],[0.12541666666666676,0.1300000000000001],[0.12927083333333325,0.14296296296296304],[0.11604166666666677,0.12259259259259268],[0.1021874999999999,0.12462962962962955],[0.09364583333333343,0.1051851851851851],[0.08916666666666657,0.10759259259259263],[0.08822916666666672,0.09814814814814815],[0.08572916666666662,0.06962962962962967],[0.07916666666666666,0.04814814814814815],[0.07781250000000005,0.049629629629629544],[0.05656249999999995,0.0514814814814814],[0.05343749999999995,0.0514814814814814],[0.07708333333333334,0.022777777777777692],[0.10072916666666672,-0.00592592592592601],[0.1109375,0.04537037037037037],[0.10895833333333324,0.0014814814814813973],[0.1087500000000001,0.01185185185185181],[0.10854166666666672,0.022222222222222223],[0.11812500000000009,0.05129629629629638],[0.11572916666666658,0.04259259259259259],[0.11572916666666658,0.04259259259259259],[0.13614583333333338,0.02240740740740745],[0.13614583333333338,0.02240740740740745],[0.14114583333333333,-0.032037037037036954],[0.12760416666666666,-0.07444444444444442],[0.1140625,-0.11685185185185189],[0.09802083333333324,-0.18981481481481483],[0.09010416666666667,-0.18944444444444447],[0.08302083333333338,-0.22166666666666665],[0.08302083333333338,-0.22166666666666665],[0.06520833333333335,-0.28481481481481485],[0.05,-0.3285185185185185],[0.04354166666666662,-0.3388888888888889],[0.02312500000000005,-0.3396296296296296],[0.02312500000000005,-0.3396296296296296],[0.014687500000000023,-0.31722222222222224],[0.013750000000000047,-0.2594444444444445],[0.012083333333333357,-0.22518518518518524],[0.02385416666666664,-0.18055555555555555],[0.035625000000000046,-0.1359259259259259],[0.024374999999999977,-0.13722222222222227],[0.019791666666666666,-0.14500000000000002],[0.024270833333333287,-0.14388888888888887],[0.02677083333333338,-0.16129629629629633],[0.011770833333333286,-0.1633333333333333],[0.0002083333333333807,-0.1542592592592593],[0.0002083333333333807,-0.1542592592592593],[-0.002291666666666714,-0.18277777777777776],[-0.013125000000000024,-0.18518518518518517],[-0.027604166666666666,-0.2088888888888889],[-0.04364583333333331,-0.26240740740740737],[-0.046875,-0.305],[-0.03895833333333331,-0.3037037037037037],[-0.043437500000000046,-0.3292592592592593],[-0.02791666666666662,-0.30907407407407406],[-0.009062500000000048,-0.31722222222222224],[0.006458333333333381,-0.33481481481481484],[0.008541666666666715,-0.33129629629629626],[0.017916666666666713,-0.3744444444444444],[0.027291666666666714,-0.41759259259259257],[0.03343750000000002,-0.40907407407407403],[0.03291666666666669,-0.4035185185185185],[0.02822916666666669,-0.3979629629629629],[0.029375000000000047,-0.3794444444444444],[0.029375000000000047,-0.3794444444444444],[0.00927083333333331,-0.39759259259259255],[0.0026041666666666665,-0.42166666666666663],[-0.004062499999999977,-0.445],[-0.008749999999999977,-0.45499999999999996],[-0.012812499999999952,-0.43425925925925923],[-0.017812500000000023,-0.3622222222222223],[-0.018020833333333285,-0.31203703703703706],[0.001979166666666643,-0.26888888888888884],[0.01906249999999995,-0.2322222222222222],[0.035520833333333356,-0.1933333333333333],[0.04520833333333331,-0.16055555555555553],[0.05395833333333329,-0.1255555555555556],[0.059062500000000046,-0.08814814814814818],[0.057083333333333285,-0.0668518518518519],[0.05687500000000002,-0.025925925925925925],[0.0625,-0.022222222222222223],[0.06812500000000009,-0.018518518518518517],[0.06385416666666661,0.004814814814814857],[0.04781249999999997,-0.027962962962963005],[0.041979166666666616,-0.012592592592592508],[0.033854166666666664,-0.04944444444444453],[0.015416666666666618,-0.06833333333333329],[0.003958333333333286,-0.0809259259259259],[0.0026041666666666665,-0.08518518518518518],[0.00302083333333331,-0.08981481481481482],[-0.004270833333333357,-0.1287037037037037],[-0.0037500000000000237,-0.1933333333333333],[-0.003854166666666714,-0.23499999999999996],[0.0068750000000000235,-0.2270370370370371],[-0.005624999999999976,-0.2190740740740741],[-0.0078125,-0.1618518518518518],[0.0021875000000000236,-0.10425925925925927],[0.012395833333333309,-0.04611111111111107],[0.01885416666666669,-0.055740740740740785],[0.022916666666666665,-0.0712962962962963],[0.022916666666666665,-0.0712962962962963],[0.034166666666666616,-0.059814814814814835],[0.034166666666666616,-0.006481481481481481],[0.016770833333333356,-0.01314814814814819],[0.011979166666666667,-0.014259259259259343],[0.016770833333333356,-0.056666666666666705],[0.016770833333333356,-0.056666666666666705],[0.02374999999999995,-0.10259259259259255],[0.028854166666666715,-0.1257407407407407],[0.015208333333333357,-0.18722222222222226],[0.012083333333333357,-0.1661111111111111],[0.0017708333333333807,-0.17833333333333334],[-0.012187500000000047,-0.225],[-0.012187500000000047,-0.225],[-0.011666666666666714,-0.24537037037037038],[-0.002708333333333357,-0.2853703703703704],[-0.000416666666666643,-0.27740740740740744],[-0.0003124999999999526,-0.3127777777777777],[-0.01604166666666664,-0.3124074074074074],[-0.036145833333333384,-0.3388888888888889],[-0.04104166666666664,-0.2898148148148148],[-0.058124999999999954,-0.27759259259259256],[-0.04822916666666662,-0.24981481481481477],[-0.0390625,-0.19444444444444445],[-0.05531250000000002,-0.19685185185185186],[-0.06635416666666671,-0.17759259259259255],[-0.06635416666666671,-0.17759259259259255],[-0.08218749999999998,-0.1685185185185185],[-0.0859375,-0.09870370370370372],[-0.07593749999999998,-0.05722222222222218],[-0.058749999999999976,-0.05425925925925928],[-0.03822916666666672,-0.08907407407407411],[-0.0109375,-0.062407407407407384],[-0.007187499999999976,-0.056666666666666705],[-0.007187499999999976,-0.056666666666666705],[-0.008020833333333382,-0.05703703703703706],[-0.008020833333333382,-0.05703703703703706],[0.0078125,-0.03370370370370379],[0.035208333333333286,-0.00722222222222218],[0.035208333333333286,-0.00722222222222218],[0.04874999999999995,0.003333333333333249],[0.06218750000000005,-0.006296296296296254],[0.06218750000000005,-0.006296296296296254],[0.07020833333333343,-0.04203703703703712],[0.07020833333333343,-0.04203703703703712],[0.06958333333333329,-0.00722222222222218],[0.07854166666666676,0.03314814814814811],[0.09718749999999995,0.018888888888888972],[0.09718749999999995,0.018888888888888972],[0.11020833333333328,0.025],[0.11208333333333324,0.0668518518518519],[0.12135416666666667,0.03555555555555564],[0.10343749999999995,0.05611111111111103],[0.10343749999999995,0.05611111111111103],[0.09916666666666671,0.055740740740740785],[0.09229166666666658,0.07018518518518514],[0.0921875,0.10129629629629638],[0.09354166666666662,0.10037037037037046],[0.10677083333333333,0.07388888888888885],[0.08572916666666662,0.051111111111111156],[0.06843750000000005,0.05722222222222218],[0.06687500000000005,0.03370370370370379],[0.06062500000000005,0.044444444444444446],[0.07072916666666676,0.02555555555555547],[0.07072916666666676,0.02555555555555547],[0.08479166666666677,0.026666666666666623],[0.09020833333333324,-0.009444444444444486]]","[[0.06927083333333334,0.26222222222222225,0.00040000009536811376],[0.06927083333333334,0.26222222222222225,0.052700000286101556],[0.08614583333333338,0.2581481481481481,0.06349999999999767],[0.08614583333333338,0.2581481481481481,0.08070000028610025],[0.10927083333333343,0.2946296296296297,0.09760000038146899],[0.10927083333333343,0.2946296296296297,0.10660000038146933],[0.10750000000000005,0.2959259259259258,0.1233000001907385],[0.10052083333333334,0.26370370370370366,0.1399000000953663],[0.08822916666666672,0.252962962962963,0.1566000003814736],[0.09156250000000009,0.22555555555555548,0.17330000019073566],[0.09645833333333324,0.1551851851851851,0.1919000000953659],[0.09645833333333324,0.1551851851851851,0.2068000001907393],[0.10197916666666676,0.10907407407407403,0.22330000019073282],[0.12302083333333323,0.07981481481481485,0.23990000009536772],[0.09500000000000004,-0.0014814814814813973,0.2566000003814679],[0.06291666666666665,-0.08148148148148149,0.2732000002861028],[0.04697916666666669,-0.1403703703703704,0.289900000095372],[0.05552083333333328,-0.1772222222222222,0.30660000038147217],[0.058541666666666714,-0.20537037037037034,0.32320000028609996],[0.06541666666666662,-0.2505555555555556,0.33990000009536914],[0.06541666666666662,-0.2505555555555556,0.35660000038146933],[0.058333333333333334,-0.26592592592592595,0.3782000002861068],[0.058333333333333334,-0.26592592592592595,0.39010000038147297],[0.07312500000000005,-0.2337037037037037,0.40670000028610076],[0.09052083333333343,-0.19537037037037036,0.432300000190736],[0.09052083333333343,-0.19537037037037036,0.4402000002861044],[0.06812500000000009,-0.20055555555555557,0.456700000286105],[0.06812500000000009,-0.20055555555555557,0.4734000000953671],[0.07625000000000005,-0.1427777777777778,0.49640000009537033],[0.07625000000000005,-0.1427777777777778,0.5067000002861022],[0.08937499999999995,-0.10925925925925926,0.5234000000953714],[0.07885416666666671,-0.10574074074074079,0.5438000001907355],[0.07489583333333343,-0.04148148148148144,0.5577000002861041],[0.0734375,0.008148148148148106,0.5735000000000028],[0.07291666666666667,0.04055555555555551,0.5901000003814687],[0.08020833333333334,0.04314814814814806,0.6092000002861013],[0.08020833333333334,0.04314814814814806,0.6234000000953657],[0.08604166666666657,0.0824074074074074,0.640100000381473],[0.08604166666666657,0.0824074074074074,0.6641000003814739],[0.09083333333333338,0.1346296296296297,0.6734000000953699],[0.10854166666666672,0.1537037037037037,0.6899999999999977],[0.1109375,0.12777777777777777,0.706700000286105],[0.12541666666666676,0.1300000000000001,0.7262000002861058],[0.12927083333333325,0.14296296296296304,0.7401000003814673],[0.11604166666666677,0.12259259259259268,0.7567000002861022],[0.1021874999999999,0.12462962962962955,0.7733000001907371],[0.09364583333333343,0.1051851851851851,0.7929999999999993],[0.08916666666666657,0.10759259259259263,0.8067000002861064],[0.08822916666666672,0.09814814814814815,0.8234000000953685],[0.08572916666666662,0.06962962962962967,0.8401000003814687],[0.07916666666666666,0.04814814814814815,0.8594000000953699],[0.07781250000000005,0.049629629629629544,0.8733000001907385],[0.05656249999999995,0.0514814814814814,0.8900000000000006],[0.05343749999999995,0.0514814814814814,0.9096000003814737],[0.07708333333333334,0.022777777777777692,0.9235000000000042],[0.10072916666666672,-0.00592592592592601,0.9401000003814701],[0.1109375,0.04537037037037037,0.9594000000953713],[0.10895833333333324,0.0014814814814813973,0.9735000000000014],[0.1087500000000001,0.01185185185185181,0.9905000000000044],[0.10854166666666672,0.022222222222222223,1.0067000002861022],[0.11812500000000009,0.05129629629629638,1.028100000381471],[0.11572916666666658,0.04259259259259259,1.050600000381472],[0.11572916666666658,0.04259259259259259,1.0571000003814675],[0.13614583333333338,0.02240740740740745,1.0775000000000006],[0.13614583333333338,0.02240740740740745,1.0901000003814687],[0.14114583333333333,-0.032037037037036954,1.1067000002861036],[0.12760416666666666,-0.07444444444444442,1.1234000000953657],[0.1140625,-0.11685185185185189,1.1430000000000007],[0.09802083333333324,-0.18981481481481483,1.1569000000953693],[0.09010416666666667,-0.18944444444444447,1.1735000000000042],[0.08302083333333338,-0.22166666666666665,1.194499999999998],[0.08302083333333338,-0.22166666666666665,1.2066000003814707],[0.06520833333333335,-0.28481481481481485,1.2235000000000014],[0.05,-0.3285185185185185,1.2401000003814673],[0.04354166666666662,-0.3388888888888889,1.258900000095366],[0.02312500000000005,-0.3396296296296296,1.2734000000953714],[0.02312500000000005,-0.3396296296296296,1.2902000002861058],[0.014687500000000023,-0.31722222222222224,1.3068000001907336],[0.013750000000000047,-0.2594444444444445,1.3259000000953662],[0.012083333333333357,-0.22518518518518524,1.3400000000000034],[0.02385416666666664,-0.18055555555555555,1.3567000002861036],[0.035625000000000046,-0.1359259259259259,1.3758000001907362],[0.024374999999999977,-0.13722222222222227,1.3919000000953687],[0.019791666666666666,-0.14500000000000002,1.4067000002861008],[0.024270833333333287,-0.14388888888888887,1.4232000002861014],[0.02677083333333338,-0.16129629629629633,1.4399000000953706],[0.011770833333333286,-0.1633333333333333,1.4584000000953665],[0.0002083333333333807,-0.1542592592592593,1.4732000002861056],[0.0002083333333333807,-0.1542592592592593,1.4899000000953677],[-0.002291666666666714,-0.18277777777777776,1.506600000381468],[-0.013125000000000024,-0.18518518518518517,1.5232000002861028],[-0.027604166666666666,-0.2088888888888889,1.539900000095372],[-0.04364583333333331,-0.26240740740740737,1.5564999999999998],[-0.046875,-0.305,1.5732000002861],[-0.03895833333333331,-0.3037037037037037,1.5931000003814688],[-0.043437500000000046,-0.3292592592592593,1.606500000000004],[-0.02791666666666662,-0.30907407407407406,1.625700000286102],[-0.009062500000000048,-0.31722222222222224,1.6399000000953663],[0.006458333333333381,-0.33481481481481484,1.6617000002861033],[0.008541666666666715,-0.33129629629629626,1.6769000000953653],[0.017916666666666713,-0.3744444444444444,1.6925000000000026],[0.027291666666666714,-0.41759259259259257,1.7077000002861027],[0.03343750000000002,-0.40907407407407403,1.7233000001907328],[0.03291666666666669,-0.4035185185185185,1.7399000000953677],[0.02822916666666669,-0.3979629629629629,1.7565000000000026],[0.029375000000000047,-0.3794444444444444,1.7731000003814685],[0.029375000000000047,-0.3794444444444444,1.789900000095372],[0.00927083333333331,-0.39759259259259255,1.8064999999999998],[0.0026041666666666665,-0.42166666666666663,1.8232000002861],[-0.004062499999999977,-0.445,1.8399000000953691],[-0.008749999999999977,-0.45499999999999996,1.856500000000004],[-0.012812499999999952,-0.43425925925925923,1.8732000002861042],[-0.017812500000000023,-0.3622222222222223,1.8936000003814684],[-0.018020833333333285,-0.31203703703703706,1.906800000190735],[0.001979166666666643,-0.26888888888888884,1.9232000002861014],[0.01906249999999995,-0.2322222222222222,1.9403000001907387],[0.035520833333333356,-0.1933333333333333,1.9568000001907393],[0.04520833333333331,-0.16055555555555553,1.9732000002861056],[0.05395833333333329,-0.1255555555555556,1.9902000002861016],[0.059062500000000046,-0.08814814814814818,2.0065000000000026],[0.057083333333333285,-0.0668518518518519,2.0231000003814685],[0.05687500000000002,-0.025925925925925925,2.039900000095372],[0.0625,-0.022222222222222223,2.0564999999999998],[0.06812500000000009,-0.018518518518518517,2.0732000002861],[0.06385416666666661,0.004814814814814857,2.090600000381471],[0.04781249999999997,-0.027962962962963005,2.106900000095365],[0.041979166666666616,-0.012592592592592508,2.1234000000953657],[0.033854166666666664,-0.04944444444444453,2.1399000000953663],[0.015416666666666618,-0.06833333333333329,2.1566000003814736],[0.003958333333333286,-0.0809259259259259,2.1732000002861014],[0.0026041666666666665,-0.08518518518518518,2.1928000001907364],[0.00302083333333331,-0.08981481481481482,2.2066000003814707],[-0.004270833333333357,-0.1287037037037037,2.2232000002861056],[-0.0037500000000000237,-0.1933333333333333,2.2399000000953677],[-0.003854166666666714,-0.23499999999999996,2.2565000000000026],[0.0068750000000000235,-0.2270370370370371,2.273200000286103],[-0.005624999999999976,-0.2190740740740741,2.290200000286106],[-0.0078125,-0.1618518518518518,2.3064999999999998],[0.0021875000000000236,-0.10425925925925927,2.3233000001907342],[0.012395833333333309,-0.04611111111111107,2.339900000095369],[0.01885416666666669,-0.055740740740740785,2.3566000003814693],[0.022916666666666665,-0.0712962962962963,2.3732000002861042],[0.022916666666666665,-0.0712962962962963,2.3907000002861025],[0.034166666666666616,-0.059814814814814835,2.4066000003814736],[0.034166666666666616,-0.006481481481481481,2.42340000009537],[0.016770833333333356,-0.01314814814814819,2.4398000001907363],[0.011979166666666667,-0.014259259259259343,2.459000000000003],[0.016770833333333356,-0.056666666666666705,2.4779000000953673],[0.016770833333333356,-0.056666666666666705,2.4899000000953677],[0.02374999999999995,-0.10259259259259255,2.506600000381468],[0.028854166666666715,-0.1257407407407407,2.525900000095369],[0.015208333333333357,-0.18722222222222226,2.542900000095365],[0.012083333333333357,-0.1661111111111111,2.5593000001907384],[0.0017708333333333807,-0.17833333333333334,2.5760000000000005],[-0.012187500000000047,-0.225,2.5974000000953694],[-0.012187500000000047,-0.225,2.6066000003814693],[-0.011666666666666714,-0.24537037037037038,2.6233000001907385],[-0.002708333333333357,-0.2853703703703704,2.640800000190737],[-0.000416666666666643,-0.27740740740740744,2.656800000190735],[-0.0003124999999999526,-0.3127777777777777,2.673500000000004],[-0.01604166666666664,-0.3124074074074074,2.692999999999998],[-0.036145833333333384,-0.3388888888888889,2.7070000000000007],[-0.04104166666666664,-0.2898148148148148,2.724100000381469],[-0.058124999999999954,-0.27759259259259256,2.7398000001907334],[-0.04822916666666662,-0.24981481481481477,2.757300000190739],[-0.0390625,-0.19444444444444445,2.773700000286105],[-0.05531250000000002,-0.19685185185185186,2.794300000190738],[-0.06635416666666671,-0.17759259259259255,2.820300000190734],[-0.06635416666666671,-0.17759259259259255,2.8278000001907344],[-0.08218749999999998,-0.1685185185185185,2.839800000190735],[-0.0859375,-0.09870370370370372,2.8593000001907356],[-0.07593749999999998,-0.05722222222222218,2.8741000003814676],[-0.058749999999999976,-0.05425925925925928,2.8944000000953665],[-0.03822916666666672,-0.08907407407407411,2.910900000095367],[-0.0109375,-0.062407407407407384,2.92640000009537],[-0.007187499999999976,-0.056666666666666705,2.9451000003814727],[-0.007187499999999976,-0.056666666666666705,2.9564999999999984],[-0.008020833333333382,-0.05703703703703706,2.9732000002861056],[-0.008020833333333382,-0.05703703703703706,2.9899000000953677],[0.0078125,-0.03370370370370379,3.0065000000000026],[0.035208333333333286,-0.00722222222222218,3.0294999999999987],[0.035208333333333286,-0.00722222222222218,3.039999999999999],[0.04874999999999995,0.003333333333333249,3.0564999999999998],[0.06218750000000005,-0.006296296296296254,3.0814999999999984],[0.06218750000000005,-0.006296296296296254,3.0900000000000034],[0.07020833333333343,-0.04203703703703712,3.1066000003814693],[0.07020833333333343,-0.04203703703703712,3.1232000002861042],[0.06958333333333329,-0.00722222222222218,3.139800000190739],[0.07854166666666676,0.03314814814814811,3.1611000003814738],[0.09718749999999995,0.018888888888888972,3.1769999999999996],[0.09718749999999995,0.018888888888888972,3.1899000000953706],[0.11020833333333328,0.025,3.2066000003814707],[0.11208333333333324,0.0668518518518519,3.2240000000000038],[0.12135416666666667,0.03555555555555564,3.2399000000953677],[0.10343749999999995,0.05611111111111103,3.2568000001907365],[0.10343749999999995,0.05611111111111103,3.273200000286103],[0.09916666666666671,0.055740740740740785,3.289999999999999],[0.09229166666666658,0.07018518518518514,3.306600000381472],[0.0921875,0.10129629629629638,3.3232000002861],[0.09354166666666662,0.10037037037037046,3.339800000190735],[0.10677083333333333,0.07388888888888885,3.359500000000004],[0.08572916666666662,0.051111111111111156,3.3765],[0.06843750000000005,0.05722222222222218,3.393800000190737],[0.06687500000000005,0.03370370370370379,3.4106000003814714],[0.06062500000000005,0.044444444444444446,3.427500000000002],[0.07072916666666676,0.02555555555555547,3.4446000003814703],[0.07072916666666676,0.02555555555555547,3.456700000286105],[0.08479166666666677,0.026666666666666623,3.473300000190733],[0.09020833333333324,-0.009444444444444486,3.4939999999999998]]","[0.00040000009536811376,0.052700000286101556,0.06349999999999767,0.08070000028610025,0.09760000038146899,0.10660000038146933,0.1233000001907385,0.1399000000953663,0.1566000003814736,0.17330000019073566,0.1919000000953659,0.2068000001907393,0.22330000019073282,0.23990000009536772,0.2566000003814679,0.2732000002861028,0.289900000095372,0.30660000038147217,0.32320000028609996,0.33990000009536914,0.35660000038146933,0.3782000002861068,0.39010000038147297,0.40670000028610076,0.432300000190736,0.4402000002861044,0.456700000286105,0.4734000000953671,0.49640000009537033,0.5067000002861022,0.5234000000953714,0.5438000001907355,0.5577000002861041,0.5735000000000028,0.5901000003814687,0.6092000002861013,0.6234000000953657,0.640100000381473,0.6641000003814739,0.6734000000953699,0.6899999999999977,0.706700000286105,0.7262000002861058,0.7401000003814673,0.7567000002861022,0.7733000001907371,0.7929999999999993,0.8067000002861064,0.8234000000953685,0.8401000003814687,0.8594000000953699,0.8733000001907385,0.8900000000000006,0.9096000003814737,0.9235000000000042,0.9401000003814701,0.9594000000953713,0.9735000000000014,0.9905000000000044,1.0067000002861022,1.028100000381471,1.050600000381472,1.0571000003814675,1.0775000000000006,1.0901000003814687,1.1067000002861036,1.1234000000953657,1.1430000000000007,1.1569000000953693,1.1735000000000042,1.194499999999998,1.2066000003814707,1.2235000000000014,1.2401000003814673,1.258900000095366,1.2734000000953714,1.2902000002861058,1.3068000001907336,1.3259000000953662,1.3400000000000034,1.3567000002861036,1.3758000001907362,1.3919000000953687,1.4067000002861008,1.4232000002861014,1.4399000000953706,1.4584000000953665,1.4732000002861056,1.4899000000953677,1.506600000381468,1.5232000002861028,1.539900000095372,1.5564999999999998,1.5732000002861,1.5931000003814688,1.606500000000004,1.625700000286102,1.6399000000953663,1.6617000002861033,1.6769000000953653,1.6925000000000026,1.7077000002861027,1.7233000001907328,1.7399000000953677,1.7565000000000026,1.7731000003814685,1.789900000095372,1.8064999999999998,1.8232000002861,1.8399000000953691,1.856500000000004,1.8732000002861042,1.8936000003814684,1.906800000190735,1.9232000002861014,1.9403000001907387,1.9568000001907393,1.9732000002861056,1.9902000002861016,2.0065000000000026,2.0231000003814685,2.039900000095372,2.0564999999999998,2.0732000002861,2.090600000381471,2.106900000095365,2.1234000000953657,2.1399000000953663,2.1566000003814736,2.1732000002861014,2.1928000001907364,2.2066000003814707,2.2232000002861056,2.2399000000953677,2.2565000000000026,2.273200000286103,2.290200000286106,2.3064999999999998,2.3233000001907342,2.339900000095369,2.3566000003814693,2.3732000002861042,2.3907000002861025,2.4066000003814736,2.42340000009537,2.4398000001907363,2.459000000000003,2.4779000000953673,2.4899000000953677,2.506600000381468,2.525900000095369,2.542900000095365,2.5593000001907384,2.5760000000000005,2.5974000000953694,2.6066000003814693,2.6233000001907385,2.640800000190737,2.656800000190735,2.673500000000004,2.692999999999998,2.7070000000000007,2.724100000381469,2.7398000001907334,2.757300000190739,2.773700000286105,2.794300000190738,2.820300000190734,2.8278000001907344,2.839800000190735,2.8593000001907356,2.8741000003814676,2.8944000000953665,2.910900000095367,2.92640000009537,2.9451000003814727,2.9564999999999984,2.9732000002861056,2.9899000000953677,3.0065000000000026,3.0294999999999987,3.039999999999999,3.0564999999999998,3.0814999999999984,3.0900000000000034,3.1066000003814693,3.1232000002861042,3.139800000190739,3.1611000003814738,3.1769999999999996,3.1899000000953706,3.2066000003814707,3.2240000000000038,3.2399000000953677,3.2568000001907365,3.273200000286103,3.289999999999999,3.306600000381472,3.3232000002861,3.339800000190735,3.359500000000004,3.3765,3.393800000190737,3.4106000003814714,3.427500000000002,3.4446000003814703,3.456700000286105,3.473300000190733,3.4939999999999998]","[1732075753082,1732075753125,1732075753135,1732075753153,1732075753169,1732075753178,1732075753195,1732075753212,1732075753228,1732075753245,1732075753264,1732075753279,1732075753295,1732075753312,1732075753328,1732075753345,1732075753362,1732075753378,1732075753395,1732075753412,1732075753429,1732075753450,1732075753462,1732075753479,1732075753504,1732075753512,1732075753529,1732075753545,1732075753568,1732075753579,1732075753595,1732075753616,1732075753630,1732075753645,1732075753662,1732075753681,1732075753695,1732075753712,1732075753736,1732075753745,1732075753762,1732075753779,1732075753798,1732075753812,1732075753829,1732075753845,1732075753865,1732075753879,1732075753895,1732075753912,1732075753931,1732075753945,1732075753962,1732075753981,1732075753995,1732075754012,1732075754031,1732075754045,1732075754062,1732075754079,1732075754100,1732075754122,1732075754129,1732075754149,1732075754162,1732075754179,1732075754195,1732075754215,1732075754229,1732075754245,1732075754266,1732075754279,1732075754295,1732075754312,1732075754331,1732075754345,1732075754362,1732075754379,1732075754398,1732075754412,1732075754429,1732075754448,1732075754464,1732075754479,1732075754495,1732075754512,1732075754530,1732075754545,1732075754562,1732075754578,1732075754595,1732075754612,1732075754628,1732075754645,1732075754665,1732075754678,1732075754698,1732075754712,1732075754734,1732075754749,1732075754764,1732075754780,1732075754795,1732075754812,1732075754828,1732075754845,1732075754862,1732075754878,1732075754895,1732075754912,1732075754928,1732075754945,1732075754966,1732075754979,1732075754995,1732075755012,1732075755029,1732075755045,1732075755062,1732075755078,1732075755095,1732075755112,1732075755128,1732075755145,1732075755162,1732075755179,1732075755195,1732075755212,1732075755228,1732075755245,1732075755265,1732075755278,1732075755295,1732075755312,1732075755328,1732075755345,1732075755362,1732075755378,1732075755395,1732075755412,1732075755428,1732075755445,1732075755463,1732075755478,1732075755495,1732075755512,1732075755531,1732075755550,1732075755562,1732075755579,1732075755598,1732075755615,1732075755631,1732075755648,1732075755669,1732075755678,1732075755695,1732075755713,1732075755729,1732075755745,1732075755765,1732075755779,1732075755796,1732075755812,1732075755829,1732075755846,1732075755866,1732075755892,1732075755900,1732075755912,1732075755931,1732075755946,1732075755966,1732075755983,1732075755998,1732075756017,1732075756028,1732075756045,1732075756062,1732075756078,1732075756101,1732075756112,1732075756128,1732075756153,1732075756162,1732075756178,1732075756195,1732075756212,1732075756233,1732075756249,1732075756262,1732075756278,1732075756296,1732075756312,1732075756329,1732075756345,1732075756362,1732075756378,1732075756395,1732075756412,1732075756431,1732075756448,1732075756466,1732075756482,1732075756499,1732075756516,1732075756529,1732075756545,1732075756566]","[[1026.5,681.6],[1026.5,681.6],[1042.7,679.4],[1042.7,679.4],[1064.9,699.1],[1064.9,699.1],[1063.2,699.8],[1056.5,682.4],[1044.7,676.6],[1047.9,661.8],[1052.6,623.8],[1052.6,623.8],[1057.9,598.9],[1078.1,583.1],[1051.2,539.2],[1020.4,496],[1005.1,464.2],[1013.3,444.3],[1016.2,429.1],[1022.8,404.7],[1022.8,404.7],[1016,396.4],[1016,396.4],[1030.2,413.8],[1046.9,434.5],[1046.9,434.5],[1025.4,431.7],[1025.4,431.7],[1033.2,462.9],[1033.2,462.9],[1045.8,481],[1035.7,482.9],[1031.9,517.6],[1030.5,544.4],[1030,561.9],[1037,563.3],[1037,563.3],[1042.6,584.5],[1042.6,584.5],[1047.2,612.7],[1064.2,623],[1066.5,609],[1080.4,610.2],[1084.1,617.2],[1071.4,606.2],[1058.1,607.3],[1049.9,596.8],[1045.6,598.1],[1044.7,593],[1042.3,577.6],[1036,566],[1034.7,566.8],[1014.3,567.8],[1011.3,567.8],[1034,552.3],[1056.7,536.8],[1066.5,564.5],[1064.6,540.8],[1064.4,546.4],[1064.2,552],[1073.4,567.7],[1071.1,563],[1071.1,563],[1090.7,552.1],[1090.7,552.1],[1095.5,522.7],[1082.5,499.8],[1069.5,476.9],[1054.1,437.5],[1046.5,437.7],[1039.7,420.3],[1039.7,420.3],[1022.6,386.2],[1008,362.6],[1001.8,357],[982.2,356.6],[982.2,356.6],[974.1,368.7],[973.2,399.9],[971.6,418.4],[982.9,442.5],[994.2,466.6],[983.4,465.9],[979,461.7],[983.3,462.3],[985.7,452.9],[971.3,451.8],[960.2,456.7],[960.2,456.7],[957.8,441.3],[947.4,440],[933.5,427.2],[918.1,398.3],[915,375.3],[922.6,376],[918.3,362.2],[933.2,373.1],[951.3,368.7],[966.2,359.2],[968.2,361.1],[977.2,337.8],[986.2,314.5],[992.1,319.1],[991.6,322.1],[987.1,325.1],[988.2,335.1],[988.2,335.1],[968.9,325.3],[962.5,312.3],[956.1,299.7],[951.6,294.3],[947.7,305.5],[942.9,344.4],[942.7,371.5],[961.9,394.8],[978.3,414.6],[994.1,435.6],[1003.4,453.3],[1011.8,472.2],[1016.7,492.4],[1014.8,503.9],[1014.6,526],[1020,528],[1025.4,530],[1021.3,542.6],[1005.9,524.9],[1000.3,533.2],[992.5,513.3],[974.8,503.1],[963.8,496.3],[962.5,494],[962.9,491.5],[955.9,470.5],[956.4,435.6],[956.3,413.1],[966.6,417.4],[954.6,421.7],[952.5,452.6],[962.1,483.7],[971.9,515.1],[978.1,509.9],[982,501.5],[982,501.5],[992.8,507.7],[992.8,536.5],[976.1,532.9],[971.5,532.3],[976.1,509.4],[976.1,509.4],[982.8,484.6],[987.7,472.1],[974.6,438.9],[971.6,450.3],[961.7,443.7],[948.3,418.5],[948.3,418.5],[948.8,407.5],[957.4,385.9],[959.6,390.2],[959.7,371.1],[944.6,371.3],[925.3,357],[920.6,383.5],[904.2,390.1],[913.7,405.1],[922.5,435],[906.9,433.7],[896.3,444.1],[896.3,444.1],[881.1,449],[877.5,486.7],[887.1,509.1],[903.6,510.7],[923.3,491.9],[949.5,506.3],[953.1,509.4],[953.1,509.4],[952.3,509.2],[952.3,509.2],[967.5,521.8],[993.8,536.1],[993.8,536.1],[1006.8,541.8],[1019.7,536.6],[1019.7,536.6],[1027.4,517.3],[1027.4,517.3],[1026.8,536.1],[1035.4,557.9],[1053.3,550.2],[1053.3,550.2],[1065.8,553.5],[1067.6,576.1],[1076.5,559.2],[1059.3,570.3],[1059.3,570.3],[1055.2,570.1],[1048.6,577.9],[1048.5,594.7],[1049.8,594.2],[1062.5,579.9],[1042.3,567.6],[1025.7,570.9],[1024.2,558.2],[1018.2,564],[1027.9,553.8],[1027.9,553.8],[1041.4,554.4],[1046.6,534.9]]","[-0.056692,0.170076]","[0.056692,0.170076]","[0.170076,0.170076]","[-0.170076,-0.170076]","[-0.170076,-0.056692]","[-0.170076,0.056692]","[-0.056692,-0.170076]","[0.056692,-0.170076]","[0.170076,-0.170076]","[-0.056692,-0.056692]","[0.056692,-0.056692]","[0.170076,-0.056692]","[-0.056692,0.056692]","[0.056692,0.056692]","[0.170076,0.056692]",0,0,0,0,1,2,Smartphone,15,20,8,3,70,4,3,60,4
,,,,,,,,,,,,,,,,,,,42,001,2024-11-20_12h08.23.661,Attention_exp_legacy,2023.1.0,Win32,59.88023952,,,,,,,,,,,[0.042708333333333334],[0.15925925925925927],[1],[0],[0],[3.248200000286097],"[""Metro_label""]",Metro_label,2,4.2498,"[[0.05625,0.17592592592592593],[0.05625,0.17592592592592593],[0.05625,0.17592592592592593],[0.05625,0.17407407407407408],[0.05625,0.17407407407407408],[0.05625,0.17407407407407408],[0.05625,0.17222222222222222],[0.05625,0.17222222222222222],[0.05625,0.17222222222222222],[0.05625,0.17222222222222222],[0.05625,0.17222222222222222],[0.05625,0.17222222222222222],[0.05625,0.17222222222222222],[0.05625,0.17222222222222222],[0.05625,0.17222222222222222],[0.05625,0.17222222222222222],[0.05625,0.17222222222222222],[0.05625,0.17222222222222222],[0.05625,0.17222222222222222],[0.05625,0.17222222222222222],[0.05625,0.17222222222222222],[0.05625,0.17222222222222222],[0.05625,0.17222222222222222],[0.05625,0.17222222222222222],[0.05625,0.17222222222222222],[0.05625,0.17222222222222222],[0.05625,0.17222222222222222],[0.05625,0.17222222222222222],[0.05625,0.17222222222222222],[0.05625,0.17222222222222222],[0.05625,0.17222222222222222],[0.05625,0.17222222222222222],[0.05625,0.17222222222222222],[0.05625,0.17222222222222222],[0.05625,0.17222222222222222],[0.05625,0.17222222222222222],[0.05625,0.17222222222222222],[0.05625,0.17222222222222222],[0.05625,0.17222222222222222],[0.05625,0.17222222222222222],[0.05625,0.17222222222222222],[0.05625,0.17222222222222222],[0.05625,0.17222222222222222],[0.05625,0.17222222222222222],[0.05625,0.17222222222222222],[0.05625,0.17222222222222222],[0.05625,0.17222222222222222],[0.05625,0.17222222222222222],[0.05416666666666667,0.17037037037037037],[0.05416666666666667,0.1685185185185185],[0.05416666666666667,0.1685185185185185],[0.053125,0.1648148148148148],[0.053125,0.16296296296296298],[0.051041666666666666,0.16111111111111112],[0.051041666666666666,0.16111111111111112],[0.051041666666666666,0.16111111111111112],[0.051041666666666666,0.16111111111111112],[0.051041666666666666,0.16111111111111112],[0.051041666666666666,0.16111111111111112],[0.051041666666666666,0.16111111111111112],[0.051041666666666666,0.16111111111111112],[0.051041666666666666,0.16111111111111112],[0.051041666666666666,0.16111111111111112],[0.051041666666666666,0.16111111111111112],[0.051041666666666666,0.16111111111111112],[0.051041666666666666,0.16111111111111112],[0.051041666666666666,0.16111111111111112],[0.051041666666666666,0.16111111111111112],[0.051041666666666666,0.16111111111111112],[0.051041666666666666,0.16111111111111112],[0.051041666666666666,0.16111111111111112],[0.051041666666666666,0.16111111111111112],[0.051041666666666666,0.16111111111111112],[0.051041666666666666,0.16111111111111112],[0.051041666666666666,0.16111111111111112],[0.051041666666666666,0.16111111111111112],[0.051041666666666666,0.16111111111111112],[0.051041666666666666,0.16111111111111112],[0.051041666666666666,0.16111111111111112],[0.051041666666666666,0.16111111111111112],[0.051041666666666666,0.16111111111111112],[0.051041666666666666,0.16111111111111112],[0.051041666666666666,0.16111111111111112],[0.051041666666666666,0.16111111111111112],[0.051041666666666666,0.16111111111111112],[0.051041666666666666,0.16111111111111112],[0.051041666666666666,0.16111111111111112],[0.051041666666666666,0.16111111111111112],[0.051041666666666666,0.16111111111111112],[0.051041666666666666,0.16111111111111112],[0.051041666666666666,0.16111111111111112],[0.051041666666666666,0.16111111111111112],[0.051041666666666666,0.16111111111111112],[0.051041666666666666,0.16111111111111112],[0.051041666666666666,0.16111111111111112],[0.051041666666666666,0.16111111111111112],[0.051041666666666666,0.16111111111111112],[0.051041666666666666,0.16111111111111112],[0.051041666666666666,0.16111111111111112],[0.051041666666666666,0.16111111111111112],[0.051041666666666666,0.16111111111111112],[0.051041666666666666,0.16111111111111112],[0.051041666666666666,0.16111111111111112],[0.051041666666666666,0.16111111111111112],[0.051041666666666666,0.16111111111111112],[0.051041666666666666,0.16111111111111112],[0.051041666666666666,0.16111111111111112],[0.051041666666666666,0.16111111111111112],[0.051041666666666666,0.16111111111111112],[0.051041666666666666,0.16111111111111112],[0.051041666666666666,0.16111111111111112],[0.051041666666666666,0.16111111111111112],[0.051041666666666666,0.16111111111111112],[0.051041666666666666,0.16111111111111112],[0.051041666666666666,0.16111111111111112],[0.051041666666666666,0.16111111111111112],[0.051041666666666666,0.16111111111111112],[0.051041666666666666,0.16111111111111112],[0.051041666666666666,0.16111111111111112],[0.051041666666666666,0.16111111111111112],[0.051041666666666666,0.16111111111111112],[0.051041666666666666,0.16111111111111112],[0.051041666666666666,0.16111111111111112],[0.051041666666666666,0.16111111111111112],[0.051041666666666666,0.16111111111111112],[0.051041666666666666,0.16111111111111112],[0.051041666666666666,0.16111111111111112],[0.051041666666666666,0.16111111111111112],[0.051041666666666666,0.16111111111111112],[0.051041666666666666,0.16111111111111112],[0.051041666666666666,0.16111111111111112],[0.051041666666666666,0.16111111111111112],[0.051041666666666666,0.16111111111111112],[0.051041666666666666,0.16111111111111112],[0.051041666666666666,0.16111111111111112],[0.051041666666666666,0.16111111111111112],[0.051041666666666666,0.16111111111111112],[0.051041666666666666,0.16111111111111112],[0.051041666666666666,0.16111111111111112],[0.051041666666666666,0.16111111111111112],[0.051041666666666666,0.16111111111111112],[0.051041666666666666,0.16111111111111112],[0.051041666666666666,0.16111111111111112],[0.051041666666666666,0.16111111111111112],[0.051041666666666666,0.16111111111111112],[0.051041666666666666,0.16111111111111112],[0.051041666666666666,0.16111111111111112],[0.051041666666666666,0.16111111111111112],[0.051041666666666666,0.16111111111111112],[0.051041666666666666,0.16111111111111112],[0.051041666666666666,0.16111111111111112],[0.051041666666666666,0.16111111111111112],[0.051041666666666666,0.16111111111111112],[0.051041666666666666,0.16111111111111112],[0.051041666666666666,0.16111111111111112],[0.051041666666666666,0.16111111111111112],[0.051041666666666666,0.16111111111111112],[0.051041666666666666,0.16111111111111112],[0.051041666666666666,0.16111111111111112],[0.051041666666666666,0.16111111111111112],[0.051041666666666666,0.16111111111111112],[0.051041666666666666,0.16111111111111112],[0.051041666666666666,0.16111111111111112],[0.051041666666666666,0.16111111111111112],[0.051041666666666666,0.16111111111111112],[0.051041666666666666,0.16111111111111112],[0.051041666666666666,0.16111111111111112],[0.051041666666666666,0.16111111111111112],[0.051041666666666666,0.16111111111111112],[0.05,0.16111111111111112],[0.046875,0.1574074074074074],[0.04375,0.1574074074074074],[0.0375,0.1574074074074074],[0.036458333333333336,0.1574074074074074],[0.036458333333333336,0.1574074074074074],[0.036458333333333336,0.1574074074074074],[0.036458333333333336,0.1574074074074074],[0.036458333333333336,0.1574074074074074],[0.036458333333333336,0.1574074074074074],[0.036458333333333336,0.1574074074074074],[0.036458333333333336,0.1574074074074074],[0.036458333333333336,0.1574074074074074],[0.036458333333333336,0.1574074074074074],[0.036458333333333336,0.1574074074074074],[0.036458333333333336,0.1574074074074074],[0.036458333333333336,0.1574074074074074],[0.036458333333333336,0.1574074074074074],[0.036458333333333336,0.1574074074074074],[0.036458333333333336,0.1574074074074074],[0.03958333333333333,0.1574074074074074],[0.03958333333333333,0.1574074074074074],[0.040625,0.1574074074074074],[0.041666666666666664,0.1574074074074074],[0.042708333333333334,0.15925925925925927],[0.042708333333333334,0.15925925925925927],[0.042708333333333334,0.15925925925925927],[0.042708333333333334,0.15925925925925927],[0.042708333333333334,0.15925925925925927],[0.042708333333333334,0.15925925925925927],[0.042708333333333334,0.15925925925925927],[0.042708333333333334,0.15925925925925927],[0.042708333333333334,0.15925925925925927],[0.042708333333333334,0.15925925925925927],[0.042708333333333334,0.15925925925925927],[0.042708333333333334,0.15925925925925927],[0.042708333333333334,0.15925925925925927],[0.042708333333333334,0.15925925925925927],[0.042708333333333334,0.15925925925925927],[0.042708333333333334,0.15925925925925927],[0.042708333333333334,0.15925925925925927],[0.042708333333333334,0.15925925925925927],[0.042708333333333334,0.15925925925925927],[0.042708333333333334,0.15925925925925927],[0.042708333333333334,0.15925925925925927],[0.042708333333333334,0.15925925925925927],[0.042708333333333334,0.15925925925925927],[0.042708333333333334,0.15925925925925927],[0.042708333333333334,0.15925925925925927],[0.042708333333333334,0.15925925925925927],[0.042708333333333334,0.15925925925925927],[0.042708333333333334,0.15925925925925927],[0.042708333333333334,0.15925925925925927],[0.042708333333333334,0.15925925925925927],[0.042708333333333334,0.15925925925925927],[0.042708333333333334,0.15925925925925927],[0.042708333333333334,0.15925925925925927],[0.042708333333333334,0.15925925925925927],[0.042708333333333334,0.15925925925925927],[0.042708333333333334,0.15925925925925927],[0.042708333333333334,0.15925925925925927],[0.042708333333333334,0.15925925925925927],[0.042708333333333334,0.15925925925925927],[0.042708333333333334,0.15925925925925927],[0.042708333333333334,0.15925925925925927],[0.042708333333333334,0.15925925925925927],[0.042708333333333334,0.15555555555555556],[0.042708333333333334,0.14629629629629629],[0.03854166666666667,0.13333333333333333],[0.029166666666666667,0.11666666666666667],[0.014583333333333334,0.10555555555555556],[0.014583333333333334,0.10555555555555556],[0.014583333333333334,0.10555555555555556],[0.014583333333333334,0.10555555555555556],[0.014583333333333334,0.10555555555555556],[0.014583333333333334,0.10555555555555556],[0.014583333333333334,0.10555555555555556],[0.014583333333333334,0.10555555555555556],[0.014583333333333334,0.10555555555555556],[0.014583333333333334,0.10555555555555556],[0.014583333333333334,0.10555555555555556],[0.014583333333333334,0.10555555555555556],[0.014583333333333334,0.10555555555555556],[0.014583333333333334,0.10555555555555556],[0.014583333333333334,0.10555555555555556],[0.014583333333333334,0.10555555555555556],[0.014583333333333334,0.10555555555555556]]","[[0.008124999999999953,-0.10648148148148148],[-0.0140625,-0.10685185185185184],[-0.036249999999999956,-0.10722222222222218],[-0.00927083333333331,-0.08648148148148146],[0.01427083333333338,-0.06611111111111109],[0.01427083333333338,-0.06611111111111109],[0.020729166666666642,-0.06629629629629631],[0.020729166666666642,-0.06629629629629631],[0.034687499999999954,-0.06833333333333329],[0.03895833333333331,-0.09148148148148144],[0.04885416666666664,-0.08611111111111111],[0.04885416666666664,-0.08611111111111111],[0.04364583333333331,-0.11500000000000005],[0.050312499999999954,-0.18518518518518517],[0.050416666666666644,-0.2257407407407407],[0.05270833333333336,-0.2772222222222222],[0.03843749999999998,-0.3131481481481482],[0.030208333333333334,-0.36277777777777775],[0.027604166666666666,-0.3738888888888888],[0.026250000000000048,-0.4044444444444444],[0.03104166666666662,-0.3894444444444445],[0.04031250000000005,-0.3531481481481481],[0.050312499999999954,-0.317037037037037],[0.057187499999999974,-0.2809259259259259],[0.05666666666666664,-0.2705555555555556],[0.06354166666666666,-0.26129629629629636],[0.08010416666666677,-0.2616666666666667],[0.09510416666666661,-0.25148148148148153],[0.11010416666666671,-0.24129629629629631],[0.11010416666666671,-0.24129629629629631],[0.1040625000000001,-0.2668518518518519],[0.09552083333333337,-0.26962962962962966],[0.08250000000000005,-0.29370370370370374],[0.07854166666666676,-0.3309259259259259],[0.07854166666666676,-0.3309259259259259],[0.07635416666666663,-0.3448148148148148],[0.07583333333333328,-0.34444444444444444],[0.060104166666666715,-0.3388888888888889],[0.044375000000000026,-0.3333333333333333],[0.029062499999999977,-0.3109259259259259],[0.013750000000000047,-0.28851851851851856],[0.020729166666666642,-0.2551851851851852],[0.02645833333333331,-0.24055555555555552],[0.03218749999999997,-0.22592592592592592],[0.030624999999999975,-0.2609259259259259],[0.030624999999999975,-0.2609259259259259],[0.027291666666666714,-0.31925925925925924],[0.021041666666666715,-0.33111111111111113],[0.02041666666666669,-0.33611111111111114],[0.03343750000000002,-0.3309259259259259],[0.04500000000000005,-0.33907407407407414],[0.05635416666666669,-0.32592592592592595],[0.04125000000000002,-0.3477777777777778],[0.04125000000000002,-0.3477777777777778],[0.0609375,-0.33611111111111114],[0.0775000000000001,-0.30999999999999994],[0.06916666666666677,-0.22814814814814813],[0.09249999999999996,-0.13722222222222227],[0.11052083333333323,-0.10277777777777777],[0.13572916666666662,-0.0794444444444444],[0.13572916666666662,-0.0794444444444444],[0.14729166666666677,-0.06629629629629631],[0.14729166666666677,-0.06629629629629631],[0.1701041666666666,-0.008703703703703788],[0.1701041666666666,-0.008703703703703788],[0.1837500000000001,0.019444444444444445],[0.22083333333333333,0.09240740740740737],[0.22083333333333333,0.09240740740740737],[0.20020833333333338,0.04222222222222214],[0.20020833333333338,0.04222222222222214],[0.19583333333333333,0.024629629629629547],[0.19583333333333333,0.024629629629629547],[0.20604166666666662,-0.002407407407407323],[0.20604166666666662,-0.002407407407407323],[0.1943749999999999,-0.01722222222222214],[0.20343749999999997,-0.018148148148148063],[0.2053124999999999,-0.007962962962962878],[0.2053124999999999,-0.007962962962962878],[0.20437500000000006,0.01703703703703712],[0.1853125000000001,0.009074074074074031],[0.1756249999999999,0.009259259259259259],[0.1586458333333333,-0.03685185185185181],[0.15656249999999997,0.021851851851851768],[0.14093749999999997,-0.0016666666666666245],[0.13385416666666666,-0.008703703703703788],[0.125,-0.008148148148148106],[0.109375,0],[0.109375,0],[0.09572916666666677,-0.0301851851851851],[0.09572916666666677,-0.0301851851851851],[0.08604166666666657,-0.03851851851851843],[0.07770833333333324,-0.04944444444444453],[0.06937499999999991,-0.060370370370370414],[0.0671875,-0.09203703703703701],[0.07802083333333343,-0.14240740740740737],[0.07541666666666676,-0.15185185185185185],[0.0728125000000001,-0.16129629629629633],[0.06604166666666664,-0.17851851851851847],[0.05322916666666669,-0.19907407407407407],[0.0421875,-0.19500000000000003],[0.029999999999999954,-0.22759259259259254],[0.02947916666666662,-0.27925925925925926],[0.028958333333333287,-0.3309259259259259],[0.027708333333333356,-0.3025925925925925],[0.02520833333333338,-0.2748148148148148],[0.033854166666666664,-0.2675925925925926],[0.02791666666666662,-0.25759259259259265],[0.020937500000000022,-0.24462962962962967],[0.01260416666666669,-0.1838888888888889],[-0.008020833333333382,-0.13925925925925925],[-0.028645833333333332,-0.09462962962962967],[-0.036354166666666646,-0.06833333333333329],[-0.044062499999999956,-0.04203703703703712],[-0.052291666666666715,-0.05648148148148148],[-0.08125,-0.07574074074074069],[-0.08125,-0.07574074074074069],[-0.1015625,-0.08444444444444449],[-0.09947916666666666,-0.13444444444444448],[-0.10364583333333334,-0.1764814814814815],[-0.10041666666666664,-0.26296296296296295],[-0.09312499999999997,-0.27166666666666667],[-0.1,-0.30351851851851847],[-0.1264583333333333,-0.29981481481481476],[-0.14937499999999998,-0.25851851851851854],[-0.17083333333333334,-0.2125925925925926],[-0.17354166666666668,-0.16962962962962966],[-0.18218749999999997,-0.12240740740740745],[-0.18791666666666665,-0.03370370370370379],[-0.19020833333333337,0.02296296296296292],[-0.18718750000000003,0.07166666666666675],[-0.1796875,0.07240740740740745],[-0.15437500000000004,0.09148148148148144],[-0.12854166666666664,0.10351851851851848],[-0.10802083333333339,0.06444444444444436],[-0.09208333333333331,0.03333333333333333],[-0.07281249999999997,0.005555555555555556],[-0.05354166666666664,-0.022222222222222223],[-0.057187499999999974,-0.047037037037036995],[-0.06083333333333331,-0.07185185185185188],[-0.06208333333333336,-0.1037037037037037],[-0.06458333333333334,-0.13574074074074077],[-0.05375000000000003,-0.1096296296296296],[-0.042916666666666714,-0.08351851851851856],[-0.042916666666666714,-0.08351851851851856],[-0.030312500000000023,-0.04388888888888897],[-0.03239583333333336,-0.02555555555555547],[-0.03583333333333331,-0.002777777777777778],[-0.034062500000000044,-0.0016666666666666245],[-0.02010416666666662,-0.006481481481481481],[0.0010416666666666667,0.017407407407407365],[0.009687499999999953,0.043703703703703745],[0.02822916666666669,0.12074074074074083],[0.02822916666666669,0.12074074074074083],[0.02822916666666669,0.12074074074074083],[0.033958333333333354,0.11185185185185181],[0.04354166666666662,0.15],[0.03927083333333338,0.15314814814814823],[0.05645833333333338,0.1766666666666666],[0.07364583333333338,0.20018518518518522],[0.0806250000000001,0.2324074074074074],[0.08958333333333333,0.27074074074074084],[0.08479166666666677,0.24074074074074073],[0.08947916666666676,0.2300000000000001],[0.07541666666666676,0.14129629629629623],[0.07364583333333338,0.09796296296296292],[0.06333333333333328,0.054259259259259174],[0.052291666666666715,0.03425925925925926],[0.04906250000000002,0.026481481481481398],[0.03760416666666669,-0.023148148148148147],[0.03687499999999998,-0.05407407407407405],[0.03229166666666667,-0.09462962962962967],[0.03604166666666669,-0.12111111111111107],[0.035104166666666714,-0.1542592592592593],[0.049479166666666664,-0.10166666666666663],[0.029270833333333357,-0.10129629629629627],[0.025833333333333285,-0.15499999999999997],[0.04052083333333331,-0.19518518518518516],[0.04697916666666669,-0.2418518518518519],[0.06166666666666672,-0.24666666666666665],[0.06166666666666672,-0.24666666666666665],[0.06937499999999991,-0.2337037037037037],[0.07677083333333339,-0.2366666666666667],[0.08239583333333324,-0.2140740740740741],[0.09177083333333323,-0.17037037037037037],[0.09593749999999991,-0.18499999999999997],[0.09593749999999991,-0.18499999999999997],[0.11041666666666666,-0.15407407407407406],[0.09770833333333329,-0.1492592592592593],[0.09343750000000005,-0.13185185185185183],[0.0859375,-0.09703703703703699],[0.0756249999999999,-0.07981481481481485],[0.0609375,-0.07185185185185188],[0.0484375,-0.044444444444444446],[0.03760416666666669,-0.034999999999999955],[0.027291666666666714,-0.05055555555555547],[0.010416666666666666,-0.10018518518518522],[0.010416666666666666,-0.10018518518518522],[0.011874999999999976,-0.14333333333333328],[0.012187500000000047,-0.12833333333333335],[0.011354166666666643,-0.15203703703703708],[-0.000833333333333286,-0.1940740740740741],[-0.00614583333333331,-0.22444444444444442],[0.0068750000000000235,-0.2433333333333333],[0.011354166666666643,-0.2783333333333334],[0.01416666666666669,-0.2953703703703704],[0.016250000000000025,-0.2766666666666666],[0.024895833333333308,-0.22388888888888886],[-0.006458333333333381,-0.23555555555555555],[0.00791666666666669,-0.27240740740740743],[0.00791666666666669,-0.27240740740740743],[0.003125,-0.29314814814814816],[0.008749999999999977,-0.2942592592592592],[0.017708333333333333,-0.29129629629629633],[0.01395833333333331,-0.3140740740740741],[0.01875,-0.3207407407407407],[0.026145833333333358,-0.30907407407407406],[0.035312499999999976,-0.33240740740740743],[0.02687499999999995,-0.3559259259259259],[0.05354166666666664,-0.3290740740740741],[0.05375000000000003,-0.2948148148148148],[0.0640625,-0.2542592592592593],[0.05562499999999997,-0.3055555555555556],[0.058541666666666714,-0.31425925925925924],[0.058541666666666714,-0.31425925925925924],[0.07218749999999995,-0.2977777777777778],[0.07052083333333338,-0.3403703703703704],[0.08333333333333333,-0.34388888888888886],[0.0740624999999999,-0.4196296296296297],[0.09718749999999995,-0.4505555555555556],[0.09812500000000005,-0.4274074074074074],[0.10187499999999995,-0.4183333333333333],[0.10864583333333329,-0.4255555555555556],[0.12791666666666662,-0.36444444444444446],[0.13531250000000009,-0.3042592592592593],[0.12177083333333343,-0.27462962962962967],[0.1256249999999999,-0.18759259259259262],[0.1256249999999999,-0.18759259259259262],[0.11885416666666657,-0.19370370370370374],[0.13291666666666657,-0.08277777777777776],[0.10083333333333329,-0.023148148148148147],[0.10229166666666671,-0.06407407407407412],[0.09635416666666667,-0.06500000000000004],[0.08541666666666667,-0.060370370370370414],[0.07770833333333324,-0.032407407407407406],[0.05770833333333331,-0.07462962962962966],[0.05770833333333331,-0.07462962962962966],[0.049583333333333354,-0.08314814814814811],[0.041666666666666664,-0.13796296296296295],[0.017604166666666643,-0.17592592592592593],[-0.010208333333333286,-0.21703703703703703],[-0.0032291666666666905,-0.2368518518518518],[0.005624999999999976,-0.1925925925925926],[0.01604166666666664,-0.18111111111111114],[0.021354166666666667,-0.16148148148148145],[0.021354166666666667,-0.16148148148148145],[0.036249999999999956,-0.17962962962962964]]","[[0.008124999999999953,-0.10648148148148148,0.00009999990462716823],[-0.0140625,-0.10685185185185184,0.01709999990463018],[-0.036249999999999956,-0.10722222222222218,0.03300000000000125],[-0.00927083333333331,-0.08648148148148146,0.053099999904631545],[0.01427083333333338,-0.06611111111111109,0.06659999990463206],[0.01427083333333338,-0.06611111111111109,0.08299999999999841],[0.020729166666666642,-0.06629629629629631,0.11309999990463382],[0.020729166666666642,-0.06629629629629631,0.12020000028609701],[0.034687499999999954,-0.06833333333333329,0.13299999999999557],[0.03895833333333331,-0.09148148148148144,0.14959999990463047],[0.04885416666666664,-0.08611111111111111,0.16630000019073066],[0.04885416666666664,-0.08611111111111111,0.18299999999999983],[0.04364583333333331,-0.11500000000000005,0.19959999990462762],[0.050312499999999954,-0.18518518518518517,0.21630000019073492],[0.050416666666666644,-0.2257407407407407,0.23349999999999937],[0.05270833333333336,-0.2772222222222222,0.2495999999046319],[0.03843749999999998,-0.3131481481481482,0.2663000001907321],[0.030208333333333334,-0.36277777777777775,0.28300000000000125],[0.027604166666666666,-0.3738888888888888,0.29959999990462904],[0.026250000000000048,-0.4044444444444444,0.31630000019072924],[0.03104166666666662,-0.3894444444444445,0.33290000009536413],[0.04031250000000005,-0.3531481481481481,0.3497000002860986],[0.050312499999999954,-0.317037037037037,0.3662000002860992],[0.057187499999999974,-0.2809259259259259,0.38299999999999557],[0.05666666666666664,-0.2705555555555556,0.39970000028610286],[0.06354166666666666,-0.26129629629629636,0.41890000009536266],[0.08010416666666677,-0.2616666666666667,0.43430000019073134],[0.09510416666666661,-0.25148148148148153,0.4540000000000006],[0.11010416666666671,-0.24129629629629631,0.47050000000000125],[0.11010416666666671,-0.24129629629629631,0.482999999999997],[0.1040625000000001,-0.2668518518518519,0.4995999999046319],[0.09552083333333337,-0.26962962962962966,0.5173000001907297],[0.08250000000000005,-0.29370370370370374,0.5362000002861009],[0.07854166666666676,-0.3309259259259259,0.5535999999046268],[0.07854166666666676,-0.3309259259259259,0.5662000002861021],[0.07635416666666663,-0.3448148148148148,0.5830999999046327],[0.07583333333333328,-0.34444444444444444,0.6029000000953673],[0.060104166666666715,-0.3388888888888889,0.620599999904627],[0.044375000000000026,-0.3333333333333333,0.6378000001907296],[0.029062499999999977,-0.3109259259259259,0.6540999999046306],[0.013750000000000047,-0.28851851851851856,0.6698000001907332],[0.020729166666666642,-0.2551851851851852,0.6884999999999977],[0.02645833333333331,-0.24055555555555552,0.7045999999046302],[0.03218749999999997,-0.22592592592592592,0.7213000001907304],[0.030624999999999975,-0.2609259259259259,0.7382000002860991],[0.030624999999999975,-0.2609259259259259,0.7497000002860972],[0.027291666666666714,-0.31925925925925924,0.7662000002860978],[0.021041666666666715,-0.33111111111111113,0.7868000001907305],[0.02041666666666669,-0.33611111111111114,0.8053000001907336],[0.03343750000000002,-0.3309259259259259,0.8217000002860999],[0.04500000000000005,-0.33907407407407414,0.8377000002860981],[0.05635416666666669,-0.32592592592592595,0.8530999999046287],[0.04125000000000002,-0.3477777777777778,0.8704999999999998],[0.04125000000000002,-0.3477777777777778,0.8832000002861022],[0.0609375,-0.33611111111111114,0.8995999999046305],[0.0775000000000001,-0.30999999999999994,0.9184000000953674],[0.06916666666666677,-0.22814814814814813,0.9335999999046294],[0.09249999999999996,-0.13722222222222227,0.9527000002861001],[0.11052083333333323,-0.10277777777777777,0.9673000001907326],[0.13572916666666662,-0.0794444444444444,0.9863000001907309],[0.13572916666666662,-0.0794444444444444,0.9997000002860972],[0.14729166666666677,-0.06629629629629631,1.016300000190732],[0.14729166666666677,-0.06629629629629631,1.032900000095367],[0.1701041666666666,-0.008703703703703788,1.049599999904629],[0.1701041666666666,-0.008703703703703788,1.0663000001907363],[0.1837500000000001,0.019444444444444445,1.0829999999999984],[0.22083333333333333,0.09240740740740737,1.1100999999046337],[0.22083333333333333,0.09240740740740737,1.1174000000953583],[0.20020833333333338,0.04222222222222214,1.1330999999046298],[0.20020833333333338,0.04222222222222214,1.1497000002861029],[0.19583333333333333,0.024629629629629547,1.1663000001907307],[0.19583333333333333,0.024629629629629547,1.1829999999999927],[0.20604166666666662,-0.002407407407407323,1.1997000002861],[0.20604166666666662,-0.002407407407407323,1.2163000001907278],[0.1943749999999999,-0.01722222222222214,1.2329000000953698],[0.20343749999999997,-0.018148148148148063,1.2498000001907315],[0.2053124999999999,-0.007962962962962878,1.2715000000000032],[0.2053124999999999,-0.007962962962962878,1.282900000095367],[0.20437500000000006,0.01703703703703712,1.299599999904629],[0.1853125000000001,0.009074074074074031,1.3170999999046273],[0.1756249999999999,0.009259259259259259,1.3329000000953641],[0.1586458333333333,-0.03685185185185181,1.3503000001907282],[0.15656249999999997,0.021851851851851768,1.3663000001907335],[0.14093749999999997,-0.0016666666666666245,1.3872000002861],[0.13385416666666666,-0.008703703703703788,1.4040999999046306],[0.125,-0.008148148148148106,1.4209000000953722],[0.109375,0,1.4410000000000025],[0.109375,0,1.4495999999046347],[0.09572916666666677,-0.0301851851851851,1.4663000001907278],[0.09572916666666677,-0.0301851851851851,1.4830999999046242],[0.08604166666666657,-0.03851851851851843,1.4997000002860972],[0.07770833333333324,-0.04944444444444453,1.518500000000003],[0.06937499999999991,-0.060370370370370414,1.532900000095367],[0.0671875,-0.09203703703703701,1.549599999904629],[0.07802083333333343,-0.14240740740740737,1.566200000286102],[0.07541666666666676,-0.15185185185185185,1.58580000019073],[0.0728125000000001,-0.16129629629629633,1.5997000002861057],[0.06604166666666664,-0.17851851851851847,1.6162000002860992],[0.05322916666666669,-0.19907407407407407,1.6334000000953637],[0.0421875,-0.19500000000000003,1.6497000002861029],[0.029999999999999954,-0.22759259259259254,1.6663000001907307],[0.02947916666666662,-0.27925925925925926,1.6855999999046247],[0.028958333333333287,-0.3309259259259259,1.7000000000000028],[0.027708333333333356,-0.3025925925925925,1.7172000002860983],[0.02520833333333338,-0.2748148148148148,1.7335999999046265],[0.033854166666666664,-0.2675925925925926,1.7495999999046319],[0.02791666666666662,-0.25759259259259265,1.766200000286105],[0.020937500000000022,-0.24462962962962967,1.7865999999046238],[0.01260416666666669,-0.1838888888888889,1.8004999999999995],[-0.008020833333333382,-0.13925925925925925,1.8190999999046369],[-0.028645833333333332,-0.09462962962962967,1.8352000002860933],[-0.036354166666666646,-0.06833333333333329,1.8518000001907353],[-0.044062499999999956,-0.04203703703703712,1.8663000001907335],[-0.052291666666666715,-0.05648148148148148,1.8870000000000005],[-0.08125,-0.07574074074074069,1.9063000001907255],[-0.08125,-0.07574074074074069,1.9163000001907307],[-0.1015625,-0.08444444444444449,1.9329000000953585],[-0.09947916666666666,-0.13444444444444448,1.9495000000000005],[-0.10364583333333334,-0.1764814814814815,1.9662000002860935],[-0.10041666666666664,-0.26296296296296295,1.9830999999046242],[-0.09312499999999997,-0.27166666666666667,1.9995999999046319],[-0.1,-0.30351851851851847,2.016200000286105],[-0.1264583333333333,-0.29981481481481476,2.032900000095367],[-0.14937499999999998,-0.25851851851851854,2.0497000002860943],[-0.17083333333333334,-0.2125925925925926,2.0663000001907363],[-0.17354166666666668,-0.16962962962962966,2.0829999999999984],[-0.18218749999999997,-0.12240740740740745,2.099599999904626],[-0.18791666666666665,-0.03370370370370379,2.118300000190729],[-0.19020833333333337,0.02296296296296292,2.1329000000953613],[-0.18718750000000003,0.07166666666666675,2.1495000000000033],[-0.1796875,0.07240740740740745,2.1663000001907307],[-0.15437500000000004,0.09148148148148144,2.1829999999999927],[-0.12854166666666664,0.10351851851851848,2.1997000002861],[-0.10802083333333339,0.06444444444444436,2.2164999999999964],[-0.09208333333333331,0.03333333333333333,2.2328000001907355],[-0.07281249999999997,0.005555555555555556,2.25],[-0.05354166666666664,-0.022222222222222223,2.266200000286105],[-0.057187499999999974,-0.047037037037036995,2.2830999999046355],[-0.06083333333333331,-0.07185185185185188,2.2998000001907286],[-0.06208333333333336,-0.1037037037037037,2.3185999999046345],[-0.06458333333333334,-0.13574074074074077,2.3330999999046327],[-0.05375000000000003,-0.1096296296296296,2.34990000009536],[-0.042916666666666714,-0.08351851851851856,2.3663000001907335],[-0.042916666666666714,-0.08351851851851856,2.3829000000953613],[-0.030312500000000023,-0.04388888888888897,2.3995999999046234],[-0.03239583333333336,-0.02555555555555547,2.416400000095365],[-0.03583333333333331,-0.002777777777777778,2.4328000001907384],[-0.034062500000000044,-0.0016666666666666245,2.4520999999046325],[-0.02010416666666662,-0.006481481481481481,2.4672000002860983],[0.0010416666666666667,0.017407407407407365,2.4864999999999924],[0.009687499999999953,0.043703703703703745,2.501800000190727],[0.02822916666666669,0.12074074074074083,2.532599999904633],[0.02822916666666669,0.12074074074074083,2.5450000000000017],[0.02822916666666669,0.12074074074074083,2.5497000002860943],[0.033958333333333354,0.11185185185185181,2.5663000001907363],[0.04354166666666662,0.15,2.585099999904628],[0.03927083333333338,0.15314814814814823,2.5997000002861057],[0.05645833333333338,0.1766666666666666,2.6163000001907335],[0.07364583333333338,0.20018518518518522,2.632800000190727],[0.0806250000000001,0.2324074074074074,2.649800000190737],[0.08958333333333333,0.27074074074074084,2.6662000002860964],[0.08479166666666677,0.24074074074074073,2.6850999999046365],[0.08947916666666676,0.2300000000000001,2.6997000002861],[0.07541666666666676,0.14129629629629623,2.7164999999999964],[0.07364583333333338,0.09796296296296292,2.7358000001907357],[0.06333333333333328,0.054259259259259174,2.750300000190734],[0.052291666666666715,0.03425925925925926,2.766300000190739],[0.04906250000000002,0.026481481481481398,2.7857000002860985],[0.03760416666666669,-0.023148148148148147,2.802499999999995],[0.03687499999999998,-0.05407407407407405,2.820200000286107],[0.03229166666666667,-0.09462962962962967,2.8349999999999937],[0.03604166666666669,-0.12111111111111107,2.8498000001907258],[0.035104166666666714,-0.1542592592592593,2.8664000000953678],[0.049479166666666664,-0.10166666666666663,2.8859999999999957],[0.029270833333333357,-0.10129629629629627,2.8999000000953714],[0.025833333333333285,-0.15499999999999997,2.916400000095365],[0.04052083333333331,-0.19518518518518516,2.9329000000953585],[0.04697916666666669,-0.2418518518518519,2.9497000002861],[0.06166666666666672,-0.24666666666666665,2.966300000190728],[0.06166666666666672,-0.24666666666666665,2.983099999904624],[0.06937499999999991,-0.2337037037037037,2.999700000286097],[0.07677083333333339,-0.2366666666666667,3.01709999990463],[0.08239583333333324,-0.2140740740740741,3.0335000000000036],[0.09177083333333323,-0.17037037037037037,3.054300000190736],[0.09593749999999991,-0.18499999999999997,3.0709000000953637],[0.09593749999999991,-0.18499999999999997,3.0830999999046327],[0.11041666666666666,-0.15407407407407406,3.099599999904626],[0.09770833333333329,-0.1492592592592593,3.1189000000953655],[0.09343750000000005,-0.13185185185185183,3.13309999990463],[0.0859375,-0.09703703703703699,3.1529999999999916],[0.0756249999999999,-0.07981481481481485,3.1663000001907307],[0.0609375,-0.07185185185185188,3.1854000000953704],[0.0484375,-0.044444444444444446,3.1998000001907343],[0.03760416666666669,-0.034999999999999955,3.2188000001907255],[0.027291666666666714,-0.05055555555555547,3.23290000009537],[0.010416666666666666,-0.10018518518518522,3.249700000286097],[0.010416666666666666,-0.10018518518518522,3.266300000190739],[0.011874999999999976,-0.14333333333333328,3.2830999999046355],[0.012187500000000047,-0.12833333333333335,3.299599999904629],[0.011354166666666643,-0.15203703703703708,3.3164000000953706],[-0.000833333333333286,-0.1940740740740741,3.3329999999999984],[-0.00614583333333331,-0.22444444444444442,3.3498000001907258],[0.0068750000000000235,-0.2433333333333333,3.3662000002860992],[0.011354166666666643,-0.2783333333333334,3.3837000002860975],[0.01416666666666669,-0.2953703703703704,3.3999999999999915],[0.016250000000000025,-0.2766666666666666,3.416800000190733],[0.024895833333333308,-0.22388888888888886,3.4329000000953585],[-0.006458333333333381,-0.23555555555555555,3.4532000002861025],[0.00791666666666669,-0.27240740740740743,3.466300000190728],[0.00791666666666669,-0.27240740740740743,3.483099999904624],[0.003125,-0.29314814814814816,3.4994999999999976],[0.008749999999999977,-0.2942592592592592,3.5189999999999912],[0.017708333333333333,-0.29129629629629633,3.5364000000953695],[0.01395833333333331,-0.3140740740740741,3.5522000002861063],[0.01875,-0.3207407407407407,3.566900000095359],[0.026145833333333358,-0.30907407407407406,3.58580000019073],[0.035312499999999976,-0.33240740740740743,3.5997000002861057],[0.02687499999999995,-0.3559259259259259,3.6167000002861016],[0.05354166666666664,-0.3290740740740741,3.6329000000953613],[0.05375000000000003,-0.2948148148148148,3.649800000190737],[0.0640625,-0.2542592592592593,3.6665999999046335],[0.05562499999999997,-0.3055555555555556,3.6869999999999976],[0.058541666666666714,-0.31425925925925924,3.7025000000000006],[0.058541666666666714,-0.31425925925925924,3.716300000190728],[0.07218749999999995,-0.2977777777777778,3.73290000009537],[0.07052083333333338,-0.3403703703703704,3.749599999904632],[0.08333333333333333,-0.34388888888888886,3.7664999999999935],[0.0740624999999999,-0.4196296296296297,3.7860999999046356],[0.09718749999999995,-0.4505555555555556,3.7994999999999948],[0.09812500000000005,-0.4274074074074074,3.817200000286107],[0.10187499999999995,-0.4183333333333333,3.832900000095364],[0.10864583333333329,-0.4255555555555556,3.8500999999046286],[0.12791666666666662,-0.36444444444444446,3.8667000002861016],[0.13531250000000009,-0.3042592592592593,3.886900000095366],[0.12177083333333343,-0.27462962962962967,3.9029000000953715],[0.1256249999999999,-0.18759259259259262,3.921999999999997],[0.1256249999999999,-0.18759259259259262,3.9329999999999927],[0.11885416666666657,-0.19370370370370374,3.9498000001907343],[0.13291666666666657,-0.08277777777777776,3.966400000095362],[0.10083333333333329,-0.023148148148148147,3.988099999904634],[0.10229166666666671,-0.06407407407407412,4.003800000190736],[0.09635416666666667,-0.06500000000000004,4.019599999904628],[0.08541666666666667,-0.060370370370370414,4.03740000009536],[0.07770833333333324,-0.032407407407407406,4.053599999904634],[0.05770833333333331,-0.07462962962962966,4.070999999999998],[0.05770833333333331,-0.07462962962962966,4.082999999999998],[0.049583333333333354,-0.08314814814814811,4.099599999904626],[0.041666666666666664,-0.13796296296296295,4.1170999999046245],[0.017604166666666643,-0.17592592592592593,4.133200000286095],[-0.010208333333333286,-0.21703703703703703,4.1499999999999915],[-0.0032291666666666905,-0.2368518518518518,4.166800000190733],[0.005624999999999976,-0.1925925925925926,4.1858000001907385],[0.01604166666666664,-0.18111111111111114,4.200000000000003],[0.021354166666666667,-0.16148148148148145,4.217099999904633],[0.021354166666666667,-0.16148148148148145,4.23290000009537],[0.036249999999999956,-0.17962962962962964,4.2498000001907315]]","[0.00009999990462716823,0.01709999990463018,0.03300000000000125,0.053099999904631545,0.06659999990463206,0.08299999999999841,0.11309999990463382,0.12020000028609701,0.13299999999999557,0.14959999990463047,0.16630000019073066,0.18299999999999983,0.19959999990462762,0.21630000019073492,0.23349999999999937,0.2495999999046319,0.2663000001907321,0.28300000000000125,0.29959999990462904,0.31630000019072924,0.33290000009536413,0.3497000002860986,0.3662000002860992,0.38299999999999557,0.39970000028610286,0.41890000009536266,0.43430000019073134,0.4540000000000006,0.47050000000000125,0.482999999999997,0.4995999999046319,0.5173000001907297,0.5362000002861009,0.5535999999046268,0.5662000002861021,0.5830999999046327,0.6029000000953673,0.620599999904627,0.6378000001907296,0.6540999999046306,0.6698000001907332,0.6884999999999977,0.7045999999046302,0.7213000001907304,0.7382000002860991,0.7497000002860972,0.7662000002860978,0.7868000001907305,0.8053000001907336,0.8217000002860999,0.8377000002860981,0.8530999999046287,0.8704999999999998,0.8832000002861022,0.8995999999046305,0.9184000000953674,0.9335999999046294,0.9527000002861001,0.9673000001907326,0.9863000001907309,0.9997000002860972,1.016300000190732,1.032900000095367,1.049599999904629,1.0663000001907363,1.0829999999999984,1.1100999999046337,1.1174000000953583,1.1330999999046298,1.1497000002861029,1.1663000001907307,1.1829999999999927,1.1997000002861,1.2163000001907278,1.2329000000953698,1.2498000001907315,1.2715000000000032,1.282900000095367,1.299599999904629,1.3170999999046273,1.3329000000953641,1.3503000001907282,1.3663000001907335,1.3872000002861,1.4040999999046306,1.4209000000953722,1.4410000000000025,1.4495999999046347,1.4663000001907278,1.4830999999046242,1.4997000002860972,1.518500000000003,1.532900000095367,1.549599999904629,1.566200000286102,1.58580000019073,1.5997000002861057,1.6162000002860992,1.6334000000953637,1.6497000002861029,1.6663000001907307,1.6855999999046247,1.7000000000000028,1.7172000002860983,1.7335999999046265,1.7495999999046319,1.766200000286105,1.7865999999046238,1.8004999999999995,1.8190999999046369,1.8352000002860933,1.8518000001907353,1.8663000001907335,1.8870000000000005,1.9063000001907255,1.9163000001907307,1.9329000000953585,1.9495000000000005,1.9662000002860935,1.9830999999046242,1.9995999999046319,2.016200000286105,2.032900000095367,2.0497000002860943,2.0663000001907363,2.0829999999999984,2.099599999904626,2.118300000190729,2.1329000000953613,2.1495000000000033,2.1663000001907307,2.1829999999999927,2.1997000002861,2.2164999999999964,2.2328000001907355,2.25,2.266200000286105,2.2830999999046355,2.2998000001907286,2.3185999999046345,2.3330999999046327,2.34990000009536,2.3663000001907335,2.3829000000953613,2.3995999999046234,2.416400000095365,2.4328000001907384,2.4520999999046325,2.4672000002860983,2.4864999999999924,2.501800000190727,2.532599999904633,2.5450000000000017,2.5497000002860943,2.5663000001907363,2.585099999904628,2.5997000002861057,2.6163000001907335,2.632800000190727,2.649800000190737,2.6662000002860964,2.6850999999046365,2.6997000002861,2.7164999999999964,2.7358000001907357,2.750300000190734,2.766300000190739,2.7857000002860985,2.802499999999995,2.820200000286107,2.8349999999999937,2.8498000001907258,2.8664000000953678,2.8859999999999957,2.8999000000953714,2.916400000095365,2.9329000000953585,2.9497000002861,2.966300000190728,2.983099999904624,2.999700000286097,3.01709999990463,3.0335000000000036,3.054300000190736,3.0709000000953637,3.0830999999046327,3.099599999904626,3.1189000000953655,3.13309999990463,3.1529999999999916,3.1663000001907307,3.1854000000953704,3.1998000001907343,3.2188000001907255,3.23290000009537,3.249700000286097,3.266300000190739,3.2830999999046355,3.299599999904629,3.3164000000953706,3.3329999999999984,3.3498000001907258,3.3662000002860992,3.3837000002860975,3.3999999999999915,3.416800000190733,3.4329000000953585,3.4532000002861025,3.466300000190728,3.483099999904624,3.4994999999999976,3.5189999999999912,3.5364000000953695,3.5522000002861063,3.566900000095359,3.58580000019073,3.5997000002861057,3.6167000002861016,3.6329000000953613,3.649800000190737,3.6665999999046335,3.6869999999999976,3.7025000000000006,3.716300000190728,3.73290000009537,3.749599999904632,3.7664999999999935,3.7860999999046356,3.7994999999999948,3.817200000286107,3.832900000095364,3.8500999999046286,3.8667000002861016,3.886900000095366,3.9029000000953715,3.921999999999997,3.9329999999999927,3.9498000001907343,3.966400000095362,3.988099999904634,4.003800000190736,4.019599999904628,4.03740000009536,4.053599999904634,4.070999999999998,4.082999999999998,4.099599999904626,4.1170999999046245,4.133200000286095,4.1499999999999915,4.166800000190733,4.1858000001907385,4.200000000000003,4.217099999904633,4.23290000009537,4.2498000001907315]","[1732075757580,1732075757596,1732075757612,1732075757632,1732075757645,1732075757662,1732075757692,1732075757699,1732075757712,1732075757728,1732075757745,1732075757762,1732075757778,1732075757795,1732075757812,1732075757828,1732075757845,1732075757862,1732075757878,1732075757895,1732075757912,1732075757929,1732075757945,1732075757962,1732075757978,1732075757998,1732075758013,1732075758033,1732075758049,1732075758062,1732075758078,1732075758096,1732075758115,1732075758132,1732075758145,1732075758162,1732075758182,1732075758199,1732075758217,1732075758233,1732075758249,1732075758267,1732075758283,1732075758300,1732075758317,1732075758328,1732075758345,1732075758366,1732075758384,1732075758400,1732075758416,1732075758432,1732075758449,1732075758462,1732075758478,1732075758497,1732075758512,1732075758531,1732075758546,1732075758565,1732075758578,1732075758595,1732075758612,1732075758628,1732075758645,1732075758662,1732075758689,1732075758696,1732075758712,1732075758729,1732075758745,1732075758762,1732075758778,1732075758795,1732075758812,1732075758829,1732075758850,1732075758862,1732075758878,1732075758896,1732075758912,1732075758929,1732075758945,1732075758966,1732075758983,1732075759000,1732075759020,1732075759028,1732075759045,1732075759062,1732075759078,1732075759097,1732075759112,1732075759128,1732075759145,1732075759165,1732075759178,1732075759195,1732075759212,1732075759228,1732075759245,1732075759264,1732075759279,1732075759296,1732075759312,1732075759328,1732075759345,1732075759365,1732075759379,1732075759398,1732075759414,1732075759431,1732075759445,1732075759466,1732075759485,1732075759495,1732075759512,1732075759528,1732075759545,1732075759562,1732075759578,1732075759595,1732075759612,1732075759629,1732075759645,1732075759662,1732075759678,1732075759697,1732075759712,1732075759728,1732075759745,1732075759762,1732075759778,1732075759795,1732075759812,1732075759829,1732075759845,1732075759862,1732075759879,1732075759897,1732075759912,1732075759929,1732075759945,1732075759962,1732075759978,1732075759995,1732075760012,1732075760031,1732075760046,1732075760065,1732075760081,1732075760111,1732075760124,1732075760128,1732075760145,1732075760164,1732075760178,1732075760195,1732075760212,1732075760229,1732075760245,1732075760264,1732075760279,1732075760295,1732075760315,1732075760329,1732075760345,1732075760364,1732075760381,1732075760399,1732075760414,1732075760429,1732075760445,1732075760465,1732075760479,1732075760495,1732075760512,1732075760528,1732075760545,1732075760562,1732075760578,1732075760596,1732075760612,1732075760633,1732075760650,1732075760662,1732075760678,1732075760698,1732075760712,1732075760732,1732075760745,1732075760764,1732075760779,1732075760798,1732075760812,1732075760828,1732075760845,1732075760862,1732075760878,1732075760895,1732075760912,1732075760929,1732075760945,1732075760963,1732075760979,1732075760996,1732075761012,1732075761032,1732075761045,1732075761062,1732075761078,1732075761098,1732075761115,1732075761131,1732075761146,1732075761165,1732075761178,1732075761195,1732075761212,1732075761229,1732075761245,1732075761266,1732075761281,1732075761295,1732075761312,1732075761328,1732075761345,1732075761365,1732075761378,1732075761396,1732075761412,1732075761429,1732075761445,1732075761466,1732075761482,1732075761501,1732075761512,1732075761529,1732075761545,1732075761567,1732075761583,1732075761598,1732075761616,1732075761632,1732075761650,1732075761662,1732075761678,1732075761696,1732075761712,1732075761729,1732075761746,1732075761765,1732075761779,1732075761796,1732075761812,1732075761829]","[[967.8,482.5],[946.5,482.3],[925.2,482.1],[951.1,493.3],[973.7,504.3],[973.7,504.3],[979.9,504.2],[979.9,504.2],[993.3,503.1],[997.4,490.6],[1006.9,493.5],[1006.9,493.5],[1001.9,477.9],[1008.3,440],[1008.4,418.1],[1010.6,390.3],[996.9,370.9],[989,344.1],[986.5,338.1],[985.2,321.6],[989.8,329.7],[998.7,349.3],[1008.3,368.8],[1014.9,388.3],[1014.4,393.9],[1021,398.9],[1036.9,398.7],[1051.3,404.2],[1065.7,409.7],[1065.7,409.7],[1059.9,395.9],[1051.7,394.4],[1039.2,381.4],[1035.4,361.3],[1035.4,361.3],[1033.3,353.8],[1032.8,354],[1017.7,357],[1002.6,360],[987.9,372.1],[973.2,384.2],[979.9,402.2],[985.4,410.1],[990.9,418],[989.4,399.1],[989.4,399.1],[986.2,367.6],[980.2,361.2],[979.6,358.5],[992.1,361.3],[1003.2,356.9],[1014.1,364],[999.6,352.2],[999.6,352.2],[1018.5,358.5],[1034.4,372.6],[1026.4,416.8],[1048.8,465.9],[1066.1,484.5],[1090.3,497.1],[1090.3,497.1],[1101.4,504.2],[1101.4,504.2],[1123.3,535.3],[1123.3,535.3],[1136.4,550.5],[1172,589.9],[1172,589.9],[1152.2,562.8],[1152.2,562.8],[1148,553.3],[1148,553.3],[1157.8,538.7],[1157.8,538.7],[1146.6,530.7],[1155.3,530.2],[1157.1,535.7],[1157.1,535.7],[1156.2,549.2],[1137.9,544.9],[1128.6,545],[1112.3,520.1],[1110.3,551.8],[1095.3,539.1],[1088.5,535.3],[1080,535.6],[1065,540],[1065,540],[1051.9,523.7],[1051.9,523.7],[1042.6,519.2],[1034.6,513.3],[1026.6,507.4],[1024.5,490.3],[1034.9,463.1],[1032.4,458],[1029.9,452.9],[1023.4,443.6],[1011.1,432.5],[1000.5,434.7],[988.8,417.1],[988.3,389.2],[987.8,361.3],[986.6,376.6],[984.2,391.6],[992.5,395.5],[986.8,400.9],[980.1,407.9],[972.1,440.7],[952.3,464.8],[932.5,488.9],[925.1,503.1],[917.7,517.3],[909.8,509.5],[882,499.1],[882,499.1],[862.5,494.4],[864.5,467.4],[860.5,444.7],[863.6,398],[870.6,393.3],[864,376.1],[838.6,378.1],[816.6,400.4],[796,425.2],[793.4,448.4],[785.1,473.9],[779.6,521.8],[777.4,552.4],[780.3,578.7],[787.5,579.1],[811.8,589.4],[836.6,595.9],[856.3,574.8],[871.6,558],[890.1,543],[908.6,528],[905.1,514.6],[901.6,501.2],[900.4,484],[898,466.7],[908.4,480.8],[918.8,494.9],[918.8,494.9],[930.9,516.3],[928.9,526.2],[925.6,538.5],[927.3,539.1],[940.7,536.5],[961,549.4],[969.3,563.6],[987.1,605.2],[987.1,605.2],[987.1,605.2],[992.6,600.4],[1001.8,621],[997.7,622.7],[1014.2,635.4],[1030.7,648.1],[1037.4,665.5],[1046,686.2],[1041.4,670],[1045.9,664.2],[1032.4,616.3],[1030.7,592.9],[1020.8,569.3],[1010.2,558.5],[1007.1,554.3],[996.1,527.5],[995.4,510.8],[991,488.9],[994.6,474.6],[993.7,456.7],[1007.5,485.1],[988.1,485.3],[984.8,456.3],[998.9,434.6],[1005.1,409.4],[1019.2,406.8],[1019.2,406.8],[1026.6,413.8],[1033.7,412.2],[1039.1,424.4],[1048.1,448],[1052.1,440.1],[1052.1,440.1],[1066,456.8],[1053.8,459.4],[1049.7,468.8],[1042.5,487.6],[1032.6,496.9],[1018.5,501.2],[1006.5,516],[996.1,521.1],[986.2,512.7],[970,485.9],[970,485.9],[971.4,462.6],[971.7,470.7],[970.9,457.9],[959.2,435.2],[954.1,418.8],[966.6,408.6],[970.9,389.7],[973.6,380.5],[975.6,390.6],[983.9,419.1],[953.8,412.8],[967.6,392.9],[967.6,392.9],[963,381.7],[968.4,381.1],[977,382.7],[973.4,370.4],[978,366.8],[985.1,373.1],[993.9,360.5],[985.8,347.8],[1011.4,362.3],[1011.6,380.8],[1021.5,402.7],[1013.4,375],[1016.2,370.3],[1016.2,370.3],[1029.3,379.2],[1027.7,356.2],[1040,354.3],[1031.1,313.4],[1053.3,296.7],[1054.2,309.2],[1057.8,314.1],[1064.3,310.2],[1082.8,343.2],[1089.9,375.7],[1076.9,391.7],[1080.6,438.7],[1080.6,438.7],[1074.1,435.4],[1087.6,495.3],[1056.8,527.5],[1058.2,505.4],[1052.5,504.9],[1042,507.4],[1034.6,522.5],[1015.4,499.7],[1015.4,499.7],[1007.6,495.1],[1000,465.5],[976.9,445],[950.2,422.8],[956.9,412.1],[965.4,436],[975.4,442.2],[980.5,452.8],[980.5,452.8],[994.8,443]]","[-0.056692,0.170076]","[0.056692,0.170076]","[0.170076,0.170076]","[-0.170076,0.056692]","[-0.170076,-0.056692]","[-0.170076,-0.170076]","[-0.056692,0.056692]","[0.056692,0.056692]","[0.170076,0.056692]","[-0.056692,-0.056692]","[0.056692,-0.056692]","[0.170076,-0.056692]","[-0.056692,-0.170076]","[0.056692,-0.170076]","[0.170076,-0.170076]",0,1,1,1,1,2,Smartphone,20,20,7,3,70,6,3,60,3
