inst1_resp.keys,inst1_resp.rt,calibrationMouse.x,calibrationMouse.y,calibrationMouse.leftButton,calibrationMouse.midButton,calibrationMouse.rightButton,calibrationClick.x,calibrationClick.y,calibrationClick.leftButton,calibrationClick.midButton,calibrationClick.rightButton,calibrationClick.clicked_name,trialsc.thisRepN,trialsc.thisTrialN,trialsc.thisN,trialsc.thisIndex,trialsc.ran,calibration_x,calibration_y,participant,session,date,expName,psychopyVersion,OS,frameRate,ScreenRes_pixels,Camera_pixels,mouse_2.x,mouse_2.y,mouse_2.leftButton,mouse_2.midButton,mouse_2.rightButton,mouse_2.time,mouse_2.clicked_name,mouse.x,mouse.y,mouse.leftButton,mouse.midButton,mouse.rightButton,mouse.time,mouse.clicked_name,Choice,Trial,TrialDuration,MOUSE_GAZE,ET_GAZE,ET_GAZE_x_T,time,unixTime,ET_GAZE_NF,Loc_Bus_label,Loc_Metro_label,Loc_RH_label,Loc_Cost_label,Loc_Travel_label,Loc_Comfort_label,Loc_Bus_cost,Loc_Metro_cost,Loc_RH_cost,Loc_Bus_travel,Loc_Metro_travel,Loc_RH_travel,Loc_Bus_comfort,Loc_Metro_comfort,Loc_RH_comfort,trials.thisRepN,trials.thisTrialN,trials.thisN,trials.thisIndex,trials.ran,Block,Device,RH_cost,RH_travel_time,RH_Comfort,metro_cost,metro_travel_time,metro_Comfort,Bus_cost,Bus_travel_time,Bus_Comfort
space,4.1118,0.326041667,-0.085185185,1,0,0,0.33125,0.003703704,1,0,0,calibration_square,0,0,0,16,1,0.33,0,17,001,2024-11-20_11h59.18.705,Attention_exp_legacy,2023.1.0,Win32,60.24096386,,,,,,,,,,,,,,,,,,,,,,,,,,,,,,,,,,,,,,,,,,,,,,,,,,,,,,,,
,,,,,,,0.317708333,-0.661111111,1,0,0,,0,1,1,14,1,0.33,-0.67,17,001,2024-11-20_11h59.18.705,Attention_exp_legacy,2023.1.0,Win32,60.24096386,,,,,,,,,,,,,,,,,,,,,,,,,,,,,,,,,,,,,,,,,,,,,,,,,,,,,,,,
,,,,,,,0,-0.005555556,1,0,0,calibration_square,0,2,2,11,1,0,0,17,001,2024-11-20_11h59.18.705,Attention_exp_legacy,2023.1.0,Win32,60.24096386,,,,,,,,,,,,,,,,,,,,,,,,,,,,,,,,,,,,,,,,,,,,,,,,,,,,,,,,
,,,,,,,-0.332291667,-0.333333333,1,0,0,calibration_square,0,3,3,5,1,-0.33,-0.33,17,001,2024-11-20_11h59.18.705,Attention_exp_legacy,2023.1.0,Win32,60.24096386,,,,,,,,,,,,,,,,,,,,,,,,,,,,,,,,,,,,,,,,,,,,,,,,,,,,,,,,
,,,,,,,0.665625,-0.668518519,1,0,0,calibration_square,0,4,4,20,1,0.67,-0.67,17,001,2024-11-20_11h59.18.705,Attention_exp_legacy,2023.1.0,Win32,60.24096386,,,,,,,,,,,,,,,,,,,,,,,,,,,,,,,,,,,,,,,,,,,,,,,,,,,,,,,,
,,,,,,,-0.66875,0.316666667,1,0,0,,0,5,5,3,1,-0.67,0.33,17,001,2024-11-20_11h59.18.705,Attention_exp_legacy,2023.1.0,Win32,60.24096386,,,,,,,,,,,,,,,,,,,,,,,,,,,,,,,,,,,,,,,,,,,,,,,,,,,,,,,,
,,,,,,,-0.33125,0.001851852,1,0,0,calibration_square,0,6,6,6,1,-0.33,0,17,001,2024-11-20_11h59.18.705,Attention_exp_legacy,2023.1.0,Win32,60.24096386,,,,,,,,,,,,,,,,,,,,,,,,,,,,,,,,,,,,,,,,,,,,,,,,,,,,,,,,
,,,,,,,0,0.338888889,1,0,0,calibration_square,0,7,7,12,1,0,0.33,17,001,2024-11-20_11h59.18.705,Attention_exp_legacy,2023.1.0,Win32,60.24096386,,,,,,,,,,,,,,,,,,,,,,,,,,,,,,,,,,,,,,,,,,,,,,,,,,,,,,,,
,,,,,,,-0.336458333,0.32962963,1,0,0,calibration_square,0,8,8,7,1,-0.33,0.33,17,001,2024-11-20_11h59.18.705,Attention_exp_legacy,2023.1.0,Win32,60.24096386,,,,,,,,,,,,,,,,,,,,,,,,,,,,,,,,,,,,,,,,,,,,,,,,,,,,,,,,
,,,,,,,-0.334375,0.668518519,1,0,0,calibration_square,0,9,9,8,1,-0.33,0.67,17,001,2024-11-20_11h59.18.705,Attention_exp_legacy,2023.1.0,Win32,60.24096386,,,,,,,,,,,,,,,,,,,,,,,,,,,,,,,,,,,,,,,,,,,,,,,,,,,,,,,,
,,,,,,,-0.671875,-0.325925926,1,0,0,calibration_square,0,10,10,1,1,-0.67,-0.33,17,001,2024-11-20_11h59.18.705,Attention_exp_legacy,2023.1.0,Win32,60.24096386,,,,,,,,,,,,,,,,,,,,,,,,,,,,,,,,,,,,,,,,,,,,,,,,,,,,,,,,
,,,,,,,0.334375,-0.327777778,1,0,0,calibration_square,0,11,11,15,1,0.33,-0.33,17,001,2024-11-20_11h59.18.705,Attention_exp_legacy,2023.1.0,Win32,60.24096386,,,,,,,,,,,,,,,,,,,,,,,,,,,,,,,,,,,,,,,,,,,,,,,,,,,,,,,,
,,,,,,,0.327083333,0.32962963,1,0,0,calibration_square,0,12,12,17,1,0.33,0.33,17,001,2024-11-20_11h59.18.705,Attention_exp_legacy,2023.1.0,Win32,60.24096386,,,,,,,,,,,,,,,,,,,,,,,,,,,,,,,,,,,,,,,,,,,,,,,,,,,,,,,,
,,,,,,,-0.673958333,-0.677777778,1,0,0,calibration_square,0,13,13,0,1,-0.67,-0.67,17,001,2024-11-20_11h59.18.705,Attention_exp_legacy,2023.1.0,Win32,60.24096386,,,,,,,,,,,,,,,,,,,,,,,,,,,,,,,,,,,,,,,,,,,,,,,,,,,,,,,,
,,,,,,,0.002083333,0.672222222,1,0,0,calibration_square,0,14,14,13,1,0,0.67,17,001,2024-11-20_11h59.18.705,Attention_exp_legacy,2023.1.0,Win32,60.24096386,,,,,,,,,,,,,,,,,,,,,,,,,,,,,,,,,,,,,,,,,,,,,,,,,,,,,,,,
,,,,,,,0.005208333,-0.672222222,1,0,0,calibration_square,0,15,15,9,1,0,-0.67,17,001,2024-11-20_11h59.18.705,Attention_exp_legacy,2023.1.0,Win32,60.24096386,,,,,,,,,,,,,,,,,,,,,,,,,,,,,,,,,,,,,,,,,,,,,,,,,,,,,,,,
,,,,,,,0.332291667,0.672222222,1,0,0,calibration_square,0,16,16,18,1,0.33,0.67,17,001,2024-11-20_11h59.18.705,Attention_exp_legacy,2023.1.0,Win32,60.24096386,,,,,,,,,,,,,,,,,,,,,,,,,,,,,,,,,,,,,,,,,,,,,,,,,,,,,,,,
,,,,,,,-0.677083333,0.001851852,1,0,0,calibration_square,0,17,17,2,1,-0.67,0,17,001,2024-11-20_11h59.18.705,Attention_exp_legacy,2023.1.0,Win32,60.24096386,,,,,,,,,,,,,,,,,,,,,,,,,,,,,,,,,,,,,,,,,,,,,,,,,,,,,,,,
,,,,,,,-0.329166667,-0.677777778,1,0,0,calibration_square,0,18,18,4,1,-0.33,-0.67,17,001,2024-11-20_11h59.18.705,Attention_exp_legacy,2023.1.0,Win32,60.24096386,,,,,,,,,,,,,,,,,,,,,,,,,,,,,,,,,,,,,,,,,,,,,,,,,,,,,,,,
,,,,,,,-0.003125,-0.333333333,1,0,0,calibration_square,0,19,19,10,1,0,-0.33,17,001,2024-11-20_11h59.18.705,Attention_exp_legacy,2023.1.0,Win32,60.24096386,,,,,,,,,,,,,,,,,,,,,,,,,,,,,,,,,,,,,,,,,,,,,,,,,,,,,,,,
,,,,,,,0.669791667,0.664814815,1,0,0,calibration_square,0,20,20,19,1,0.67,0.67,17,001,2024-11-20_11h59.18.705,Attention_exp_legacy,2023.1.0,Win32,60.24096386,,,,,,,,,,,,,,,,,,,,,,,,,,,,,,,,,,,,,,,,,,,,,,,,,,,,,,,,
,,,,,,,,,,,,,,,,,,,,17,001,2024-11-20_11h59.18.705,Attention_exp_legacy,2023.1.0,Win32,60.24096386,"[1920,1080]","[640,480]",[0.007291666666666667],[-0.5055555555555555],[1],[0],[0],[9.597999999999999],"[""StartButton""]",[0.134375],[0.4388888888888889],[1],[0],[0],[6.069800000190739],"[""Metro_label""]",Metro_label,1,7.08,"[[0.022916666666666665,0.2074074074074074],[0.022916666666666665,0.2074074074074074],[0.022916666666666665,0.2074074074074074],[0.022916666666666665,0.2074074074074074],[0.022916666666666665,0.2074074074074074],[0.022916666666666665,0.2074074074074074],[0.022916666666666665,0.2074074074074074],[0.022916666666666665,0.2074074074074074],[0.022916666666666665,0.2074074074074074],[0.022916666666666665,0.2074074074074074],[0.022916666666666665,0.2074074074074074],[0.022916666666666665,0.2074074074074074],[0.022916666666666665,0.2074074074074074],[0.022916666666666665,0.2074074074074074],[0.022916666666666665,0.2074074074074074],[0.022916666666666665,0.2074074074074074],[0.022916666666666665,0.2074074074074074],[0.022916666666666665,0.2074074074074074],[0.022916666666666665,0.2074074074074074],[0.022916666666666665,0.2074074074074074],[0.022916666666666665,0.2074074074074074],[0.022916666666666665,0.2074074074074074],[0.022916666666666665,0.2074074074074074],[0.022916666666666665,0.2074074074074074],[0.022916666666666665,0.2074074074074074],[0.022916666666666665,0.2074074074074074],[0.022916666666666665,0.2074074074074074],[0.022916666666666665,0.2074074074074074],[0.021875,0.2074074074074074],[0.021875,0.2074074074074074],[0.020833333333333332,0.2074074074074074],[0.020833333333333332,0.2074074074074074],[0.019791666666666666,0.20555555555555555],[0.019791666666666666,0.20555555555555555],[0.01875,0.2037037037037037],[0.017708333333333333,0.20185185185185187],[0.016666666666666666,0.20185185185185187],[0.016666666666666666,0.20185185185185187],[0.015625,0.2],[0.015625,0.2],[0.015625,0.2],[0.014583333333333334,0.2],[0.013541666666666667,0.2],[0.013541666666666667,0.2],[0.011458333333333333,0.2],[0.011458333333333333,0.2],[0.009375,0.2],[0.009375,0.19814814814814816],[0.008333333333333333,0.19814814814814816],[0.008333333333333333,0.1974050046339203],[0.00625,0.1974050046339203],[0.00625,0.1974050046339203],[0.005208333333333333,0.1974050046339203],[0.005208333333333333,0.1974050046339203],[0.005208333333333333,0.1974050046339203],[0.005208333333333333,0.1974050046339203],[0.005208333333333333,0.1974050046339203],[0.003125,0.1974050046339203],[0.003125,0.1974050046339203],[0.003125,0.1974050046339203],[0.0020833333333333333,0.1974050046339203],[0.0010416666666666667,0.1974050046339203],[-0.0020833333333333333,0.1974050046339203],[-0.003125,0.1974050046339203],[-0.005208333333333333,0.1974050046339203],[-0.010416666666666666,0.19555143651529194],[-0.013541666666666667,0.1936978683966636],[-0.015625,0.1936978683966636],[-0.021875,0.19184430027803523],[-0.022916666666666665,0.18999073215940684],[-0.026041666666666668,0.18999073215940684],[-0.03229166666666667,0.1881371640407785],[-0.03854166666666667,0.18443002780352177],[-0.04479166666666667,0.18257645968489342],[-0.052083333333333336,0.18072289156626506],[-0.059375,0.17701575532900835],[-0.065625,0.17330861909175163],[-0.06979166666666667,0.17330861909175163],[-0.07708333333333334,0.16589434661723818],[-0.08333333333333333,0.1603336422613531],[-0.09270833333333334,0.15291936978683968],[-0.096875,0.14735866543095458],[-0.1,0.1417979610750695],[-0.10520833333333333,0.12696941612604262],[-0.10729166666666666,0.1195551436515292],[-0.11041666666666666,0.10472659870250231],[-0.11354166666666667,0.08619091751621873],[-0.11666666666666667,0.060240963855421686],[-0.11770833333333333,0.03985171455050973],[-0.11875,0.021316033364226137],[-0.11875,0.006487488415199258],[-0.11875,-0.006487488415199258],[-0.11875,-0.026876737720111215],[-0.11875,-0.03985171455050973],[-0.11875,-0.05282669138090825],[-0.11875,-0.06580166821130677],[-0.11875,-0.07877664504170528],[-0.11875,-0.08989805375347544],[-0.11666666666666667,-0.1010194624652456],[-0.11666666666666667,-0.10843373493975904],[-0.115625,-0.11770157553290084],[-0.11458333333333333,-0.12696941612604262],[-0.1125,-0.1380908248378128],[-0.11145833333333334,-0.14735866543095458],[-0.109375,-0.15291936978683968],[-0.10729166666666666,-0.1603336422613531],[-0.10520833333333333,-0.16589434661723818],[-0.103125,-0.17330861909175163],[-0.10104166666666667,-0.1788693234476367],[-0.09791666666666667,-0.18628359592215013],[-0.09375,-0.19184430027803523],[-0.090625,-0.19925857275254866],[-0.08541666666666667,-0.20852641334569044],[-0.07916666666666666,-0.21408711770157554],[-0.06875,-0.22335495829471733],[-0.06770833333333333,-0.22520852641334568],[-0.05625,-0.23076923076923078],[-0.04791666666666667,-0.2344763670064875],[-0.0375,-0.2381835032437442],[-0.023958333333333335,-0.24374420759962928],[-0.0125,-0.247451343836886],[-0.0020833333333333333,-0.2511584800741427],[0.0125,-0.2511584800741427],[0.03854166666666667,-0.2511584800741427],[0.04791666666666667,-0.2511584800741427],[0.06875,-0.2511584800741427],[0.1,-0.247451343836886],[0.109375,-0.24189063948100092],[0.1375,-0.22520852641334568],[0.153125,-0.2159406858202039],[0.16458333333333333,-0.20481927710843373],[0.171875,-0.1974050046339203],[0.17291666666666666,-0.19184430027803523],[0.175,-0.18257645968489342],[0.17604166666666668,-0.17330861909175163],[0.178125,-0.1603336422613531],[0.18125,-0.1417979610750695],[0.18645833333333334,-0.10658016682113068],[0.190625,-0.07877664504170528],[0.196875,-0.04355885078776645],[0.19895833333333332,-0.008341056533827619],[0.20104166666666667,0.021316033364226137],[0.20208333333333334,0.047265987025023166],[0.20208333333333334,0.06765523632993513],[0.20208333333333334,0.08433734939759036],[0.20208333333333334,0.09916589434661724],[0.20208333333333334,0.11214087117701575],[0.20104166666666667,0.12511584800741427],[0.2,0.13438368860055608],[0.19791666666666666,0.14365152919369786],[0.196875,0.14735866543095458],[0.196875,0.15106580166821132],[0.196875,0.15291936978683968],[0.19583333333333333,0.1603336422613531],[0.19479166666666667,0.17145505097312327],[0.19375,0.18257645968489342],[0.19270833333333334,0.1936978683966636],[0.19166666666666668,0.21037998146431883],[0.190625,0.22520852641334568],[0.190625,0.24374420759962928],[0.18854166666666666,0.2567191844300278],[0.18541666666666667,0.27710843373493976],[0.18541666666666667,0.2808155699721965],[0.184375,0.29008341056533826],[0.18020833333333333,0.3049119555143652],[0.178125,0.3123262279888786],[0.17604166666666668,0.3215940685820204],[0.17395833333333333,0.32715477293790546],[0.171875,0.3290083410565338],[0.17083333333333334,0.3345690454124189],[0.16875,0.340129749768304],[0.16458333333333333,0.34754402224281744],[0.16041666666666668,0.3568118628359592],[0.15729166666666666,0.3623725671918443],[0.15520833333333334,0.36793327154772937],[0.15416666666666667,0.37349397590361444],[0.153125,0.3790546802594995],[0.15104166666666666,0.3809082483781279],[0.15,0.386468952734013],[0.14791666666666667,0.39202965708989806],[0.146875,0.39759036144578314],[0.14479166666666668,0.40500463392029656],[0.14270833333333333,0.4087117701575533],[0.140625,0.4161260426320667],[0.13958333333333334,0.41797961075069506],[0.13958333333333334,0.42168674698795183],[0.13854166666666667,0.42168674698795183],[0.13854166666666667,0.4235403151065802],[0.13854166666666667,0.4235403151065802],[0.1375,0.4235403151065802],[0.1375,0.4272474513438369],[0.1375,0.42910101946246526],[0.13645833333333332,0.42910101946246526],[0.13541666666666666,0.43466172381835033],[0.13541666666666666,0.43466172381835033],[0.134375,0.4365152919369787],[0.134375,0.43836886005560705],[0.134375,0.43836886005560705],[0.134375,0.43836886005560705],[0.134375,0.43836886005560705],[0.134375,0.43836886005560705],[0.134375,0.43836886005560705],[0.134375,0.43836886005560705],[0.134375,0.43836886005560705],[0.134375,0.43836886005560705],[0.134375,0.43836886005560705],[0.134375,0.43836886005560705],[0.134375,0.43836886005560705],[0.134375,0.43836886005560705],[0.134375,0.43836886005560705],[0.134375,0.43836886005560705],[0.134375,0.43836886005560705],[0.134375,0.43836886005560705],[0.134375,0.43836886005560705],[0.134375,0.43836886005560705],[0.134375,0.43836886005560705],[0.134375,0.43836886005560705],[0.134375,0.43836886005560705],[0.134375,0.43836886005560705],[0.134375,0.43836886005560705],[0.134375,0.43836886005560705],[0.134375,0.43836886005560705],[0.134375,0.43836886005560705],[0.134375,0.43836886005560705],[0.134375,0.43836886005560705],[0.134375,0.43836886005560705],[0.134375,0.43836886005560705],[0.134375,0.43836886005560705],[0.134375,0.43836886005560705],[0.134375,0.43836886005560705],[0.134375,0.43836886005560705],[0.134375,0.43836886005560705],[0.134375,0.43836886005560705],[0.134375,0.43836886005560705],[0.134375,0.43836886005560705],[0.134375,0.43836886005560705],[0.134375,0.43836886005560705],[0.134375,0.43836886005560705],[0.134375,0.43836886005560705],[0.134375,0.43836886005560705],[0.134375,0.43836886005560705],[0.134375,0.43836886005560705],[0.134375,0.43836886005560705],[0.134375,0.43836886005560705],[0.134375,0.43836886005560705],[0.134375,0.43836886005560705],[0.134375,0.43836886005560705],[0.134375,0.43836886005560705],[0.134375,0.43836886005560705],[0.134375,0.43836886005560705],[0.134375,0.43836886005560705],[0.134375,0.43836886005560705],[0.134375,0.43836886005560705],[0.134375,0.43836886005560705],[0.134375,0.43836886005560705],[0.134375,0.43836886005560705],[0.134375,0.43836886005560705],[0.134375,0.43836886005560705],[0.134375,0.43836886005560705],[0.134375,0.43836886005560705],[0.134375,0.43836886005560705],[0.134375,0.43836886005560705],[0.134375,0.43836886005560705],[0.134375,0.43836886005560705],[0.134375,0.43836886005560705],[0.134375,0.43836886005560705],[0.134375,0.43836886005560705],[0.134375,0.43836886005560705],[0.134375,0.43836886005560705],[0.134375,0.43836886005560705],[0.134375,0.43836886005560705],[0.134375,0.43836886005560705],[0.134375,0.43836886005560705],[0.134375,0.43836886005560705],[0.134375,0.43836886005560705],[0.134375,0.43836886005560705],[0.134375,0.43836886005560705],[0.134375,0.43836886005560705],[0.134375,0.43836886005560705],[0.134375,0.43836886005560705],[0.134375,0.43836886005560705],[0.134375,0.43836886005560705],[0.134375,0.43836886005560705],[0.134375,0.43836886005560705],[0.134375,0.43836886005560705],[0.134375,0.43836886005560705],[0.134375,0.43836886005560705],[0.134375,0.43836886005560705],[0.134375,0.43836886005560705],[0.134375,0.43836886005560705],[0.134375,0.43836886005560705],[0.134375,0.43836886005560705],[0.134375,0.43836886005560705],[0.134375,0.43836886005560705],[0.134375,0.43836886005560705],[0.134375,0.43836886005560705],[0.134375,0.43836886005560705],[0.134375,0.43836886005560705],[0.134375,0.43836886005560705],[0.134375,0.43836886005560705],[0.134375,0.43836886005560705],[0.134375,0.43836886005560705],[0.134375,0.43836886005560705],[0.134375,0.43836886005560705],[0.134375,0.43836886005560705],[0.134375,0.43836886005560705],[0.134375,0.43836886005560705],[0.134375,0.43836886005560705],[0.134375,0.43836886005560705],[0.134375,0.43836886005560705],[0.134375,0.43836886005560705],[0.134375,0.43836886005560705],[0.134375,0.43836886005560705],[0.134375,0.43836886005560705],[0.134375,0.43836886005560705],[0.134375,0.43836886005560705],[0.134375,0.43836886005560705],[0.134375,0.43836886005560705],[0.134375,0.43836886005560705],[0.134375,0.43836886005560705],[0.134375,0.43836886005560705],[0.134375,0.43836886005560705],[0.134375,0.43836886005560705],[0.134375,0.43836886005560705],[0.134375,0.43836886005560705],[0.134375,0.43836886005560705],[0.134375,0.43836886005560705],[0.134375,0.43836886005560705],[0.134375,0.43836886005560705],[0.134375,0.43836886005560705],[0.134375,0.43836886005560705],[0.134375,0.43836886005560705],[0.134375,0.43836886005560705],[0.134375,0.43836886005560705],[0.134375,0.43836886005560705],[0.134375,0.43836886005560705],[0.134375,0.43836886005560705],[0.134375,0.43836886005560705],[0.134375,0.43836886005560705],[0.134375,0.43836886005560705],[0.134375,0.43836886005560705],[0.134375,0.43836886005560705],[0.134375,0.43836886005560705],[0.134375,0.43836886005560705],[0.134375,0.43836886005560705],[0.134375,0.43836886005560705],[0.134375,0.43836886005560705],[0.134375,0.43836886005560705],[0.134375,0.43836886005560705],[0.134375,0.43836886005560705],[0.134375,0.43836886005560705],[0.134375,0.43836886005560705],[0.134375,0.43836886005560705],[0.134375,0.43836886005560705],[0.134375,0.43836886005560705],[0.134375,0.43836886005560705],[0.134375,0.43836886005560705],[0.134375,0.43836886005560705],[0.134375,0.43836886005560705],[0.134375,0.43836886005560705],[0.134375,0.4388888888888889],[0.134375,0.4388888888888889],[0.134375,0.4388888888888889],[0.134375,0.4388888888888889],[0.134375,0.4388888888888889],[0.134375,0.4388888888888889],[0.134375,0.4388888888888889],[0.134375,0.4388888888888889],[0.134375,0.4388888888888889],[0.134375,0.4388888888888889],[0.134375,0.4388888888888889],[0.134375,0.4388888888888889],[0.134375,0.4388888888888889],[0.134375,0.4388888888888889],[0.134375,0.4388888888888889],[0.134375,0.4388888888888889],[0.134375,0.4388888888888889],[0.134375,0.4388888888888889],[0.134375,0.4388888888888889],[0.134375,0.4388888888888889],[0.134375,0.4388888888888889],[0.134375,0.4388888888888889],[0.134375,0.4388888888888889],[0.134375,0.4388888888888889],[0.134375,0.4388888888888889],[0.134375,0.4388888888888889],[0.134375,0.4388888888888889],[0.134375,0.4388888888888889],[0.134375,0.4388888888888889],[0.134375,0.4388888888888889],[0.134375,0.4388888888888889],[0.134375,0.4388888888888889],[0.134375,0.4388888888888889],[0.134375,0.4388888888888889],[0.134375,0.4388888888888889],[0.134375,0.4388888888888889],[0.134375,0.4388888888888889],[0.134375,0.4388888888888889],[0.134375,0.4351851851851852],[0.134375,0.43148148148148147],[0.134375,0.4222222222222222],[0.134375,0.4185185185185185],[0.134375,0.412962962962963],[0.134375,0.4111111111111111],[0.134375,0.40925925925925927],[0.134375,0.4074074074074074],[0.134375,0.40555555555555556],[0.134375,0.40555555555555556],[0.134375,0.40370370370370373],[0.134375,0.40185185185185185],[0.134375,0.40185185185185185],[0.134375,0.40185185185185185],[0.134375,0.40185185185185185],[0.134375,0.40185185185185185],[0.134375,0.40185185185185185],[0.134375,0.40185185185185185],[0.134375,0.40185185185185185],[0.134375,0.40185185185185185]]","[[-0.06666666666666667,-0.10629629629629625],[-0.06666666666666667,-0.10629629629629625],[-0.06666666666666667,-0.10629629629629625],[-0.06666666666666667,-0.10629629629629625],[-0.06218750000000005,-0.1111111111111111],[-0.06218750000000005,-0.1111111111111111],[-0.03927083333333338,-0.10055555555555558],[-0.03927083333333338,-0.10055555555555558],[-0.03135416666666669,-0.1418518518518519],[-0.03135416666666669,-0.1418518518518519],[-0.028958333333333287,-0.17703703703703708],[-0.028958333333333287,-0.17703703703703708],[-0.02510416666666669,-0.21351851851851855],[-0.02510416666666669,-0.21351851851851855],[-0.03895833333333331,-0.24592592592592594],[-0.03895833333333331,-0.24592592592592594],[-0.03802083333333333,-0.30907407407407406],[-0.03802083333333333,-0.30907407407407406],[-0.02020833333333331,-0.36018518518518516],[-0.02020833333333331,-0.36018518518518516],[-0.0020833333333333333,-0.40425925925925926],[-0.0020833333333333333,-0.40425925925925926],[0.014791666666666713,-0.4601851851851852],[0.014791666666666713,-0.4601851851851852],[-0.002499999999999976,-0.5146296296296295],[-0.002499999999999976,-0.5146296296296295],[-0.013020833333333334,-0.5859259259259259],[-0.013020833333333334,-0.5859259259259259],[-0.02687499999999995,-0.5733333333333334],[-0.02687499999999995,-0.5733333333333334],[-0.0515625,-0.5475925925925925],[-0.0515625,-0.5475925925925925],[-0.058749999999999976,-0.5327777777777778],[-0.058749999999999976,-0.5327777777777778],[-0.042812500000000024,-0.5375925925925926],[-0.042812500000000024,-0.5375925925925926],[-0.052187500000000026,-0.5011111111111112],[-0.052187500000000026,-0.5011111111111112],[-0.04874999999999995,-0.4522222222222222],[-0.04874999999999995,-0.4522222222222222],[-0.04645833333333336,-0.4396296296296296],[-0.04645833333333336,-0.4396296296296296],[-0.03791666666666664,-0.40925925925925927],[-0.03791666666666664,-0.40925925925925927],[-0.015312500000000047,-0.36500000000000005],[-0.015312500000000047,-0.36500000000000005],[0.02385416666666664,-0.35722222222222216],[0.02385416666666664,-0.35722222222222216],[0.06385416666666661,-0.34944444444444445],[0.06385416666666661,-0.34884151992585727],[0.10802083333333339,-0.35273401297497686],[0.10802083333333339,-0.35273401297497686],[0.1040625000000001,-0.31640407784986097],[0.06895833333333339,-0.2891566265060241],[0.05260416666666667,-0.26116774791473585],[0.03260416666666662,-0.2580166821130676],[0.03260416666666662,-0.2580166821130676],[0.010208333333333286,-0.23762743280815568],[0.010208333333333286,-0.23762743280815568],[-0.0018749999999999527,-0.23392029657089897],[-0.0018749999999999527,-0.23392029657089897],[0.02781250000000005,-0.25078776645041706],[0.0026041666666666665,-0.18628359592215013],[0.0026041666666666665,-0.18628359592215013],[-0.001145833333333357,-0.16515291936978688],[-0.001145833333333357,-0.16515291936978688],[-0.01229166666666662,-0.16367006487488417],[-0.0006250000000000236,-0.19944392956441154],[0.024166666666666715,-0.2281742354031511],[0.042499999999999954,-0.24022242817423545],[0.058958333333333356,-0.2559777571825765],[0.084375,-0.2708063021316034],[0.07697916666666677,-0.2670991658943467],[0.03343750000000002,-0.25097312326227983],[0.03239583333333336,-0.2713623725671918],[0.024374999999999977,-0.27414272474513435],[0.024374999999999977,-0.27414272474513435],[0.01229166666666662,-0.25245597775718254],[0.02364583333333338,-0.22298424467099168],[0.014687500000000023,-0.2098239110287303],[0.014687500000000023,-0.2098239110287303],[0.008541666666666715,-0.20667284522706209],[-0.004166666666666667,-0.17775718257645964],[-0.025833333333333285,-0.14976830398517146],[-0.025833333333333285,-0.14976830398517146],[-0.029166666666666667,-0.12400370713623722],[-0.022916666666666665,-0.1095458758109361],[-0.03458333333333338,-0.09304911955514363],[-0.06020833333333329,-0.09286376274328086],[-0.07645833333333331,-0.08025949953660799],[-0.07645833333333331,-0.08025949953660799],[-0.078125,-0.061538461538461514],[-0.10083333333333329,-0.03948100092678398],[-0.11749999999999995,-0.015940685820203936],[-0.12145833333333336,-0.005746061167747957],[-0.12291666666666666,0.005189990732159323],[-0.10864583333333329,-0.0005560704355884236],[-0.10604166666666662,0.0007414272474513017],[-0.10604166666666662,0.0007414272474513017],[-0.1282291666666667,0.005931417979610835],[-0.1282291666666667,0.005931417979610835],[-0.12729166666666672,0.0031510658016682958],[-0.12354166666666669,0.027618164967562517],[-0.15,0.06265060240963848],[-0.14104166666666665,0.09935125115848012],[-0.12708333333333333,0.10732159406858198],[-0.1248958333333333,0.08934198331788702],[-0.1252083333333334,0.07062094531974054],[-0.14343750000000005,0.07025023169601478],[-0.14343750000000005,0.07025023169601478],[-0.15854166666666672,0.09082483781278962],[-0.15854166666666672,0.09082483781278962],[-0.12635416666666663,0.09082483781278962],[-0.09781249999999998,0.10231696014828554],[-0.08374999999999998,0.07284522706209445],[-0.08374999999999998,0.07284522706209445],[-0.05927083333333331,0.05412418906394818],[-0.014687500000000023,0.02020389249304908],[-0.012083333333333357,-0.002409638554216783],[-0.008541666666666715,0.0007414272474513017],[0.011458333333333333,0.02020389249304908],[0.02177083333333331,0.024837812789619978],[0.05635416666666669,0.008711770157553374],[0.058437500000000024,0.025949953660797033],[0.058437500000000024,0.025949953660797033],[0.06197916666666667,0.03836886005560713],[0.09093749999999995,0.05041705282669146],[0.09093749999999995,0.05041705282669146],[0.09395833333333338,0.032993512511584715],[0.09395833333333338,0.032993512511584715],[0.07687499999999996,0.030769230769230813],[0.07687499999999996,0.030769230769230813],[0.1009375000000001,0.023169601482854494],[0.1009375000000001,0.023169601482854494],[0.11697916666666662,0.05468025949953661],[0.11697916666666662,0.05468025949953661],[0.10968749999999995,0.06728452270620937],[0.12979166666666658,0.09823911028730306],[0.115625,0.11492122335495829],[0.11500000000000009,0.1171455050973124],[0.1203125,0.12863762743280813],[0.1118750000000001,0.15421686746987961],[0.1328125,0.16459684893419824],[0.15374999999999991,0.1749768303985171],[0.14343750000000005,0.20333642261353113],[0.1540625000000001,0.18294717330861918],[0.1586458333333333,0.16515291936978688],[0.12270833333333328,0.13512511584800738],[0.13250000000000003,0.10435588507877656],[0.14770833333333327,0.08378127896200194],[0.15697916666666673,0.0539388322520853],[0.15208333333333332,0.009638554216867554],[0.1265625,-0.01353104726598694],[0.1140625,-0.032252085264133416],[0.109375,-0.05931417979610751],[0.11052083333333323,-0.08025949953660799],[0.06927083333333334,-0.07506950880444857],[0.06947916666666672,-0.06580166821130677],[0.07239583333333334,-0.04819277108433735],[0.06989583333333324,-0.04077849860982391],[0.06906249999999996,-0.044856348470806384],[0.07666666666666658,-0.05375347544022243],[0.07666666666666658,-0.05375347544022243],[0.0671875,-0.07303058387395732],[0.06177083333333329,-0.08378127896200183],[0.06177083333333329,-0.08378127896200183],[0.09406249999999995,-0.1010194624652456],[0.10760416666666663,-0.11473586654309542],[0.10760416666666663,-0.11473586654309542],[0.1571875000000001,-0.13012048192771083],[0.1571875000000001,-0.13012048192771083],[0.20499999999999996,-0.14624652455977752],[0.1977083333333333,-0.1449490268767377],[0.2015625,-0.17701575532900835],[0.2013541666666666,-0.19332715477293794],[0.2039583333333333,-0.21075069508804448],[0.23041666666666671,-0.22150139017608897],[0.2397916666666667,-0.245227062094532],[0.2397916666666667,-0.245227062094532],[0.22218749999999995,-0.2383688600556071],[0.20947916666666658,-0.21686746987951808],[0.21604166666666677,-0.2198331788693235],[0.20020833333333338,-0.24559777571825764],[0.19791666666666666,-0.2822984244670992],[0.1724999999999999,-0.26024096385542167],[0.15750000000000006,-0.25616311399443925],[0.14739583333333334,-0.2511584800741427],[0.13729166666666662,-0.24615384615384617],[0.13729166666666662,-0.24615384615384617],[0.12041666666666657,-0.21037998146431883],[0.11906249999999995,-0.19925857275254866],[0.11302083333333333,-0.22409638554216862],[0.10864583333333329,-0.2381835032437442],[0.11697916666666662,-0.22242817423540315],[0.11447916666666676,-0.2467099165894347],[0.11927083333333334,-0.28544949026876737],[0.12322916666666663,-0.3106580166821131],[0.12322916666666663,-0.3106580166821131],[0.14583333333333334,-0.33568118628359594],[0.15968749999999995,-0.3417979610750695],[0.15968749999999995,-0.3417979610750695],[0.1803124999999999,-0.37868396663577386],[0.19802083333333323,-0.42224281742354036],[0.21552083333333344,-0.44448563484708065],[0.2352083333333333,-0.47006487488415205],[0.24010416666666667,-0.5225208526413345],[0.2445833333333333,-0.5228915662650603],[0.2537499999999999,-0.5341983317886932],[0.23072916666666668,-0.5286376274328082],[0.18708333333333324,-0.5037998146431881],[0.1318749999999999,-0.5034291010194625],[0.07666666666666658,-0.5030583873957367],[0.018333333333333358,-0.4878591288229842],[-0.03999999999999997,-0.4726598702502317],[-0.11427083333333338,-0.466728452270621],[-0.17958333333333332,-0.44281742354031506],[-0.22250000000000003,-0.43299351251158485],[-0.26541666666666663,-0.42316960148285454],[-0.2841666666666666,-0.4316960148285449],[-0.3029166666666666,-0.4402224281742354],[-0.3178125,-0.44689527340129753],[-0.32760416666666664,-0.4303985171455051],[-0.3407291666666667,-0.41649675625579236],[-0.349375,-0.3925857275254866],[-0.349375,-0.3925857275254866],[-0.3459375,-0.3668211306765523],[-0.35479166666666667,-0.3677479147358665],[-0.37479166666666663,-0.36663577386468954],[-0.40510416666666665,-0.37794253938832245],[-0.4345833333333334,-0.38758109360519005],[-0.4345833333333334,-0.38758109360519005],[-0.4732291666666667,-0.36274328081556995],[-0.47520833333333334,-0.33790546802594995],[-0.48093749999999996,-0.3425393883225209],[-0.4909375,-0.32789620018535676],[-0.5052083333333334,-0.32418906394810004],[-0.5242708333333334,-0.3369786839666358],[-0.52,-0.3191844300278035],[-0.52875,-0.3093605189990732],[-0.4985416666666667,-0.2943466172381835],[-0.49156249999999996,-0.2676552363299351],[-0.47541666666666665,-0.2754402224281743],[-0.5127083333333333,-0.2632066728452271],[-0.5308333333333334,-0.23614457831325297],[-0.5308333333333334,-0.23614457831325297],[-0.5498958333333334,-0.23188137164040784],[-0.5491666666666667,-0.2159406858202039],[-0.5491666666666667,-0.2159406858202039],[-0.5365625,-0.20166821130676554],[-0.5365625,-0.20166821130676554],[-0.535,-0.1912882298424467],[-0.535,-0.1912882298424467],[-0.5141666666666667,-0.17330861909175163],[-0.5141666666666667,-0.17330861909175163],[-0.5283333333333333,-0.14624652455977752],[-0.52,-0.1356811862835959],[-0.52,-0.1356811862835959],[-0.5197916666666667,-0.14587581093605187],[-0.5197916666666667,-0.14587581093605187],[-0.46979166666666666,-0.16904541241890636],[-0.424375,-0.21056533827618168],[-0.38312499999999994,-0.22298424467099168],[-0.35666666666666663,-0.2580166821130676],[-0.3295833333333333,-0.27581093605189994],[-0.3139583333333333,-0.2928637627432808],[-0.29927083333333326,-0.3314179796107507],[-0.29927083333333326,-0.3314179796107507],[-0.29322916666666665,-0.33030583873957364],[-0.3164583333333333,-0.32493049119555145],[-0.31312500000000004,-0.3069508804448564],[-0.3263541666666666,-0.29230769230769227],[-0.35833333333333334,-0.26580166821130674],[-0.39468749999999997,-0.2606116774791474],[-0.43624999999999997,-0.2435588507877664],[-0.470625,-0.2481927710843373],[-0.49354166666666666,-0.2535681186283596],[-0.5126041666666666,-0.22613531047265986],[-0.516875,-0.24763670064874888],[-0.49489583333333337,-0.26487488415199256],[-0.49135416666666665,-0.2739573679332716],[-0.491875,-0.2919369786839666],[-0.4895833333333333,-0.31195551436515295],[-0.4970833333333333,-0.3199258572752549],[-0.5045833333333333,-0.32789620018535676],[-0.5120833333333333,-0.3206672845227062],[-0.5195833333333334,-0.31343836886005566],[-0.47625,-0.3110287303058388],[-0.4241666666666667,-0.3154772937905468],[-0.3751041666666667,-0.3086190917516219],[-0.32749999999999996,-0.3086190917516219],[-0.32749999999999996,-0.3086190917516219],[-0.2789583333333333,-0.2999073215940686],[-0.21812499999999999,-0.3047265987025023],[-0.14979166666666663,-0.3121408711770157],[-0.06364583333333336,-0.329935125115848],[0.010000000000000024,-0.3228915662650602],[0.07322916666666662,-0.3086190917516219],[0.07645833333333343,-0.3004633920296571],[0.0756249999999999,-0.28934198331788696],[0.08687500000000009,-0.28934198331788696],[0.08041666666666672,-0.2797034291010194],[0.09562499999999995,-0.2761816496756256],[0.0984375,-0.2511584800741427],[0.11729166666666657,-0.2398517145505097],[0.11729166666666657,-0.2398517145505097],[0.10708333333333328,-0.2203892493049119],[0.10708333333333328,-0.2203892493049119],[0.04750000000000002,-0.2050046339202966],[-0.007187499999999976,-0.2018535681186283],[-0.06947916666666672,-0.2027803521779425],[-0.1397916666666667,-0.1896200185356812],[-0.21364583333333337,-0.1812789620018536],[-0.2727083333333333,-0.14735866543095458],[-0.34885416666666663,-0.10528266913809084],[-0.4271875,-0.09379054680259503],[-0.5032291666666667,-0.05968489341983316],[-0.5710416666666667,-0.056533827618164965],[-0.5970833333333334,-0.06450417052826693],[-0.6176041666666666,-0.06746987951807225],[-0.5625,-0.0732159406858202],[-0.5038541666666666,-0.0817423540315107],[-0.4469791666666667,-0.08934198331788691],[-0.36531250000000004,-0.1334569045412419],[-0.2851041666666667,-0.17942539388322523],[-0.19479166666666667,-0.1935125115848007],[-0.12354166666666669,-0.22298424467099168],[-0.044270833333333336,-0.21909175162187208],[0.04020833333333336,-0.2174235403151066],[0.1209374999999999,-0.21427247451343842],[0.1336458333333333,-0.2042632066728452],[0.14052083333333343,-0.2127896200185357],[0.14052083333333343,-0.2127896200185357],[0.14739583333333334,-0.2213160333642261],[0.1304166666666667,-0.24448563484708058],[0.1334374999999999,-0.27655236329935123],[0.12864583333333332,-0.3178869323447637],[0.12781250000000005,-0.35217794253938833],[0.14322916666666666,-0.38906394810009265],[0.1319791666666667,-0.43540315106580163],[0.14395833333333338,-0.4826691380908248],[0.1476041666666667,-0.5290083410565338],[0.16281249999999994,-0.5736793327154773],[0.17802083333333343,-0.6183503243744208],[0.203125,-0.6500463392029657],[0.18624999999999994,-0.6550509731232622],[0.19135416666666671,-0.6778498609823911],[0.2140625,-0.696014828544949],[0.21552083333333344,-0.7117701575532901],[0.23270833333333343,-0.7397590361445784],[0.23270833333333343,-0.7397590361445784],[0.23041666666666671,-0.768303985171455],[0.23041666666666671,-0.768303985171455],[0.23447916666666657,-0.7996292863762743],[0.23666666666666672,-0.8016682113067656],[0.23208333333333328,-0.7911028730305839],[0.22104166666666672,-0.770713623725672],[0.25447916666666665,-0.7801668211306765],[0.25510416666666674,-0.7601482854494903],[0.24739583333333334,-0.7586654309545876],[0.24739583333333334,-0.7586654309545876],[0.23739583333333342,-0.7609259259259259],[0.23739583333333342,-0.7609259259259259],[0.22489583333333343,-0.737037037037037],[0.22489583333333343,-0.737037037037037],[0.22489583333333343,-0.737037037037037],[0.22489583333333343,-0.737037037037037],[0.22906250000000009,-0.6825925925925926],[0.22906250000000009,-0.6825925925925926],[0.22156250000000005,-0.6370370370370371],[0.22156250000000005,-0.6370370370370371],[0.2211458333333333,-0.609074074074074],[0.2211458333333333,-0.609074074074074],[0.22083333333333333,-0.5875925925925927],[0.22083333333333333,-0.5875925925925927],[0.24406249999999996,-0.5883333333333333],[0.24406249999999996,-0.5883333333333333],[0.23250000000000004,-0.5583333333333333],[0.23250000000000004,-0.5583333333333333],[0.22958333333333342,-0.5588888888888889],[0.22958333333333342,-0.5588888888888889],[0.22770833333333323,-0.55],[0.22770833333333323,-0.55],[0.21552083333333344,-0.5383333333333333],[0.21552083333333344,-0.5383333333333333],[0.22125000000000009,-0.524074074074074],[0.22125000000000009,-0.524074074074074],[0.2241666666666667,-0.5474074074074075],[0.2241666666666667,-0.5474074074074075],[0.22843749999999996,-0.5468518518518519],[0.22843749999999996,-0.5468518518518519],[0.22468750000000004,-0.5507407407407408],[0.22468750000000004,-0.5507407407407408],[0.23052083333333329,-0.5681481481481482],[0.23052083333333329,-0.5681481481481482],[0.21375000000000005,-0.5592592592592592],[0.21375000000000005,-0.5592592592592592],[0.2037499999999999,-0.5496296296296297],[0.2037499999999999,-0.5496296296296297],[0.19583333333333333,-0.5216666666666666],[0.19583333333333333,-0.5216666666666666],[0.17229166666666676,-0.48055555555555557],[0.17229166666666676,-0.48055555555555557],[0.16541666666666663,-0.4348148148148148],[0.16541666666666663,-0.4348148148148148],[0.16218750000000004,-0.41222222222222227],[0.16218750000000004,-0.41222222222222227],[0.14229166666666657,-0.37462962962962965],[0.14229166666666657,-0.37462962962962965],[0.14020833333333324,-0.3866666666666667],[0.14020833333333324,-0.3866666666666667],[0.1390625,-0.3905555555555555],[0.1390625,-0.3905555555555555],[0.103125,-0.3883333333333333],[0.103125,-0.3883333333333333],[0.09072916666666657,-0.4016666666666666],[0.09072916666666657,-0.4016666666666666],[0.07822916666666657,-0.4274074074074074],[0.07822916666666657,-0.4274074074074074]]","[[-0.06666666666666667,-0.10629629629629625,0.00029999971388861013],[-0.06666666666666667,-0.10629629629629625,0.05169999980925866],[-0.06666666666666667,-0.10629629629629625,0.05499999999999261],[-0.06666666666666667,-0.10629629629629625,0.0734000000953614],[-0.06218750000000005,-0.1111111111111111,0.10759999990462177],[-0.06218750000000005,-0.1111111111111111,0.11609999990461972],[-0.03927083333333338,-0.10055555555555558,0.14540000009536413],[-0.03927083333333338,-0.10055555555555558,0.1524999999999892],[-0.03135416666666669,-0.1418518518518519,0.17549999999999955],[-0.03135416666666669,-0.1418518518518519,0.18249999999999034],[-0.028958333333333287,-0.17703703703703708,0.21009999990462802],[-0.028958333333333287,-0.17703703703703708,0.21779999971388975],[-0.02510416666666669,-0.21351851851851855,0.24319999980926355],[-0.02510416666666669,-0.21351851851851855,0.2504000000953539],[-0.03895833333333331,-0.24592592592592594,0.27640000009536436],[-0.03895833333333331,-0.24592592592592594,0.2835999999046237],[-0.03802083333333333,-0.30907407407407406,0.3116999998092638],[-0.03802083333333333,-0.30907407407407406,0.32009999990462745],[-0.02020833333333331,-0.36018518518518516,0.3407999997138944],[-0.02020833333333331,-0.36018518518518516,0.3481999998092533],[-0.0020833333333333333,-0.40425925925925926,0.3740999999046295],[-0.0020833333333333333,-0.40425925925925926,0.38209999990462507],[0.014791666666666713,-0.4601851851851852,0.4074000000953646],[0.014791666666666713,-0.4601851851851852,0.4151999998092606],[-0.002499999999999976,-0.5146296296296295,0.44040000009536584],[-0.002499999999999976,-0.5146296296296295,0.44719999980925706],[-0.013020833333333334,-0.5859259259259259,0.47399999999998954],[-0.013020833333333334,-0.5859259259259259,0.48149999999999693],[-0.02687499999999995,-0.5733333333333334,0.5091999998092547],[-0.02687499999999995,-0.5733333333333334,0.5160999999046254],[-0.0515625,-0.5475925925925925,0.5407999997138973],[-0.0515625,-0.5475925925925925,0.547799999713888],[-0.058749999999999976,-0.5327777777777778,0.5775999999046206],[-0.058749999999999976,-0.5327777777777778,0.5842999997138918],[-0.042812500000000024,-0.5375925925925926,0.6079000000953556],[-0.042812500000000024,-0.5375925925925926,0.6149000000953606],[-0.052187500000000026,-0.5011111111111112,0.6434000000953546],[-0.052187500000000026,-0.5011111111111112,0.6504999999999939],[-0.04874999999999995,-0.4522222222222222,0.674599999904629],[-0.04874999999999995,-0.4522222222222222,0.6817999997138884],[-0.04645833333333336,-0.4396296296296296,0.7075999999046303],[-0.04645833333333336,-0.4396296296296296,0.7235999999046214],[-0.03791666666666664,-0.40925925925925927,0.7409999999999997],[-0.03791666666666664,-0.40925925925925927,0.7484999999999928],[-0.015312500000000047,-0.36500000000000005,0.7780999999046259],[-0.015312500000000047,-0.36500000000000005,0.7879000000953624],[0.02385416666666664,-0.35722222222222216,0.8079000000953585],[0.02385416666666664,-0.35722222222222216,0.8159999999999883],[0.06385416666666661,-0.34944444444444445,0.8444999999999965],[0.06385416666666661,-0.34884151992585727,0.8621999998092633],[0.10802083333333339,-0.35273401297497686,0.9184000000953603],[0.10802083333333339,-0.35273401297497686,0.9262999997138905],[0.1040625000000001,-0.31640407784986097,0.9385999999046248],[0.06895833333333339,-0.2891566265060241,0.9551999998092526],[0.05260416666666667,-0.26116774791473585,0.9739999999999895],[0.03260416666666662,-0.2580166821130676,0.9962999997138979],[0.03260416666666662,-0.2580166821130676,1.007400000095359],[0.010208333333333286,-0.23762743280815568,1.032900000095367],[0.010208333333333286,-0.23762743280815568,1.0397999997138925],[-0.0018749999999999527,-0.23392029657089897,1.0549999999999926],[-0.0018749999999999527,-0.23392029657089897,1.0719000000953542],[0.02781250000000005,-0.25078776645041706,1.093599999904626],[0.0026041666666666665,-0.18628359592215013,1.109499999999997],[0.0026041666666666665,-0.18628359592215013,1.1219999999999999],[-0.001145833333333357,-0.16515291936978688,1.1487999997138871],[-0.001145833333333357,-0.16515291936978688,1.157999999999987],[-0.01229166666666662,-0.16367006487488417,1.1719000000953628],[-0.0006250000000000236,-0.19944392956441154,1.1887999997138934],[0.024166666666666715,-0.2281742354031511,1.2079999999999984],[0.042499999999999954,-0.24022242817423545,1.2225999999046309],[0.058958333333333356,-0.2559777571825765,1.2405999999046315],[0.084375,-0.2708063021316034,1.255199999809264],[0.07697916666666677,-0.2670991658943467,1.2737999997138871],[0.03343750000000002,-0.25097312326227983,1.289999999999992],[0.03239583333333336,-0.2713623725671918,1.3072999997138908],[0.024374999999999977,-0.27414272474513435,1.3236999998092642],[0.024374999999999977,-0.27414272474513435,1.3386999998092648],[0.01229166666666662,-0.25245597775718254,1.3552999997138926],[0.02364583333333338,-0.22298424467099168,1.3719000000953656],[0.014687500000000023,-0.2098239110287303,1.3909999999999911],[0.014687500000000023,-0.2098239110287303,1.4051999998092555],[0.008541666666666715,-0.20667284522706209,1.4219000000953628],[-0.004166666666666667,-0.17775718257645964,1.4386999998092591],[-0.025833333333333285,-0.14976830398517146,1.4660999999046282],[-0.025833333333333285,-0.14976830398517146,1.473099999904619],[-0.029166666666666667,-0.12400370713623722,1.4887999997138905],[-0.022916666666666665,-0.1095458758109361,1.5079999999999956],[-0.03458333333333338,-0.09304911955514363,1.5249000000953572],[-0.06020833333333329,-0.09286376274328086,1.5389000000953672],[-0.07645833333333331,-0.08025949953660799,1.5552999997138954],[-0.07645833333333331,-0.08025949953660799,1.571799999713889],[-0.078125,-0.061538461538461514,1.5925999999046212],[-0.10083333333333329,-0.03948100092678398,1.6064000000953627],[-0.11749999999999995,-0.015940685820203936,1.621799999713886],[-0.12145833333333336,-0.005746061167747957,1.6404000000953545],[-0.12291666666666666,0.005189990732159323,1.6551999998092555],[-0.10864583333333329,-0.0005560704355884236,1.671999999999997],[-0.10604166666666662,0.0007414272474513017,1.6885999999046248],[-0.10604166666666662,0.0007414272474513017,1.7074000000953617],[-0.1282291666666667,0.005931417979610835,1.72190000009536],[-0.1282291666666667,0.005931417979610835,1.738599999904622],[-0.12729166666666672,0.0031510658016682958,1.759299999713889],[-0.12354166666666669,0.027618164967562517,1.7760999999046305],[-0.15,0.06265060240963848,1.7924999999999898],[-0.14104166666666665,0.09935125115848012,1.8089999999999975],[-0.12708333333333333,0.10732159406858198,1.8249999999999886],[-0.1248958333333333,0.08934198331788702,1.8389999999999986],[-0.1252083333333334,0.07062094531974054,1.8554999999999922],[-0.14343750000000005,0.07025023169601478,1.8782999997138887],[-0.14343750000000005,0.07025023169601478,1.888699999809262],[-0.15854166666666672,0.09082483781278962,1.905400000095355],[-0.15854166666666672,0.09082483781278962,1.921999999999997],[-0.12635416666666663,0.09082483781278962,1.9406999998092545],[-0.09781249999999998,0.10231696014828554,1.9557999997138893],[-0.08374999999999998,0.07284522706209445,1.9750999999046286],[-0.08374999999999998,0.07284522706209445,1.9932999997138978],[-0.05927083333333331,0.05412418906394818,2.005199999809264],[-0.014687500000000023,0.02020389249304908,2.021900000095357],[-0.012083333333333357,-0.002409638554216783,2.0386999998092534],[-0.008541666666666715,0.0007414272474513017,2.058400000095361],[0.011458333333333333,0.02020389249304908,2.072099999904623],[0.02177083333333331,0.024837812789619978,2.088699999809265],[0.05635416666666669,0.008711770157553374,2.1089999999999947],[0.058437500000000024,0.025949953660797033,2.125799999713891],[0.058437500000000024,0.025949953660797033,2.138699999809262],[0.06197916666666667,0.03836886005560713,2.1551999998092555],[0.09093749999999995,0.05041705282669146,2.1784999999999997],[0.09093749999999995,0.05041705282669146,2.1887999997138934],[0.09395833333333338,0.032993512511584715,2.2051999998092526],[0.09395833333333338,0.032993512511584715,2.2217999997138946],[0.07687499999999996,0.030769230769230813,2.2439000000953655],[0.07687499999999996,0.030769230769230813,2.255199999809264],[0.1009375000000001,0.023169601482854494,2.271900000095357],[0.1009375000000001,0.023169601482854494,2.2949999999999875],[0.11697916666666662,0.05468025949953661,2.305199999809261],[0.11697916666666662,0.05468025949953661,2.321799999713889],[0.10968749999999995,0.06728452270620937,2.342099999904619],[0.12979166666666658,0.09823911028730306,2.3581999998092584],[0.115625,0.11492122335495829,2.3729999999999905],[0.11500000000000009,0.1171455050973124,2.3924999999999983],[0.1203125,0.12863762743280813,2.407699999809253],[0.1118750000000001,0.15421686746987961,2.4217999997138975],[0.1328125,0.16459684893419824,2.4384000000953563],[0.15374999999999991,0.1749768303985171,2.4584999999999866],[0.14343750000000005,0.20333642261353113,2.472999999999999],[0.1540625000000001,0.18294717330861918,2.4887999997138905],[0.1586458333333333,0.16515291936978688,2.5050999999046297],[0.12270833333333328,0.13512511584800738,2.524799999713892],[0.13250000000000003,0.10435588507877656,2.539199999809256],[0.14770833333333327,0.08378127896200194,2.556999999999988],[0.15697916666666673,0.0539388322520853,2.5764000000953615],[0.15208333333333332,0.009638554216867554,2.5922999997138874],[0.1265625,-0.01353104726598694,2.6075999999046218],[0.1140625,-0.032252085264133416,2.6222999997138885],[0.109375,-0.05931417979610751,2.6411999998092597],[0.11052083333333323,-0.08025949953660799,2.6559999999999917],[0.06927083333333334,-0.07506950880444857,2.6719000000953628],[0.06947916666666672,-0.06580166821130677,2.692999999999998],[0.07239583333333334,-0.04819277108433735,2.7084999999999866],[0.06989583333333324,-0.04077849860982391,2.7242999997138924],[0.06906249999999996,-0.044856348470806384,2.742699999809261],[0.07666666666666658,-0.05375347544022243,2.760099999904625],[0.07666666666666658,-0.05375347544022243,2.771799999713892],[0.0671875,-0.07303058387395732,2.7887999997138877],[0.06177083333333329,-0.08378127896200183,2.811799999713884],[0.06177083333333329,-0.08378127896200183,2.822499999999991],[0.09406249999999995,-0.1010194624652456,2.8407999997138944],[0.10760416666666663,-0.11473586654309542,2.86099999999999],[0.10760416666666663,-0.11473586654309542,2.8732999997138933],[0.1571875000000001,-0.13012048192771083,2.8889000000953615],[0.1571875000000001,-0.13012048192771083,2.905400000095355],[0.20499999999999996,-0.14624652455977752,2.9259999999999877],[0.1977083333333333,-0.1449490268767377,2.941199999809257],[0.2015625,-0.17701575532900835,2.958699999809255],[0.2013541666666666,-0.19332715477293794,2.976400000095367],[0.2039583333333333,-0.21075069508804448,2.9935999999046317],[0.23041666666666671,-0.22150139017608897,3.0087999997138866],[0.2397916666666667,-0.245227062094532,3.0279000000953573],[0.2397916666666667,-0.245227062094532,3.038499999999999],[0.22218749999999995,-0.2383688600556071,3.055199999809261],[0.20947916666666658,-0.21686746987951808,3.071799999713889],[0.21604166666666677,-0.2198331788693235,3.094400000095362],[0.20020833333333338,-0.24559777571825764,3.1085999999046265],[0.19791666666666666,-0.2822984244670992,3.12509999990462],[0.1724999999999999,-0.26024096385542167,3.1429999999999865],[0.15750000000000006,-0.25616311399443925,3.1585999999046237],[0.14739583333333334,-0.2511584800741427,3.173900000095358],[0.13729166666666662,-0.24615384615384617,3.196499999999986],[0.13729166666666662,-0.24615384615384617,3.204900000095364],[0.12041666666666657,-0.21037998146431883,3.22190000009536],[0.11906249999999995,-0.19925857275254866,3.238599999904622],[0.11302083333333333,-0.22409638554216862,3.257799999713896],[0.10864583333333329,-0.2381835032437442,3.271900000095357],[0.11697916666666662,-0.22242817423540315,3.2899000000953578],[0.11447916666666676,-0.2467099165894347,3.3052999997138954],[0.11927083333333334,-0.28544949026876737,3.324699999809255],[0.12322916666666663,-0.3106580166821131,3.348400000095367],[0.12322916666666663,-0.3106580166821131,3.355400000095358],[0.14583333333333334,-0.33568118628359594,3.371699999809252],[0.15968749999999995,-0.3417979610750695,3.3885999999046277],[0.15968749999999995,-0.3417979610750695,3.404999999999987],[0.1803124999999999,-0.37868396663577386,3.421699999809263],[0.19802083333333323,-0.42224281742354036,3.438299999713891],[0.21552083333333344,-0.44448563484708065,3.4549999999999983],[0.2352083333333333,-0.47006487488415205,3.471599999904626],[0.24010416666666667,-0.5225208526413345,3.4884000000953677],[0.2445833333333333,-0.5228915662650603,3.5049999999999955],[0.2537499999999999,-0.5341983317886932,3.521900000095357],[0.23072916666666668,-0.5286376274328082,3.538400000095365],[0.18708333333333324,-0.5037998146431881,3.5549999999999926],[0.1318749999999999,-0.5034291010194625,3.5716999998092547],[0.07666666666666658,-0.5030583873957367,3.588400000095362],[0.018333333333333358,-0.4878591288229842,3.605099999904624],[-0.03999999999999997,-0.4726598702502317,3.621699999809252],[-0.11427083333333338,-0.466728452270621,3.638299999713894],[-0.17958333333333332,-0.44281742354031506,3.654999999999987],[-0.22250000000000003,-0.43299351251158485,3.6717999997138975],[-0.26541666666666663,-0.42316960148285454,3.6887999997138934],[-0.2841666666666666,-0.4316960148285449,3.7049999999999983],[-0.3029166666666666,-0.4402224281742354,3.721599999904626],[-0.3178125,-0.44689527340129753,3.7384000000953677],[-0.32760416666666664,-0.4303985171455051,3.754900000095361],[-0.3407291666666667,-0.41649675625579236,3.7716999998092575],[-0.349375,-0.3925857275254866,3.7886999998092534],[-0.349375,-0.3925857275254866,3.8049999999999926],[-0.3459375,-0.3668211306765523,3.8216999998092547],[-0.35479166666666667,-0.3677479147358665,3.8382999997138967],[-0.37479166666666663,-0.36663577386468954,3.8552999997138926],[-0.40510416666666665,-0.37794253938832245,3.8721999998092542],[-0.4345833333333334,-0.38758109360519005,3.89209999990463],[-0.4345833333333334,-0.38758109360519005,3.9051999998092555],[-0.4732291666666667,-0.36274328081556995,3.9217999997138975],[-0.47520833333333334,-0.33790546802594995,3.938299999713891],[-0.48093749999999996,-0.3425393883225209,3.9550999999046326],[-0.4909375,-0.32789620018535676,3.9717999997138946],[-0.5052083333333334,-0.32418906394810004,3.9884000000953677],[-0.5242708333333334,-0.3369786839666358,4.004900000095361],[-0.52,-0.3191844300278035,4.022299999713894],[-0.52875,-0.3093605189990732,4.038400000095365],[-0.4985416666666667,-0.2943466172381835,4.055099999904627],[-0.49156249999999996,-0.2676552363299351,4.071699999809255],[-0.47541666666666665,-0.2754402224281743,4.088400000095362],[-0.5127083333333333,-0.2632066728452271,4.105199999809258],[-0.5308333333333334,-0.23614457831325297,4.121699999809252],[-0.5308333333333334,-0.23614457831325297,4.138400000095359],[-0.5498958333333334,-0.23188137164040784,4.154999999999987],[-0.5491666666666667,-0.2159406858202039,4.17949999999999],[-0.5491666666666667,-0.2159406858202039,4.188299999713891],[-0.5365625,-0.20166821130676554,4.204999999999998],[-0.5365625,-0.20166821130676554,4.22169999980926],[-0.535,-0.1912882298424467,4.238499999999988],[-0.535,-0.1912882298424467,4.25509999990463],[-0.5141666666666667,-0.17330861909175163,4.275799999713897],[-0.5141666666666667,-0.17330861909175163,4.288400000095365],[-0.5283333333333333,-0.14624652455977752,4.305299999713895],[-0.52,-0.1356811862835959,4.324499999999986],[-0.52,-0.1356811862835959,4.338499999999996],[-0.5197916666666667,-0.14587581093605187,4.355099999904624],[-0.5197916666666667,-0.14587581093605187,4.371599999904632],[-0.46979166666666666,-0.16904541241890636,4.388400000095359],[-0.424375,-0.21056533827618168,4.40529999971389],[-0.38312499999999994,-0.22298424467099168,4.421699999809263],[-0.35666666666666663,-0.2580166821130676,4.438499999999991],[-0.3295833333333333,-0.27581093605189994,4.454999999999998],[-0.3139583333333333,-0.2928637627432808,4.47169999980926],[-0.29927083333333326,-0.3314179796107507,4.488400000095368],[-0.29927083333333326,-0.3314179796107507,4.50509999990463],[-0.29322916666666665,-0.33030583873957364,4.5216999998092575],[-0.3164583333333333,-0.32493049119555145,4.538400000095365],[-0.31312500000000004,-0.3069508804448564,4.554999999999993],[-0.3263541666666666,-0.29230769230769227,4.571699999809255],[-0.35833333333333334,-0.26580166821130674,4.588499999999996],[-0.39468749999999997,-0.2606116774791474,4.60499999999999],[-0.43624999999999997,-0.2435588507877664,4.621699999809252],[-0.470625,-0.2481927710843373,4.638299999713894],[-0.49354166666666666,-0.2535681186283596,4.654999999999987],[-0.5126041666666666,-0.22613531047265986,4.671699999809263],[-0.516875,-0.24763670064874888,4.688900000095359],[-0.49489583333333337,-0.26487488415199256,4.704999999999998],[-0.49135416666666665,-0.2739573679332716,4.72169999980926],[-0.491875,-0.2919369786839666,4.738299999713888],[-0.4895833333333333,-0.31195551436515295,4.7549999999999955],[-0.4970833333333333,-0.3199258572752549,4.7716999998092575],[-0.5045833333333333,-0.32789620018535676,4.788400000095365],[-0.5120833333333333,-0.3206672845227062,4.805599999904629],[-0.5195833333333334,-0.31343836886005566,4.82159999990462],[-0.47625,-0.3110287303058388,4.838299999713897],[-0.4241666666666667,-0.3154772937905468,4.85499999999999],[-0.3751041666666667,-0.3086190917516219,4.872699999809257],[-0.32749999999999996,-0.3086190917516219,4.8904000000953545],[-0.32749999999999996,-0.3086190917516219,4.905099999904621],[-0.2789583333333333,-0.2999073215940686,4.921999999999997],[-0.21812499999999999,-0.3047265987025023,4.938400000095356],[-0.14979166666666663,-0.3121408711770157,4.954999999999998],[-0.06364583333333336,-0.329935125115848,4.97169999980926],[0.010000000000000024,-0.3228915662650602,4.988400000095368],[0.07322916666666662,-0.3086190917516219,5.004900000095361],[0.07645833333333343,-0.3004633920296571,5.021599999904623],[0.0756249999999999,-0.28934198331788696,5.038299999713885],[0.08687500000000009,-0.28934198331788696,5.054999999999993],[0.08041666666666672,-0.2797034291010194,5.071699999809255],[0.09562499999999995,-0.2761816496756256,5.092400000095367],[0.0984375,-0.2511584800741427,5.107400000095367],[0.11729166666666657,-0.2398517145505097,5.121599999904632],[0.11729166666666657,-0.2398517145505097,5.138299999713894],[0.10708333333333328,-0.2203892493049119,5.155099999904621],[0.10708333333333328,-0.2203892493049119,5.171599999904629],[0.04750000000000002,-0.2050046339202966,5.188400000095356],[-0.007187499999999976,-0.2018535681186283,5.205699999809255],[-0.06947916666666672,-0.2027803521779425,5.22169999980926],[-0.1397916666666667,-0.1896200185356812,5.238400000095368],[-0.21364583333333337,-0.1812789620018536,5.254900000095361],[-0.2727083333333333,-0.14735866543095458,5.274900000095357],[-0.34885416666666663,-0.10528266913809084,5.290599999904629],[-0.4271875,-0.09379054680259503,5.304999999999993],[-0.5032291666666667,-0.05968489341983316,5.321699999809255],[-0.5710416666666667,-0.056533827618164965,5.338299999713897],[-0.5970833333333334,-0.06450417052826693,5.35499999999999],[-0.6176041666666666,-0.06746987951807225,5.371699999809252],[-0.5625,-0.0732159406858202,5.390199999809255],[-0.5038541666666666,-0.0817423540315107,5.404900000095367],[-0.4469791666666667,-0.08934198331788691,5.421699999809263],[-0.36531250000000004,-0.1334569045412419,5.438299999713891],[-0.2851041666666667,-0.17942539388322523,5.455099999904633],[-0.19479166666666667,-0.1935125115848007,5.471599999904626],[-0.12354166666666669,-0.22298424467099168,5.488400000095368],[-0.044270833333333336,-0.21909175162187208,5.5049999999999955],[0.04020833333333336,-0.2174235403151066,5.521599999904623],[0.1209374999999999,-0.21427247451343842,5.538199999809265],[0.1336458333333333,-0.2042632066728452,5.554900000095358],[0.14052083333333343,-0.2127896200185357,5.57159999990462],[0.14052083333333343,-0.2127896200185357,5.588400000095362],[0.14739583333333334,-0.2213160333642261,5.60499999999999],[0.1304166666666667,-0.24448563484708058,5.621799999713886],[0.1334374999999999,-0.27655236329935123,5.638299999713894],[0.12864583333333332,-0.3178869323447637,5.654999999999987],[0.12781250000000005,-0.35217794253938833,5.671699999809263],[0.14322916666666666,-0.38906394810009265,5.6891999998092615],[0.1319791666666667,-0.43540315106580163,5.704999999999998],[0.14395833333333338,-0.4826691380908248,5.721599999904626],[0.1476041666666667,-0.5290083410565338,5.738400000095368],[0.16281249999999994,-0.5736793327154773,5.755400000095364],[0.17802083333333343,-0.6183503243744208,5.7716999998092575],[0.203125,-0.6500463392029657,5.790199999809261],[0.18624999999999994,-0.6550509731232622,5.805799999713898],[0.19135416666666671,-0.6778498609823911,5.821699999809255],[0.2140625,-0.696014828544949,5.838299999713897],[0.21552083333333344,-0.7117701575532901,5.85499999999999],[0.23270833333333343,-0.7397590361445784,5.871699999809252],[0.23270833333333343,-0.7397590361445784,5.888499999999993],[0.23041666666666671,-0.768303985171455,5.905099999904621],[0.23041666666666671,-0.768303985171455,5.921699999809263],[0.23447916666666657,-0.7996292863762743,5.938299999713891],[0.23666666666666672,-0.8016682113067656,5.954999999999998],[0.23208333333333328,-0.7911028730305839,5.97169999980926],[0.22104166666666672,-0.770713623725672,5.988699999809256],[0.25447916666666665,-0.7801668211306765,6.005599999904632],[0.25510416666666674,-0.7601482854494903,6.025099999904626],[0.24739583333333334,-0.7586654309545876,6.044199999809251],[0.24739583333333334,-0.7586654309545876,6.054999999999993],[0.23739583333333342,-0.7609259259259259,6.07959999990463],[0.23739583333333342,-0.7609259259259259,6.108400000095358],[0.22489583333333343,-0.737037037037037,6.175999999999988],[0.22489583333333343,-0.737037037037037,6.183199999809261],[0.22489583333333343,-0.737037037037037,6.193999999999988],[0.22489583333333343,-0.737037037037037,6.210400000095362],[0.22906250000000009,-0.6825925925925926,6.2439000000953655],[0.22906250000000009,-0.6825925925925926,6.251799999713896],[0.22156250000000005,-0.6370370370370371,6.277199999809255],[0.22156250000000005,-0.6370370370370371,6.2871999998092605],[0.2211458333333333,-0.609074074074074,6.310599999904625],[0.2211458333333333,-0.609074074074074,6.317999999999998],[0.22083333333333333,-0.5875925925925927,6.346099999904624],[0.22083333333333333,-0.5875925925925927,6.354599999904622],[0.24406249999999996,-0.5883333333333333,6.376299999713893],[0.24406249999999996,-0.5883333333333333,6.383999999999986],[0.23250000000000004,-0.5583333333333333,6.410499999999999],[0.23250000000000004,-0.5583333333333333,6.418299999713895],[0.22958333333333342,-0.5588888888888889,6.443900000095354],[0.22958333333333342,-0.5588888888888889,6.4514000000953615],[0.22770833333333323,-0.55,6.478999999999999],[0.22770833333333323,-0.55,6.487299999713898],[0.21552083333333344,-0.5383333333333333,6.511299999713884],[0.21552083333333344,-0.5383333333333333,6.518900000095357],[0.22125000000000009,-0.524074074074074,6.54529999971389],[0.22125000000000009,-0.524074074074074,6.5519999999999925],[0.2241666666666667,-0.5474074074074075,6.573900000095364],[0.2241666666666667,-0.5474074074074075,6.581400000095357],[0.22843749999999996,-0.5468518518518519,6.607199999809254],[0.22843749999999996,-0.5468518518518519,6.61399999999999],[0.22468750000000004,-0.5507407407407408,6.640499999999989],[0.22468750000000004,-0.5507407407407408,6.647499999999994],[0.23052083333333329,-0.5681481481481482,6.673900000095358],[0.23052083333333329,-0.5681481481481482,6.681799999713888],[0.21375000000000005,-0.5592592592592592,6.7072999997138965],[0.21375000000000005,-0.5592592592592592,6.715599999904626],[0.2037499999999999,-0.5496296296296297,6.740400000095363],[0.2037499999999999,-0.5496296296296297,6.748900000095361],[0.19583333333333333,-0.5216666666666666,6.77729999971389],[0.19583333333333333,-0.5216666666666666,6.787499999999994],[0.17229166666666676,-0.48055555555555557,6.807099999904622],[0.17229166666666676,-0.48055555555555557,6.814699999809264],[0.16541666666666663,-0.4348148148148148,6.8437999997138945],[0.16541666666666663,-0.4348148148148148,6.851099999904619],[0.16218750000000004,-0.41222222222222227,6.874599999904632],[0.16218750000000004,-0.41222222222222227,6.882799999713896],[0.14229166666666657,-0.37462962962962965,6.911199999809256],[0.14229166666666657,-0.37462962962962965,6.919199999809251],[0.14020833333333324,-0.3866666666666667,6.940999999999988],[0.14020833333333324,-0.3866666666666667,6.948900000095364],[0.1390625,-0.3905555555555555,6.974799999713895],[0.1390625,-0.3905555555555555,6.9835999999046265],[0.103125,-0.3883333333333333,7.008400000095364],[0.103125,-0.3883333333333333,7.016099999904625],[0.09072916666666657,-0.4016666666666666,7.041400000095365],[0.09072916666666657,-0.4016666666666666,7.0486999998092585],[0.07822916666666657,-0.4274074074074074,7.072299999713891],[0.07822916666666657,-0.4274074074074074,7.079999999999998]]","[0.00029999971388861013,0.05169999980925866,0.05499999999999261,0.0734000000953614,0.10759999990462177,0.11609999990461972,0.14540000009536413,0.1524999999999892,0.17549999999999955,0.18249999999999034,0.21009999990462802,0.21779999971388975,0.24319999980926355,0.2504000000953539,0.27640000009536436,0.2835999999046237,0.3116999998092638,0.32009999990462745,0.3407999997138944,0.3481999998092533,0.3740999999046295,0.38209999990462507,0.4074000000953646,0.4151999998092606,0.44040000009536584,0.44719999980925706,0.47399999999998954,0.48149999999999693,0.5091999998092547,0.5160999999046254,0.5407999997138973,0.547799999713888,0.5775999999046206,0.5842999997138918,0.6079000000953556,0.6149000000953606,0.6434000000953546,0.6504999999999939,0.674599999904629,0.6817999997138884,0.7075999999046303,0.7235999999046214,0.7409999999999997,0.7484999999999928,0.7780999999046259,0.7879000000953624,0.8079000000953585,0.8159999999999883,0.8444999999999965,0.8621999998092633,0.9184000000953603,0.9262999997138905,0.9385999999046248,0.9551999998092526,0.9739999999999895,0.9962999997138979,1.007400000095359,1.032900000095367,1.0397999997138925,1.0549999999999926,1.0719000000953542,1.093599999904626,1.109499999999997,1.1219999999999999,1.1487999997138871,1.157999999999987,1.1719000000953628,1.1887999997138934,1.2079999999999984,1.2225999999046309,1.2405999999046315,1.255199999809264,1.2737999997138871,1.289999999999992,1.3072999997138908,1.3236999998092642,1.3386999998092648,1.3552999997138926,1.3719000000953656,1.3909999999999911,1.4051999998092555,1.4219000000953628,1.4386999998092591,1.4660999999046282,1.473099999904619,1.4887999997138905,1.5079999999999956,1.5249000000953572,1.5389000000953672,1.5552999997138954,1.571799999713889,1.5925999999046212,1.6064000000953627,1.621799999713886,1.6404000000953545,1.6551999998092555,1.671999999999997,1.6885999999046248,1.7074000000953617,1.72190000009536,1.738599999904622,1.759299999713889,1.7760999999046305,1.7924999999999898,1.8089999999999975,1.8249999999999886,1.8389999999999986,1.8554999999999922,1.8782999997138887,1.888699999809262,1.905400000095355,1.921999999999997,1.9406999998092545,1.9557999997138893,1.9750999999046286,1.9932999997138978,2.005199999809264,2.021900000095357,2.0386999998092534,2.058400000095361,2.072099999904623,2.088699999809265,2.1089999999999947,2.125799999713891,2.138699999809262,2.1551999998092555,2.1784999999999997,2.1887999997138934,2.2051999998092526,2.2217999997138946,2.2439000000953655,2.255199999809264,2.271900000095357,2.2949999999999875,2.305199999809261,2.321799999713889,2.342099999904619,2.3581999998092584,2.3729999999999905,2.3924999999999983,2.407699999809253,2.4217999997138975,2.4384000000953563,2.4584999999999866,2.472999999999999,2.4887999997138905,2.5050999999046297,2.524799999713892,2.539199999809256,2.556999999999988,2.5764000000953615,2.5922999997138874,2.6075999999046218,2.6222999997138885,2.6411999998092597,2.6559999999999917,2.6719000000953628,2.692999999999998,2.7084999999999866,2.7242999997138924,2.742699999809261,2.760099999904625,2.771799999713892,2.7887999997138877,2.811799999713884,2.822499999999991,2.8407999997138944,2.86099999999999,2.8732999997138933,2.8889000000953615,2.905400000095355,2.9259999999999877,2.941199999809257,2.958699999809255,2.976400000095367,2.9935999999046317,3.0087999997138866,3.0279000000953573,3.038499999999999,3.055199999809261,3.071799999713889,3.094400000095362,3.1085999999046265,3.12509999990462,3.1429999999999865,3.1585999999046237,3.173900000095358,3.196499999999986,3.204900000095364,3.22190000009536,3.238599999904622,3.257799999713896,3.271900000095357,3.2899000000953578,3.3052999997138954,3.324699999809255,3.348400000095367,3.355400000095358,3.371699999809252,3.3885999999046277,3.404999999999987,3.421699999809263,3.438299999713891,3.4549999999999983,3.471599999904626,3.4884000000953677,3.5049999999999955,3.521900000095357,3.538400000095365,3.5549999999999926,3.5716999998092547,3.588400000095362,3.605099999904624,3.621699999809252,3.638299999713894,3.654999999999987,3.6717999997138975,3.6887999997138934,3.7049999999999983,3.721599999904626,3.7384000000953677,3.754900000095361,3.7716999998092575,3.7886999998092534,3.8049999999999926,3.8216999998092547,3.8382999997138967,3.8552999997138926,3.8721999998092542,3.89209999990463,3.9051999998092555,3.9217999997138975,3.938299999713891,3.9550999999046326,3.9717999997138946,3.9884000000953677,4.004900000095361,4.022299999713894,4.038400000095365,4.055099999904627,4.071699999809255,4.088400000095362,4.105199999809258,4.121699999809252,4.138400000095359,4.154999999999987,4.17949999999999,4.188299999713891,4.204999999999998,4.22169999980926,4.238499999999988,4.25509999990463,4.275799999713897,4.288400000095365,4.305299999713895,4.324499999999986,4.338499999999996,4.355099999904624,4.371599999904632,4.388400000095359,4.40529999971389,4.421699999809263,4.438499999999991,4.454999999999998,4.47169999980926,4.488400000095368,4.50509999990463,4.5216999998092575,4.538400000095365,4.554999999999993,4.571699999809255,4.588499999999996,4.60499999999999,4.621699999809252,4.638299999713894,4.654999999999987,4.671699999809263,4.688900000095359,4.704999999999998,4.72169999980926,4.738299999713888,4.7549999999999955,4.7716999998092575,4.788400000095365,4.805599999904629,4.82159999990462,4.838299999713897,4.85499999999999,4.872699999809257,4.8904000000953545,4.905099999904621,4.921999999999997,4.938400000095356,4.954999999999998,4.97169999980926,4.988400000095368,5.004900000095361,5.021599999904623,5.038299999713885,5.054999999999993,5.071699999809255,5.092400000095367,5.107400000095367,5.121599999904632,5.138299999713894,5.155099999904621,5.171599999904629,5.188400000095356,5.205699999809255,5.22169999980926,5.238400000095368,5.254900000095361,5.274900000095357,5.290599999904629,5.304999999999993,5.321699999809255,5.338299999713897,5.35499999999999,5.371699999809252,5.390199999809255,5.404900000095367,5.421699999809263,5.438299999713891,5.455099999904633,5.471599999904626,5.488400000095368,5.5049999999999955,5.521599999904623,5.538199999809265,5.554900000095358,5.57159999990462,5.588400000095362,5.60499999999999,5.621799999713886,5.638299999713894,5.654999999999987,5.671699999809263,5.6891999998092615,5.704999999999998,5.721599999904626,5.738400000095368,5.755400000095364,5.7716999998092575,5.790199999809261,5.805799999713898,5.821699999809255,5.838299999713897,5.85499999999999,5.871699999809252,5.888499999999993,5.905099999904621,5.921699999809263,5.938299999713891,5.954999999999998,5.97169999980926,5.988699999809256,6.005599999904632,6.025099999904626,6.044199999809251,6.054999999999993,6.07959999990463,6.108400000095358,6.175999999999988,6.183199999809261,6.193999999999988,6.210400000095362,6.2439000000953655,6.251799999713896,6.277199999809255,6.2871999998092605,6.310599999904625,6.317999999999998,6.346099999904624,6.354599999904622,6.376299999713893,6.383999999999986,6.410499999999999,6.418299999713895,6.443900000095354,6.4514000000953615,6.478999999999999,6.487299999713898,6.511299999713884,6.518900000095357,6.54529999971389,6.5519999999999925,6.573900000095364,6.581400000095357,6.607199999809254,6.61399999999999,6.640499999999989,6.647499999999994,6.673900000095358,6.681799999713888,6.7072999997138965,6.715599999904626,6.740400000095363,6.748900000095361,6.77729999971389,6.787499999999994,6.807099999904622,6.814699999809264,6.8437999997138945,6.851099999904619,6.874599999904632,6.882799999713896,6.911199999809256,6.919199999809251,6.940999999999988,6.948900000095364,6.974799999713895,6.9835999999046265,7.008400000095364,7.016099999904625,7.041400000095365,7.0486999998092585,7.072299999713891,7.079999999999998]","[1732075227659,1732075227701,1732075227705,1732075227723,1732075227757,1732075227766,1732075227795,1732075227802,1732075227825,1732075227832,1732075227860,1732075227867,1732075227893,1732075227900,1732075227926,1732075227933,1732075227961,1732075227970,1732075227990,1732075227998,1732075228024,1732075228032,1732075228057,1732075228065,1732075228090,1732075228097,1732075228124,1732075228131,1732075228159,1732075228166,1732075228190,1732075228197,1732075228227,1732075228234,1732075228258,1732075228265,1732075228293,1732075228300,1732075228324,1732075228331,1732075228357,1732075228373,1732075228391,1732075228398,1732075228428,1732075228437,1732075228457,1732075228466,1732075228494,1732075228512,1732075228568,1732075228576,1732075228588,1732075228605,1732075228624,1732075228646,1732075228657,1732075228683,1732075228689,1732075228705,1732075228722,1732075228743,1732075228759,1732075228772,1732075228798,1732075228808,1732075228821,1732075228838,1732075228858,1732075228872,1732075228890,1732075228905,1732075228923,1732075228940,1732075228957,1732075228973,1732075228988,1732075229005,1732075229022,1732075229041,1732075229055,1732075229072,1732075229088,1732075229116,1732075229123,1732075229138,1732075229158,1732075229175,1732075229188,1732075229205,1732075229221,1732075229242,1732075229256,1732075229271,1732075229290,1732075229305,1732075229322,1732075229338,1732075229357,1732075229372,1732075229388,1732075229409,1732075229426,1732075229442,1732075229459,1732075229475,1732075229489,1732075229505,1732075229528,1732075229538,1732075229555,1732075229572,1732075229590,1732075229605,1732075229625,1732075229643,1732075229655,1732075229672,1732075229688,1732075229708,1732075229722,1732075229738,1732075229759,1732075229775,1732075229788,1732075229805,1732075229828,1732075229838,1732075229855,1732075229871,1732075229894,1732075229905,1732075229921,1732075229945,1732075229955,1732075229971,1732075229992,1732075230008,1732075230023,1732075230042,1732075230057,1732075230071,1732075230088,1732075230108,1732075230123,1732075230138,1732075230155,1732075230174,1732075230189,1732075230207,1732075230226,1732075230242,1732075230257,1732075230272,1732075230291,1732075230306,1732075230321,1732075230343,1732075230358,1732075230374,1732075230392,1732075230410,1732075230422,1732075230438,1732075230461,1732075230472,1732075230490,1732075230511,1732075230523,1732075230539,1732075230555,1732075230576,1732075230591,1732075230608,1732075230626,1732075230643,1732075230658,1732075230678,1732075230688,1732075230705,1732075230721,1732075230744,1732075230758,1732075230775,1732075230793,1732075230808,1732075230824,1732075230846,1732075230855,1732075230872,1732075230888,1732075230907,1732075230922,1732075230939,1732075230955,1732075230974,1732075230998,1732075231005,1732075231021,1732075231038,1732075231055,1732075231071,1732075231088,1732075231105,1732075231121,1732075231138,1732075231155,1732075231171,1732075231188,1732075231205,1732075231221,1732075231238,1732075231255,1732075231271,1732075231288,1732075231305,1732075231321,1732075231339,1732075231355,1732075231371,1732075231388,1732075231405,1732075231421,1732075231438,1732075231455,1732075231471,1732075231488,1732075231505,1732075231522,1732075231542,1732075231555,1732075231571,1732075231588,1732075231605,1732075231621,1732075231638,1732075231655,1732075231672,1732075231688,1732075231705,1732075231721,1732075231738,1732075231755,1732075231771,1732075231788,1732075231805,1732075231829,1732075231838,1732075231855,1732075231871,1732075231888,1732075231905,1732075231925,1732075231938,1732075231955,1732075231974,1732075231988,1732075232005,1732075232021,1732075232038,1732075232055,1732075232071,1732075232088,1732075232105,1732075232121,1732075232138,1732075232155,1732075232171,1732075232188,1732075232205,1732075232221,1732075232238,1732075232255,1732075232271,1732075232288,1732075232305,1732075232321,1732075232339,1732075232355,1732075232371,1732075232388,1732075232405,1732075232421,1732075232438,1732075232455,1732075232471,1732075232488,1732075232505,1732075232522,1732075232540,1732075232555,1732075232572,1732075232588,1732075232605,1732075232621,1732075232638,1732075232655,1732075232671,1732075232688,1732075232705,1732075232721,1732075232742,1732075232757,1732075232771,1732075232788,1732075232805,1732075232821,1732075232838,1732075232855,1732075232871,1732075232888,1732075232905,1732075232925,1732075232940,1732075232955,1732075232971,1732075232988,1732075233005,1732075233021,1732075233040,1732075233055,1732075233071,1732075233088,1732075233105,1732075233121,1732075233138,1732075233155,1732075233171,1732075233188,1732075233205,1732075233221,1732075233238,1732075233255,1732075233271,1732075233288,1732075233305,1732075233321,1732075233339,1732075233355,1732075233371,1732075233388,1732075233405,1732075233421,1732075233440,1732075233455,1732075233471,1732075233488,1732075233505,1732075233521,1732075233538,1732075233555,1732075233571,1732075233588,1732075233605,1732075233621,1732075233638,1732075233655,1732075233675,1732075233694,1732075233705,1732075233729,1732075233758,1732075233826,1732075233833,1732075233844,1732075233860,1732075233894,1732075233901,1732075233927,1732075233937,1732075233960,1732075233968,1732075233996,1732075234004,1732075234026,1732075234034,1732075234060,1732075234068,1732075234094,1732075234101,1732075234129,1732075234137,1732075234161,1732075234169,1732075234195,1732075234202,1732075234224,1732075234231,1732075234257,1732075234264,1732075234290,1732075234297,1732075234324,1732075234331,1732075234357,1732075234365,1732075234390,1732075234399,1732075234427,1732075234437,1732075234457,1732075234464,1732075234493,1732075234501,1732075234524,1732075234532,1732075234561,1732075234569,1732075234591,1732075234598,1732075234624,1732075234633,1732075234658,1732075234666,1732075234691,1732075234698,1732075234722,1732075234730]","[[896,482.6],[896,482.6],[896,482.6],[896,482.6],[900.3,480],[900.3,480],[922.3,485.7],[922.3,485.7],[929.9,463.4],[929.9,463.4],[932.2,444.4],[932.2,444.4],[935.9,424.7],[935.9,424.7],[922.6,407.2],[922.6,407.2],[923.5,373.1],[923.5,373.1],[940.6,345.5],[940.6,345.5],[958,321.7],[958,321.7],[974.2,291.5],[974.2,291.5],[957.6,262.1],[957.6,262.1],[947.5,223.6],[947.5,223.6],[934.2,230.4],[934.2,230.4],[910.5,244.3],[910.5,244.3],[903.6,252.3],[903.6,252.3],[918.9,249.7],[918.9,249.7],[909.9,269.4],[909.9,269.4],[913.2,295.8],[913.2,295.8],[915.4,302.6],[915.4,302.6],[923.6,319],[923.6,319],[945.3,342.9],[945.3,342.9],[982.9,347.1],[982.9,347.1],[1021.3,351.3],[1021.3,351.3],[1063.7,349.2],[1063.7,349.2],[1059.9,368.8],[1026.2,383.5],[1010.5,398.6],[991.3,400.3],[991.3,400.3],[969.8,411.3],[969.8,411.3],[958.2,413.3],[958.2,413.3],[986.7,404.2],[962.5,439],[962.5,439],[958.9,450.4],[958.9,450.4],[948.2,451.2],[959.4,431.9],[983.2,416.4],[1000.8,409.9],[1016.6,401.4],[1041,393.4],[1033.9,395.4],[992.1,404.1],[991.1,393.1],[983.4,391.6],[983.4,391.6],[971.8,403.3],[982.7,419.2],[974.1,426.3],[974.1,426.3],[968.2,428],[956,443.6],[935.2,458.7],[935.2,458.7],[932,472.6],[938,480.4],[926.8,489.3],[902.2,489.4],[886.6,496.2],[886.6,496.2],[885,506.3],[863.2,518.2],[847.2,530.9],[843.4,536.4],[842,542.3],[855.7,539.2],[858.2,539.9],[858.2,539.9],[836.9,542.7],[836.9,542.7],[837.8,541.2],[841.4,554.4],[816,573.3],[824.6,593.1],[838,597.4],[840.1,587.7],[839.8,577.6],[822.3,577.4],[822.3,577.4],[807.8,588.5],[807.8,588.5],[838.7,588.5],[866.1,594.7],[879.6,578.8],[879.6,578.8],[903.1,568.7],[945.9,550.4],[948.4,538.2],[951.8,539.9],[971,550.4],[980.9,552.9],[1014.1,544.2],[1016.1,553.5],[1016.1,553.5],[1019.5,560.2],[1047.3,566.7],[1047.3,566.7],[1050.2,557.3],[1050.2,557.3],[1033.8,556.1],[1033.8,556.1],[1056.9,552],[1056.9,552],[1072.3,569],[1072.3,569],[1065.3,575.8],[1084.6,592.5],[1071,601.5],[1070.4,602.7],[1075.5,608.9],[1067.4,622.7],[1087.5,628.3],[1107.6,633.9],[1097.7,649.2],[1107.9,638.2],[1112.3,628.6],[1077.8,612.4],[1087.2,595.8],[1101.8,584.7],[1110.7,568.6],[1106,544.7],[1081.5,532.2],[1069.5,522.1],[1065,507.5],[1066.1,496.2],[1026.5,499],[1026.7,504],[1029.5,513.5],[1027.1,517.5],[1026.3,515.3],[1033.6,510.5],[1033.6,510.5],[1024.5,500.1],[1019.3,494.3],[1019.3,494.3],[1050.3,485],[1063.3,477.6],[1063.3,477.6],[1110.9,469.3],[1110.9,469.3],[1156.8,460.6],[1149.8,461.3],[1153.5,444],[1153.3,435.2],[1155.8,425.8],[1181.2,420],[1190.2,407.2],[1190.2,407.2],[1173.3,410.9],[1161.1,422.5],[1167.4,420.9],[1152.2,407],[1150,387.2],[1125.6,399.1],[1111.2,401.3],[1101.5,404],[1091.8,406.7],[1091.8,406.7],[1075.6,426],[1074.3,432],[1068.5,418.6],[1064.3,411],[1072.3,419.5],[1069.9,406.4],[1074.5,385.5],[1078.3,371.9],[1078.3,371.9],[1100,358.4],[1113.3,355.1],[1113.3,355.1],[1133.1,335.2],[1150.1,311.7],[1166.9,299.7],[1185.8,285.9],[1190.5,257.6],[1194.8,257.4],[1203.6,251.3],[1181.5,254.3],[1139.6,267.7],[1086.6,267.9],[1033.6,268.1],[977.6,276.3],[921.6,284.5],[850.3,287.7],[787.6,300.6],[746.4,305.9],[705.2,311.2],[687.2,306.6],[669.2,302],[654.9,298.4],[645.5,307.3],[632.9,314.8],[624.6,327.7],[624.6,327.7],[627.9,341.6],[619.4,341.1],[600.2,341.7],[571.1,335.6],[542.8,330.4],[542.8,330.4],[505.7,343.8],[503.8,357.2],[498.3,354.7],[488.7,362.6],[475,364.6],[456.7,357.7],[460.8,367.3],[452.4,372.6],[481.4,380.7],[488.1,395.1],[503.6,390.9],[467.8,397.5],[450.4,412.1],[450.4,412.1],[432.1,414.4],[432.8,423],[432.8,423],[444.9,430.7],[444.9,430.7],[446.4,436.3],[446.4,436.3],[466.4,446],[466.4,446],[452.8,460.6],[460.8,466.3],[460.8,466.3],[461,460.8],[461,460.8],[509,448.3],[552.6,425.9],[592.2,419.2],[617.6,400.3],[643.6,390.7],[658.6,381.5],[672.7,360.7],[672.7,360.7],[678.5,361.3],[656.2,364.2],[659.4,373.9],[646.7,381.8],[616,396.1],[581.1,398.9],[541.2,408.1],[508.2,405.6],[486.2,402.7],[467.9,417.5],[463.8,405.9],[484.9,396.6],[488.3,391.7],[487.8,382],[490,371.2],[482.8,366.9],[475.6,362.6],[468.4,366.5],[461.2,370.4],[502.8,371.7],[552.8,369.3],[599.9,373],[645.6,373],[645.6,373],[692.2,377.7],[750.6,375.1],[816.2,371.1],[898.9,361.5],[969.6,365.3],[1030.3,373],[1033.4,377.4],[1032.6,383.4],[1043.4,383.4],[1037.2,388.6],[1051.8,390.5],[1054.5,404],[1072.6,410.1],[1072.6,410.1],[1062.8,420.6],[1062.8,420.6],[1005.6,428.9],[953.1,430.6],[893.3,430.1],[825.8,437.2],[754.9,441.7],[698.2,460],[625.1,482.7],[549.9,488.9],[476.9,507.3],[411.8,509],[386.8,504.7],[367.1,503.1],[420,500],[476.3,495.4],[530.9,491.3],[609.3,467.5],[686.3,442.7],[773,435.1],[841.4,419.2],[917.5,421.3],[998.6,422.2],[1076.1,423.9],[1088.3,429.3],[1094.9,424.7],[1094.9,424.7],[1101.5,420.1],[1085.2,407.6],[1088.1,390.3],[1083.5,368],[1082.7,349.5],[1097.5,329.6],[1086.7,304.6],[1098.2,279.1],[1101.7,254.1],[1116.3,230],[1130.9,205.9],[1155,188.8],[1138.8,186.1],[1143.7,173.8],[1165.5,164],[1166.9,155.5],[1183.4,140.4],[1183.4,140.4],[1181.2,125],[1181.2,125],[1185.1,108.1],[1187.2,107],[1182.8,112.7],[1172.2,123.7],[1204.3,118.6],[1204.9,129.4],[1197.5,130.2],[1197.5,130.2],[1187.9,129.1],[1187.9,129.1],[1175.9,142],[1175.9,142],[1175.9,142],[1175.9,142],[1179.9,171.4],[1179.9,171.4],[1172.7,196],[1172.7,196],[1172.3,211.1],[1172.3,211.1],[1172,222.7],[1172,222.7],[1194.3,222.3],[1194.3,222.3],[1183.2,238.5],[1183.2,238.5],[1180.4,238.2],[1180.4,238.2],[1178.6,243],[1178.6,243],[1166.9,249.3],[1166.9,249.3],[1172.4,257],[1172.4,257],[1175.2,244.4],[1175.2,244.4],[1179.3,244.7],[1179.3,244.7],[1175.7,242.6],[1175.7,242.6],[1181.3,233.2],[1181.3,233.2],[1165.2,238],[1165.2,238],[1155.6,243.2],[1155.6,243.2],[1148,258.3],[1148,258.3],[1125.4,280.5],[1125.4,280.5],[1118.8,305.2],[1118.8,305.2],[1115.7,317.4],[1115.7,317.4],[1096.6,337.7],[1096.6,337.7],[1094.6,331.2],[1094.6,331.2],[1093.5,329.1],[1093.5,329.1],[1059,330.3],[1059,330.3],[1047.1,323.1],[1047.1,323.1],[1035.1,309.2],[1035.1,309.2]]","[-0.142,0.42599999999999993]","[0.142,0.42599999999999993]","[0.42599999999999993,0.42599999999999993]","[-0.42599999999999993,-0.142]","[-0.42599999999999993,-0.42599999999999993]","[-0.42599999999999993,0.142]","[-0.142,-0.142]","[0.142,-0.142]","[0.42599999999999993,-0.142]","[-0.142,-0.42599999999999993]","[0.142,-0.42599999999999993]","[0.42599999999999993,-0.42599999999999993]","[-0.142,0.142]","[0.142,0.142]","[0.42599999999999993,0.142]",0,0,0,0,1,4,Laptop,25,20,8,1,60,4,1,60,3
