inst1_resp.keys,inst1_resp.rt,calibrationMouse.x,calibrationMouse.y,calibrationMouse.leftButton,calibrationMouse.midButton,calibrationMouse.rightButton,calibrationClick.x,calibrationClick.y,calibrationClick.leftButton,calibrationClick.midButton,calibrationClick.rightButton,trialsc.thisRepN,trialsc.thisTrialN,trialsc.thisN,trialsc.thisIndex,trialsc.ran,calibration_x,calibration_y,participant,session,date,expName,psychopyVersion,OS,frameRate,calibrationClick.clicked_name,ScreenRes_pixels,Camera_pixels,mouse_2.x,mouse_2.y,mouse_2.leftButton,mouse_2.midButton,mouse_2.rightButton,mouse_2.time,mouse_2.clicked_name,mouse.x,mouse.y,mouse.leftButton,mouse.midButton,mouse.rightButton,mouse.time,mouse.clicked_name,Choice,Trial,TrialDuration,MOUSE_GAZE,ET_GAZE,ET_GAZE_x_T,time,unixTime,ET_GAZE_NF,Loc_Bus_label,Loc_Metro_label,Loc_RH_label,Loc_Cost_label,Loc_Travel_label,Loc_Comfort_label,Loc_Bus_cost,Loc_Metro_cost,Loc_RH_cost,Loc_Bus_travel,Loc_Metro_travel,Loc_RH_travel,Loc_Bus_comfort,Loc_Metro_comfort,Loc_RH_comfort,trials.thisRepN,trials.thisTrialN,trials.thisN,trials.thisIndex,trials.ran,Block,Device,RH_cost,RH_travel_time,RH_Comfort,metro_cost,metro_travel_time,metro_Comfort,Bus_cost,Bus_travel_time,Bus_Comfort
space,2.7853,0.028125,-0.046296296,1,0,0,0.675,0.681481481,1,0,0,0,0,0,19,1,0.67,0.67,29,001,2024-11-19_13h18.27.346,Attention_exp_legacy,2023.1.0,Win32,59.88023952,,,,,,,,,,,,,,,,,,,,,,,,,,,,,,,,,,,,,,,,,,,,,,,,,,,,,,,,,
,,,,,,,0.332291667,-0.318518519,1,0,0,0,1,1,15,1,0.33,-0.33,29,001,2024-11-19_13h18.27.346,Attention_exp_legacy,2023.1.0,Win32,59.88023952,,,,,,,,,,,,,,,,,,,,,,,,,,,,,,,,,,,,,,,,,,,,,,,,,,,,,,,,,
,,,,,,,-0.341666667,-0.003703704,1,0,0,0,2,2,6,1,-0.33,0,29,001,2024-11-19_13h18.27.346,Attention_exp_legacy,2023.1.0,Win32,59.88023952,,,,,,,,,,,,,,,,,,,,,,,,,,,,,,,,,,,,,,,,,,,,,,,,,,,,,,,,,
,,,,,,,-0.664583333,-0.005555556,1,0,0,0,3,3,2,1,-0.67,0,29,001,2024-11-19_13h18.27.346,Attention_exp_legacy,2023.1.0,Win32,59.88023952,calibration_square,,,,,,,,,,,,,,,,,,,,,,,,,,,,,,,,,,,,,,,,,,,,,,,,,,,,,,,,
,,,,,,,-0.665625,0.325925926,1,0,0,0,4,4,3,1,-0.67,0.33,29,001,2024-11-19_13h18.27.346,Attention_exp_legacy,2023.1.0,Win32,59.88023952,calibration_square,,,,,,,,,,,,,,,,,,,,,,,,,,,,,,,,,,,,,,,,,,,,,,,,,,,,,,,,
,,,,,,,0.325,0.674074074,1,0,0,0,5,5,18,1,0.33,0.67,29,001,2024-11-19_13h18.27.346,Attention_exp_legacy,2023.1.0,Win32,59.88023952,calibration_square,,,,,,,,,,,,,,,,,,,,,,,,,,,,,,,,,,,,,,,,,,,,,,,,,,,,,,,,
,,,,,,,-0.004166667,-0.324074074,1,0,0,0,6,6,10,1,0,-0.33,29,001,2024-11-19_13h18.27.346,Attention_exp_legacy,2023.1.0,Win32,59.88023952,calibration_square,,,,,,,,,,,,,,,,,,,,,,,,,,,,,,,,,,,,,,,,,,,,,,,,,,,,,,,,
,,,,,,,0.004166667,0.681481481,1,0,0,0,7,7,13,1,0,0.67,29,001,2024-11-19_13h18.27.346,Attention_exp_legacy,2023.1.0,Win32,59.88023952,,,,,,,,,,,,,,,,,,,,,,,,,,,,,,,,,,,,,,,,,,,,,,,,,,,,,,,,,
,,,,,,,-0.335416667,0.337037037,1,0,0,0,8,8,7,1,-0.33,0.33,29,001,2024-11-19_13h18.27.346,Attention_exp_legacy,2023.1.0,Win32,59.88023952,calibration_square,,,,,,,,,,,,,,,,,,,,,,,,,,,,,,,,,,,,,,,,,,,,,,,,,,,,,,,,
,,,,,,,0.332291667,-0.664814815,1,0,0,0,9,9,14,1,0.33,-0.67,29,001,2024-11-19_13h18.27.346,Attention_exp_legacy,2023.1.0,Win32,59.88023952,calibration_square,,,,,,,,,,,,,,,,,,,,,,,,,,,,,,,,,,,,,,,,,,,,,,,,,,,,,,,,
,,,,,,,0,-0.661111111,1,0,0,0,10,10,9,1,0,-0.67,29,001,2024-11-19_13h18.27.346,Attention_exp_legacy,2023.1.0,Win32,59.88023952,calibration_square,,,,,,,,,,,,,,,,,,,,,,,,,,,,,,,,,,,,,,,,,,,,,,,,,,,,,,,,
,,,,,,,-0.3375,0.67037037,1,0,0,0,11,11,8,1,-0.33,0.67,29,001,2024-11-19_13h18.27.346,Attention_exp_legacy,2023.1.0,Win32,59.88023952,calibration_square,,,,,,,,,,,,,,,,,,,,,,,,,,,,,,,,,,,,,,,,,,,,,,,,,,,,,,,,
,,,,,,,0.323958333,0,1,0,0,0,12,12,16,1,0.33,0,29,001,2024-11-19_13h18.27.346,Attention_exp_legacy,2023.1.0,Win32,59.88023952,calibration_square,,,,,,,,,,,,,,,,,,,,,,,,,,,,,,,,,,,,,,,,,,,,,,,,,,,,,,,,
,,,,,,,-0.005208333,0.32962963,1,0,0,0,13,13,12,1,0,0.33,29,001,2024-11-19_13h18.27.346,Attention_exp_legacy,2023.1.0,Win32,59.88023952,calibration_square,,,,,,,,,,,,,,,,,,,,,,,,,,,,,,,,,,,,,,,,,,,,,,,,,,,,,,,,
,,,,,,,0.319791667,0.32962963,1,0,0,0,14,14,17,1,0.33,0.33,29,001,2024-11-19_13h18.27.346,Attention_exp_legacy,2023.1.0,Win32,59.88023952,,,,,,,,,,,,,,,,,,,,,,,,,,,,,,,,,,,,,,,,,,,,,,,,,,,,,,,,,
,,,,,,,-0.335416667,-0.664814815,1,0,0,0,15,15,4,1,-0.33,-0.67,29,001,2024-11-19_13h18.27.346,Attention_exp_legacy,2023.1.0,Win32,59.88023952,calibration_square,,,,,,,,,,,,,,,,,,,,,,,,,,,,,,,,,,,,,,,,,,,,,,,,,,,,,,,,
,,,,,,,-0.670833333,-0.666666667,1,0,0,0,16,16,0,1,-0.67,-0.67,29,001,2024-11-19_13h18.27.346,Attention_exp_legacy,2023.1.0,Win32,59.88023952,calibration_square,,,,,,,,,,,,,,,,,,,,,,,,,,,,,,,,,,,,,,,,,,,,,,,,,,,,,,,,
,,,,,,,0.660416667,-0.681481481,1,0,0,0,17,17,20,1,0.67,-0.67,29,001,2024-11-19_13h18.27.346,Attention_exp_legacy,2023.1.0,Win32,59.88023952,,,,,,,,,,,,,,,,,,,,,,,,,,,,,,,,,,,,,,,,,,,,,,,,,,,,,,,,,
,,,,,,,-0.001041667,0.005555556,1,0,0,0,18,18,11,1,0,0,29,001,2024-11-19_13h18.27.346,Attention_exp_legacy,2023.1.0,Win32,59.88023952,calibration_square,,,,,,,,,,,,,,,,,,,,,,,,,,,,,,,,,,,,,,,,,,,,,,,,,,,,,,,,
,,,,,,,-0.678125,-0.327777778,1,0,0,0,19,19,1,1,-0.67,-0.33,29,001,2024-11-19_13h18.27.346,Attention_exp_legacy,2023.1.0,Win32,59.88023952,calibration_square,,,,,,,,,,,,,,,,,,,,,,,,,,,,,,,,,,,,,,,,,,,,,,,,,,,,,,,,
,,,,,,,-0.336458333,-0.32037037,1,0,0,0,20,20,5,1,-0.33,-0.33,29,001,2024-11-19_13h18.27.346,Attention_exp_legacy,2023.1.0,Win32,59.88023952,calibration_square,,,,,,,,,,,,,,,,,,,,,,,,,,,,,,,,,,,,,,,,,,,,,,,,,,,,,,,,
,,,,,,,,,,,,,,,,,,,29,001,2024-11-19_13h18.27.346,Attention_exp_legacy,2023.1.0,Win32,59.88023952,,"[1920,1080]","[640,480]",[0.09270833333333334],[-0.5074074074074074],[1],[0],[0],[3.413900000095367],"[""StartButton""]",[-0.06875],[0.1648148148148148],[1],[0],[0],[4.778900000095362],"[""Bus_label""]",Bus_label,1,5.795,"[[0.09270833333333334,-0.5074074074074074],[0.09270833333333334,-0.5074074074074074],[0.09270833333333334,-0.5074074074074074],[0.09270833333333334,-0.5074074074074074],[0.09270833333333334,-0.5074074074074074],[0.09270833333333334,-0.5074074074074074],[0.09270833333333334,-0.5074074074074074],[0.09270833333333334,-0.5074074074074074],[0.09270833333333334,-0.5074074074074074],[0.09270833333333334,-0.5074074074074074],[0.09270833333333334,-0.5074074074074074],[0.09270833333333334,-0.5074074074074074],[0.09270833333333334,-0.5074074074074074],[0.09270833333333334,-0.5074074074074074],[0.09270833333333334,-0.5074074074074074],[0.09270833333333334,-0.5074074074074074],[0.09270833333333334,-0.5074074074074074],[0.09270833333333334,-0.5074074074074074],[0.09270833333333334,-0.5074074074074074],[0.09270833333333334,-0.5074074074074074],[0.09270833333333334,-0.5074074074074074],[0.09270833333333334,-0.5074074074074074],[0.09270833333333334,-0.5074074074074074],[0.09270833333333334,-0.5074074074074074],[0.09270833333333334,-0.5074074074074074],[0.09270833333333334,-0.5074074074074074],[0.09270833333333334,-0.5074074074074074],[0.09270833333333334,-0.5074074074074074],[0.09270833333333334,-0.5074074074074074],[0.09270833333333334,-0.5074074074074074],[0.09270833333333334,-0.5074074074074074],[0.09270833333333334,-0.5074074074074074],[0.09270833333333334,-0.5074074074074074],[0.09270833333333334,-0.5074074074074074],[0.09270833333333334,-0.5074074074074074],[0.09270833333333334,-0.5074074074074074],[0.09270833333333334,-0.5074074074074074],[0.09270833333333334,-0.5074074074074074],[0.09270833333333334,-0.5074074074074074],[0.09270833333333334,-0.5074074074074074],[0.09270833333333334,-0.5074074074074074],[0.09270833333333334,-0.5074074074074074],[0.09270833333333334,-0.5074074074074074],[0.09270833333333334,-0.5074074074074074],[0.09270833333333334,-0.5074074074074074],[0.09270833333333334,-0.5074074074074074],[0.09270833333333334,-0.5074074074074074],[0.09270833333333334,-0.5074074074074074],[0.09270833333333334,-0.5074074074074074],[0.09270833333333334,-0.5074074074074074],[0.09270833333333334,-0.5074074074074074],[0.09270833333333334,-0.5074074074074074],[0.09270833333333334,-0.5074074074074074],[0.09270833333333334,-0.5074074074074074],[0.09270833333333334,-0.5074074074074074],[0.09270833333333334,-0.5074074074074074],[0.09270833333333334,-0.5074074074074074],[0.09270833333333334,-0.5074074074074074],[0.09270833333333334,-0.5074074074074074],[0.09270833333333334,-0.5074074074074074],[0.09270833333333334,-0.5074074074074074],[0.09270833333333334,-0.5074074074074074],[0.09270833333333334,-0.5074074074074074],[0.09270833333333334,-0.5074074074074074],[0.09270833333333334,-0.5055555555555555],[0.090625,-0.4722222222222222],[0.090625,-0.4722222222222222],[0.08541666666666667,-0.4351851851851852],[0.08541666666666667,-0.43148148148148147],[0.08229166666666667,-0.40370370370370373],[0.08229166666666667,-0.4],[0.08020833333333334,-0.37777777777777777],[0.08020833333333334,-0.37037037037037035],[0.08020833333333334,-0.34444444444444444],[0.08020833333333334,-0.34444444444444444],[0.08020833333333334,-0.32222222222222224],[0.08020833333333334,-0.31296296296296294],[0.08020833333333334,-0.29074074074074074],[0.08020833333333334,-0.2759259259259259],[0.08020833333333334,-0.25925925925925924],[0.08020833333333334,-0.24074074074074073],[0.08020833333333334,-0.21666666666666667],[0.07916666666666666,-0.19814814814814816],[0.07708333333333334,-0.17777777777777778],[0.07708333333333334,-0.15925925925925927],[0.07708333333333334,-0.14629629629629629],[0.07604166666666666,-0.13518518518518519],[0.075,-0.1259259259259259],[0.075,-0.11481481481481481],[0.075,-0.10185185185185185],[0.07291666666666667,-0.08888888888888889],[0.071875,-0.07777777777777778],[0.07083333333333333,-0.06481481481481481],[0.07083333333333333,-0.053703703703703705],[0.07083333333333333,-0.044444444444444446],[0.06875,-0.03333333333333333],[0.06875,-0.024074074074074074],[0.06770833333333333,-0.012962962962962963],[0.06770833333333333,-0.003703703703703704],[0.06666666666666667,0.007407407407407408],[0.06458333333333334,0.014814814814814815],[0.06458333333333334,0.025925925925925925],[0.06458333333333334,0.03518518518518519],[0.06354166666666666,0.03888888888888889],[0.0625,0.044444444444444446],[0.0625,0.05],[0.0625,0.053703703703703705],[0.0625,0.053703703703703705],[0.0625,0.053703703703703705],[0.0625,0.053703703703703705],[0.0625,0.05555555555555555],[0.0625,0.05555555555555555],[0.0625,0.05555555555555555],[0.0625,0.05555555555555555],[0.0625,0.05555555555555555],[0.0625,0.05555555555555555],[0.0625,0.05555555555555555],[0.0625,0.05555555555555555],[0.0625,0.05555555555555555],[0.0625,0.05555555555555555],[0.0625,0.05555555555555555],[0.0625,0.05555555555555555],[0.0625,0.05555555555555555],[0.0625,0.05555555555555555],[0.0625,0.05555555555555555],[0.0625,0.05555555555555555],[0.0625,0.05555555555555555],[0.0625,0.05555555555555555],[0.0625,0.05555555555555555],[0.0625,0.05555555555555555],[0.0625,0.05555555555555555],[0.06145833333333333,0.05555555555555555],[0.06145833333333333,0.05555555555555555],[0.06145833333333333,0.05555555555555555],[0.06041666666666667,0.05555555555555555],[0.06041666666666667,0.05185185185185185],[0.06041666666666667,0.04814814814814815],[0.059375,0.046296296296296294],[0.059375,0.046296296296296294],[0.059375,0.046296296296296294],[0.059375,0.046296296296296294],[0.059375,0.046296296296296294],[0.059375,0.046296296296296294],[0.059375,0.046296296296296294],[0.059375,0.046296296296296294],[0.059375,0.046296296296296294],[0.059375,0.046296296296296294],[0.059375,0.046296296296296294],[0.059375,0.046296296296296294],[0.059375,0.046296296296296294],[0.059375,0.046296296296296294],[0.059375,0.046296296296296294],[0.059375,0.046296296296296294],[0.059375,0.046296296296296294],[0.059375,0.046296296296296294],[0.059375,0.046296296296296294],[0.059375,0.046296296296296294],[0.059375,0.046296296296296294],[0.059375,0.046296296296296294],[0.059375,0.046296296296296294],[0.059375,0.046296296296296294],[0.059375,0.046296296296296294],[0.059375,0.046296296296296294],[0.059375,0.046296296296296294],[0.059375,0.046296296296296294],[0.059375,0.046296296296296294],[0.059375,0.046296296296296294],[0.059375,0.046296296296296294],[0.059375,0.046296296296296294],[0.059375,0.046296296296296294],[0.059375,0.046296296296296294],[0.059375,0.046296296296296294],[0.059375,0.046296296296296294],[0.059375,0.046296296296296294],[0.059375,0.046296296296296294],[0.059375,0.046296296296296294],[0.059375,0.046296296296296294],[0.059375,0.046296296296296294],[0.059375,0.046296296296296294],[0.059375,0.046296296296296294],[0.059375,0.046296296296296294],[0.059375,0.046296296296296294],[0.059375,0.046296296296296294],[0.059375,0.046296296296296294],[0.059375,0.046296296296296294],[0.059375,0.046296296296296294],[0.059375,0.046296296296296294],[0.059375,0.046296296296296294],[0.059375,0.046296296296296294],[0.059375,0.046296296296296294],[0.059375,0.046296296296296294],[0.059375,0.046296296296296294],[0.059375,0.046296296296296294],[0.059375,0.046296296296296294],[0.059375,0.046296296296296294],[0.059375,0.046296296296296294],[0.059375,0.046296296296296294],[0.059375,0.046296296296296294],[0.059375,0.046296296296296294],[0.059375,0.046296296296296294],[0.059375,0.046296296296296294],[0.059375,0.046296296296296294],[0.059375,0.046296296296296294],[0.059375,0.046296296296296294],[0.059375,0.046296296296296294],[0.059375,0.046296296296296294],[0.059375,0.046296296296296294],[0.059375,0.046296296296296294],[0.059375,0.046296296296296294],[0.059375,0.046296296296296294],[0.059375,0.046296296296296294],[0.059375,0.046296296296296294],[0.059375,0.046296296296296294],[0.059375,0.046296296296296294],[0.059375,0.046296296296296294],[0.059375,0.046296296296296294],[0.059375,0.046296296296296294],[0.059375,0.046296296296296294],[0.059375,0.046296296296296294],[0.059375,0.046296296296296294],[0.059375,0.046296296296296294],[0.059375,0.046296296296296294],[0.059375,0.046296296296296294],[0.059375,0.046296296296296294],[0.059375,0.046296296296296294],[0.059375,0.046296296296296294],[0.059375,0.046296296296296294],[0.059375,0.046296296296296294],[0.059375,0.046296296296296294],[0.059375,0.046296296296296294],[0.058333333333333334,0.046296296296296294],[0.057291666666666664,0.04814814814814815],[0.05520833333333333,0.05555555555555555],[0.05416666666666667,0.05740740740740741],[0.05416666666666667,0.06111111111111111],[0.05416666666666667,0.06296296296296296],[0.053125,0.06481481481481481],[0.052083333333333336,0.06851851851851852],[0.051041666666666666,0.07222222222222222],[0.05,0.07592592592592592],[0.04791666666666667,0.07962962962962963],[0.046875,0.08518518518518518],[0.04479166666666667,0.08703703703703704],[0.041666666666666664,0.09074074074074075],[0.03333333333333333,0.09814814814814815],[0.028125,0.1],[0.01875,0.10740740740740741],[0.005208333333333333,0.11296296296296296],[0.0010416666666666667,0.11666666666666667],[-0.003125,0.11851851851851852],[-0.007291666666666667,0.12222222222222222],[-0.016666666666666666,0.12777777777777777],[-0.028125,0.13333333333333333],[-0.03229166666666667,0.13518518518518519],[-0.040625,0.1388888888888889],[-0.04375,0.14074074074074075],[-0.04791666666666667,0.1425925925925926],[-0.051041666666666666,0.14629629629629629],[-0.05625,0.15],[-0.058333333333333334,0.15185185185185185],[-0.06354166666666666,0.1574074074074074],[-0.06458333333333334,0.15925925925925927],[-0.06770833333333333,0.16296296296296298],[-0.06770833333333333,0.16296296296296298],[-0.06875,0.1648148148148148],[-0.06875,0.1648148148148148],[-0.06875,0.1648148148148148],[-0.06875,0.1648148148148148],[-0.06875,0.1648148148148148],[-0.06875,0.1648148148148148],[-0.06875,0.1648148148148148],[-0.06875,0.1648148148148148],[-0.06875,0.1648148148148148],[-0.06875,0.1648148148148148],[-0.06875,0.1648148148148148],[-0.06875,0.1648148148148148],[-0.06875,0.1648148148148148],[-0.06875,0.1648148148148148],[-0.06875,0.1648148148148148],[-0.06875,0.1648148148148148],[-0.06875,0.1648148148148148],[-0.06875,0.1648148148148148],[-0.06875,0.1648148148148148],[-0.06875,0.1648148148148148],[-0.06875,0.1648148148148148],[-0.06875,0.1648148148148148],[-0.06875,0.1648148148148148],[-0.06875,0.1648148148148148],[-0.06875,0.1648148148148148],[-0.06875,0.1648148148148148],[-0.06979166666666667,0.16666666666666666],[-0.06979166666666667,0.16666666666666666],[-0.06979166666666667,0.16666666666666666],[-0.06979166666666667,0.16666666666666666],[-0.06979166666666667,0.16666666666666666],[-0.06979166666666667,0.16666666666666666],[-0.06979166666666667,0.16666666666666666],[-0.06979166666666667,0.16666666666666666],[-0.06979166666666667,0.16666666666666666],[-0.06979166666666667,0.16666666666666666],[-0.06979166666666667,0.16666666666666666],[-0.06979166666666667,0.16666666666666666],[-0.06979166666666667,0.16666666666666666],[-0.06979166666666667,0.16666666666666666],[-0.06979166666666667,0.16666666666666666],[-0.06979166666666667,0.16666666666666666],[-0.06979166666666667,0.16666666666666666],[-0.06979166666666667,0.16666666666666666],[-0.06979166666666667,0.16666666666666666],[-0.06979166666666667,0.16666666666666666],[-0.06979166666666667,0.16666666666666666],[-0.06979166666666667,0.16666666666666666],[-0.06979166666666667,0.16666666666666666],[-0.06979166666666667,0.16666666666666666],[-0.06979166666666667,0.16666666666666666],[-0.06979166666666667,0.16666666666666666],[-0.06979166666666667,0.16666666666666666],[-0.06979166666666667,0.16666666666666666],[-0.06979166666666667,0.16666666666666666],[-0.06979166666666667,0.16666666666666666],[-0.06979166666666667,0.16666666666666666],[-0.06979166666666667,0.16666666666666666],[-0.06979166666666667,0.16666666666666666],[-0.06979166666666667,0.16666666666666666],[-0.06979166666666667,0.16666666666666666],[-0.06979166666666667,0.16666666666666666],[-0.06979166666666667,0.16666666666666666],[-0.06979166666666667,0.16666666666666666],[-0.06979166666666667,0.16666666666666666],[-0.06979166666666667,0.16666666666666666],[-0.06979166666666667,0.16666666666666666],[-0.06979166666666667,0.16666666666666666],[-0.06979166666666667,0.16666666666666666],[-0.06979166666666667,0.16666666666666666],[-0.06979166666666667,0.16666666666666666],[-0.06979166666666667,0.16666666666666666],[-0.06979166666666667,0.16666666666666666],[-0.06979166666666667,0.16666666666666666],[-0.06979166666666667,0.16666666666666666],[-0.06979166666666667,0.16666666666666666],[-0.06979166666666667,0.16666666666666666],[-0.06979166666666667,0.16666666666666666],[-0.06979166666666667,0.16666666666666666],[-0.06979166666666667,0.16666666666666666],[-0.06979166666666667,0.16666666666666666]]","[[0.0943749999999999,0.21296296296296297],[0.09208333333333343,0.2381481481481482],[0.09208333333333343,0.2381481481481482],[0.1015625,0.2490740740740741],[0.1015625,0.2490740740740741],[0.12645833333333342,0.26500000000000007],[0.12645833333333342,0.26500000000000007],[0.1252083333333334,0.26703703703703713],[0.1252083333333334,0.26703703703703713],[0.13031249999999991,0.2485185185185186],[0.13031249999999991,0.2485185185185186],[0.1453125,0.2361111111111111],[0.1453125,0.2361111111111111],[0.15812499999999996,0.20759259259259263],[0.15812499999999996,0.20759259259259263],[0.14197916666666663,0.2131481481481482],[0.14197916666666663,0.2131481481481482],[0.10281250000000004,0.22851851851851848],[0.10281250000000004,0.22851851851851848],[0.09041666666666662,0.21500000000000005],[0.09041666666666662,0.21500000000000005],[0.08572916666666662,0.18222222222222217],[0.08572916666666662,0.18222222222222217],[0.09104166666666676,0.17074074074074083],[0.09104166666666676,0.17074074074074083],[0.06864583333333343,0.16703703703703712],[0.06864583333333343,0.16703703703703712],[0.06499999999999997,0.1698148148148149],[0.06499999999999997,0.1698148148148149],[0.07427083333333329,0.18518518518518517],[0.07427083333333329,0.18518518518518517],[0.05593750000000005,0.19018518518518526],[0.05593750000000005,0.19018518518518526],[0.07541666666666676,0.20277777777777778],[0.07541666666666676,0.20277777777777778],[0.08697916666666666,0.1992592592592593],[0.08697916666666666,0.1992592592592593],[0.11333333333333329,0.202962962962963],[0.11333333333333329,0.202962962962963],[0.12416666666666672,0.21481481481481482],[0.12416666666666672,0.21481481481481482],[0.1868750000000001,0.20796296296296288],[0.1868750000000001,0.20796296296296288],[0.18552083333333325,0.22629629629629638],[0.18552083333333325,0.22629629629629638],[0.22854166666666675,0.202962962962963],[0.22854166666666675,0.202962962962963],[0.23708333333333323,0.22037037037037038],[0.23708333333333323,0.22037037037037038],[0.23208333333333328,0.23185185185185195],[0.23208333333333328,0.23185185185185195],[0.2665625000000001,0.23666666666666658],[0.2665625000000001,0.23666666666666658],[0.2607291666666666,0.25759259259259265],[0.2607291666666666,0.25759259259259265],[0.265625,0.28129629629629627],[0.265625,0.28129629629629627],[0.3056250000000001,0.28888888888888886],[0.3056250000000001,0.28888888888888886],[0.3056250000000001,0.28888888888888886],[0.3056250000000001,0.28888888888888886],[0.32020833333333343,0.2892592592592593],[0.32020833333333343,0.2892592592592593],[0.29031250000000003,0.3333333333333333],[0.29031250000000003,0.3333333333333333],[0.2873958333333334,0.34037037037037027],[0.2873958333333334,0.34037037037037027],[0.2639583333333334,0.3635185185185184],[0.2639583333333334,0.3635185185185184],[0.2613541666666668,0.3801851851851851],[0.2613541666666668,0.3801851851851851],[0.2560416666666666,0.3931481481481481],[0.2560416666666666,0.3931481481481481],[0.2275000000000001,0.4087037037037038],[0.2275000000000001,0.4087037037037038],[0.2040625000000001,0.4166666666666667],[0.2040625000000001,0.4166666666666667],[0.18458333333333338,0.4185185185185185],[0.18458333333333338,0.4185185185185185],[0.12885416666666671,0.4185185185185185],[0.12885416666666671,0.4185185185185185],[0.09520833333333342,0.39277777777777784],[0.09520833333333342,0.39277777777777784],[0.07593750000000009,0.39018518518518525],[0.07593750000000009,0.39018518518518525],[0.06645833333333329,0.39351851851851855],[0.06645833333333329,0.39351851851851855],[0.05479166666666669,0.38851851851851843],[0.05479166666666669,0.38851851851851843],[0.04802083333333336,0.37111111111111106],[0.04802083333333336,0.37111111111111106],[0.030624999999999975,0.368888888888889],[0.002916666666666619,0.3625925925925925],[0.002916666666666619,0.3625925925925925],[0.003125,0.32333333333333336],[0.006458333333333381,0.3277777777777778],[0.006458333333333381,0.3277777777777778],[0.008749999999999977,0.325],[0.029999999999999954,0.3449999999999999],[0.03822916666666672,0.32314814814814813],[0.043958333333333384,0.29148148148148145],[0.05302083333333331,0.277962962962963],[0.060104166666666715,0.24666666666666676],[0.07479166666666662,0.21777777777777782],[0.09729166666666676,0.20277777777777778],[0.10635416666666657,0.19981481481481478],[0.1118750000000001,0.15759259259259265],[0.13031249999999991,0.13796296296296295],[0.13427083333333342,0.12888888888888894],[0.12104166666666671,0.12833333333333324],[0.11760416666666676,0.14092592592592595],[0.11760416666666676,0.14092592592592595],[0.10614583333333343,0.14462962962962966],[0.10614583333333343,0.14462962962962966],[0.09864583333333338,0.14888888888888885],[0.084375,0.14351851851851852],[0.0943749999999999,0.12851851851851848],[0.08947916666666676,0.13444444444444448],[0.08885416666666662,0.13277777777777786],[0.08572916666666662,0.11666666666666667],[0.08885416666666662,0.11425925925925934],[0.10916666666666662,0.10333333333333325],[0.12385416666666677,0.08129629629629626],[0.10270833333333323,0.07685185185185185],[0.10270833333333323,0.07685185185185185],[0.1009375000000001,0.0742592592592593],[0.08635416666666676,0.059999999999999956],[0.07416666666666671,0.021296296296296296],[0.06197916666666667,-0.017407407407407365],[0.05333333333333338,-0.023333333333333376],[0.04468749999999998,-0.029259259259259176],[0.020833333333333332,-0.07574074074074069],[0.005208333333333333,-0.09592592592592594],[-0.001145833333333357,-0.07925925925925928],[0.02364583333333338,-0.06833333333333329],[0.05427083333333336,-0.0933333333333333],[0.10447916666666662,-0.09703703703703699],[0.10447916666666662,-0.09703703703703699],[0.10958333333333338,-0.08148148148148149],[0.1146874999999999,-0.06592592592592597],[0.1375,-0.05462962962962963],[0.1603125000000001,-0.04333333333333329],[0.16979166666666667,-0.0011111111111111532],[0.1710416666666667,0.014814814814814815],[0.17895833333333327,-0.006296296296296254],[0.1868750000000001,-0.027407407407407325],[0.1678124999999999,-0.019444444444444445],[0.1478125000000001,-0.007407407407407408],[0.15760416666666663,0.005370370370370328],[0.16739583333333338,0.018148148148148063],[0.12645833333333342,0.022592592592592678],[0.12781250000000005,0.020370370370370372],[0.15145833333333342,0.014074074074074116],[0.15166666666666656,0.02092592592592584],[0.14052083333333343,0.038703703703703664],[0.1599999999999999,0.040370370370370286],[0.18125,0.047037037037036995],[0.17635416666666662,0.05129629629629638],[0.18041666666666673,0.05333333333333325],[0.18760416666666657,0.06333333333333342],[0.18760416666666657,0.06333333333333342],[0.22083333333333333,0.06222222222222226],[0.22145833333333323,0.05962962962962971],[0.22145833333333323,0.05962962962962971],[0.22208333333333338,0.057037037037036956],[0.22937500000000005,0.06351851851851843],[0.2337500000000001,0.06425925925925935],[0.20750000000000005,0.08111111111111102],[0.16270833333333337,0.08759259259259251],[0.1634375000000001,0.09407407407407399],[0.13291666666666657,0.11092592592592589],[0.13291666666666657,0.11092592592592589],[0.09895833333333333,0.12222222222222222],[0.09895833333333333,0.12222222222222222],[0.06395833333333331,0.11296296296296296],[0.03802083333333333,0.10629629629629625],[0.03802083333333333,0.10629629629629625],[-0.03302083333333338,0.14981481481481476],[-0.07374999999999995,0.1594444444444445],[-0.08916666666666669,0.18777777777777774],[-0.10916666666666662,0.22925925925925916],[-0.1171875,0.2903703703703703],[-0.1436458333333333,0.34981481481481475],[-0.15135416666666662,0.36925925925925923],[-0.15874999999999997,0.38629629629629636],[-0.16593749999999996,0.42240740740740745],[-0.17479166666666662,0.497037037037037],[-0.13854166666666667,0.5214814814814815],[-0.1313541666666667,0.5546296296296296],[-0.14552083333333338,0.5751851851851852],[-0.14552083333333338,0.5751851851851852],[-0.14375,0.5516666666666666],[-0.14406249999999995,0.5227777777777777],[-0.14437500000000003,0.493888888888889],[-0.13500000000000004,0.48648148148148157],[-0.13500000000000004,0.4883333333333334],[-0.11291666666666664,0.48814814814814816],[-0.10791666666666669,0.45500000000000007],[-0.07583333333333328,0.42481481481481476],[-0.04104166666666664,0.4087037037037038],[-0.00625,0.3925925925925926],[0.030312500000000023,0.4112962962962963],[0.06645833333333329,0.4331481481481481],[0.0990624999999999,0.4462962962962963],[0.1265625,0.4698148148148149],[0.1560416666666666,0.4662962962962962],[0.1560416666666666,0.4662962962962962],[0.1634375000000001,0.4648148148148148],[0.17895833333333327,0.46537037037037027],[0.17895833333333327,0.46537037037037027],[0.16739583333333338,0.46296296296296297],[0.16739583333333338,0.46296296296296297],[0.17177083333333343,0.4553703703703703],[0.15833333333333333,0.43629629629629635],[0.15833333333333333,0.43629629629629635],[0.15010416666666657,0.43129629629629623],[0.15489583333333337,0.41999999999999993],[0.15489583333333337,0.41999999999999993],[0.1658333333333334,0.4185185185185185],[0.15499999999999994,0.42555555555555546],[0.14729166666666677,0.4420370370370371],[0.1658333333333334,0.4588888888888888],[0.15479166666666658,0.48333333333333334],[0.1638541666666666,0.4935185185185185],[0.16979166666666667,0.4977777777777777],[0.18156249999999996,0.505925925925926],[0.18156249999999996,0.505925925925926],[0.175,0.49611111111111106],[0.15437500000000004,0.4766666666666666],[0.12666666666666657,0.4735185185185186],[0.12072916666666676,0.4618518518518518],[0.12927083333333325,0.42888888888888893],[0.11156249999999991,0.3955555555555556],[0.11156249999999991,0.3955555555555556],[0.11072916666666661,0.3287037037037037],[0.090625,0.2851851851851852],[0.06708333333333343,0.2272222222222223],[0.05791666666666669,0.18129629629629626],[0.03218749999999997,0.14870370370370362],[0.016562499999999977,0.125],[0.021249999999999977,0.07074074074074083],[0.025937499999999978,0.01648148148148144],[0.008124999999999953,-0.003888888888888931],[-0.009687499999999953,-0.0242592592592593],[-0.021458333333333357,-0.009444444444444486],[-0.021458333333333357,-0.009444444444444486],[-0.030104166666666644,0.005740740740740783],[-0.035312499999999976,0.03537037037037041],[-0.04718749999999995,0.05185185185185185],[-0.04718749999999995,0.05185185185185185],[-0.03093750000000005,0.05962962962962971],[-0.03093750000000005,0.05962962962962971],[-0.024479166666666666,0.051111111111111156],[-0.024479166666666666,0.051111111111111156],[-0.02510416666666669,0.026111111111111154],[-0.02510416666666669,0.026111111111111154],[-0.0032291666666666905,0.021481481481481525],[-0.0032291666666666905,0.021481481481481525],[0.006458333333333381,0.021851851851851768],[0.006458333333333381,0.021851851851851768],[0.016562499999999977,0.02555555555555547],[0.016562499999999977,0.02555555555555547],[0.035000000000000024,0.013703703703703662],[0.035000000000000024,0.013703703703703662],[0.043124999999999976,-0.021481481481481525],[0.043124999999999976,-0.021481481481481525],[0.043124999999999976,-0.04592592592592584],[0.043124999999999976,-0.04592592592592584],[0.05395833333333329,-0.06462962962962959],[0.05395833333333329,-0.06462962962962959],[0.050312499999999954,-0.07703703703703708],[0.050312499999999954,-0.07703703703703708],[0.0484375,-0.09129629629629632],[0.0484375,-0.09129629629629632],[0.035104166666666714,-0.07018518518518514],[0.035104166666666714,-0.07018518518518514],[0.007187499999999976,-0.047037037037036995],[0.007187499999999976,-0.047037037037036995],[0.004062499999999977,-0.03259259259259263],[0.004062499999999977,-0.03259259259259263],[-0.008333333333333333,-0.03222222222222218],[-0.008333333333333333,-0.03222222222222218],[-0.014479166666666644,-0.0235185185185186],[-0.014479166666666644,-0.0235185185185186],[-0.01270833333333338,0.013703703703703662],[-0.01270833333333338,0.013703703703703662],[-0.01270833333333338,0.013703703703703662],[-0.01270833333333338,0.013703703703703662],[-0.013333333333333286,-0.004814814814814857],[-0.013333333333333286,-0.004814814814814857],[-0.025729166666666713,-0.006666666666666709],[-0.025729166666666713,-0.006666666666666709],[-0.025729166666666713,-0.006666666666666709],[-0.025729166666666713,-0.006666666666666709],[-0.03854166666666667,-0.019259259259259216],[-0.03854166666666667,-0.019259259259259216],[-0.03822916666666672,0.003888888888888931],[-0.03822916666666672,0.003888888888888931],[-0.022291666666666644,0.016666666666666666],[-0.022291666666666644,0.016666666666666666],[-0.00458333333333331,-0.003703703703703704],[-0.00458333333333331,-0.003703703703703704],[0.010104166666666714,-0.01777777777777782],[0.010104166666666714,-0.01777777777777782],[0.02312500000000005,-0.01777777777777782],[0.02312500000000005,-0.01777777777777782],[0.034375,-0.017592592592592594],[0.034375,-0.017592592592592594],[0.033958333333333354,-0.04203703703703712],[0.033958333333333354,-0.04203703703703712],[0.033958333333333354,-0.04203703703703712],[0.0515625,-0.015370370370370286],[0.0515625,-0.015370370370370286],[0.07552083333333333,0.0338888888888888],[0.07552083333333333,0.0338888888888888],[0.09739583333333333,0.06962962962962967],[0.09739583333333333,0.06962962962962967],[0.11145833333333334,0.06666666666666667],[0.11145833333333334,0.06666666666666667],[0.09854166666666657,0.056296296296296254],[0.09854166666666657,0.056296296296296254],[0.06270833333333338,0.049074074074074076],[0.06270833333333338,0.049074074074074076],[0.042916666666666714,0.06740740740740736],[0.042916666666666714,0.06740740740740736],[0.02364583333333338,0.0911111111111112],[0.02364583333333338,0.0911111111111112],[-0.016250000000000025,0.08851851851851844],[-0.016250000000000025,0.08851851851851844],[-0.016250000000000025,0.08851851851851844],[-0.03999999999999997,0.09888888888888885],[-0.03999999999999997,0.09888888888888885],[-0.044062499999999956,0.10055555555555547],[-0.044062499999999956,0.10055555555555547],[-0.044270833333333336,0.06277777777777774],[-0.044270833333333336,0.06277777777777774],[-0.03822916666666672,0.0485185185185186],[-0.03822916666666672,0.0485185185185186],[-0.028750000000000022,0.052962962962963],[-0.028750000000000022,0.052962962962963],[-0.01416666666666669,0.07555555555555547],[-0.01416666666666669,0.07555555555555547],[0.018333333333333358,0.10500000000000008],[0.018333333333333358,0.10500000000000008],[0.017812500000000023,0.07685185185185185]]","[[0.0943749999999999,0.21296296296296297,0.000299999713902821],[0.09208333333333343,0.2381481481481482,0.054199999809270594],[0.09208333333333343,0.2381481481481482,0.07900000000000063],[0.1015625,0.2490740740740741,0.09379999971390163],[0.1015625,0.2490740740740741,0.10459999990463587],[0.12645833333333342,0.26500000000000007,0.12489999961853471],[0.12645833333333342,0.26500000000000007,0.13150000000000261],[0.1252083333333334,0.26703703703703713,0.1581999998092698],[0.1252083333333334,0.26703703703703713,0.1651999998092677],[0.13031249999999991,0.2485185185185186,0.19169999980926633],[0.13031249999999991,0.2485185185185186,0.2031999998092715],[0.1453125,0.2361111111111111,0.22479999971390185],[0.1453125,0.2361111111111111,0.23219999980926787],[0.15812499999999996,0.20759259259259263,0.2581999998092712],[0.15812499999999996,0.20759259259259263,0.2651999998092691],[0.14197916666666663,0.2131481481481482,0.2915000000000063],[0.14197916666666663,0.2131481481481482,0.29869999980926565],[0.10281250000000004,0.22851851851851848,0.324699999809269],[0.10281250000000004,0.22851851851851848,0.33150000000000546],[0.09041666666666662,0.21500000000000005,0.3583999996185341],[0.09041666666666662,0.21500000000000005,0.36559999990463865],[0.08572916666666662,0.18222222222222217,0.3916999998092692],[0.08572916666666662,0.18222222222222217,0.40009999990463285],[0.09104166666666676,0.17074074074074083,0.4247999997139047],[0.09104166666666676,0.17074074074074083,0.4317999997139026],[0.06864583333333343,0.16703703703703712,0.45819999980926696],[0.06864583333333343,0.16703703703703712,0.4650999999046377],[0.06499999999999997,0.1698148148148149,0.49150000000000205],[0.06499999999999997,0.1698148148148149,0.49929999971389805],[0.07427083333333329,0.18518518518518517,0.5250999999046329],[0.07427083333333329,0.18518518518518517,0.5325999999046331],[0.05593750000000005,0.19018518518518526,0.5582999997139027],[0.05593750000000005,0.19018518518518526,0.566199999809271],[0.07541666666666676,0.20277777777777778,0.5918999996185335],[0.07541666666666676,0.20277777777777778,0.6002999997139042],[0.08697916666666666,0.1992592592592593,0.6236999998092685],[0.08697916666666666,0.1992592592592593,0.6308999996185349],[0.11333333333333329,0.202962962962963,0.6580999999046355],[0.11333333333333329,0.202962962962963,0.665299999713902],[0.12416666666666672,0.21481481481481482,0.6915999999046392],[0.12416666666666672,0.21481481481481482,0.7011999998092691],[0.1868750000000001,0.20796296296296288,0.7246999998092676],[0.1868750000000001,0.20796296296296288,0.7316999998092655],[0.18552083333333325,0.22629629629629638,0.758099999904637],[0.18552083333333325,0.22629629629629638,0.7652999997139034],[0.22854166666666675,0.202962962962963,0.7913999996185339],[0.22854166666666675,0.202962962962963,0.7987999997138999],[0.23708333333333323,0.22037037037037038,0.8247999997139033],[0.23708333333333323,0.22037037037037038,0.8315000000000055],[0.23208333333333328,0.23185185185185195,0.8570000000000064],[0.23208333333333328,0.23185185185185195,0.8645000000000067],[0.2665625000000001,0.23666666666666658,0.8957999997139012],[0.2665625000000001,0.23666666666666658,0.9060999999046331],[0.2607291666666666,0.25759259259259265,0.9257999997139024],[0.2607291666666666,0.25759259259259265,0.9340999999046389],[0.265625,0.28129629629629627,0.9588999996185308],[0.265625,0.28129629629629627,0.9657999997139015],[0.3056250000000001,0.28888888888888886,0.9916999998092706],[0.3056250000000001,0.28888888888888886,0.999599999904639],[0.3056250000000001,0.28888888888888886,1.0068999996185326],[0.3056250000000001,0.28888888888888886,1.0250999999046329],[0.32020833333333343,0.2892592592592593,1.0570000000000022],[0.32020833333333343,0.2892592592592593,1.0641999998092686],[0.29031250000000003,0.3333333333333333,1.091699999809272],[0.29031250000000003,0.3333333333333333,1.1082999997138998],[0.2873958333333334,0.34037037037037027,1.125399999618537],[0.2873958333333334,0.34037037037037027,1.132000000000005],[0.2639583333333334,0.3635185185185184,1.160899999618536],[0.2639583333333334,0.3635185185185184,1.1676999998092654],[0.2613541666666668,0.3801851851851851,1.1920000000000002],[0.2613541666666668,0.3801851851851851,1.2005000000000052],[0.2560416666666666,0.3931481481481481,1.2272999997138996],[0.2560416666666666,0.3931481481481481,1.2343999996185318],[0.2275000000000001,0.4087037037037038,1.2617999997139009],[0.2275000000000001,0.4087037037037038,1.2681999998092692],[0.2040625000000001,0.4166666666666667,1.3001999998092657],[0.2040625000000001,0.4166666666666667,1.3090000000000046],[0.18458333333333338,0.4185185185185185,1.3230999999046347],[0.18458333333333338,0.4185185185185185,1.339899999618531],[0.12885416666666671,0.4185185185185185,1.3620999999046361],[0.12885416666666671,0.4185185185185185,1.3732999997139004],[0.09520833333333342,0.39277777777777784,1.3900000000000006],[0.09520833333333342,0.39277777777777784,1.4125999999046357],[0.07593750000000009,0.39018518518518525,1.4232999997139046],[0.07593750000000009,0.39018518518518525,1.4397999997138982],[0.06645833333333329,0.39351851851851855,1.4565000000000055],[0.06645833333333329,0.39351851851851855,1.4770000000000039],[0.05479166666666669,0.38851851851851843,1.4897999997139024],[0.05479166666666669,0.38851851851851843,1.5066999998092712],[0.04802083333333336,0.37111111111111106,1.5230999999046375],[0.04802083333333336,0.37111111111111106,1.5430000000000064],[0.030624999999999975,0.368888888888889,1.556599999904634],[0.002916666666666619,0.3625925925925925,1.5770999999046396],[0.002916666666666619,0.3625925925925925,1.5946999998092721],[0.003125,0.32333333333333336,1.606500000000004],[0.006458333333333381,0.3277777777777778,1.6270999999046367],[0.006458333333333381,0.3277777777777778,1.6432999997139035],[0.008749999999999977,0.325,1.6565000000000012],[0.029999999999999954,0.3449999999999999,1.673099999904636],[0.03822916666666672,0.32314814814814813,1.689699999809271],[0.043958333333333384,0.29148148148148145,1.7091999998092717],[0.05302083333333331,0.277962962962963,1.7248999996185361],[0.060104166666666715,0.24666666666666676,1.740000000000002],[0.07479166666666662,0.21777777777777782,1.7565000000000026],[0.09729166666666676,0.20277777777777778,1.776199999809272],[0.10635416666666657,0.19981481481481478,1.7907999997139044],[0.1118750000000001,0.15759259259259265,1.8081999998092684],[0.13031249999999991,0.13796296296296295,1.822899999618535],[0.13427083333333342,0.12888888888888894,1.839500000000001],[0.12104166666666671,0.12833333333333324,1.8561999998092702],[0.11760416666666676,0.14092592592592595,1.8781999998092616],[0.11760416666666676,0.14092592592592595,1.8905999999046301],[0.10614583333333343,0.14462962962962966,1.906399999618536],[0.10614583333333343,0.14462962962962966,1.9228999996185294],[0.09864583333333338,0.14888888888888885,1.939699999809271],[0.084375,0.14351851851851852,1.9561999998092645],[0.0943749999999999,0.12851851851851848,1.9728999996185408],[0.08947916666666676,0.13444444444444448,1.9895999999046339],[0.08885416666666662,0.13277777777777786,2.00659999990463],[0.08572916666666662,0.11666666666666667,2.022899999618538],[0.08885416666666662,0.11425925925925934,2.039599999904631],[0.10916666666666662,0.10333333333333325,2.0578999996185345],[0.12385416666666677,0.08129629629629626,2.072899999618535],[0.10270833333333323,0.07685185185185185,2.0937999997139016],[0.10270833333333323,0.07685185185185185,2.10619999980927],[0.1009375000000001,0.0742592592592593,2.1229999999999976],[0.08635416666666676,0.059999999999999956,2.1395999999046396],[0.07416666666666671,0.021296296296296296,2.1580000000000084],[0.06197916666666667,-0.017407407407407365,2.1728999996185294],[0.05333333333333338,-0.023333333333333376,2.1895999999046367],[0.04468749999999998,-0.029259259259259176,2.2061999998092645],[0.020833333333333332,-0.07574074074074069,2.225500000000004],[0.005208333333333333,-0.09592592592592594,2.239599999904634],[-0.001145833333333357,-0.07925925925925928,2.256299999713896],[0.02364583333333338,-0.06833333333333329,2.275500000000001],[0.05427083333333336,-0.0933333333333333,2.292199999809263],[0.10447916666666662,-0.09703703703703699,2.3205000000000027],[0.10447916666666662,-0.09703703703703699,2.3300000000000054],[0.10958333333333338,-0.08148148148148149,2.3395999999046424],[0.1146874999999999,-0.06592592592592597,2.3562999997139045],[0.1375,-0.05462962962962963,2.3728999996185323],[0.1603125000000001,-0.04333333333333329,2.3895000000000053],[0.16979166666666667,-0.0011111111111111532,2.4061999998092674],[0.1710416666666667,0.014814814814814815,2.4228999996185294],[0.17895833333333327,-0.006296296296296254,2.4395999999046367],[0.1868750000000001,-0.027407407407407325,2.456399999618533],[0.1678124999999999,-0.019444444444444445,2.472899999618541],[0.1478125000000001,-0.007407407407407408,2.489599999904634],[0.15760416666666663,0.005370370370370328,2.5061999998092617],[0.16739583333333338,0.018148148148148063,2.522899999618538],[0.12645833333333342,0.022592592592592678,2.539599999904631],[0.12781250000000005,0.020370370370370372,2.5574999999999974],[0.15145833333333342,0.014074074074074116,2.5730000000000004],[0.15166666666666656,0.02092592592592584,2.5895999999046424],[0.14052083333333343,0.038703703703703664,2.607699999809263],[0.1599999999999999,0.040370370370370286,2.6229999999999976],[0.18125,0.047037037037036995,2.6395999999046396],[0.17635416666666662,0.05129629629629638,2.6566999998092697],[0.18041666666666673,0.05333333333333325,2.6743999996185366],[0.18760416666666657,0.06333333333333342,2.691199999809264],[0.18760416666666657,0.06333333333333342,2.706299999713899],[0.22083333333333333,0.06222222222222226,2.722899999618541],[0.22145833333333323,0.05962962962962971,2.739599999904634],[0.22145833333333323,0.05962962962962971,2.7561999998092617],[0.22208333333333338,0.057037037037036956,2.772899999618538],[0.22937500000000005,0.06351851851851843,2.789599999904631],[0.2337500000000001,0.06425925925925935,2.8078999996185345],[0.20750000000000005,0.08111111111111102,2.824599999904642],[0.16270833333333337,0.08759259259259251,2.8395999999046424],[0.1634375000000001,0.09407407407407399,2.8562999997139045],[0.13291666666666657,0.11092592592592589,2.873599999904634],[0.13291666666666657,0.11092592592592589,2.8895999999046396],[0.09895833333333333,0.12222222222222222,2.9062999997139016],[0.09895833333333333,0.12222222222222222,2.923000000000009],[0.06395833333333331,0.11296296296296296,2.9395999999046367],[0.03802083333333333,0.10629629629629625,2.958299999713894],[0.03802083333333333,0.10629629629629625,2.972899999618541],[-0.03302083333333338,0.14981481481481476,2.989599999904634],[-0.07374999999999995,0.1594444444444445,3.00639999961853],[-0.08916666666666669,0.18777777777777774,3.022899999618538],[-0.10916666666666662,0.22925925925925916,3.0415000000000063],[-0.1171875,0.2903703703703703,3.0562999997139073],[-0.1436458333333333,0.34981481481481475,3.072799999713901],[-0.15135416666666662,0.36925925925925923,3.0948999996185407],[-0.15874999999999997,0.38629629629629636,3.109799999713907],[-0.16593749999999996,0.42240740740740745,3.125799999713898],[-0.17479166666666662,0.497037037037037,3.139899999618528],[-0.13854166666666667,0.5214814814814815,3.1562999997139016],[-0.1313541666666667,0.5546296296296296,3.173399999618532],[-0.14552083333333338,0.5751851851851852,3.1955000000000027],[-0.14552083333333338,0.5751851851851852,3.206299999713899],[-0.14375,0.5516666666666666,3.223000000000006],[-0.14406249999999995,0.5227777777777777,3.239699999809268],[-0.14437500000000003,0.493888888888889,3.2561999998092617],[-0.13500000000000004,0.48648148148148157,3.272899999618538],[-0.13500000000000004,0.4883333333333334,3.291899999618529],[-0.11291666666666664,0.48814814814814816,3.308],[-0.10791666666666669,0.45500000000000007,3.322799999713901],[-0.07583333333333328,0.42481481481481476,3.3395999999046424],[-0.04104166666666664,0.4087037037037038,3.357999999999997],[-0.00625,0.3925925925925926,3.3729999999999976],[0.030312500000000023,0.4112962962962963,3.3895000000000053],[0.06645833333333329,0.4331481481481481,3.406399999618536],[0.0990624999999999,0.4462962962962963,3.4228999996185294],[0.1265625,0.4698148148148149,3.440000000000005],[0.1560416666666666,0.4662962962962962,3.4565999999046326],[0.1560416666666666,0.4662962962962962,3.472899999618541],[0.1634375000000001,0.4648148148148148,3.489599999904634],[0.17895833333333327,0.46537037037037027,3.511799999713908],[0.17895833333333327,0.46537037037037027,3.522899999618538],[0.16739583333333338,0.46296296296296297,3.5394999999999968],[0.16739583333333338,0.46296296296296297,3.556199999809273],[0.17177083333333343,0.4553703703703703,3.5730000000000004],[0.15833333333333333,0.43629629629629635,3.5970000000000013],[0.15833333333333333,0.43629629629629635,3.60619999980927],[0.15010416666666657,0.43129629629629623,3.6229999999999976],[0.15489583333333337,0.41999999999999993,3.6510000000000034],[0.15489583333333337,0.41999999999999993,3.657899999618529],[0.1658333333333334,0.4185185185185185,3.673000000000009],[0.15499999999999994,0.42555555555555546,3.6898999996185395],[0.14729166666666677,0.4420370370370371,3.706299999713899],[0.1658333333333334,0.4588888888888888,3.722899999618541],[0.15479166666666658,0.48333333333333334,3.739599999904634],[0.1638541666666666,0.4935185185185185,3.7575999999046346],[0.16979166666666667,0.4977777777777777,3.775500000000001],[0.18156249999999996,0.505925925925926,3.7920000000000087],[0.18156249999999996,0.505925925925926,3.806199999809273],[0.175,0.49611111111111106,3.822899999618535],[0.15437500000000004,0.4766666666666666,3.841000000000001],[0.12666666666666657,0.4735185185185186,3.8566999998092726],[0.12072916666666676,0.4618518518518518,3.876099999904632],[0.12927083333333325,0.42888888888888893,3.893000000000008],[0.11156249999999991,0.3955555555555556,3.911599999904631],[0.11156249999999991,0.3955555555555556,3.9292999997138978],[0.11072916666666661,0.3287037037037037,3.939699999809271],[0.090625,0.2851851851851852,3.9605999999046375],[0.06708333333333343,0.2272222222222223,3.978500000000004],[0.05791666666666669,0.18129629629629626,3.9937999997139073],[0.03218749999999997,0.14870370370370362,4.009799999713898],[0.016562499999999977,0.125,4.028500000000001],[0.021249999999999977,0.07074074074074083,4.042899999618534],[0.025937499999999978,0.01648148148148144,4.059000000000005],[0.008124999999999953,-0.003888888888888931,4.074799999713896],[-0.009687499999999953,-0.0242592592592593,4.0933999996185335],[-0.021458333333333357,-0.009444444444444486,4.111399999618534],[-0.021458333333333357,-0.009444444444444486,4.123099999904632],[-0.030104166666666644,0.005740740740740783,4.139899999618528],[-0.035312499999999976,0.03537037037037041,4.1610000000000085],[-0.04718749999999995,0.05185185185185185,4.178199999809273],[-0.04718749999999995,0.05185185185185185,4.1898999996185395],[-0.03093750000000005,0.05962962962962971,4.2260999999046405],[-0.03093750000000005,0.05962962962962971,4.236699999809268],[-0.024479166666666666,0.051111111111111156,4.258500000000005],[-0.024479166666666666,0.051111111111111156,4.274799999713899],[-0.02510416666666669,0.026111111111111154,4.291699999809275],[-0.02510416666666669,0.026111111111111154,4.300500000000007],[-0.0032291666666666905,0.021481481481481525,4.3266999998092714],[-0.0032291666666666905,0.021481481481481525,4.333299999713894],[0.006458333333333381,0.021851851851851768,4.3582999997139],[0.006458333333333381,0.021851851851851768,4.366500000000009],[0.016562499999999977,0.02555555555555547,4.392899999618528],[0.016562499999999977,0.02555555555555547,4.40159999990464],[0.035000000000000024,0.013703703703703662,4.425500000000007],[0.035000000000000024,0.013703703703703662,4.433299999713903],[0.043124999999999976,-0.021481481481481525,4.459699999809267],[0.043124999999999976,-0.021481481481481525,4.466000000000001],[0.043124999999999976,-0.04592592592592584,4.491599999904629],[0.043124999999999976,-0.04592592592592584,4.501399999618535],[0.05395833333333329,-0.06462962962962959,4.524799999713899],[0.05395833333333329,-0.06462962962962959,4.531199999809267],[0.050312499999999954,-0.07703703703703708,4.55689999961853],[0.050312499999999954,-0.07703703703703708,4.563899999618535],[0.0484375,-0.09129629629629632,4.590099999904631],[0.0484375,-0.09129629629629632,4.598000000000006],[0.035104166666666714,-0.07018518518518514,4.624699999809273],[0.035104166666666714,-0.07018518518518514,4.63139999961853],[0.007187499999999976,-0.047037037037036995,4.656899999618538],[0.007187499999999976,-0.047037037037036995,4.663500000000006],[0.004062499999999977,-0.03259259259259263,4.691599999904632],[0.004062499999999977,-0.03259259259259263,4.699599999904642],[-0.008333333333333333,-0.03222222222222218,4.724899999618536],[-0.008333333333333333,-0.03222222222222218,4.731500000000004],[-0.014479166666666644,-0.0235185185185186,4.758000000000003],[-0.014479166666666644,-0.0235185185185186,4.76459999990464],[-0.01270833333333338,0.013703703703703662,4.790399999618536],[-0.01270833333333338,0.013703703703703662,4.797799999713895],[-0.01270833333333338,0.013703703703703662,4.808500000000002],[-0.01270833333333338,0.013703703703703662,4.824000000000005],[-0.013333333333333286,-0.004814814814814857,4.857000000000006],[-0.013333333333333286,-0.004814814814814857,4.8640999999046315],[-0.025729166666666713,-0.006666666666666709,4.890399999618531],[-0.025729166666666713,-0.006666666666666709,4.897399999618536],[-0.025729166666666713,-0.006666666666666709,4.911699999809265],[-0.025729166666666713,-0.006666666666666709,4.9239999999999995],[-0.03854166666666667,-0.019259259259259216,4.957000000000001],[-0.03854166666666667,-0.019259259259259216,4.9646999998092625],[-0.03822916666666672,0.003888888888888931,4.9960999999046365],[-0.03822916666666672,0.003888888888888931,5.005299999713905],[-0.022291666666666644,0.016666666666666666,5.024799999713899],[-0.022291666666666644,0.016666666666666666,5.031799999713904],[-0.00458333333333331,-0.003703703703703704,5.058099999904634],[-0.00458333333333331,-0.003703703703703704,5.065799999713896],[0.010104166666666714,-0.01777777777777782,5.091399999618538],[0.010104166666666714,-0.01777777777777782,5.100599999904638],[0.02312500000000005,-0.01777777777777782,5.123599999904634],[0.02312500000000005,-0.01777777777777782,5.131299999713896],[0.034375,-0.017592592592592594,5.158099999904643],[0.034375,-0.017592592592592594,5.1655000000000015],[0.033958333333333354,-0.04203703703703712,5.191899999618535],[0.033958333333333354,-0.04203703703703712,5.199399999618528],[0.033958333333333354,-0.04203703703703712,5.2094999999999985],[0.0515625,-0.015370370370370286,5.24139999961853],[0.0515625,-0.015370370370370286,5.248399999618535],[0.07552083333333333,0.0338888888888888,5.2745999999046305],[0.07552083333333333,0.0338888888888888,5.281799999713904],[0.09739583333333333,0.06962962962962967,5.308199999809268],[0.09739583333333333,0.06962962962962967,5.317],[0.11145833333333334,0.06666666666666667,5.341599999904638],[0.11145833333333334,0.06666666666666667,5.348599999904643],[0.09854166666666657,0.056296296296296254,5.37539999961853],[0.09854166666666657,0.056296296296296254,5.383099999904637],[0.06270833333333338,0.049074074074074076,5.408099999904643],[0.06270833333333338,0.049074074074074076,5.415299999713902],[0.042916666666666714,0.06740740740740736,5.441799999713901],[0.042916666666666714,0.06740740740740736,5.448699999809271],[0.02364583333333338,0.0911111111111112,5.476399999618529],[0.02364583333333338,0.0911111111111112,5.484000000000002],[-0.016250000000000025,0.08851851851851844,5.51139999961854],[-0.016250000000000025,0.08851851851851844,5.519299999713901],[-0.016250000000000025,0.08851851851851844,5.527299999713897],[-0.03999999999999997,0.09888888888888885,5.5611999998092685],[-0.03999999999999997,0.09888888888888885,5.568099999904639],[-0.044062499999999956,0.10055555555555547,5.592399999618529],[-0.044062499999999956,0.10055555555555547,5.602899999618536],[-0.044270833333333336,0.06277777777777774,5.629099999904632],[-0.044270833333333336,0.06277777777777774,5.636299999713906],[-0.03822916666666672,0.0485185185185186,5.661399999618531],[-0.03822916666666672,0.0485185185185186,5.6687999997139045],[-0.028750000000000022,0.052962962962963,5.695099999904635],[-0.028750000000000022,0.052962962962963,5.70300000000001],[-0.01416666666666669,0.07555555555555547,5.727699999809268],[-0.01416666666666669,0.07555555555555547,5.735899999618532],[0.018333333333333358,0.10500000000000008,5.761099999904637],[0.018333333333333358,0.10500000000000008,5.768199999809262],[0.017812500000000023,0.07685185185185185,5.795000000000009]]","[0.000299999713902821,0.054199999809270594,0.07900000000000063,0.09379999971390163,0.10459999990463587,0.12489999961853471,0.13150000000000261,0.1581999998092698,0.1651999998092677,0.19169999980926633,0.2031999998092715,0.22479999971390185,0.23219999980926787,0.2581999998092712,0.2651999998092691,0.2915000000000063,0.29869999980926565,0.324699999809269,0.33150000000000546,0.3583999996185341,0.36559999990463865,0.3916999998092692,0.40009999990463285,0.4247999997139047,0.4317999997139026,0.45819999980926696,0.4650999999046377,0.49150000000000205,0.49929999971389805,0.5250999999046329,0.5325999999046331,0.5582999997139027,0.566199999809271,0.5918999996185335,0.6002999997139042,0.6236999998092685,0.6308999996185349,0.6580999999046355,0.665299999713902,0.6915999999046392,0.7011999998092691,0.7246999998092676,0.7316999998092655,0.758099999904637,0.7652999997139034,0.7913999996185339,0.7987999997138999,0.8247999997139033,0.8315000000000055,0.8570000000000064,0.8645000000000067,0.8957999997139012,0.9060999999046331,0.9257999997139024,0.9340999999046389,0.9588999996185308,0.9657999997139015,0.9916999998092706,0.999599999904639,1.0068999996185326,1.0250999999046329,1.0570000000000022,1.0641999998092686,1.091699999809272,1.1082999997138998,1.125399999618537,1.132000000000005,1.160899999618536,1.1676999998092654,1.1920000000000002,1.2005000000000052,1.2272999997138996,1.2343999996185318,1.2617999997139009,1.2681999998092692,1.3001999998092657,1.3090000000000046,1.3230999999046347,1.339899999618531,1.3620999999046361,1.3732999997139004,1.3900000000000006,1.4125999999046357,1.4232999997139046,1.4397999997138982,1.4565000000000055,1.4770000000000039,1.4897999997139024,1.5066999998092712,1.5230999999046375,1.5430000000000064,1.556599999904634,1.5770999999046396,1.5946999998092721,1.606500000000004,1.6270999999046367,1.6432999997139035,1.6565000000000012,1.673099999904636,1.689699999809271,1.7091999998092717,1.7248999996185361,1.740000000000002,1.7565000000000026,1.776199999809272,1.7907999997139044,1.8081999998092684,1.822899999618535,1.839500000000001,1.8561999998092702,1.8781999998092616,1.8905999999046301,1.906399999618536,1.9228999996185294,1.939699999809271,1.9561999998092645,1.9728999996185408,1.9895999999046339,2.00659999990463,2.022899999618538,2.039599999904631,2.0578999996185345,2.072899999618535,2.0937999997139016,2.10619999980927,2.1229999999999976,2.1395999999046396,2.1580000000000084,2.1728999996185294,2.1895999999046367,2.2061999998092645,2.225500000000004,2.239599999904634,2.256299999713896,2.275500000000001,2.292199999809263,2.3205000000000027,2.3300000000000054,2.3395999999046424,2.3562999997139045,2.3728999996185323,2.3895000000000053,2.4061999998092674,2.4228999996185294,2.4395999999046367,2.456399999618533,2.472899999618541,2.489599999904634,2.5061999998092617,2.522899999618538,2.539599999904631,2.5574999999999974,2.5730000000000004,2.5895999999046424,2.607699999809263,2.6229999999999976,2.6395999999046396,2.6566999998092697,2.6743999996185366,2.691199999809264,2.706299999713899,2.722899999618541,2.739599999904634,2.7561999998092617,2.772899999618538,2.789599999904631,2.8078999996185345,2.824599999904642,2.8395999999046424,2.8562999997139045,2.873599999904634,2.8895999999046396,2.9062999997139016,2.923000000000009,2.9395999999046367,2.958299999713894,2.972899999618541,2.989599999904634,3.00639999961853,3.022899999618538,3.0415000000000063,3.0562999997139073,3.072799999713901,3.0948999996185407,3.109799999713907,3.125799999713898,3.139899999618528,3.1562999997139016,3.173399999618532,3.1955000000000027,3.206299999713899,3.223000000000006,3.239699999809268,3.2561999998092617,3.272899999618538,3.291899999618529,3.308,3.322799999713901,3.3395999999046424,3.357999999999997,3.3729999999999976,3.3895000000000053,3.406399999618536,3.4228999996185294,3.440000000000005,3.4565999999046326,3.472899999618541,3.489599999904634,3.511799999713908,3.522899999618538,3.5394999999999968,3.556199999809273,3.5730000000000004,3.5970000000000013,3.60619999980927,3.6229999999999976,3.6510000000000034,3.657899999618529,3.673000000000009,3.6898999996185395,3.706299999713899,3.722899999618541,3.739599999904634,3.7575999999046346,3.775500000000001,3.7920000000000087,3.806199999809273,3.822899999618535,3.841000000000001,3.8566999998092726,3.876099999904632,3.893000000000008,3.911599999904631,3.9292999997138978,3.939699999809271,3.9605999999046375,3.978500000000004,3.9937999997139073,4.009799999713898,4.028500000000001,4.042899999618534,4.059000000000005,4.074799999713896,4.0933999996185335,4.111399999618534,4.123099999904632,4.139899999618528,4.1610000000000085,4.178199999809273,4.1898999996185395,4.2260999999046405,4.236699999809268,4.258500000000005,4.274799999713899,4.291699999809275,4.300500000000007,4.3266999998092714,4.333299999713894,4.3582999997139,4.366500000000009,4.392899999618528,4.40159999990464,4.425500000000007,4.433299999713903,4.459699999809267,4.466000000000001,4.491599999904629,4.501399999618535,4.524799999713899,4.531199999809267,4.55689999961853,4.563899999618535,4.590099999904631,4.598000000000006,4.624699999809273,4.63139999961853,4.656899999618538,4.663500000000006,4.691599999904632,4.699599999904642,4.724899999618536,4.731500000000004,4.758000000000003,4.76459999990464,4.790399999618536,4.797799999713895,4.808500000000002,4.824000000000005,4.857000000000006,4.8640999999046315,4.890399999618531,4.897399999618536,4.911699999809265,4.9239999999999995,4.957000000000001,4.9646999998092625,4.9960999999046365,5.005299999713905,5.024799999713899,5.031799999713904,5.058099999904634,5.065799999713896,5.091399999618538,5.100599999904638,5.123599999904634,5.131299999713896,5.158099999904643,5.1655000000000015,5.191899999618535,5.199399999618528,5.2094999999999985,5.24139999961853,5.248399999618535,5.2745999999046305,5.281799999713904,5.308199999809268,5.317,5.341599999904638,5.348599999904643,5.37539999961853,5.383099999904637,5.408099999904643,5.415299999713902,5.441799999713901,5.448699999809271,5.476399999618529,5.484000000000002,5.51139999961854,5.519299999713901,5.527299999713897,5.5611999998092685,5.568099999904639,5.592399999618529,5.602899999618536,5.629099999904632,5.636299999713906,5.661399999618531,5.6687999997139045,5.695099999904635,5.70300000000001,5.727699999809268,5.735899999618532,5.761099999904637,5.768199999809262,5.795000000000009]","[1731993560535,1731993560577,1731993560602,1731993560617,1731993560628,1731993560648,1731993560655,1731993560681,1731993560688,1731993560715,1731993560726,1731993560748,1731993560755,1731993560781,1731993560788,1731993560815,1731993560822,1731993560848,1731993560855,1731993560882,1731993560889,1731993560915,1731993560923,1731993560948,1731993560955,1731993560981,1731993560988,1731993561015,1731993561022,1731993561048,1731993561056,1731993561082,1731993561089,1731993561115,1731993561124,1731993561147,1731993561154,1731993561181,1731993561189,1731993561215,1731993561224,1731993561248,1731993561255,1731993561281,1731993561288,1731993561315,1731993561322,1731993561348,1731993561355,1731993561380,1731993561388,1731993561419,1731993561429,1731993561449,1731993561457,1731993561482,1731993561489,1731993561515,1731993561523,1731993561530,1731993561548,1731993561580,1731993561587,1731993561615,1731993561632,1731993561649,1731993561655,1731993561684,1731993561691,1731993561715,1731993561724,1731993561751,1731993561758,1731993561785,1731993561791,1731993561823,1731993561832,1731993561846,1731993561863,1731993561885,1731993561897,1731993561913,1731993561936,1731993561946,1731993561963,1731993561980,1731993562000,1731993562013,1731993562030,1731993562046,1731993562066,1731993562080,1731993562100,1731993562118,1731993562130,1731993562150,1731993562167,1731993562180,1731993562196,1731993562213,1731993562232,1731993562248,1731993562263,1731993562280,1731993562299,1731993562314,1731993562331,1731993562346,1731993562363,1731993562379,1731993562401,1731993562414,1731993562430,1731993562446,1731993562463,1731993562479,1731993562496,1731993562513,1731993562530,1731993562546,1731993562563,1731993562581,1731993562596,1731993562617,1731993562629,1731993562646,1731993562663,1731993562681,1731993562696,1731993562713,1731993562729,1731993562749,1731993562763,1731993562779,1731993562799,1731993562815,1731993562844,1731993562853,1731993562863,1731993562879,1731993562896,1731993562913,1731993562929,1731993562946,1731993562963,1731993562980,1731993562996,1731993563013,1731993563029,1731993563046,1731993563063,1731993563081,1731993563096,1731993563113,1731993563131,1731993563146,1731993563163,1731993563180,1731993563198,1731993563214,1731993563229,1731993563246,1731993563263,1731993563279,1731993563296,1731993563313,1731993563331,1731993563348,1731993563363,1731993563379,1731993563397,1731993563413,1731993563430,1731993563446,1731993563463,1731993563482,1731993563496,1731993563513,1731993563530,1731993563546,1731993563565,1731993563579,1731993563596,1731993563618,1731993563633,1731993563649,1731993563663,1731993563679,1731993563697,1731993563719,1731993563730,1731993563746,1731993563763,1731993563779,1731993563796,1731993563815,1731993563831,1731993563846,1731993563863,1731993563881,1731993563896,1731993563913,1731993563930,1731993563946,1731993563963,1731993563980,1731993563996,1731993564013,1731993564035,1731993564046,1731993564063,1731993564079,1731993564096,1731993564120,1731993564129,1731993564146,1731993564174,1731993564181,1731993564196,1731993564213,1731993564229,1731993564246,1731993564263,1731993564281,1731993564299,1731993564315,1731993564329,1731993564346,1731993564364,1731993564380,1731993564399,1731993564416,1731993564435,1731993564453,1731993564463,1731993564484,1731993564502,1731993564517,1731993564533,1731993564552,1731993564566,1731993564582,1731993564598,1731993564617,1731993564635,1731993564646,1731993564663,1731993564684,1731993564701,1731993564713,1731993564749,1731993564760,1731993564782,1731993564798,1731993564815,1731993564824,1731993564850,1731993564857,1731993564882,1731993564890,1731993564916,1731993564925,1731993564949,1731993564957,1731993564983,1731993564989,1731993565015,1731993565025,1731993565048,1731993565054,1731993565080,1731993565087,1731993565113,1731993565121,1731993565148,1731993565155,1731993565180,1731993565187,1731993565215,1731993565223,1731993565248,1731993565255,1731993565281,1731993565288,1731993565314,1731993565321,1731993565332,1731993565347,1731993565380,1731993565387,1731993565414,1731993565421,1731993565435,1731993565447,1731993565480,1731993565488,1731993565519,1731993565529,1731993565548,1731993565555,1731993565581,1731993565589,1731993565615,1731993565624,1731993565647,1731993565655,1731993565681,1731993565689,1731993565715,1731993565723,1731993565733,1731993565765,1731993565772,1731993565798,1731993565805,1731993565831,1731993565840,1731993565865,1731993565872,1731993565899,1731993565906,1731993565931,1731993565938,1731993565965,1731993565972,1731993566000,1731993566007,1731993566035,1731993566042,1731993566051,1731993566084,1731993566091,1731993566116,1731993566126,1731993566152,1731993566159,1731993566185,1731993566192,1731993566218,1731993566226,1731993566251,1731993566259,1731993566284,1731993566291,1731993566318]","[[1050.6,655],[1048.4,668.6],[1048.4,668.6],[1057.5,674.5],[1057.5,674.5],[1081.4,683.1],[1081.4,683.1],[1080.2,684.2],[1080.2,684.2],[1085.1,674.2],[1085.1,674.2],[1099.5,667.5],[1099.5,667.5],[1111.8,652.1],[1111.8,652.1],[1096.3,655.1],[1096.3,655.1],[1058.7,663.4],[1058.7,663.4],[1046.8,656.1],[1046.8,656.1],[1042.3,638.4],[1042.3,638.4],[1047.4,632.2],[1047.4,632.2],[1025.9,630.2],[1025.9,630.2],[1022.4,631.7],[1022.4,631.7],[1031.3,640],[1031.3,640],[1013.7,642.7],[1013.7,642.7],[1032.4,649.5],[1032.4,649.5],[1043.5,647.6],[1043.5,647.6],[1068.8,649.6],[1068.8,649.6],[1079.2,656],[1079.2,656],[1139.4,652.3],[1139.4,652.3],[1138.1,662.2],[1138.1,662.2],[1179.4,649.6],[1179.4,649.6],[1187.6,659],[1187.6,659],[1182.8,665.2],[1182.8,665.2],[1215.9,667.8],[1215.9,667.8],[1210.3,679.1],[1210.3,679.1],[1215,691.9],[1215,691.9],[1253.4,696],[1253.4,696],[1253.4,696],[1253.4,696],[1267.4,696.2],[1267.4,696.2],[1238.7,720],[1238.7,720],[1235.9,723.8],[1235.9,723.8],[1213.4,736.3],[1213.4,736.3],[1210.9,745.3],[1210.9,745.3],[1205.8,752.3],[1205.8,752.3],[1178.4,760.7],[1178.4,760.7],[1155.9,765],[1155.9,765],[1137.2,766],[1137.2,766],[1083.7,766],[1083.7,766],[1051.4,752.1],[1051.4,752.1],[1032.9,750.7],[1032.9,750.7],[1023.8,752.5],[1023.8,752.5],[1012.6,749.8],[1012.6,749.8],[1006.1,740.4],[1006.1,740.4],[989.4,739.2],[962.8,735.8],[962.8,735.8],[963,714.6],[966.2,717],[966.2,717],[968.4,715.5],[988.8,726.3],[996.7,714.5],[1002.2,697.4],[1010.9,690.1],[1017.7,673.2],[1031.8,657.6],[1053.4,649.5],[1062.1,647.9],[1067.4,625.1],[1085.1,614.5],[1088.9,609.6],[1076.2,609.3],[1072.9,616.1],[1072.9,616.1],[1061.9,618.1],[1061.9,618.1],[1054.7,620.4],[1041,617.5],[1050.6,609.4],[1045.9,612.6],[1045.3,611.7],[1042.3,603],[1045.3,601.7],[1064.8,595.8],[1078.9,583.9],[1058.6,581.5],[1058.6,581.5],[1056.9,580.1],[1042.9,572.4],[1031.2,551.5],[1019.5,530.6],[1011.2,527.4],[1002.9,524.2],[980,499.1],[965,488.2],[958.9,497.2],[982.7,503.1],[1012.1,489.6],[1060.3,487.6],[1060.3,487.6],[1065.2,496],[1070.1,504.4],[1092,510.5],[1113.9,516.6],[1123,539.4],[1124.2,548],[1131.8,536.6],[1139.4,525.2],[1121.1,529.5],[1101.9,536],[1111.3,542.9],[1120.7,549.8],[1081.4,552.2],[1082.7,551],[1105.4,547.6],[1105.6,551.3],[1094.9,560.9],[1113.6,561.8],[1134,565.4],[1129.3,567.7],[1133.2,568.8],[1140.1,574.2],[1140.1,574.2],[1172,573.6],[1172.6,572.2],[1172.6,572.2],[1173.2,570.8],[1180.2,574.3],[1184.4,574.7],[1159.2,583.8],[1116.2,587.3],[1116.9,590.8],[1087.6,599.9],[1087.6,599.9],[1055,606],[1055,606],[1021.4,601],[996.5,597.4],[996.5,597.4],[928.3,620.9],[889.2,626.1],[874.4,641.4],[855.2,663.8],[847.5,696.8],[822.1,728.9],[814.7,739.4],[807.6,748.6],[800.7,768.1],[792.2,808.4],[827,821.6],[833.9,839.5],[820.3,850.6],[820.3,850.6],[822,837.9],[821.7,822.3],[821.4,806.7],[830.4,802.7],[830.4,803.7],[851.6,803.6],[856.4,785.7],[887.2,769.4],[920.6,760.7],[954,752],[989.1,762.1],[1023.8,773.9],[1055.1,781],[1081.5,793.7],[1109.8,791.8],[1109.8,791.8],[1116.9,791],[1131.8,791.3],[1131.8,791.3],[1120.7,790],[1120.7,790],[1124.9,785.9],[1112,775.6],[1112,775.6],[1104.1,772.9],[1108.7,766.8],[1108.7,766.8],[1119.2,766],[1108.8,769.8],[1101.4,778.7],[1119.2,787.8],[1108.6,801],[1117.3,806.5],[1123,808.8],[1134.3,813.2],[1134.3,813.2],[1128,807.9],[1108.2,797.4],[1081.6,795.7],[1075.9,789.4],[1084.1,771.6],[1067.1,753.6],[1067.1,753.6],[1066.3,717.5],[1047,694],[1024.4,662.7],[1015.6,637.9],[990.9,620.3],[975.9,607.5],[980.4,578.2],[984.9,548.9],[967.8,537.9],[950.7,526.9],[939.4,534.9],[939.4,534.9],[931.1,543.1],[926.1,559.1],[914.7,568],[914.7,568],[930.3,572.2],[930.3,572.2],[936.5,567.6],[936.5,567.6],[935.9,554.1],[935.9,554.1],[956.9,551.6],[956.9,551.6],[966.2,551.8],[966.2,551.8],[975.9,553.8],[975.9,553.8],[993.6,547.4],[993.6,547.4],[1001.4,528.4],[1001.4,528.4],[1001.4,515.2],[1001.4,515.2],[1011.8,505.1],[1011.8,505.1],[1008.3,498.4],[1008.3,498.4],[1006.5,490.7],[1006.5,490.7],[993.7,502.1],[993.7,502.1],[966.9,514.6],[966.9,514.6],[963.9,522.4],[963.9,522.4],[952,522.6],[952,522.6],[946.1,527.3],[946.1,527.3],[947.8,547.4],[947.8,547.4],[947.8,547.4],[947.8,547.4],[947.2,537.4],[947.2,537.4],[935.3,536.4],[935.3,536.4],[935.3,536.4],[935.3,536.4],[923,529.6],[923,529.6],[923.3,542.1],[923.3,542.1],[938.6,549],[938.6,549],[955.6,538],[955.6,538],[969.7,530.4],[969.7,530.4],[982.2,530.4],[982.2,530.4],[993,530.5],[993,530.5],[992.6,517.3],[992.6,517.3],[992.6,517.3],[1009.5,531.7],[1009.5,531.7],[1032.5,558.3],[1032.5,558.3],[1053.5,577.6],[1053.5,577.6],[1067,576],[1067,576],[1054.6,570.4],[1054.6,570.4],[1020.2,566.5],[1020.2,566.5],[1001.2,576.4],[1001.2,576.4],[982.7,589.2],[982.7,589.2],[944.4,587.8],[944.4,587.8],[944.4,587.8],[921.6,593.4],[921.6,593.4],[917.7,594.3],[917.7,594.3],[917.5,573.9],[917.5,573.9],[923.3,566.2],[923.3,566.2],[932.4,568.6],[932.4,568.6],[946.4,580.8],[946.4,580.8],[977.6,596.7],[977.6,596.7],[977.1,581.5]]","[-0.056692,0.170076]","[0.056692,0.170076]","[0.170076,0.170076]","[-0.170076,-0.170076]","[-0.170076,0.056692]","[-0.170076,-0.056692]","[-0.056692,-0.170076]","[0.056692,-0.170076]","[0.170076,-0.170076]","[-0.056692,0.056692]","[0.056692,0.056692]","[0.170076,0.056692]","[-0.056692,-0.056692]","[0.056692,-0.056692]","[0.170076,-0.056692]",0,0,0,0,1,2,Smartphone,15,20,8,3,70,4,3,60,4
