inst1_resp.keys,inst1_resp.rt,calibrationMouse.x,calibrationMouse.y,calibrationMouse.leftButton,calibrationMouse.midButton,calibrationMouse.rightButton,calibrationClick.x,calibrationClick.y,calibrationClick.leftButton,calibrationClick.midButton,calibrationClick.rightButton,calibrationClick.clicked_name,trialsc.thisRepN,trialsc.thisTrialN,trialsc.thisN,trialsc.thisIndex,trialsc.ran,calibration_x,calibration_y,participant,session,date,expName,psychopyVersion,OS,frameRate,ScreenRes_pixels,Camera_pixels,mouse_2.x,mouse_2.y,mouse_2.leftButton,mouse_2.midButton,mouse_2.rightButton,mouse_2.time,mouse_2.clicked_name,mouse.x,mouse.y,mouse.leftButton,mouse.midButton,mouse.rightButton,mouse.time,mouse.clicked_name,Choice,Trial,TrialDuration,MOUSE_GAZE,ET_GAZE,ET_GAZE_x_T,time,unixTime,ET_GAZE_NF,Loc_Bus_label,Loc_Metro_label,Loc_RH_label,Loc_Cost_label,Loc_Travel_label,Loc_Comfort_label,Loc_Bus_cost,Loc_Metro_cost,Loc_RH_cost,Loc_Bus_travel,Loc_Metro_travel,Loc_RH_travel,Loc_Bus_comfort,Loc_Metro_comfort,Loc_RH_comfort,trials.thisRepN,trials.thisTrialN,trials.thisN,trials.thisIndex,trials.ran,Block,Device,RH_cost,RH_travel_time,RH_Comfort,metro_cost,metro_travel_time,metro_Comfort,Bus_cost,Bus_travel_time,Bus_Comfort
space,5.5418,-0.0375,-0.342592593,1,0,0,0.327083333,-0.009259259,1,0,0,calibration_square,0,0,0,16,1,0.33,0,29,001,2024-11-18_10h16.39.720,Attention_exp_legacy,2023.1.0,Win32,59.88023952,,,,,,,,,,,,,,,,,,,,,,,,,,,,,,,,,,,,,,,,,,,,,,,,,,,,,,,,
,,,,,,,-0.335416667,-0.664814815,1,0,0,calibration_square,0,1,1,4,1,-0.33,-0.67,29,001,2024-11-18_10h16.39.720,Attention_exp_legacy,2023.1.0,Win32,59.88023952,,,,,,,,,,,,,,,,,,,,,,,,,,,,,,,,,,,,,,,,,,,,,,,,,,,,,,,,
,,,,,,,-0.654166667,-0.664814815,1,0,0,,0,2,2,0,1,-0.67,-0.67,29,001,2024-11-18_10h16.39.720,Attention_exp_legacy,2023.1.0,Win32,59.88023952,,,,,,,,,,,,,,,,,,,,,,,,,,,,,,,,,,,,,,,,,,,,,,,,,,,,,,,,
,,,,,,,0.330208333,0.67962963,1,0,0,calibration_square,0,3,3,18,1,0.33,0.67,29,001,2024-11-18_10h16.39.720,Attention_exp_legacy,2023.1.0,Win32,59.88023952,,,,,,,,,,,,,,,,,,,,,,,,,,,,,,,,,,,,,,,,,,,,,,,,,,,,,,,,
,,,,,,,-0.664583333,-0.311111111,1,0,0,,0,4,4,1,1,-0.67,-0.33,29,001,2024-11-18_10h16.39.720,Attention_exp_legacy,2023.1.0,Win32,59.88023952,,,,,,,,,,,,,,,,,,,,,,,,,,,,,,,,,,,,,,,,,,,,,,,,,,,,,,,,
,,,,,,,0,-0.337037037,1,0,0,calibration_square,0,5,5,10,1,0,-0.33,29,001,2024-11-18_10h16.39.720,Attention_exp_legacy,2023.1.0,Win32,59.88023952,,,,,,,,,,,,,,,,,,,,,,,,,,,,,,,,,,,,,,,,,,,,,,,,,,,,,,,,
,,,,,,,0.658333333,-0.666666667,1,0,0,,0,6,6,20,1,0.67,-0.67,29,001,2024-11-18_10h16.39.720,Attention_exp_legacy,2023.1.0,Win32,59.88023952,,,,,,,,,,,,,,,,,,,,,,,,,,,,,,,,,,,,,,,,,,,,,,,,,,,,,,,,
,,,,,,,0.328125,-0.688888889,1,0,0,,0,7,7,14,1,0.33,-0.67,29,001,2024-11-18_10h16.39.720,Attention_exp_legacy,2023.1.0,Win32,59.88023952,,,,,,,,,,,,,,,,,,,,,,,,,,,,,,,,,,,,,,,,,,,,,,,,,,,,,,,,
,,,,,,,0.325,0.318518519,1,0,0,,0,8,8,17,1,0.33,0.33,29,001,2024-11-18_10h16.39.720,Attention_exp_legacy,2023.1.0,Win32,59.88023952,,,,,,,,,,,,,,,,,,,,,,,,,,,,,,,,,,,,,,,,,,,,,,,,,,,,,,,,
,,,,,,,0.33125,-0.338888889,1,0,0,calibration_square,0,9,9,15,1,0.33,-0.33,29,001,2024-11-18_10h16.39.720,Attention_exp_legacy,2023.1.0,Win32,59.88023952,,,,,,,,,,,,,,,,,,,,,,,,,,,,,,,,,,,,,,,,,,,,,,,,,,,,,,,,
,,,,,,,0.007291667,0.018518519,1,0,0,,0,10,10,11,1,0,0,29,001,2024-11-18_10h16.39.720,Attention_exp_legacy,2023.1.0,Win32,59.88023952,,,,,,,,,,,,,,,,,,,,,,,,,,,,,,,,,,,,,,,,,,,,,,,,,,,,,,,,
,,,,,,,0.677083333,0.675925926,1,0,0,calibration_square,0,11,11,19,1,0.67,0.67,29,001,2024-11-18_10h16.39.720,Attention_exp_legacy,2023.1.0,Win32,59.88023952,,,,,,,,,,,,,,,,,,,,,,,,,,,,,,,,,,,,,,,,,,,,,,,,,,,,,,,,
,,,,,,,-0.007291667,0.335185185,1,0,0,calibration_square,0,12,12,12,1,0,0.33,29,001,2024-11-18_10h16.39.720,Attention_exp_legacy,2023.1.0,Win32,59.88023952,,,,,,,,,,,,,,,,,,,,,,,,,,,,,,,,,,,,,,,,,,,,,,,,,,,,,,,,
,,,,,,,-0.319791667,0.003703704,1,0,0,,0,13,13,6,1,-0.33,0,29,001,2024-11-18_10h16.39.720,Attention_exp_legacy,2023.1.0,Win32,59.88023952,,,,,,,,,,,,,,,,,,,,,,,,,,,,,,,,,,,,,,,,,,,,,,,,,,,,,,,,
,,,,,,,-0.003125,-0.688888889,1,0,0,,0,14,14,9,1,0,-0.67,29,001,2024-11-18_10h16.39.720,Attention_exp_legacy,2023.1.0,Win32,59.88023952,,,,,,,,,,,,,,,,,,,,,,,,,,,,,,,,,,,,,,,,,,,,,,,,,,,,,,,,
,,,,,,,-0.322916667,0.338888889,1,0,0,calibration_square,0,15,15,7,1,-0.33,0.33,29,001,2024-11-18_10h16.39.720,Attention_exp_legacy,2023.1.0,Win32,59.88023952,,,,,,,,,,,,,,,,,,,,,,,,,,,,,,,,,,,,,,,,,,,,,,,,,,,,,,,,
,,,,,,,-0.329166667,0.681481481,1,0,0,,0,16,16,8,1,-0.33,0.67,29,001,2024-11-18_10h16.39.720,Attention_exp_legacy,2023.1.0,Win32,59.88023952,,,,,,,,,,,,,,,,,,,,,,,,,,,,,,,,,,,,,,,,,,,,,,,,,,,,,,,,
,,,,,,,-0.00625,0.666666667,1,0,0,calibration_square,0,17,17,13,1,0,0.67,29,001,2024-11-18_10h16.39.720,Attention_exp_legacy,2023.1.0,Win32,59.88023952,,,,,,,,,,,,,,,,,,,,,,,,,,,,,,,,,,,,,,,,,,,,,,,,,,,,,,,,
,,,,,,,-0.325,-0.342592593,1,0,0,,0,18,18,5,1,-0.33,-0.33,29,001,2024-11-18_10h16.39.720,Attention_exp_legacy,2023.1.0,Win32,59.88023952,,,,,,,,,,,,,,,,,,,,,,,,,,,,,,,,,,,,,,,,,,,,,,,,,,,,,,,,
,,,,,,,-0.659375,0.003703704,1,0,0,,0,19,19,2,1,-0.67,0,29,001,2024-11-18_10h16.39.720,Attention_exp_legacy,2023.1.0,Win32,59.88023952,,,,,,,,,,,,,,,,,,,,,,,,,,,,,,,,,,,,,,,,,,,,,,,,,,,,,,,,
,,,,,,,-0.672916667,0.335185185,1,0,0,calibration_square,0,20,20,3,1,-0.67,0.33,29,001,2024-11-18_10h16.39.720,Attention_exp_legacy,2023.1.0,Win32,59.88023952,,,,,,,,,,,,,,,,,,,,,,,,,,,,,,,,,,,,,,,,,,,,,,,,,,,,,,,,
,,,,,,,,,,,,,,,,,,,,29,001,2024-11-18_10h16.39.720,Attention_exp_legacy,2023.1.0,Win32,59.88023952,"[1920,1080]","[640,480]",[-0.06145833333333333],[-0.5148148148148148],[1],[0],[0],[1.543299999713902],"[""StartButton""]","[0.253125,0.23125]","[0.5111111111111111,0.12777777777777777]","[1,1]","[0,0]","[0,0]","[6.7005999999046395,7.5504999999999995]","[""Metro_label""]",Metro_label,1,7.7296,"[[-0.0625,-0.49444444444444446],[-0.0625,-0.49444444444444446],[-0.0625,-0.49444444444444446],[-0.0625,-0.49444444444444446],[-0.0625,-0.49444444444444446],[-0.0625,-0.49444444444444446],[-0.0625,-0.49444444444444446],[-0.0625,-0.49444444444444446],[-0.0625,-0.49444444444444446],[-0.0625,-0.49444444444444446],[-0.0625,-0.49444444444444446],[-0.0625,-0.49444444444444446],[-0.0625,-0.49444444444444446],[-0.0625,-0.49444444444444446],[-0.0625,-0.49444444444444446],[-0.0625,-0.49444444444444446],[-0.0625,-0.49444444444444446],[-0.0625,-0.49444444444444446],[-0.0625,-0.49444444444444446],[-0.0625,-0.49444444444444446],[-0.0625,-0.49444444444444446],[-0.0625,-0.49444444444444446],[-0.0625,-0.49444444444444446],[-0.0625,-0.49444444444444446],[-0.0625,-0.49444444444444446],[-0.0625,-0.49444444444444446],[-0.0625,-0.49444444444444446],[-0.0625,-0.49444444444444446],[-0.0625,-0.49444444444444446],[-0.0625,-0.49444444444444446],[-0.0625,-0.49444444444444446],[-0.0625,-0.49444444444444446],[-0.0625,-0.49444444444444446],[-0.0625,-0.4925925925925926],[-0.0625,-0.49074074074074076],[-0.0625,-0.48703703703703705],[-0.0625,-0.48518518518518516],[-0.0625,-0.48333333333333334],[-0.0625,-0.48148148148148145],[-0.0625,-0.47962962962962963],[-0.06041666666666667,-0.4666666666666667],[-0.059375,-0.45740740740740743],[-0.057291666666666664,-0.44814814814814813],[-0.05520833333333333,-0.4425925925925926],[-0.05520833333333333,-0.44074074074074077],[-0.05520833333333333,-0.4388888888888889],[-0.05416666666666667,-0.43703703703703706],[-0.05416666666666667,-0.42962962962962964],[-0.05416666666666667,-0.4148148148148148],[-0.053125,-0.39814814814814814],[-0.053125,-0.38333333333333336],[-0.053125,-0.362962962962963],[-0.06145833333333333,-0.32592592592592595],[-0.08125,-0.2759259259259259],[-0.13958333333333334,-0.1537037037037037],[-0.17708333333333334,-0.08888888888888889],[-0.19479166666666667,-0.06666666666666667],[-0.23125,-0.016666666666666666],[-0.253125,0.011111111111111112],[-0.28229166666666666,0.037037037037037035],[-0.31354166666666666,0.05740740740740741],[-0.3541666666666667,0.07962962962962963],[-0.38958333333333334,0.10185185185185185],[-0.42083333333333334,0.11851851851851852],[-0.48854166666666665,0.15925925925925927],[-0.5416666666666666,0.19444444444444445],[-0.553125,0.2],[-0.5666666666666667,0.2111111111111111],[-0.578125,0.21666666666666667],[-0.6052083333333333,0.23703703703703705],[-0.6229166666666667,0.2462962962962963],[-0.6322916666666667,0.24814814814814815],[-0.6354166666666666,0.2518518518518518],[-0.6354166666666666,0.2518518518518518],[-0.6354166666666666,0.2518518518518518],[-0.6354166666666666,0.2518518518518518],[-0.6354166666666666,0.2518518518518518],[-0.6354166666666666,0.2518518518518518],[-0.6354166666666666,0.2518518518518518],[-0.6354166666666666,0.2518518518518518],[-0.6354166666666666,0.2518518518518518],[-0.6364583333333333,0.2518518518518518],[-0.6177083333333333,0.26481481481481484],[-0.5708333333333333,0.2814814814814815],[-0.4864583333333333,0.3037037037037037],[-0.390625,0.32592592592592595],[-0.2947916666666667,0.35],[-0.24375,0.37037037037037035],[-0.23020833333333332,0.37962962962962965],[-0.228125,0.38333333333333336],[-0.225,0.3925925925925926],[-0.21979166666666666,0.40185185185185185],[-0.19791666666666666,0.42407407407407405],[-0.096875,0.49074074074074076],[-0.007291666666666667,0.5314814814814814],[0.09166666666666666,0.5611111111111111],[0.18541666666666667,0.5851851851851851],[0.24791666666666667,0.6],[0.2791666666666667,0.6],[0.31354166666666666,0.6],[0.32083333333333336,0.6],[0.3333333333333333,0.6],[0.33958333333333335,0.6],[0.3458333333333333,0.5981481481481481],[0.35,0.5962962962962963],[0.3614583333333333,0.587037037037037],[0.36875,0.5814814814814815],[0.37395833333333334,0.575925925925926],[0.378125,0.5703703703703704],[0.38125,0.5648148148148148],[0.3854166666666667,0.5574074074074075],[0.3885416666666667,0.55],[0.39375,0.5351851851851852],[0.39895833333333336,0.524074074074074],[0.4041666666666667,0.5166666666666667],[0.409375,0.5092592592592593],[0.41770833333333335,0.4981481481481482],[0.4322916666666667,0.4777777777777778],[0.4479166666666667,0.45925925925925926],[0.4666666666666667,0.4351851851851852],[0.48854166666666665,0.4148148148148148],[0.5052083333333334,0.3962962962962963],[0.51875,0.3851851851851852],[0.5239583333333333,0.37962962962962965],[0.5239583333333333,0.37962962962962965],[0.5239583333333333,0.37962962962962965],[0.5239583333333333,0.37777777777777777],[0.5239583333333333,0.37777777777777777],[0.525,0.37592592592592594],[0.51875,0.362962962962963],[0.509375,0.3574074074074074],[0.5010416666666667,0.34814814814814815],[0.48854166666666665,0.3351851851851852],[0.4739583333333333,0.32222222222222224],[0.453125,0.3074074074074074],[0.43645833333333334,0.29444444444444445],[0.425,0.2851851851851852],[0.41770833333333335,0.2796296296296296],[0.41354166666666664,0.2777777777777778],[0.4125,0.2759259259259259],[0.4125,0.2759259259259259],[0.4125,0.2759259259259259],[0.4125,0.2759259259259259],[0.4125,0.2759259259259259],[0.4125,0.2759259259259259],[0.4125,0.2759259259259259],[0.4125,0.2759259259259259],[0.4125,0.2759259259259259],[0.4114583333333333,0.2759259259259259],[0.4114583333333333,0.2722222222222222],[0.4114583333333333,0.26666666666666666],[0.4114583333333333,0.26296296296296295],[0.41041666666666665,0.25925925925925924],[0.4083333333333333,0.2518518518518518],[0.40625,0.2462962962962963],[0.4041666666666667,0.23703703703703705],[0.3958333333333333,0.2222222222222222],[0.38645833333333335,0.2074074074074074],[0.371875,0.18703703703703703],[0.35625,0.1685185185185185],[0.3416666666666667,0.1537037037037037],[0.321875,0.13703703703703704],[0.30625,0.12777777777777777],[0.3,0.12222222222222222],[0.28125,0.1111111111111111],[0.27395833333333336,0.10555555555555556],[0.2708333333333333,0.1],[0.265625,0.09814814814814815],[0.26145833333333335,0.09259259259259259],[0.25416666666666665,0.08703703703703704],[0.24791666666666667,0.08148148148148149],[0.240625,0.07592592592592592],[0.23541666666666666,0.07222222222222222],[0.22916666666666666,0.06666666666666667],[0.22395833333333334,0.06296296296296296],[0.22083333333333333,0.05925925925925926],[0.21041666666666667,0.04814814814814815],[0.19270833333333334,0.025925925925925925],[0.17916666666666667,0.009259259259259259],[0.16770833333333332,-0.003703703703703704],[0.159375,-0.014814814814814815],[0.15104166666666666,-0.027777777777777776],[0.14479166666666668,-0.037037037037037035],[0.13958333333333334,-0.046296296296296294],[0.13541666666666666,-0.05555555555555555],[0.13229166666666667,-0.06481481481481481],[0.12604166666666666,-0.1037037037037037],[0.12291666666666666,-0.12037037037037036],[0.12083333333333333,-0.13518518518518519],[0.12083333333333333,-0.14629629629629629],[0.12083333333333333,-0.14629629629629629],[0.12083333333333333,-0.14629629629629629],[0.12083333333333333,-0.14629629629629629],[0.12083333333333333,-0.14629629629629629],[0.12083333333333333,-0.14629629629629629],[0.12708333333333333,-0.14814814814814814],[0.13958333333333334,-0.15],[0.15416666666666667,-0.15],[0.17291666666666666,-0.14444444444444443],[0.17604166666666668,-0.1388888888888889],[0.17916666666666667,-0.12962962962962962],[0.18125,-0.1],[0.18125,-0.07962962962962963],[0.18125,-0.04814814814814815],[0.18333333333333332,-0.012962962962962963],[0.18854166666666666,0.012962962962962963],[0.19375,0.037037037037037035],[0.19479166666666667,0.046296296296296294],[0.196875,0.053703703703703705],[0.196875,0.05555555555555555],[0.196875,0.05740740740740741],[0.19791666666666666,0.05925925925925926],[0.2,0.06481481481481481],[0.2,0.06666666666666667],[0.20104166666666667,0.07222222222222222],[0.20104166666666667,0.07222222222222222],[0.20208333333333334,0.07407407407407407],[0.20208333333333334,0.07407407407407407],[0.20208333333333334,0.07407407407407407],[0.20208333333333334,0.07407407407407407],[0.20208333333333334,0.07407407407407407],[0.203125,0.07407407407407407],[0.203125,0.07407407407407407],[0.203125,0.06296296296296296],[0.203125,0.05555555555555555],[0.203125,0.027777777777777776],[0.203125,0.011111111111111112],[0.203125,-0.007407407407407408],[0.203125,-0.025925925925925925],[0.203125,-0.040740740740740744],[0.203125,-0.046296296296296294],[0.203125,-0.046296296296296294],[0.203125,-0.046296296296296294],[0.203125,-0.044444444444444446],[0.20416666666666666,-0.027777777777777776],[0.209375,0],[0.2125,0.016666666666666666],[0.21354166666666666,0.027777777777777776],[0.21458333333333332,0.03518518518518519],[0.215625,0.037037037037037035],[0.215625,0.03888888888888889],[0.215625,0.040740740740740744],[0.215625,0.044444444444444446],[0.215625,0.046296296296296294],[0.21666666666666667,0.04814814814814815],[0.21666666666666667,0.04814814814814815],[0.21666666666666667,0.04814814814814815],[0.21770833333333334,0.05555555555555555],[0.22083333333333333,0.06296296296296296],[0.221875,0.06851851851851852],[0.22291666666666668,0.07222222222222222],[0.22395833333333334,0.07407407407407407],[0.225,0.07777777777777778],[0.225,0.07777777777777778],[0.22708333333333333,0.08333333333333333],[0.23125,0.09259259259259259],[0.23958333333333334,0.10925925925925926],[0.24479166666666666,0.11666666666666667],[0.24791666666666667,0.12407407407407407],[0.25,0.12777777777777777],[0.259375,0.1425925925925926],[0.2833333333333333,0.1648148148148148],[0.29791666666666666,0.17777777777777778],[0.309375,0.18333333333333332],[0.31354166666666666,0.19074074074074074],[0.3145833333333333,0.19074074074074074],[0.3145833333333333,0.19074074074074074],[0.3145833333333333,0.19074074074074074],[0.3145833333333333,0.19074074074074074],[0.3145833333333333,0.19074074074074074],[0.3145833333333333,0.19074074074074074],[0.3145833333333333,0.19074074074074074],[0.3145833333333333,0.19074074074074074],[0.3145833333333333,0.19074074074074074],[0.3145833333333333,0.19074074074074074],[0.3145833333333333,0.19074074074074074],[0.3145833333333333,0.19074074074074074],[0.3145833333333333,0.19074074074074074],[0.3145833333333333,0.19074074074074074],[0.3145833333333333,0.19074074074074074],[0.3145833333333333,0.19074074074074074],[0.3145833333333333,0.19074074074074074],[0.3145833333333333,0.19074074074074074],[0.3145833333333333,0.19074074074074074],[0.3145833333333333,0.19074074074074074],[0.3145833333333333,0.19074074074074074],[0.3145833333333333,0.19074074074074074],[0.3145833333333333,0.19074074074074074],[0.3145833333333333,0.19074074074074074],[0.3145833333333333,0.19074074074074074],[0.3145833333333333,0.19074074074074074],[0.3145833333333333,0.19074074074074074],[0.3145833333333333,0.19074074074074074],[0.3145833333333333,0.19074074074074074],[0.3177083333333333,0.19074074074074074],[0.3302083333333333,0.19074074074074074],[0.340625,0.18888888888888888],[0.35,0.18518518518518517],[0.35625,0.1814814814814815],[0.36041666666666666,0.17962962962962964],[0.36041666666666666,0.17962962962962964],[0.36041666666666666,0.17962962962962964],[0.36041666666666666,0.17962962962962964],[0.36041666666666666,0.17962962962962964],[0.36041666666666666,0.17962962962962964],[0.3614583333333333,0.17962962962962964],[0.36354166666666665,0.17962962962962964],[0.36770833333333336,0.17962962962962964],[0.37083333333333335,0.17777777777777778],[0.378125,0.17592592592592593],[0.37916666666666665,0.17592592592592593],[0.38333333333333336,0.17407407407407408],[0.384375,0.17407407407407408],[0.384375,0.17407407407407408],[0.384375,0.17407407407407408],[0.384375,0.17407407407407408],[0.384375,0.17222222222222222],[0.384375,0.17222222222222222],[0.384375,0.17037037037037037],[0.384375,0.17037037037037037],[0.384375,0.1685185185185185],[0.37395833333333334,0.16666666666666666],[0.36354166666666665,0.16111111111111112],[0.35,0.1574074074074074],[0.3375,0.1537037037037037],[0.3302083333333333,0.15185185185185185],[0.32708333333333334,0.15],[0.3260416666666667,0.14814814814814814],[0.3260416666666667,0.14814814814814814],[0.3260416666666667,0.14814814814814814],[0.3260416666666667,0.14814814814814814],[0.3260416666666667,0.14814814814814814],[0.3260416666666667,0.14814814814814814],[0.3260416666666667,0.14814814814814814],[0.3260416666666667,0.14814814814814814],[0.3260416666666667,0.14814814814814814],[0.3260416666666667,0.14814814814814814],[0.3260416666666667,0.14814814814814814],[0.3260416666666667,0.14814814814814814],[0.3260416666666667,0.14814814814814814],[0.3260416666666667,0.14814814814814814],[0.3260416666666667,0.14814814814814814],[0.3260416666666667,0.14814814814814814],[0.3260416666666667,0.14814814814814814],[0.3260416666666667,0.14814814814814814],[0.3260416666666667,0.14814814814814814],[0.3260416666666667,0.14814814814814814],[0.3260416666666667,0.14814814814814814],[0.3260416666666667,0.14814814814814814],[0.3260416666666667,0.14814814814814814],[0.3260416666666667,0.14814814814814814],[0.3260416666666667,0.14814814814814814],[0.3260416666666667,0.14814814814814814],[0.3260416666666667,0.14814814814814814],[0.3260416666666667,0.14814814814814814],[0.3260416666666667,0.14814814814814814],[0.3260416666666667,0.14814814814814814],[0.3260416666666667,0.14814814814814814],[0.3260416666666667,0.14814814814814814],[0.325,0.14629629629629629],[0.3229166666666667,0.14074074074074075],[0.32083333333333336,0.13333333333333333],[0.31875,0.1259259259259259],[0.315625,0.11481481481481481],[0.31145833333333334,0.10555555555555556],[0.309375,0.09814814814814815],[0.30520833333333336,0.08888888888888889],[0.30520833333333336,0.08888888888888889],[0.303125,0.08703703703703704],[0.303125,0.08703703703703704],[0.303125,0.08703703703703704],[0.303125,0.08703703703703704],[0.303125,0.08703703703703704],[0.303125,0.08703703703703704],[0.303125,0.08703703703703704],[0.303125,0.08703703703703704],[0.303125,0.08703703703703704],[0.303125,0.08703703703703704],[0.2989583333333333,0.10740740740740741],[0.29270833333333335,0.14629629629629629],[0.290625,0.15925925925925927],[0.2875,0.21296296296296297],[0.284375,0.25],[0.28125,0.29259259259259257],[0.27708333333333335,0.3351851851851852],[0.27395833333333336,0.37407407407407406],[0.271875,0.40555555555555556],[0.26458333333333334,0.4425925925925926],[0.259375,0.47962962962962963],[0.25833333333333336,0.48703703703703705],[0.25625,0.4981481481481482],[0.25416666666666665,0.5074074074074074],[0.25416666666666665,0.5074074074074074],[0.253125,0.5111111111111111],[0.253125,0.5111111111111111],[0.253125,0.5111111111111111],[0.253125,0.5111111111111111],[0.253125,0.5111111111111111],[0.253125,0.5111111111111111],[0.253125,0.5111111111111111],[0.253125,0.5111111111111111],[0.253125,0.5111111111111111],[0.253125,0.5111111111111111],[0.253125,0.5111111111111111],[0.253125,0.5111111111111111],[0.253125,0.5111111111111111],[0.253125,0.5111111111111111],[0.253125,0.5111111111111111],[0.253125,0.5111111111111111],[0.253125,0.5111111111111111],[0.253125,0.5111111111111111],[0.253125,0.5111111111111111],[0.253125,0.5111111111111111],[0.253125,0.5111111111111111],[0.253125,0.5111111111111111],[0.253125,0.5111111111111111],[0.253125,0.5111111111111111],[0.253125,0.5111111111111111],[0.253125,0.5111111111111111],[0.253125,0.5111111111111111],[0.253125,0.5111111111111111],[0.253125,0.5111111111111111],[0.253125,0.5111111111111111],[0.253125,0.5111111111111111],[0.253125,0.5111111111111111],[0.253125,0.5111111111111111],[0.253125,0.5111111111111111],[0.253125,0.5111111111111111],[0.253125,0.5111111111111111],[0.253125,0.5092592592592593],[0.253125,0.5037037037037037],[0.253125,0.49074074074074076],[0.253125,0.4685185185185185],[0.253125,0.43333333333333335],[0.25104166666666666,0.39444444444444443],[0.24791666666666667,0.35555555555555557],[0.246875,0.32592592592592595],[0.24375,0.29814814814814816],[0.24375,0.2759259259259259],[0.24375,0.24814814814814815],[0.240625,0.22037037037037038],[0.23854166666666668,0.19444444444444445],[0.23541666666666666,0.16111111111111112],[0.23229166666666667,0.13703703703703704],[0.23229166666666667,0.12962962962962962],[0.23125,0.12777777777777777],[0.23125,0.12777777777777777],[0.23125,0.12777777777777777],[0.23125,0.12777777777777777],[0.23125,0.12777777777777777],[0.23125,0.12777777777777777],[0.23125,0.12777777777777777],[0.23125,0.12777777777777777],[0.23125,0.12777777777777777],[0.23125,0.12777777777777777],[0.23125,0.12777777777777777],[0.23125,0.12777777777777777],[0.23125,0.12777777777777777],[0.23125,0.12777777777777777],[0.23125,0.12777777777777777],[0.23125,0.12777777777777777],[0.23125,0.12777777777777777],[0.23125,0.12777777777777777]]","[[0.11104166666666657,-0.23555555555555555],[0.11104166666666657,-0.23555555555555555],[0.11979166666666667,-0.24611111111111106],[0.10833333333333334,-0.1844444444444445],[0.09197916666666663,-0.18592592592592588],[0.08729166666666661,-0.15555555555555556],[0.05458333333333331,-0.11962962962962967],[0.05697916666666671,-0.11814814814814817],[0.050833333333333286,-0.0816666666666667],[0.03864583333333336,-0.07759259259259255],[0.003541666666666643,-0.05537037037037033],[0.003541666666666643,-0.05537037037037033],[0.024166666666666715,-0.060555555555555536],[0.04041666666666662,-0.049074074074074076],[0.07374999999999995,-0.06777777777777783],[0.05333333333333338,-0.06500000000000004],[0.06479166666666672,-0.10555555555555556],[0.07906250000000009,-0.14833333333333337],[0.08239583333333324,-0.18722222222222226],[0.05291666666666662,-0.2270370370370371],[0.03812500000000003,-0.2366666666666667],[0.03760416666666669,-0.26222222222222225],[0.008541666666666715,-0.3168518518518519],[-0.04874999999999995,-0.37592592592592594],[-0.07135416666666666,-0.43444444444444447],[-0.07104166666666671,-0.45851851851851855],[-0.09562499999999995,-0.5031481481481481],[-0.12895833333333329,-0.5496296296296297],[-0.18072916666666666,-0.575],[-0.20343749999999997,-0.6288888888888889],[-0.20343749999999997,-0.6288888888888889],[-0.21020833333333327,-0.6933333333333332],[-0.21541666666666662,-0.745],[-0.24906250000000002,-0.8027777777777778],[-0.2233333333333333,-0.6968518518518518],[-0.22229166666666664,-0.5866666666666667],[-0.22229166666666664,-0.5866666666666667],[-0.22135416666666666,-0.48944444444444446],[-0.22468750000000004,-0.37703703703703706],[-0.22468750000000004,-0.37703703703703706],[-0.19302083333333328,-0.24518518518518514],[-0.19302083333333328,-0.24518518518518514],[-0.18312499999999995,-0.16166666666666668],[-0.1570833333333333,-0.029259259259259176],[-0.12718750000000004,0.10277777777777777],[-0.11312500000000002,0.23796296296296296],[-0.13708333333333336,0.37518518518518523],[-0.2117708333333333,0.3501851851851852],[-0.23166666666666663,0.34018518518518526],[-0.2515625,0.3301851851851851],[-0.25375000000000003,0.35240740740740734],[-0.25375000000000003,0.35240740740740734],[-0.27229166666666665,0.3098148148148147],[-0.2445833333333333,0.3168518518518519],[-0.2530208333333333,0.30333333333333323],[-0.2595833333333334,0.29074074074074074],[-0.26614583333333336,0.27814814814814826],[-0.2013541666666666,0.30648148148148147],[-0.1532291666666667,0.29444444444444445],[-0.13552083333333337,0.24685185185185177],[-0.11781250000000003,0.1992592592592593],[-0.13333333333333333,0.14000000000000004],[-0.16749999999999995,0.12611111111111115],[-0.19249999999999995,0.09259259259259259],[-0.20187499999999994,0.04740740740740745],[-0.20187499999999994,0.04740740740740745],[-0.18093750000000006,0.039074074074074115],[-0.18093750000000006,0.039074074074074115],[-0.1492708333333333,0.05277777777777778],[-0.20062500000000003,-0.010925925925925884],[-0.22541666666666665,-0.01444444444444436],[-0.2601041666666667,-0.01592592592592597],[-0.2601041666666667,-0.01592592592592597],[-0.33958333333333335,-0.01648148148148144],[-0.33624999999999994,0.013333333333333417],[-0.32312500000000005,0.0301851851851851],[-0.30052083333333335,0.03685185185185181],[-0.27791666666666665,0.04351851851851852],[-0.2986458333333334,0.0742592592592593],[-0.3484375,-0.01722222222222214],[-0.3060416666666666,0.031111111111111027],[-0.24510416666666662,0.010185185185185186],[-0.2671875,-0.0035185185185184764],[-0.15885416666666666,-0.03611111111111111],[-0.13572916666666662,-0.12018518518518514],[-0.13572916666666662,-0.12018518518518514],[-0.09343750000000005,-0.12629629629629627],[-0.06781250000000003,-0.11796296296296294],[-0.0359375,-0.10611111111111113],[-0.0359375,-0.10611111111111113],[-0.07687499999999996,-0.1992592592592593],[-0.07687499999999996,-0.1992592592592593],[-0.06843750000000005,-0.14666666666666664],[-0.06843750000000005,-0.14666666666666664],[-0.09375,-0.20018518518518522],[-0.09375,-0.20018518518518522],[-0.13114583333333332,-0.19388888888888886],[-0.13114583333333332,-0.19388888888888886],[-0.06739583333333338,-0.25018518518518523],[-0.06739583333333338,-0.25018518518518523],[-0.11760416666666665,-0.2116666666666667],[-0.11760416666666665,-0.2116666666666667],[-0.06812499999999998,-0.24351851851851852],[-0.05802083333333338,-0.2929629629629629],[-0.06708333333333331,-0.32018518518518513],[-0.06781250000000003,-0.40481481481481485],[0.021145833333333287,-0.4244444444444444],[0.021145833333333287,-0.4244444444444444],[0.05145833333333331,-0.4812962962962963],[0.12364583333333339,-0.4777777777777778],[0.17510416666666656,-0.522037037037037],[0.1865624999999999,-0.4892592592592592],[0.2203125,-0.5275925925925925],[0.21020833333333327,-0.5005555555555555],[0.21437499999999995,-0.4955555555555556],[0.2453125,-0.5344444444444445],[0.2633333333333333,-0.5214814814814815],[0.26760416666666675,-0.5138888888888888],[0.30885416666666665,-0.4848148148148148],[0.30885416666666665,-0.4848148148148148],[0.3315624999999999,-0.509074074074074],[0.3523958333333333,-0.46944444444444444],[0.39906249999999993,-0.4412962962962963],[0.4517708333333334,-0.41888888888888887],[0.5118750000000001,-0.37037037037037035],[0.5081249999999999,-0.2611111111111111],[0.4947916666666667,-0.11481481481481481],[0.47979166666666656,0.03351851851851856],[0.4891666666666666,0.17111111111111107],[0.48770833333333335,0.14907407407407408],[0.4884375000000001,0.12259259259259268],[0.47416666666666674,0.16018518518518518],[0.46197916666666666,0.12462962962962955],[0.4488541666666668,0.09796296296296292],[0.4088541666666667,0.10648148148148148],[0.4088541666666667,0.10648148148148148],[0.4321875000000001,-0.047037037037036995],[0.4304166666666667,-0.13407407407407404],[0.4304166666666667,-0.13407407407407404],[0.4539583333333333,-0.30999999999999994],[0.4319791666666667,-0.46222222222222226],[0.43697916666666664,-0.5],[0.4150000000000001,-0.5027777777777778],[0.4254166666666668,-0.6235185185185185],[0.3883333333333333,-0.6375925925925926],[0.3885416666666667,-0.6687037037037038],[0.35697916666666674,-0.7316666666666667],[0.3480208333333332,-0.7464814814814815],[0.33395833333333325,-0.8612962962962963],[0.3030208333333334,-0.8137037037037037],[0.27239583333333334,-0.8218518518518518],[0.2855208333333332,-0.7812962962962963],[0.2855208333333332,-0.7812962962962963],[0.3046875,-0.754074074074074],[0.30479166666666657,-0.6394444444444445],[0.3296875,-0.6142592592592593],[0.31708333333333344,-0.5188888888888888],[0.31708333333333344,-0.5188888888888888],[0.34322916666666664,-0.477962962962963],[0.34322916666666664,-0.477962962962963],[0.34645833333333326,-0.40851851851851856],[0.39645833333333325,-0.28203703703703703],[0.39645833333333325,-0.28203703703703703],[0.42385416666666675,-0.2309259259259259],[0.46031250000000007,-0.17],[0.4417708333333332,-0.13092592592592592],[0.4417708333333332,-0.13092592592592592],[0.41468749999999993,-0.07518518518518523],[0.41468749999999993,-0.07518518518518523],[0.41739583333333335,-0.11629629629629631],[0.41864583333333344,-0.08925925925925923],[0.42291666666666666,-0.12074074074074072],[0.4265625,-0.08944444444444447],[0.4265625,-0.08944444444444447],[0.4045833333333334,-0.07925925925925928],[0.36437499999999995,-0.10796296296296298],[0.33833333333333326,-0.13481481481481483],[0.3396874999999999,-0.14666666666666664],[0.3267708333333334,-0.17],[0.3420833333333334,-0.24444444444444444],[0.3507291666666667,-0.26537037037037037],[0.31354166666666666,-0.26240740740740737],[0.27447916666666666,-0.26296296296296295],[0.22843749999999996,-0.2442592592592592],[0.21802083333333327,-0.2442592592592592],[0.19333333333333325,-0.19444444444444445],[0.16666666666666666,-0.1522222222222222],[0.13760416666666658,-0.11870370370370374],[0.13760416666666658,-0.11870370370370374],[0.11822916666666666,-0.13092592592592592],[0.08687500000000009,-0.05962962962962961],[0.04770833333333328,-0.035740740740740656],[0.058854166666666666,0.006851851851851936],[0.058541666666666714,0.014814814814814815],[0.07583333333333328,0.003888888888888931],[0.07083333333333333,0.024814814814814772],[0.07854166666666676,-0.018518518518518517],[0.08385416666666666,-0.06351851851851854],[0.09718749999999995,-0.10333333333333336],[0.09718749999999995,-0.10333333333333336],[0.11239583333333343,-0.0016666666666666245],[0.11239583333333343,-0.0016666666666666245],[0.11770833333333333,0.010740740740740657],[0.11802083333333328,0.05925925925925926],[0.11593749999999996,0.05388888888888893],[0.14833333333333343,0.07685185185185185],[0.1404166666666666,0.04092592592592597],[0.1404166666666666,0.0235185185185186],[0.14020833333333324,0.052037037037037076],[0.1423958333333334,0.08796296296296297],[0.1423958333333334,0.08796296296296297],[0.12020833333333343,0.14425925925925923],[0.12020833333333343,0.14425925925925923],[0.10510416666666676,0.07351851851851861],[0.043437500000000046,0.012407407407407492],[0.043437500000000046,0.012407407407407492],[0.020833333333333332,-0.0007407407407406986],[0.020833333333333332,-0.0007407407407406986],[-0.021145833333333287,0.007777777777777862],[-0.021145833333333287,0.007777777777777862],[-0.07124999999999998,0.012407407407407492],[-0.07124999999999998,0.012407407407407492],[-0.12406250000000002,0.054259259259259174],[-0.13843749999999996,0.04018518518518527],[-0.17197916666666668,0.04981481481481477],[-0.22395833333333334,0.030555555555555555],[-0.18937499999999996,0.011481481481481566],[-0.24864583333333337,0.027222222222222307],[-0.24864583333333337,0.027222222222222307],[-0.24489583333333337,0.0824074074074074],[-0.24489583333333337,0.0824074074074074],[-0.20583333333333337,0.0712962962962963],[-0.1671875,0.01962962962962967],[-0.15458333333333332,-0.010185185185185186],[-0.08802083333333334,-0.005740740740740783],[-0.06864583333333331,0.020555555555555598],[-0.02510416666666669,-0.00851851851851856],[0.04541666666666669,0.004259259259259175],[0.029895833333333382,-0.016666666666666666],[0.10083333333333329,-0.011481481481481566],[0.17458333333333323,-0.010925925925925884],[0.18416666666666662,0.01592592592592597],[0.17822916666666658,-0.0031481481481482323],[0.19229166666666658,0.05944444444444449],[0.21052083333333324,0.03314814814814811],[0.19104166666666675,-0.004074074074074159],[0.17854166666666677,-0.026851851851851852],[0.15520833333333334,-0.008703703703703788],[0.13562500000000005,-0.030000000000000086],[0.13427083333333342,-0.08277777777777776],[0.1390625,-0.1227777777777778],[0.09604166666666672,-0.13777777777777775],[0.07614583333333323,-0.11722222222222224],[0.08697916666666666,-0.16203703703703703],[0.06302083333333333,-0.15259259259259256],[0.1053124999999999,-0.09611111111111106],[0.12635416666666663,-0.06962962962962967],[0.12635416666666663,-0.06962962962962967],[0.17916666666666667,-0.09203703703703701],[0.17916666666666667,-0.09203703703703701],[0.24635416666666668,-0.0712962962962963],[0.2864583333333333,-0.034444444444444486],[0.30145833333333344,-0.05925925925925926],[0.3315624999999999,-0.08555555555555554],[0.3963541666666667,-0.05555555555555555],[0.43947916666666675,-0.05185185185185185],[0.4609375,0.0016666666666666245],[0.4508333333333333,0.05018518518518523],[0.4790625000000001,0.19018518518518526],[0.47979166666666656,0.32703703703703707],[0.5044791666666666,0.36055555555555563],[0.48552083333333323,0.37592592592592594],[0.4827083333333334,0.4448148148148149],[0.5129166666666668,0.46648148148148144],[0.5303124999999999,0.4596296296296297],[0.55625,0.42240740740740745],[0.6038541666666667,0.33537037037037043],[0.6453125,0.22833333333333325],[0.6400000000000001,0.08462962962962971],[0.6400000000000001,0.08462962962962971],[0.6617708333333333,-0.062407407407407384],[0.6617708333333333,-0.062407407407407384],[0.6489583333333333,-0.08351851851851856],[0.6575000000000001,-0.0962962962962963],[0.6660416666666668,-0.10907407407407403],[0.6660416666666668,-0.10907407407407403],[0.6616666666666667,-0.11148148148148146],[0.6708333333333333,-0.11703703703703702],[0.6398958333333333,-0.06518518518518517],[0.6037499999999999,-0.06870370370370374],[0.5755208333333334,-0.025925925925925925],[0.5756249999999999,0.005555555555555556],[0.5726041666666667,0.06703703703703712],[0.5852083333333333,0.036481481481481566],[0.6330208333333334,0.04462962962962967],[0.6223958333333334,0.011111111111111112],[0.6021874999999999,0.009259259259259259],[0.5497916666666666,0.000925925925925926],[0.49812500000000004,-0.03148148148148148],[0.5012500000000001,-0.02833333333333325],[0.5204166666666665,-0.04462962962962967],[0.5392708333333334,-0.11629629629629631],[0.5335416666666667,-0.16944444444444445],[0.4929166666666667,-0.19666666666666666],[0.41677083333333326,-0.21851851851851853],[0.4015625,-0.20462962962962963],[0.4001041666666666,-0.24611111111111106],[0.4196875000000001,-0.26666666666666666],[0.42822916666666655,-0.28777777777777774],[0.4132291666666667,-0.30111111111111116],[0.371875,-0.259074074074074],[0.3541666666666667,-0.20759259259259263],[0.31927083333333334,-0.17796296296296302],[0.3198958333333332,-0.07833333333333335],[0.3264583333333334,0.05611111111111103],[0.3082291666666668,0.18870370370370365],[0.3243750000000001,0.2692592592592592],[0.3263541666666666,0.26777777777777784],[0.3537499999999999,0.3533333333333332],[0.3719791666666666,0.4540740740740742],[0.3896874999999999,0.4301851851851851],[0.38010416666666674,0.430925925925926],[0.39000000000000007,0.4153703703703703],[0.39427083333333335,0.3846296296296297],[0.39427083333333335,0.3846296296296297],[0.38229166666666664,0.23055555555555557],[0.3928124999999999,0.13481481481481472],[0.3576041666666666,0.03944444444444436],[0.346875,0.018888888888888972],[0.3389583333333334,-0.01777777777777782],[0.3389583333333334,-0.01777777777777782],[0.31489583333333326,-0.06925925925925921],[0.31489583333333326,-0.06925925925925921],[0.3084374999999999,-0.07314814814814814],[0.2796875,-0.11370370370370367],[0.2796875,-0.11370370370370367],[0.2648958333333333,-0.13907407407407413],[0.2648958333333333,-0.13907407407407413],[0.2375,-0.1646296296296296],[0.2375,-0.1646296296296296],[0.24520833333333342,-0.14962962962962964],[0.24270833333333333,-0.21055555555555552],[0.2578125,-0.18888888888888888],[0.2607291666666666,-0.11425925925925924],[0.2517708333333334,-0.1618518518518518],[0.2609375,-0.147037037037037],[0.26375000000000004,-0.13388888888888892],[0.2924999999999999,-0.09518518518518514],[0.31145833333333334,-0.08037037037037033],[0.3160416666666668,-0.05277777777777778],[0.30489583333333337,-0.04722222222222222],[0.30885416666666665,-0.034444444444444486],[0.32312500000000005,-0.006481481481481481],[0.3363541666666668,-0.027777777777777776],[0.3363541666666668,-0.027777777777777776],[0.34645833333333326,-0.012962962962962963],[0.3107291666666666,-0.02166666666666675],[0.2798958333333334,-0.03037037037037033],[0.23385416666666667,-0.040740740740740744],[0.19104166666666675,-0.04018518518518527],[0.19104166666666675,-0.04018518518518527],[0.17239583333333333,-0.03777777777777774],[0.17614583333333325,-0.00592592592592601],[0.17614583333333325,-0.00592592592592601],[0.13489583333333333,0.0035185185185184764],[0.09375,0.02296296296296292],[0.03135416666666669,-0.009259259259259259],[0.03135416666666669,-0.009259259259259259],[0.04114583333333333,-0.03222222222222218],[0.07166666666666661,-0.01962962962962967],[0.09635416666666667,-0.0198148148148149],[0.12916666666666668,0],[0.12916666666666668,0],[0.14947916666666666,-0.010185185185185186],[0.18354166666666671,-0.06092592592592588],[0.21437499999999995,-0.08759259259259261],[0.2930208333333333,-0.0727777777777778],[0.35520833333333335,-0.10333333333333336],[0.44114583333333335,-0.08703703703703704],[0.41593749999999996,-0.07333333333333338],[0.4066666666666668,-0.122037037037037],[0.41041666666666665,-0.15185185185185185],[0.4109375,-0.15722222222222218],[0.41677083333333326,-0.18222222222222217],[0.39520833333333344,-0.2007407407407407],[0.35739583333333325,-0.22388888888888886],[0.3272916666666667,-0.27240740740740743],[0.28916666666666657,-0.2948148148148148],[0.2526041666666667,-0.28425925925925927],[0.2526041666666667,-0.28425925925925927],[0.26749999999999996,-0.2638888888888889],[0.2760416666666667,-0.287962962962963],[0.28802083333333334,-0.2898148148148148],[0.30364583333333334,-0.30277777777777776],[0.30614583333333345,-0.2442592592592592],[0.3288541666666667,-0.2381481481481482],[0.3460416666666667,-0.2242592592592593],[0.3763541666666666,-0.18611111111111112],[0.39093749999999994,-0.1418518518518519],[0.39093749999999994,-0.1418518518518519],[0.40604166666666663,-0.1646296296296296],[0.40604166666666663,-0.1646296296296296],[0.4102083333333333,-0.1757407407407407],[0.39187500000000003,-0.11074074074074076],[0.3689583333333334,-0.06592592592592597],[0.3458333333333333,-0.032777777777777864],[0.34572916666666675,-0.06462962962962959],[0.3288541666666667,-0.02629629629629638],[0.32354166666666656,-0.003703703703703704],[0.2894791666666668,0.01907407407407399],[0.2568749999999999,-0.022222222222222223],[0.2568749999999999,-0.022222222222222223],[0.23697916666666666,-0.0294444444444444],[0.22125000000000009,-0.051111111111111156],[0.24020833333333325,-0.11925925925925922],[0.24020833333333325,-0.11925925925925922],[0.2484375,-0.17925925925925928],[0.24708333333333338,-0.202962962962963],[0.25885416666666666,-0.23648148148148146],[0.25927083333333345,-0.24111111111111108],[0.26375000000000004,-0.3022222222222222],[0.26322916666666674,-0.32703703703703707],[0.2861458333333334,-0.3274074074074074],[0.2861458333333334,-0.3274074074074074],[0.2865624999999999,-0.31851851851851853],[0.2616666666666667,-0.2022222222222222],[0.20208333333333334,-0.07333333333333338],[0.18166666666666675,0.06351851851851843],[0.1790625000000001,0.15981481481481474],[0.1790625000000001,0.15981481481481474],[0.1538541666666667,0.1742592592592593],[0.15354166666666677,0.2022222222222223],[0.13791666666666677,0.30833333333333335],[0.13791666666666677,0.30833333333333335],[0.13250000000000003,0.3307407407407408],[0.13552083333333323,0.3405555555555555],[0.14947916666666666,0.3237037037037036],[0.14947916666666666,0.3237037037037036],[0.18895833333333342,0.1868518518518518],[0.2573958333333332,0.041111111111111195],[0.29010416666666666,-0.05925925925925926],[0.3207291666666668,-0.17759259259259255],[0.35031249999999997,-0.19444444444444445],[0.3303124999999999,-0.19944444444444442],[0.3390625,-0.3566666666666667],[0.3637500000000001,-0.4027777777777778],[0.35999999999999993,-0.4172222222222222],[0.3463541666666667,-0.38796296296296295],[0.3423958333333334,-0.3774074074074074],[0.3423958333333334,-0.3774074074074074],[0.32760416666666664,-0.35111111111111115],[0.3226041666666667,-0.3798148148148149],[0.3226041666666667,-0.3798148148148149],[0.3163541666666667,-0.42240740740740745],[0.3163541666666667,-0.42240740740740745],[0.3064583333333334,-0.4116666666666667],[0.3064583333333334,-0.4116666666666667],[0.3234375,-0.4740740740740741],[0.3234375,-0.4740740740740741],[0.32781250000000006,-0.4287037037037037],[0.32781250000000006,-0.4287037037037037],[0.3051041666666668,-0.4225925925925926],[0.3233333333333334,-0.4087037037037037]]","[[0.11104166666666657,-0.23555555555555555,0.00019999980925433647],[0.11104166666666657,-0.23555555555555555,0.05149999999999011],[0.11979166666666667,-0.24611111111111106,0.06039999961852516],[0.10833333333333334,-0.1844444444444445,0.07729999971388679],[0.09197916666666663,-0.18592592592592588,0.09359999990462597],[0.08729166666666661,-0.15555555555555556,0.11079999971389043],[0.05458333333333331,-0.11962962962962967,0.12859999990462256],[0.05697916666666671,-0.11814814814814817,0.14709999990462563],[0.050833333333333286,-0.0816666666666667,0.16400000000000148],[0.03864583333333336,-0.07759259259259255,0.18069999980926355],[0.003541666666666643,-0.05537037037037033,0.20069999980925957],[0.003541666666666643,-0.05537037037037033,0.21029999971389657],[0.024166666666666715,-0.060555555555555536,0.22689999961852436],[0.04041666666666662,-0.049074074074074076,0.24369999980926593],[0.07374999999999995,-0.06777777777777783,0.2604999999999933],[0.05333333333333338,-0.06500000000000004,0.277000000000001],[0.06479166666666672,-0.10555555555555556,0.2935999999046288],[0.07906250000000009,-0.14833333333333337,0.3119999999999976],[0.08239583333333324,-0.18722222222222226,0.32719999980926673],[0.05291666666666662,-0.2270370370370371,0.343599999904626],[0.03812500000000003,-0.2366666666666667,0.36029999971388804],[0.03760416666666669,-0.26222222222222225,0.37689999961853005],[0.008541666666666715,-0.3168518518518519,0.39359999990462313],[-0.04874999999999995,-0.37592592592592594,0.41019999980926514],[-0.07135416666666666,-0.43444444444444447,0.42759999990462916],[-0.07104166666666671,-0.45851851851851855,0.4438999996185231],[-0.09562499999999995,-0.5031481481481481,0.46029999971389657],[-0.12895833333333329,-0.5496296296296297,0.47689999961852436],[-0.18072916666666666,-0.575,0.49409999990463405],[-0.20343749999999997,-0.6288888888888889,0.5108999996185304],[-0.20343749999999997,-0.6288888888888889,0.527000000000001],[-0.21020833333333327,-0.6933333333333332,0.5436999998092631],[-0.21541666666666662,-0.745,0.5630999999046225],[-0.24906250000000002,-0.8027777777777778,0.5823999996185307],[-0.2233333333333333,-0.6968518518518518,0.5971999998092627],[-0.22229166666666664,-0.5866666666666667,0.6132999997138882],[-0.22229166666666664,-0.5866666666666667,0.6270999999046296],[-0.22135416666666666,-0.48944444444444446,0.646499999999989],[-0.22468750000000004,-0.37703703703703706,0.660499999999999],[-0.22468750000000004,-0.37703703703703706,0.677199999809261],[-0.19302083333333328,-0.24518518518518514,0.6982999997138961],[-0.19302083333333328,-0.24518518518518514,0.7117999997138895],[-0.18312499999999995,-0.16166666666666668,0.727499999999992],[-0.1570833333333333,-0.029259259259259176,0.7477999997138909],[-0.12718750000000004,0.10277777777777777,0.7626999998092572],[-0.11312500000000002,0.23796296296296296,0.7775999999046235],[-0.13708333333333336,0.37518518518518523,0.7937999997138974],[-0.2117708333333333,0.3501851851851852,0.8126999998092543],[-0.23166666666666663,0.34018518518518526,0.8292999997138963],[-0.2515625,0.3301851851851851,0.8436999998092602],[-0.25375000000000003,0.35240740740740734,0.8641999998092587],[-0.25375000000000003,0.35240740740740734,0.8769999999999953],[-0.27229166666666665,0.3098148148148147,0.8937999997138917],[-0.2445833333333333,0.3168518518518519,0.9140999999046215],[-0.2530208333333333,0.30333333333333323,0.9306999998092635],[-0.2595833333333334,0.29074074074074074,0.9465999999046346],[-0.26614583333333336,0.27814814814814826,0.9606999998092647],[-0.2013541666666666,0.30648148148148147,0.9804999999999922],[-0.1532291666666667,0.29444444444444445,0.9963999996185322],[-0.13552083333333337,0.24685185185185177,1.0123999996185233],[-0.11781250000000003,0.1992592592592593,1.031499999999994],[-0.13333333333333333,0.14000000000000004,1.0467999997138975],[-0.16749999999999995,0.12611111111111115,1.0607999997138933],[-0.19249999999999995,0.09259259259259259,1.0771999998092667],[-0.20187499999999994,0.04740740740740745,1.1089999999999947],[-0.20187499999999994,0.04740740740740745,1.1300999999046297],[-0.18093750000000006,0.039074074074074115,1.141299999713894],[-0.18093750000000006,0.039074074074074115,1.1500999999046257],[-0.1492708333333333,0.05277777777777778,1.1627999997138971],[-0.20062500000000003,-0.010925925925925884,1.1770999999046268],[-0.22541666666666665,-0.01444444444444436,1.1936999998092546],[-0.2601041666666667,-0.01592592592592597,1.2127999997138943],[-0.2601041666666667,-0.01592592592592597,1.2273999996185267],[-0.33958333333333335,-0.01648148148148144,1.2435999999046317],[-0.33624999999999994,0.013333333333333417,1.2601999998092595],[-0.32312500000000005,0.0301851851851851,1.2768999996185215],[-0.30052083333333335,0.03685185185185181,1.2935999999046288],[-0.27791666666666665,0.04351851851851852,1.3101999998092566],[-0.2986458333333334,0.0742592592592593,1.3269999999999982],[-0.3484375,-0.01722222222222214,1.3436999998092602],[-0.3060416666666666,0.031111111111111027,1.360299999713888],[-0.24510416666666662,0.010185185185185186,1.3804999999999978],[-0.2671875,-0.0035185185185184764,1.3941999998092598],[-0.15885416666666666,-0.03611111111111111,1.410499999999999],[-0.13572916666666662,-0.12018518518518514,1.4350000000000023],[-0.13572916666666662,-0.12018518518518514,1.4438999996185231],[-0.09343750000000005,-0.12629629629629627,1.4604999999999961],[-0.06781250000000003,-0.11796296296296294,1.478599999904631],[-0.0359375,-0.10611111111111113,1.4972999997138885],[-0.0359375,-0.10611111111111113,1.510399999618528],[-0.07687499999999996,-0.1992592592592593,1.5271999998092554],[-0.07687499999999996,-0.1992592592592593,1.5493999996185295],[-0.06843750000000005,-0.14666666666666664,1.5605999999046247],[-0.06843750000000005,-0.14666666666666664,1.5770999999046325],[-0.09375,-0.20018518518518522,1.5937999997138945],[-0.09375,-0.20018518518518522,1.614299999713893],[-0.13114583333333332,-0.19388888888888886,1.6271999998092639],[-0.13114583333333332,-0.19388888888888886,1.6436999998092574],[-0.06739583333333338,-0.25018518518518523,1.6676999998092583],[-0.06739583333333338,-0.25018518518518523,1.6812999997139002],[-0.11760416666666665,-0.2116666666666667,1.6938999996185231],[-0.11760416666666665,-0.2116666666666667,1.713399999618531],[-0.06812499999999998,-0.24351851851851852,1.7272999997138925],[-0.05802083333333338,-0.2929629629629629,1.7452999997138932],[-0.06708333333333331,-0.32018518518518513,1.7604999999999933],[-0.06781250000000003,-0.40481481481481485,1.7804999999999893],[0.021145833333333287,-0.4244444444444444,1.793999999999997],[0.021145833333333287,-0.4244444444444444,1.8102999997138909],[0.05145833333333331,-0.4812962962962963,1.8270999999046325],[0.12364583333333339,-0.4777777777777778,1.8464999999999918],[0.17510416666666656,-0.522037037037037,1.8603999996185223],[0.1865624999999999,-0.4892592592592592,1.8770999999046296],[0.2203125,-0.5275925925925925,1.8937999997138917],[0.21020833333333327,-0.5005555555555555,1.9128999996185314],[0.21437499999999995,-0.4955555555555556,1.9274999999999949],[0.2453125,-0.5344444444444445,1.9437999997138888],[0.2633333333333333,-0.5214814814814815,1.9632999997138967],[0.26760416666666675,-0.5138888888888888,1.9773999996185267],[0.30885416666666665,-0.4848148148148148,1.9937999997139002],[0.30885416666666665,-0.4848148148148148,2.010399999618528],[0.3315624999999999,-0.509074074074074,2.030399999618524],[0.3523958333333333,-0.46944444444444444,2.046599999904629],[0.39906249999999993,-0.4412962962962963,2.06139999961853],[0.4517708333333334,-0.41888888888888887,2.080299999713887],[0.5118750000000001,-0.37037037037037035,2.0952999997138875],[0.5081249999999999,-0.2611111111111111,2.1118999996185295],[0.4947916666666667,-0.11481481481481481,2.1270999999046296],[0.47979166666666656,0.03351851851851856,2.143599999904623],[0.4891666666666666,0.17111111111111107,2.1631999998092653],[0.48770833333333335,0.14907407407407408,2.1791999998092564],[0.4884375000000001,0.12259259259259268,2.1953999996185303],[0.47416666666666674,0.16018518518518518,2.213899999618519],[0.46197916666666666,0.12462962962962955,2.23189999961852],[0.4488541666666668,0.09796296296296292,2.247899999618525],[0.4088541666666667,0.10648148148148148,2.266299999713894],[0.4088541666666667,0.10648148148148148,2.2771999998092554],[0.4321875000000001,-0.047037037037036995,2.2937999997138974],[0.4304166666666667,-0.13407407407407404,2.310399999618525],[0.4304166666666667,-0.13407407407407404,2.330399999618521],[0.4539583333333333,-0.30999999999999994,2.3436999998092602],[0.4319791666666667,-0.46222222222222226,2.362499999999997],[0.43697916666666664,-0.5,2.379499999999993],[0.4150000000000001,-0.5027777777777778,2.395699999809267],[0.4254166666666668,-0.6235185185185185,2.411699999809258],[0.3883333333333333,-0.6375925925925926,2.430799999713898],[0.3885416666666667,-0.6687037037037038,2.4460999999046322],[0.35697916666666674,-0.7316666666666667,2.460399999618531],[0.3480208333333332,-0.7464814814814815,2.4768999996185244],[0.33395833333333325,-0.8612962962962963,2.497799999713891],[0.3030208333333334,-0.8137037037037037,2.5142999997138986],[0.27239583333333334,-0.8218518518518518,2.530699999809258],[0.2855208333333332,-0.7812962962962963,2.5496999998092633],[0.2855208333333332,-0.7812962962962963,2.560399999618525],[0.3046875,-0.754074074074074,2.5770999999046325],[0.30479166666666657,-0.6394444444444445,2.5941999998092626],[0.3296875,-0.6142592592592593,2.6141999998092587],[0.31708333333333344,-0.5188888888888888,2.6303999996185325],[0.31708333333333344,-0.5188888888888888,2.643899999618526],[0.34322916666666664,-0.477962962962963,2.663899999618522],[0.34322916666666664,-0.477962962962963,2.6772999997138953],[0.34645833333333326,-0.40851851851851856,2.6940000000000026],[0.39645833333333325,-0.28203703703703703,2.7203999996185217],[0.39645833333333325,-0.28203703703703703,2.7288999996185197],[0.42385416666666675,-0.2309259259259259,2.7437999997139],[0.46031250000000007,-0.17,2.7620999999046347],[0.4417708333333332,-0.13092592592592592,2.781799999713897],[0.4417708333333332,-0.13092592592592592,2.793999999999997],[0.41468749999999993,-0.07518518518518523,2.8104999999999905],[0.41468749999999993,-0.07518518518518523,2.8271999998092667],[0.41739583333333335,-0.11629629629629631,2.8474999999999966],[0.41864583333333344,-0.08925925925925923,2.863299999713888],[0.42291666666666666,-0.12074074074074072,2.8785999999046226],[0.4265625,-0.08944444444444447,2.90019999980926],[0.4265625,-0.08944444444444447,2.9103999996185195],[0.4045833333333334,-0.07925925925925928,2.927199999809261],[0.36437499999999995,-0.10796296296296298,2.943799999713889],[0.33833333333333326,-0.13481481481481483,2.9635999999046305],[0.3396874999999999,-0.14666666666666664,2.979699999809256],[0.3267708333333334,-0.17,2.9947999997138908],[0.3420833333333334,-0.24444444444444444,3.010399999618528],[0.3507291666666667,-0.26537037037037037,3.0304999999999893],[0.31354166666666666,-0.26240740740740737,3.045899999618527],[0.27447916666666666,-0.26296296296296295,3.060399999618525],[0.22843749999999996,-0.2442592592592592,3.0770999999046325],[0.21802083333333327,-0.2442592592592592,3.0960999999046237],[0.19333333333333325,-0.19444444444444445,3.110699999809256],[0.16666666666666666,-0.1522222222222222,3.1289999999999907],[0.13760416666666658,-0.11870370370370374,3.1473999996185285],[0.13760416666666658,-0.11870370370370374,3.1602999997138994],[0.11822916666666666,-0.13092592592592592,3.1770999999046268],[0.08687500000000009,-0.05962962962962961,3.195299999713896],[0.04770833333333328,-0.035740740740740656,3.2101999998092623],[0.058854166666666666,0.006851851851851936,3.227199999809258],[0.058541666666666714,0.014814814814814815,3.2434999999999974],[0.07583333333333328,0.003888888888888931,3.2602999997138937],[0.07083333333333333,0.024814814814814772,3.280699999809258],[0.07854166666666676,-0.018518518518518517,3.2956999998092584],[0.08385416666666666,-0.06351851851851854,3.312099999904632],[0.09718749999999995,-0.10333333333333336,3.3348999996185285],[0.09718749999999995,-0.10333333333333336,3.3436999998092602],[0.11239583333333343,-0.0016666666666666245,3.360599999904622],[0.11239583333333343,-0.0016666666666666245,3.379799999713896],[0.11770833333333333,0.010740740740740657,3.39719999980926],[0.11802083333333328,0.05925925925925926,3.4140999999046215],[0.11593749999999996,0.05388888888888893,3.4306999998092635],[0.14833333333333343,0.07685185185185185,3.4470000000000027],[0.1404166666666666,0.04092592592592597,3.461099999904633],[0.1404166666666666,0.0235185185185186,3.4776999998092606],[0.14020833333333324,0.052037037037037076,3.493699999809266],[0.1423958333333334,0.08796296296296297,3.5137999997138962],[0.1423958333333334,0.08796296296296297,3.5270999999046353],[0.12020833333333343,0.14425925925925923,3.5437999997138974],[0.12020833333333343,0.14425925925925923,3.560399999618525],[0.10510416666666676,0.07351851851851861,3.5807999997138893],[0.043437500000000046,0.012407407407407492,3.5978999996185195],[0.043437500000000046,0.012407407407407492,3.610199999809268],[0.020833333333333332,-0.0007407407407406986,3.6306999998092664],[0.020833333333333332,-0.0007407407407406986,3.643599999904623],[-0.021145833333333287,0.007777777777777862,3.660199999809265],[-0.021145833333333287,0.007777777777777862,3.6769999999999925],[-0.07124999999999998,0.012407407407407492,3.6936999998092546],[-0.07124999999999998,0.012407407407407492,3.713899999618519],[-0.12406250000000002,0.054259259259259174,3.727099999904624],[-0.13843749999999996,0.04018518518518527,3.7461999998092637],[-0.17197916666666668,0.04981481481481477,3.760399999618528],[-0.22395833333333334,0.030555555555555555,3.781099999904626],[-0.18937499999999996,0.011481481481481566,3.7974999999999994],[-0.24864583333333337,0.027222222222222307,3.8138999996185277],[-0.24864583333333337,0.027222222222222307,3.8270999999046325],[-0.24489583333333337,0.0824074074074074,3.855399999618527],[-0.24489583333333337,0.0824074074074074,3.863099999904634],[-0.20583333333333337,0.0712962962962963,3.87689999961853],[-0.1671875,0.01962962962962967,3.893499999999989],[-0.15458333333333332,-0.010185185185185186,3.913099999904631],[-0.08802083333333334,-0.005740740740740783,3.9291999998092564],[-0.06864583333333331,0.020555555555555598,3.9468999996185232],[-0.02510416666666669,-0.00851851851851856,3.9646999998092554],[0.04541666666666669,0.004259259259259175,3.979699999809256],[0.029895833333333382,-0.016666666666666666,3.995299999713893],[0.10083333333333329,-0.011481481481481566,4.010999999999996],[0.17458333333333323,-0.010925925925925884,4.030799999713892],[0.18416666666666662,0.01592592592592597,4.045799999713893],[0.17822916666666658,-0.0031481481481482323,4.060599999904625],[0.19229166666666658,0.05944444444444449,4.0796999998092645],[0.21052083333333324,0.03314814814814811,4.096299999713892],[0.19104166666666675,-0.004074074074074159,4.112099999904629],[0.17854166666666677,-0.026851851851851852,4.127499999999998],[0.15520833333333334,-0.008703703703703788,4.148699999809267],[0.13562500000000005,-0.030000000000000086,4.164699999809258],[0.13427083333333342,-0.08277777777777776,4.179799999713893],[0.1390625,-0.1227777777777778,4.194199999809257],[0.09604166666666672,-0.13777777777777775,4.215299999713892],[0.07614583333333323,-0.11722222222222224,4.230899999618529],[0.08697916666666666,-0.16203703703703703,4.246099999904629],[0.06302083333333333,-0.15259259259259256,4.26109999990463],[0.1053124999999999,-0.09611111111111106,4.280399999618524],[0.12635416666666663,-0.06962962962962967,4.301599999904624],[0.12635416666666663,-0.06962962962962967,4.320799999713898],[0.17916666666666667,-0.09203703703703701,4.337599999904626],[0.17916666666666667,-0.09203703703703701,4.343899999618529],[0.24635416666666668,-0.0712962962962963,4.360399999618522],[0.2864583333333333,-0.034444444444444486,4.37709999990463],[0.30145833333333344,-0.05925925925925926,4.395799999713887],[0.3315624999999999,-0.08555555555555554,4.410299999713899],[0.3963541666666667,-0.05555555555555555,4.427099999904627],[0.43947916666666675,-0.05185185185185185,4.446799999713889],[0.4609375,0.0016666666666666245,4.460299999713897],[0.4508333333333333,0.05018518518518523,4.476899999618524],[0.4790625000000001,0.19018518518518526,4.493499999999997],[0.47979166666666656,0.32703703703703707,4.510099999904625],[0.5044791666666666,0.36055555555555563,4.5268999996185215],[0.48552083333333323,0.37592592592592594,4.5434999999999945],[0.4827083333333334,0.4448148148148149,4.5604999999999905],[0.5129166666666668,0.46648148148148144,4.578499999999991],[0.5303124999999999,0.4596296296296297,4.593499999999992],[0.55625,0.42240740740740745,4.610199999809268],[0.6038541666666667,0.33537037037037043,4.6281999998092545],[0.6453125,0.22833333333333325,4.643699999809257],[0.6400000000000001,0.08462962962962971,4.660299999713899],[0.6400000000000001,0.08462962962962971,4.6769999999999925],[0.6617708333333333,-0.062407407407407384,4.6935999999046345],[0.6617708333333333,-0.062407407407407384,4.710299999713897],[0.6489583333333333,-0.08351851851851856,4.72699999999999],[0.6575000000000001,-0.0962962962962963,4.743499999999997],[0.6660416666666668,-0.10907407407407403,4.7601999998092595],[0.6660416666666668,-0.10907407407407403,4.7768999996185215],[0.6616666666666667,-0.11148148148148146,4.7934999999999945],[0.6708333333333333,-0.11703703703703702,4.810599999904625],[0.6398958333333333,-0.06518518518518517,4.828399999618526],[0.6037499999999999,-0.06870370370370374,4.843999999999994],[0.5755208333333334,-0.025925925925925925,4.860199999809268],[0.5756249999999999,0.005555555555555556,4.876799999713896],[0.5726041666666667,0.06703703703703712,4.893499999999989],[0.5852083333333333,0.036481481481481566,4.910199999809265],[0.6330208333333334,0.04462962962962967,4.9306999998092635],[0.6223958333333334,0.011111111111111112,4.947199999809257],[0.6021874999999999,0.009259259259259259,4.96269999980926],[0.5497916666666666,0.000925925925925926,4.977499999999992],[0.49812500000000004,-0.03148148148148148,4.996299999713898],[0.5012500000000001,-0.02833333333333325,5.012099999904635],[0.5204166666666665,-0.04462962962962967,5.0268999996185215],[0.5392708333333334,-0.11629629629629631,5.0434999999999945],[0.5335416666666667,-0.16944444444444445,5.060199999809257],[0.4929166666666667,-0.19666666666666666,5.076899999618533],[0.41677083333333326,-0.21851851851851853,5.093499999999992],[0.4015625,-0.20462962962962963,5.112399999618532],[0.4001041666666666,-0.24611111111111106,5.1277999997139005],[0.4196875000000001,-0.26666666666666666,5.14509999990463],[0.42822916666666655,-0.28777777777777774,5.160299999713899],[0.4132291666666667,-0.30111111111111116,5.179999999999993],[0.371875,-0.259074074074074,5.197000000000003],[0.3541666666666667,-0.20759259259259263,5.2135999999046305],[0.31927083333333334,-0.17796296296296302,5.227899999618529],[0.3198958333333332,-0.07833333333333335,5.24499999999999],[0.3264583333333334,0.05611111111111103,5.2601999998092595],[0.3082291666666668,0.18870370370370365,5.276799999713887],[0.3243750000000001,0.2692592592592592,5.295599999904624],[0.3263541666666666,0.26777777777777784,5.310099999904622],[0.3537499999999999,0.3533333333333332,5.326999999999998],[0.3719791666666666,0.4540740740740742,5.343499999999992],[0.3896874999999999,0.4301851851851851,5.363099999904634],[0.38010416666666674,0.430925925925926,5.376999999999995],[0.39000000000000007,0.4153703703703703,5.393699999809257],[0.39427083333333335,0.3846296296296297,5.410299999713899],[0.39427083333333335,0.3846296296296297,5.4295999999046245],[0.38229166666666664,0.23055555555555557,5.443699999809255],[0.3928124999999999,0.13481481481481472,5.460799999713899],[0.3576041666666666,0.03944444444444436,5.479299999713888],[0.346875,0.018888888888888972,5.493599999904632],[0.3389583333333334,-0.01777777777777782,5.5101999998092595],[0.3389583333333334,-0.01777777777777782,5.5268999996185215],[0.31489583333333326,-0.06925925925925921,5.543599999904629],[0.31489583333333326,-0.06925925925925921,5.560199999809257],[0.3084374999999999,-0.07314814814814814,5.576999999999998],[0.2796875,-0.11370370370370367,5.5978999996185195],[0.2796875,-0.11370370370370367,5.610199999809268],[0.2648958333333333,-0.13907407407407413,5.62689999961853],[0.2648958333333333,-0.13907407407407413,5.643599999904623],[0.2375,-0.1646296296296296,5.660199999809265],[0.2375,-0.1646296296296296,5.676899999618527],[0.24520833333333342,-0.14962962962962964,5.6935999999046345],[0.24270833333333333,-0.21055555555555552,5.713699999809265],[0.2578125,-0.18888888888888888,5.7290999999046335],[0.2607291666666666,-0.11425925925925924,5.74389999961852],[0.2517708333333334,-0.1618518518518518,5.7601999998092595],[0.2609375,-0.147037037037037,5.778899999618531],[0.26375000000000004,-0.13388888888888892,5.793599999904629],[0.2924999999999999,-0.09518518518518514,5.810199999809257],[0.31145833333333334,-0.08037037037037033,5.827399999618521],[0.3160416666666668,-0.05277777777777778,5.843499999999992],[0.30489583333333337,-0.04722222222222222,5.860199999809268],[0.30885416666666665,-0.034444444444444486,5.878899999618525],[0.32312500000000005,-0.006481481481481481,5.893499999999989],[0.3363541666666668,-0.027777777777777776,5.910199999809265],[0.3363541666666668,-0.027777777777777776,5.926899999618527],[0.34645833333333326,-0.012962962962962963,5.9435999999046345],[0.3107291666666666,-0.02166666666666675,5.960199999809262],[0.2798958333333334,-0.03037037037037033,5.9787999997139],[0.23385416666666667,-0.040740740740740744,5.993499999999997],[0.19104166666666675,-0.04018518518518527,6.01619999980926],[0.19104166666666675,-0.04018518518518527,6.027000000000001],[0.17239583333333333,-0.03777777777777774,6.043699999809263],[0.17614583333333325,-0.00592592592592601,6.068099999904632],[0.17614583333333325,-0.00592592592592601,6.076999999999998],[0.13489583333333333,0.0035185185185184764,6.09369999980926],[0.09375,0.02296296296296292,6.110399999618522],[0.03135416666666669,-0.009259259259259259,6.133399999618533],[0.03135416666666669,-0.009259259259259259,6.143499999999989],[0.04114583333333333,-0.03222222222222218,6.160499999999999],[0.07166666666666661,-0.01962962962962967,6.179999999999993],[0.09635416666666667,-0.0198148148148149,6.194099999904623],[0.12916666666666668,0,6.210799999713899],[0.12916666666666668,0,6.22679999971389],[0.14947916666666666,-0.010185185185185186,6.243599999904632],[0.18354166666666671,-0.06092592592592588,6.2601999998092595],[0.21437499999999995,-0.08759259259259261,6.278599999904628],[0.2930208333333333,-0.0727777777777778,6.2934999999999945],[0.35520833333333335,-0.10333333333333336,6.310599999904625],[0.44114583333333335,-0.08703703703703704,6.330500000000001],[0.41593749999999996,-0.07333333333333338,6.346199999809258],[0.4066666666666668,-0.122037037037037,6.360500000000002],[0.41041666666666665,-0.15185185185185185,6.37709999990463],[0.4109375,-0.15722222222222218,6.398599999904633],[0.41677083333333326,-0.18222222222222217,6.41429999971389],[0.39520833333333344,-0.2007407407407407,6.430199999809261],[0.35739583333333325,-0.22388888888888886,6.4461999998092665],[0.3272916666666667,-0.27240740740740743,6.46269999980926],[0.28916666666666657,-0.2948148148148148,6.477199999809258],[0.2526041666666667,-0.28425925925925927,6.500500000000002],[0.2526041666666667,-0.28425925925925927,6.510299999713894],[0.26749999999999996,-0.2638888888888889,6.5301999998092555],[0.2760416666666667,-0.287962962962963,6.5467999997138975],[0.28802083333333334,-0.2898148148148148,6.560199999809257],[0.30364583333333334,-0.30277777777777776,6.576999999999998],[0.30614583333333345,-0.2442592592592592,6.593499999999992],[0.3288541666666667,-0.2381481481481482,6.610099999904634],[0.3460416666666667,-0.2242592592592593,6.627299999713898],[0.3763541666666666,-0.18611111111111112,6.643499999999989],[0.39093749999999994,-0.1418518518518519,6.660099999904631],[0.39093749999999994,-0.1418518518518519,6.676899999618527],[0.40604166666666663,-0.1646296296296296,6.6935999999046345],[0.40604166666666663,-0.1646296296296296,6.710199999809262],[0.4102083333333333,-0.1757407407407407,6.72699999999999],[0.39187500000000003,-0.11074074074074076,6.743599999904632],[0.3689583333333334,-0.06592592592592597,6.7601999998092595],[0.3458333333333333,-0.032777777777777864,6.776799999713887],[0.34572916666666675,-0.06462962962962959,6.7934999999999945],[0.3288541666666667,-0.02629629629629638,6.810199999809257],[0.32354166666666656,-0.003703703703703704,6.829999999999998],[0.2894791666666668,0.01907407407407399,6.845999999999989],[0.2568749999999999,-0.022222222222222223,6.864399999618527],[0.2568749999999999,-0.022222222222222223,6.87689999961853],[0.23697916666666666,-0.0294444444444444,6.893599999904623],[0.22125000000000009,-0.051111111111111156,6.913199999809265],[0.24020833333333325,-0.11925925925925922,6.935399999618525],[0.24020833333333325,-0.11925925925925922,6.9435],[0.2484375,-0.17925925925925928,6.960299999713897],[0.24708333333333338,-0.202962962962963,6.979599999904622],[0.25885416666666666,-0.23648148148148146,6.995999999999995],[0.25927083333333345,-0.24111111111111108,7.012099999904635],[0.26375000000000004,-0.3022222222222222,7.030599999904624],[0.26322916666666674,-0.32703703703703707,7.045199999809256],[0.2861458333333334,-0.3274074074074074,7.060199999809257],[0.2861458333333334,-0.3274074074074074,7.076899999618533],[0.2865624999999999,-0.31851851851851853,7.093499999999992],[0.2616666666666667,-0.2022222222222222,7.110199999809268],[0.20208333333333334,-0.07333333333333338,7.127599999904632],[0.18166666666666675,0.06351851851851843,7.143499999999989],[0.1790625000000001,0.15981481481481474,7.160199999809265],[0.1790625000000001,0.15981481481481474,7.179799999713893],[0.1538541666666667,0.1742592592592593,7.193699999809255],[0.15354166666666677,0.2022222222222223,7.2117999997138895],[0.13791666666666677,0.30833333333333335,7.23189999961852],[0.13791666666666677,0.30833333333333335,7.243699999809266],[0.13250000000000003,0.3307407407407408,7.260399999618528],[0.13552083333333323,0.3405555555555555,7.277000000000001],[0.14947916666666666,0.3237037037037036,7.29739999961852],[0.14947916666666666,0.3237037037037036,7.310299999713891],[0.18895833333333342,0.1868518518518518,7.3270999999046325],[0.2573958333333332,0.041111111111111195,7.3489999999999895],[0.29010416666666666,-0.05925925925925926,7.364399999618527],[0.3207291666666668,-0.17759259259259255,7.380199999809264],[0.35031249999999997,-0.19444444444444445,7.396299999713889],[0.3303124999999999,-0.19944444444444442,7.415199999809261],[0.3390625,-0.3566666666666667,7.430999999999997],[0.3637500000000001,-0.4027777777777778,7.445499999999996],[0.35999999999999993,-0.4172222222222222,7.460199999809262],[0.3463541666666667,-0.38796296296296295,7.47679999971389],[0.3423958333333334,-0.3774074074074074,7.493499999999997],[0.3423958333333334,-0.3774074074074074,7.510099999904625],[0.32760416666666664,-0.35111111111111115,7.5268999996185215],[0.3226041666666667,-0.3798148148148149,7.548899999618527],[0.3226041666666667,-0.3798148148148149,7.560199999809257],[0.3163541666666667,-0.42240740740740745,7.576899999618533],[0.3163541666666667,-0.42240740740740745,7.593499999999992],[0.3064583333333334,-0.4116666666666667,7.610199999809268],[0.3064583333333334,-0.4116666666666667,7.62709999990463],[0.3234375,-0.4740740740740741,7.643499999999989],[0.3234375,-0.4740740740740741,7.660199999809265],[0.32781250000000006,-0.4287037037037037,7.6769999999999925],[0.32781250000000006,-0.4287037037037037,7.6935],[0.3051041666666668,-0.4225925925925926,7.710199999809262],[0.3233333333333334,-0.4087037037037037,7.729599999904622]]","[0.00019999980925433647,0.05149999999999011,0.06039999961852516,0.07729999971388679,0.09359999990462597,0.11079999971389043,0.12859999990462256,0.14709999990462563,0.16400000000000148,0.18069999980926355,0.20069999980925957,0.21029999971389657,0.22689999961852436,0.24369999980926593,0.2604999999999933,0.277000000000001,0.2935999999046288,0.3119999999999976,0.32719999980926673,0.343599999904626,0.36029999971388804,0.37689999961853005,0.39359999990462313,0.41019999980926514,0.42759999990462916,0.4438999996185231,0.46029999971389657,0.47689999961852436,0.49409999990463405,0.5108999996185304,0.527000000000001,0.5436999998092631,0.5630999999046225,0.5823999996185307,0.5971999998092627,0.6132999997138882,0.6270999999046296,0.646499999999989,0.660499999999999,0.677199999809261,0.6982999997138961,0.7117999997138895,0.727499999999992,0.7477999997138909,0.7626999998092572,0.7775999999046235,0.7937999997138974,0.8126999998092543,0.8292999997138963,0.8436999998092602,0.8641999998092587,0.8769999999999953,0.8937999997138917,0.9140999999046215,0.9306999998092635,0.9465999999046346,0.9606999998092647,0.9804999999999922,0.9963999996185322,1.0123999996185233,1.031499999999994,1.0467999997138975,1.0607999997138933,1.0771999998092667,1.1089999999999947,1.1300999999046297,1.141299999713894,1.1500999999046257,1.1627999997138971,1.1770999999046268,1.1936999998092546,1.2127999997138943,1.2273999996185267,1.2435999999046317,1.2601999998092595,1.2768999996185215,1.2935999999046288,1.3101999998092566,1.3269999999999982,1.3436999998092602,1.360299999713888,1.3804999999999978,1.3941999998092598,1.410499999999999,1.4350000000000023,1.4438999996185231,1.4604999999999961,1.478599999904631,1.4972999997138885,1.510399999618528,1.5271999998092554,1.5493999996185295,1.5605999999046247,1.5770999999046325,1.5937999997138945,1.614299999713893,1.6271999998092639,1.6436999998092574,1.6676999998092583,1.6812999997139002,1.6938999996185231,1.713399999618531,1.7272999997138925,1.7452999997138932,1.7604999999999933,1.7804999999999893,1.793999999999997,1.8102999997138909,1.8270999999046325,1.8464999999999918,1.8603999996185223,1.8770999999046296,1.8937999997138917,1.9128999996185314,1.9274999999999949,1.9437999997138888,1.9632999997138967,1.9773999996185267,1.9937999997139002,2.010399999618528,2.030399999618524,2.046599999904629,2.06139999961853,2.080299999713887,2.0952999997138875,2.1118999996185295,2.1270999999046296,2.143599999904623,2.1631999998092653,2.1791999998092564,2.1953999996185303,2.213899999618519,2.23189999961852,2.247899999618525,2.266299999713894,2.2771999998092554,2.2937999997138974,2.310399999618525,2.330399999618521,2.3436999998092602,2.362499999999997,2.379499999999993,2.395699999809267,2.411699999809258,2.430799999713898,2.4460999999046322,2.460399999618531,2.4768999996185244,2.497799999713891,2.5142999997138986,2.530699999809258,2.5496999998092633,2.560399999618525,2.5770999999046325,2.5941999998092626,2.6141999998092587,2.6303999996185325,2.643899999618526,2.663899999618522,2.6772999997138953,2.6940000000000026,2.7203999996185217,2.7288999996185197,2.7437999997139,2.7620999999046347,2.781799999713897,2.793999999999997,2.8104999999999905,2.8271999998092667,2.8474999999999966,2.863299999713888,2.8785999999046226,2.90019999980926,2.9103999996185195,2.927199999809261,2.943799999713889,2.9635999999046305,2.979699999809256,2.9947999997138908,3.010399999618528,3.0304999999999893,3.045899999618527,3.060399999618525,3.0770999999046325,3.0960999999046237,3.110699999809256,3.1289999999999907,3.1473999996185285,3.1602999997138994,3.1770999999046268,3.195299999713896,3.2101999998092623,3.227199999809258,3.2434999999999974,3.2602999997138937,3.280699999809258,3.2956999998092584,3.312099999904632,3.3348999996185285,3.3436999998092602,3.360599999904622,3.379799999713896,3.39719999980926,3.4140999999046215,3.4306999998092635,3.4470000000000027,3.461099999904633,3.4776999998092606,3.493699999809266,3.5137999997138962,3.5270999999046353,3.5437999997138974,3.560399999618525,3.5807999997138893,3.5978999996185195,3.610199999809268,3.6306999998092664,3.643599999904623,3.660199999809265,3.6769999999999925,3.6936999998092546,3.713899999618519,3.727099999904624,3.7461999998092637,3.760399999618528,3.781099999904626,3.7974999999999994,3.8138999996185277,3.8270999999046325,3.855399999618527,3.863099999904634,3.87689999961853,3.893499999999989,3.913099999904631,3.9291999998092564,3.9468999996185232,3.9646999998092554,3.979699999809256,3.995299999713893,4.010999999999996,4.030799999713892,4.045799999713893,4.060599999904625,4.0796999998092645,4.096299999713892,4.112099999904629,4.127499999999998,4.148699999809267,4.164699999809258,4.179799999713893,4.194199999809257,4.215299999713892,4.230899999618529,4.246099999904629,4.26109999990463,4.280399999618524,4.301599999904624,4.320799999713898,4.337599999904626,4.343899999618529,4.360399999618522,4.37709999990463,4.395799999713887,4.410299999713899,4.427099999904627,4.446799999713889,4.460299999713897,4.476899999618524,4.493499999999997,4.510099999904625,4.5268999996185215,4.5434999999999945,4.5604999999999905,4.578499999999991,4.593499999999992,4.610199999809268,4.6281999998092545,4.643699999809257,4.660299999713899,4.6769999999999925,4.6935999999046345,4.710299999713897,4.72699999999999,4.743499999999997,4.7601999998092595,4.7768999996185215,4.7934999999999945,4.810599999904625,4.828399999618526,4.843999999999994,4.860199999809268,4.876799999713896,4.893499999999989,4.910199999809265,4.9306999998092635,4.947199999809257,4.96269999980926,4.977499999999992,4.996299999713898,5.012099999904635,5.0268999996185215,5.0434999999999945,5.060199999809257,5.076899999618533,5.093499999999992,5.112399999618532,5.1277999997139005,5.14509999990463,5.160299999713899,5.179999999999993,5.197000000000003,5.2135999999046305,5.227899999618529,5.24499999999999,5.2601999998092595,5.276799999713887,5.295599999904624,5.310099999904622,5.326999999999998,5.343499999999992,5.363099999904634,5.376999999999995,5.393699999809257,5.410299999713899,5.4295999999046245,5.443699999809255,5.460799999713899,5.479299999713888,5.493599999904632,5.5101999998092595,5.5268999996185215,5.543599999904629,5.560199999809257,5.576999999999998,5.5978999996185195,5.610199999809268,5.62689999961853,5.643599999904623,5.660199999809265,5.676899999618527,5.6935999999046345,5.713699999809265,5.7290999999046335,5.74389999961852,5.7601999998092595,5.778899999618531,5.793599999904629,5.810199999809257,5.827399999618521,5.843499999999992,5.860199999809268,5.878899999618525,5.893499999999989,5.910199999809265,5.926899999618527,5.9435999999046345,5.960199999809262,5.9787999997139,5.993499999999997,6.01619999980926,6.027000000000001,6.043699999809263,6.068099999904632,6.076999999999998,6.09369999980926,6.110399999618522,6.133399999618533,6.143499999999989,6.160499999999999,6.179999999999993,6.194099999904623,6.210799999713899,6.22679999971389,6.243599999904632,6.2601999998092595,6.278599999904628,6.2934999999999945,6.310599999904625,6.330500000000001,6.346199999809258,6.360500000000002,6.37709999990463,6.398599999904633,6.41429999971389,6.430199999809261,6.4461999998092665,6.46269999980926,6.477199999809258,6.500500000000002,6.510299999713894,6.5301999998092555,6.5467999997138975,6.560199999809257,6.576999999999998,6.593499999999992,6.610099999904634,6.627299999713898,6.643499999999989,6.660099999904631,6.676899999618527,6.6935999999046345,6.710199999809262,6.72699999999999,6.743599999904632,6.7601999998092595,6.776799999713887,6.7934999999999945,6.810199999809257,6.829999999999998,6.845999999999989,6.864399999618527,6.87689999961853,6.893599999904623,6.913199999809265,6.935399999618525,6.9435,6.960299999713897,6.979599999904622,6.995999999999995,7.012099999904635,7.030599999904624,7.045199999809256,7.060199999809257,7.076899999618533,7.093499999999992,7.110199999809268,7.127599999904632,7.143499999999989,7.160199999809265,7.179799999713893,7.193699999809255,7.2117999997138895,7.23189999961852,7.243699999809266,7.260399999618528,7.277000000000001,7.29739999961852,7.310299999713891,7.3270999999046325,7.3489999999999895,7.364399999618527,7.380199999809264,7.396299999713889,7.415199999809261,7.430999999999997,7.445499999999996,7.460199999809262,7.47679999971389,7.493499999999997,7.510099999904625,7.5268999996185215,7.548899999618527,7.560199999809257,7.576899999618533,7.593499999999992,7.610199999809268,7.62709999990463,7.643499999999989,7.660199999809265,7.6769999999999925,7.6935,7.710199999809262,7.729599999904622]","[1731896260104,1731896260146,1731896260155,1731896260172,1731896260188,1731896260205,1731896260223,1731896260242,1731896260258,1731896260275,1731896260295,1731896260305,1731896260321,1731896260338,1731896260355,1731896260371,1731896260388,1731896260406,1731896260422,1731896260438,1731896260455,1731896260471,1731896260488,1731896260505,1731896260522,1731896260538,1731896260555,1731896260571,1731896260589,1731896260605,1731896260622,1731896260638,1731896260658,1731896260677,1731896260692,1731896260708,1731896260722,1731896260741,1731896260755,1731896260772,1731896260793,1731896260806,1731896260822,1731896260842,1731896260857,1731896260872,1731896260888,1731896260907,1731896260924,1731896260938,1731896260959,1731896260972,1731896260988,1731896261009,1731896261025,1731896261041,1731896261055,1731896261075,1731896261091,1731896261107,1731896261126,1731896261141,1731896261155,1731896261172,1731896261204,1731896261225,1731896261236,1731896261245,1731896261257,1731896261272,1731896261288,1731896261307,1731896261322,1731896261338,1731896261355,1731896261371,1731896261388,1731896261405,1731896261422,1731896261438,1731896261455,1731896261475,1731896261489,1731896261505,1731896261530,1731896261538,1731896261555,1731896261573,1731896261592,1731896261605,1731896261622,1731896261644,1731896261655,1731896261672,1731896261688,1731896261709,1731896261722,1731896261738,1731896261762,1731896261776,1731896261788,1731896261808,1731896261822,1731896261840,1731896261855,1731896261875,1731896261888,1731896261905,1731896261922,1731896261941,1731896261955,1731896261972,1731896261988,1731896262007,1731896262022,1731896262038,1731896262058,1731896262072,1731896262088,1731896262105,1731896262125,1731896262141,1731896262156,1731896262175,1731896262190,1731896262206,1731896262222,1731896262238,1731896262258,1731896262274,1731896262290,1731896262308,1731896262326,1731896262342,1731896262361,1731896262372,1731896262388,1731896262405,1731896262425,1731896262438,1731896262457,1731896262474,1731896262490,1731896262506,1731896262525,1731896262541,1731896262555,1731896262571,1731896262592,1731896262609,1731896262625,1731896262644,1731896262655,1731896262672,1731896262689,1731896262709,1731896262725,1731896262738,1731896262758,1731896262772,1731896262788,1731896262815,1731896262823,1731896262838,1731896262857,1731896262876,1731896262889,1731896262905,1731896262922,1731896262942,1731896262958,1731896262973,1731896262995,1731896263005,1731896263022,1731896263038,1731896263058,1731896263074,1731896263089,1731896263105,1731896263125,1731896263140,1731896263155,1731896263172,1731896263191,1731896263205,1731896263223,1731896263242,1731896263255,1731896263272,1731896263290,1731896263305,1731896263322,1731896263338,1731896263355,1731896263375,1731896263390,1731896263407,1731896263429,1731896263438,1731896263455,1731896263474,1731896263492,1731896263509,1731896263525,1731896263542,1731896263556,1731896263572,1731896263588,1731896263608,1731896263622,1731896263638,1731896263655,1731896263675,1731896263692,1731896263705,1731896263725,1731896263738,1731896263755,1731896263772,1731896263788,1731896263808,1731896263822,1731896263841,1731896263855,1731896263876,1731896263892,1731896263908,1731896263922,1731896263950,1731896263958,1731896263971,1731896263988,1731896264008,1731896264024,1731896264042,1731896264059,1731896264074,1731896264090,1731896264106,1731896264125,1731896264140,1731896264155,1731896264174,1731896264191,1731896264207,1731896264222,1731896264243,1731896264259,1731896264274,1731896264289,1731896264310,1731896264325,1731896264341,1731896264356,1731896264375,1731896264396,1731896264415,1731896264432,1731896264438,1731896264455,1731896264472,1731896264490,1731896264505,1731896264522,1731896264541,1731896264555,1731896264571,1731896264588,1731896264605,1731896264621,1731896264638,1731896264655,1731896264673,1731896264688,1731896264705,1731896264723,1731896264738,1731896264755,1731896264772,1731896264788,1731896264805,1731896264822,1731896264838,1731896264855,1731896264871,1731896264888,1731896264905,1731896264923,1731896264938,1731896264955,1731896264971,1731896264988,1731896265005,1731896265025,1731896265042,1731896265057,1731896265072,1731896265091,1731896265107,1731896265121,1731896265138,1731896265155,1731896265171,1731896265188,1731896265207,1731896265222,1731896265240,1731896265255,1731896265274,1731896265291,1731896265308,1731896265322,1731896265340,1731896265355,1731896265371,1731896265390,1731896265405,1731896265422,1731896265438,1731896265458,1731896265472,1731896265488,1731896265505,1731896265524,1731896265538,1731896265555,1731896265574,1731896265588,1731896265605,1731896265621,1731896265638,1731896265655,1731896265671,1731896265692,1731896265705,1731896265721,1731896265738,1731896265755,1731896265771,1731896265788,1731896265808,1731896265824,1731896265838,1731896265855,1731896265873,1731896265888,1731896265905,1731896265922,1731896265938,1731896265955,1731896265973,1731896265988,1731896266005,1731896266021,1731896266038,1731896266055,1731896266073,1731896266088,1731896266111,1731896266122,1731896266138,1731896266163,1731896266171,1731896266188,1731896266205,1731896266228,1731896266238,1731896266255,1731896266275,1731896266289,1731896266305,1731896266321,1731896266338,1731896266355,1731896266373,1731896266388,1731896266405,1731896266425,1731896266441,1731896266455,1731896266472,1731896266493,1731896266509,1731896266525,1731896266541,1731896266557,1731896266572,1731896266595,1731896266605,1731896266625,1731896266641,1731896266655,1731896266672,1731896266688,1731896266705,1731896266722,1731896266738,1731896266755,1731896266771,1731896266788,1731896266805,1731896266822,1731896266838,1731896266855,1731896266871,1731896266888,1731896266905,1731896266924,1731896266941,1731896266959,1731896266971,1731896266988,1731896267008,1731896267030,1731896267038,1731896267055,1731896267074,1731896267091,1731896267107,1731896267125,1731896267140,1731896267155,1731896267171,1731896267188,1731896267205,1731896267222,1731896267238,1731896267255,1731896267274,1731896267288,1731896267306,1731896267326,1731896267338,1731896267355,1731896267372,1731896267392,1731896267405,1731896267422,1731896267444,1731896267459,1731896267475,1731896267491,1731896267510,1731896267526,1731896267540,1731896267555,1731896267571,1731896267588,1731896267605,1731896267621,1731896267643,1731896267655,1731896267671,1731896267688,1731896267705,1731896267722,1731896267738,1731896267755,1731896267771,1731896267788,1731896267805,1731896267824]","[[1066.6,412.8],[1066.6,412.8],[1075,407.1],[1064,440.4],[1048.3,439.6],[1043.8,456],[1012.4,475.4],[1014.7,476.2],[1008.8,495.9],[997.1,498.1],[963.4,510.1],[963.4,510.1],[983.2,507.3],[998.8,513.5],[1030.8,503.4],[1011.2,504.9],[1022.2,483],[1035.9,459.9],[1039.1,438.9],[1010.8,417.4],[996.6,412.2],[996.1,398.4],[968.2,368.9],[913.2,337],[891.5,305.4],[891.8,292.4],[868.2,268.3],[836.2,243.2],[786.5,229.5],[764.7,200.4],[764.7,200.4],[758.2,165.6],[753.2,137.7],[720.9,106.5],[745.6,163.7],[746.6,223.2],[746.6,223.2],[747.5,275.7],[744.3,336.4],[744.3,336.4],[774.7,407.6],[774.7,407.6],[784.2,452.7],[809.2,524.2],[837.9,595.5],[851.4,668.5],[828.4,742.6],[756.7,729.1],[737.6,723.7],[718.5,718.3],[716.4,730.3],[716.4,730.3],[698.6,707.3],[725.2,711.1],[717.1,703.8],[710.8,697],[704.5,690.2],[766.7,705.5],[812.9,699],[829.9,673.3],[846.9,647.6],[832,615.6],[799.2,608.1],[775.2,590],[766.2,565.6],[766.2,565.6],[786.3,561.1],[786.3,561.1],[816.7,568.5],[767.4,534.1],[743.6,532.2],[710.3,531.4],[710.3,531.4],[634,531.1],[637.2,547.2],[649.8,556.3],[671.5,559.9],[693.2,563.5],[673.3,580.1],[625.5,530.7],[666.2,556.8],[724.7,545.5],[703.5,538.1],[807.5,520.5],[829.7,475.1],[829.7,475.1],[870.3,471.8],[894.9,476.3],[925.5,482.7],[925.5,482.7],[886.2,432.4],[886.2,432.4],[894.3,460.8],[894.3,460.8],[870,431.9],[870,431.9],[834.1,435.3],[834.1,435.3],[895.3,404.9],[895.3,404.9],[847.1,425.7],[847.1,425.7],[894.6,408.5],[904.3,381.8],[895.6,367.1],[894.9,321.4],[980.3,310.8],[980.3,310.8],[1009.4,280.1],[1078.7,282],[1128.1,258.1],[1139.1,275.8],[1171.5,255.1],[1161.8,269.7],[1165.8,272.4],[1195.5,251.4],[1212.8,258.4],[1216.9,262.5],[1256.5,278.2],[1256.5,278.2],[1278.3,265.1],[1298.3,286.5],[1343.1,301.7],[1393.7,313.8],[1451.4,340],[1447.8,399],[1435,478],[1420.6,558.1],[1429.6,632.4],[1428.2,620.5],[1428.9,606.2],[1415.2,626.5],[1403.5,607.3],[1390.9,592.9],[1352.5,597.5],[1352.5,597.5],[1374.9,514.6],[1373.2,467.6],[1373.2,467.6],[1395.8,372.6],[1374.7,290.4],[1379.5,270],[1358.4,268.5],[1368.4,203.3],[1332.8,195.7],[1333,178.9],[1302.7,144.9],[1294.1,136.9],[1280.6,74.9],[1250.9,100.6],[1221.5,96.2],[1234.1,118.1],[1234.1,118.1],[1252.5,132.8],[1252.6,194.7],[1276.5,208.3],[1264.4,259.8],[1264.4,259.8],[1289.5,281.9],[1289.5,281.9],[1292.6,319.4],[1340.6,387.7],[1340.6,387.7],[1366.9,415.3],[1401.9,448.2],[1384.1,469.3],[1384.1,469.3],[1358.1,499.4],[1358.1,499.4],[1360.7,477.2],[1361.9,491.8],[1366,474.8],[1369.5,491.7],[1369.5,491.7],[1348.4,497.2],[1309.8,481.7],[1284.8,467.2],[1286.1,460.8],[1273.7,448.2],[1288.4,408],[1296.7,396.7],[1261,398.3],[1223.5,398],[1179.3,408.1],[1169.3,408.1],[1145.6,435],[1120,457.8],[1092.1,475.9],[1092.1,475.9],[1073.5,469.3],[1043.4,507.8],[1005.8,520.7],[1016.5,543.7],[1016.2,548],[1032.8,542.1],[1028,553.4],[1035.4,530],[1040.5,505.7],[1053.3,484.2],[1053.3,484.2],[1067.9,539.1],[1067.9,539.1],[1073,545.8],[1073.3,572],[1071.3,569.1],[1102.4,581.5],[1094.8,562.1],[1094.8,552.7],[1094.6,568.1],[1096.7,587.5],[1096.7,587.5],[1075.4,617.9],[1075.4,617.9],[1060.9,579.7],[1001.7,546.7],[1001.7,546.7],[980,539.6],[980,539.6],[939.7,544.2],[939.7,544.2],[891.6,546.7],[891.6,546.7],[840.9,569.3],[827.1,561.7],[794.9,566.9],[745,556.5],[778.2,546.2],[721.3,554.7],[721.3,554.7],[724.9,584.5],[724.9,584.5],[762.4,578.5],[799.5,550.6],[811.6,534.5],[875.5,536.9],[894.1,551.1],[935.9,535.4],[1003.6,542.3],[988.7,531],[1056.8,533.8],[1127.6,534.1],[1136.8,548.6],[1131.1,538.3],[1144.6,572.1],[1162.1,557.9],[1143.4,537.8],[1131.4,525.5],[1109,535.3],[1090.2,523.8],[1088.9,495.3],[1093.5,473.7],[1052.2,465.6],[1033.1,476.7],[1043.5,452.5],[1020.5,457.6],[1061.1,488.1],[1081.3,502.4],[1081.3,502.4],[1132,490.3],[1132,490.3],[1196.5,501.5],[1235,521.4],[1249.4,508],[1278.3,493.8],[1340.5,510],[1381.9,512],[1402.5,540.9],[1392.8,567.1],[1419.9,642.7],[1420.6,716.6],[1444.3,734.7],[1426.1,743],[1423.4,780.2],[1452.4,791.9],[1469.1,788.2],[1494,768.1],[1539.7,721.1],[1579.5,663.3],[1574.4,585.7],[1574.4,585.7],[1595.3,506.3],[1595.3,506.3],[1583,494.9],[1591.2,488],[1599.4,481.1],[1599.4,481.1],[1595.2,479.8],[1604,476.8],[1574.3,504.8],[1539.6,502.9],[1512.5,526],[1512.6,543],[1509.7,576.2],[1521.8,559.7],[1567.7,564.1],[1557.5,546],[1538.1,545],[1487.8,540.5],[1438.2,523],[1441.2,524.7],[1459.6,515.9],[1477.7,477.2],[1472.2,448.5],[1433.2,433.8],[1360.1,422],[1345.5,429.5],[1344.1,407.1],[1362.9,396],[1371.1,384.6],[1356.7,377.4],[1317,400.1],[1300,427.9],[1266.5,443.9],[1267.1,497.7],[1273.4,570.3],[1255.9,641.9],[1271.4,685.4],[1273.3,684.6],[1299.6,730.8],[1317.1,785.2],[1334.1,772.3],[1324.9,772.7],[1334.4,764.3],[1338.5,747.7],[1338.5,747.7],[1327,664.5],[1337.1,612.8],[1303.3,561.3],[1293,550.2],[1285.4,530.4],[1285.4,530.4],[1262.3,502.6],[1262.3,502.6],[1256.1,500.5],[1228.5,478.6],[1228.5,478.6],[1214.3,464.9],[1214.3,464.9],[1188,451.1],[1188,451.1],[1195.4,459.2],[1193,426.3],[1207.5,438],[1210.3,478.3],[1201.7,452.6],[1210.5,460.6],[1213.2,467.7],[1240.8,488.6],[1259,496.6],[1263.4,511.5],[1252.7,514.5],[1256.5,521.4],[1270.2,536.5],[1282.9,525],[1282.9,525],[1292.6,533],[1258.3,528.3],[1228.7,523.6],[1184.5,518],[1143.4,518.3],[1143.4,518.3],[1125.5,519.6],[1129.1,536.8],[1129.1,536.8],[1089.5,541.9],[1050,552.4],[990.1,535],[990.1,535],[999.5,522.6],[1028.8,529.4],[1052.5,529.3],[1084,540],[1084,540],[1103.5,534.5],[1136.2,507.1],[1165.8,492.7],[1241.3,500.7],[1301,484.2],[1383.5,493],[1359.3,500.4],[1350.4,474.1],[1354,458],[1354.5,455.1],[1360.1,441.6],[1339.4,431.6],[1303.1,419.1],[1274.2,392.9],[1237.6,380.8],[1202.5,386.5],[1202.5,386.5],[1216.8,397.5],[1225,384.5],[1236.5,383.5],[1251.5,376.5],[1253.9,408.1],[1275.7,411.4],[1292.2,418.9],[1321.3,439.5],[1335.3,463.4],[1335.3,463.4],[1349.8,451.1],[1349.8,451.1],[1353.8,445.1],[1336.2,480.2],[1314.2,504.4],[1292,522.3],[1291.9,505.1],[1275.7,525.8],[1270.6,538],[1237.9,550.3],[1206.6,528],[1206.6,528],[1187.5,524.1],[1172.4,512.4],[1190.6,475.6],[1190.6,475.6],[1198.5,443.2],[1197.2,430.4],[1208.5,412.3],[1208.9,409.8],[1213.2,376.8],[1212.7,363.4],[1234.7,363.2],[1234.7,363.2],[1235.1,368],[1211.2,430.8],[1154,500.4],[1134.4,574.3],[1131.9,626.3],[1131.9,626.3],[1107.7,634.1],[1107.4,649.2],[1092.4,706.5],[1092.4,706.5],[1087.2,718.6],[1090.1,723.9],[1103.5,714.8],[1103.5,714.8],[1141.4,640.9],[1207.1,562.2],[1238.5,508],[1267.9,444.1],[1296.3,435],[1277.1,432.3],[1285.5,347.4],[1309.2,322.5],[1305.6,314.7],[1292.5,330.5],[1288.7,336.2],[1288.7,336.2],[1274.5,350.4],[1269.7,334.9],[1269.7,334.9],[1263.7,311.9],[1263.7,311.9],[1254.2,317.7],[1254.2,317.7],[1270.5,284],[1270.5,284],[1274.7,308.5],[1274.7,308.5],[1252.9,311.8],[1270.4,319.3]]","[-0.2,0.6000000000000001]","[0.2,0.6000000000000001]","[0.6000000000000001,0.6000000000000001]","[-0.6000000000000001,-0.6000000000000001]","[-0.6000000000000001,-0.2]","[-0.6000000000000001,0.2]","[-0.2,-0.6000000000000001]","[0.2,-0.6000000000000001]","[0.6000000000000001,-0.6000000000000001]","[-0.2,-0.2]","[0.2,-0.2]","[0.6000000000000001,-0.2]","[-0.2,0.2]","[0.2,0.2]","[0.6000000000000001,0.2]",0,0,0,0,1,4,Monitor,25,20,8,1,60,4,1,60,3
