inst1_resp.keys,inst1_resp.rt,calibrationMouse.x,calibrationMouse.y,calibrationMouse.leftButton,calibrationMouse.midButton,calibrationMouse.rightButton,calibrationClick.x,calibrationClick.y,calibrationClick.leftButton,calibrationClick.midButton,calibrationClick.rightButton,calibrationClick.clicked_name,trialsc.thisRepN,trialsc.thisTrialN,trialsc.thisN,trialsc.thisIndex,trialsc.ran,calibration_x,calibration_y,participant,session,date,expName,psychopyVersion,OS,frameRate,ScreenRes_pixels,mouse_2.x,mouse_2.y,mouse_2.leftButton,mouse_2.midButton,mouse_2.rightButton,mouse_2.time,mouse_2.clicked_name,Camera_pixels,mouse.x,mouse.y,mouse.leftButton,mouse.midButton,mouse.rightButton,mouse.time,mouse.clicked_name,Choice,Trial,TrialDuration,MOUSE_GAZE,ET_GAZE,ET_GAZE_x_T,time,unixTime,ET_GAZE_NF,Loc_Bus_label,Loc_Metro_label,Loc_RH_label,Loc_Cost_label,Loc_Travel_label,Loc_Comfort_label,Loc_Bus_cost,Loc_Metro_cost,Loc_RH_cost,Loc_Bus_travel,Loc_Metro_travel,Loc_RH_travel,Loc_Bus_comfort,Loc_Metro_comfort,Loc_RH_comfort,trials.thisRepN,trials.thisTrialN,trials.thisN,trials.thisIndex,trials.ran,Block,Device,RH_cost,RH_travel_time,RH_Comfort,metro_cost,metro_travel_time,metro_Comfort,Bus_cost,Bus_travel_time,Bus_Comfort
space,2.4843,0.317708333,-0.138888889,1,0,0,0.338541667,0.677777778,1,0,0,calibration_square,0,0,0,18,1,0.33,0.67,34,001,2024-11-20_10h57.38.926,Attention_exp_legacy,2023.1.0,Win32,59.88023952,,,,,,,,,,,,,,,,,,,,,,,,,,,,,,,,,,,,,,,,,,,,,,,,,,,,,,,,
,,,,,,,0.338541667,0.324074074,1,0,0,calibration_square,0,1,1,17,1,0.33,0.33,34,001,2024-11-20_10h57.38.926,Attention_exp_legacy,2023.1.0,Win32,59.88023952,,,,,,,,,,,,,,,,,,,,,,,,,,,,,,,,,,,,,,,,,,,,,,,,,,,,,,,,
,,,,,,,-0.333333333,0.340740741,1,0,0,,0,2,2,7,1,-0.33,0.33,34,001,2024-11-20_10h57.38.926,Attention_exp_legacy,2023.1.0,Win32,59.88023952,,,,,,,,,,,,,,,,,,,,,,,,,,,,,,,,,,,,,,,,,,,,,,,,,,,,,,,,
,,,,,,,-0.667708333,-0.003703704,1,0,0,calibration_square,0,3,3,2,1,-0.67,0,34,001,2024-11-20_10h57.38.926,Attention_exp_legacy,2023.1.0,Win32,59.88023952,,,,,,,,,,,,,,,,,,,,,,,,,,,,,,,,,,,,,,,,,,,,,,,,,,,,,,,,
,,,,,,,0.667708333,-0.67962963,1,0,0,calibration_square,0,4,4,20,1,0.67,-0.67,34,001,2024-11-20_10h57.38.926,Attention_exp_legacy,2023.1.0,Win32,59.88023952,,,,,,,,,,,,,,,,,,,,,,,,,,,,,,,,,,,,,,,,,,,,,,,,,,,,,,,,
,,,,,,,-0.330208333,-0.327777778,1,0,0,calibration_square,0,5,5,5,1,-0.33,-0.33,34,001,2024-11-20_10h57.38.926,Attention_exp_legacy,2023.1.0,Win32,59.88023952,,,,,,,,,,,,,,,,,,,,,,,,,,,,,,,,,,,,,,,,,,,,,,,,,,,,,,,,
,,,,,,,0.322916667,-0.690740741,1,0,0,,0,6,6,14,1,0.33,-0.67,34,001,2024-11-20_10h57.38.926,Attention_exp_legacy,2023.1.0,Win32,59.88023952,,,,,,,,,,,,,,,,,,,,,,,,,,,,,,,,,,,,,,,,,,,,,,,,,,,,,,,,
,,,,,,,-0.333333333,-0.644444444,1,0,0,,0,7,7,4,1,-0.33,-0.67,34,001,2024-11-20_10h57.38.926,Attention_exp_legacy,2023.1.0,Win32,59.88023952,,,,,,,,,,,,,,,,,,,,,,,,,,,,,,,,,,,,,,,,,,,,,,,,,,,,,,,,
,,,,,,,0,0.005555556,1,0,0,calibration_square,0,8,8,11,1,0,0,34,001,2024-11-20_10h57.38.926,Attention_exp_legacy,2023.1.0,Win32,59.88023952,,,,,,,,,,,,,,,,,,,,,,,,,,,,,,,,,,,,,,,,,,,,,,,,,,,,,,,,
,,,,,,,-0.65,-0.327777778,1,0,0,,0,9,9,1,1,-0.67,-0.33,34,001,2024-11-20_10h57.38.926,Attention_exp_legacy,2023.1.0,Win32,59.88023952,,,,,,,,,,,,,,,,,,,,,,,,,,,,,,,,,,,,,,,,,,,,,,,,,,,,,,,,
,,,,,,,-0.008333333,-0.324074074,1,0,0,calibration_square,0,10,10,10,1,0,-0.33,34,001,2024-11-20_10h57.38.926,Attention_exp_legacy,2023.1.0,Win32,59.88023952,,,,,,,,,,,,,,,,,,,,,,,,,,,,,,,,,,,,,,,,,,,,,,,,,,,,,,,,
,,,,,,,0.653125,0.662962963,1,0,0,,0,11,11,19,1,0.67,0.67,34,001,2024-11-20_10h57.38.926,Attention_exp_legacy,2023.1.0,Win32,59.88023952,,,,,,,,,,,,,,,,,,,,,,,,,,,,,,,,,,,,,,,,,,,,,,,,,,,,,,,,
,,,,,,,0.326041667,0.003703704,1,0,0,calibration_square,0,12,12,16,1,0.33,0,34,001,2024-11-20_10h57.38.926,Attention_exp_legacy,2023.1.0,Win32,59.88023952,,,,,,,,,,,,,,,,,,,,,,,,,,,,,,,,,,,,,,,,,,,,,,,,,,,,,,,,
,,,,,,,0.319791667,-0.344444444,1,0,0,,0,13,13,15,1,0.33,-0.33,34,001,2024-11-20_10h57.38.926,Attention_exp_legacy,2023.1.0,Win32,59.88023952,,,,,,,,,,,,,,,,,,,,,,,,,,,,,,,,,,,,,,,,,,,,,,,,,,,,,,,,
,,,,,,,-0.327083333,0.681481481,1,0,0,,0,14,14,8,1,-0.33,0.67,34,001,2024-11-20_10h57.38.926,Attention_exp_legacy,2023.1.0,Win32,59.88023952,,,,,,,,,,,,,,,,,,,,,,,,,,,,,,,,,,,,,,,,,,,,,,,,,,,,,,,,
,,,,,,,-0.660416667,-0.674074074,1,0,0,calibration_square,0,15,15,0,1,-0.67,-0.67,34,001,2024-11-20_10h57.38.926,Attention_exp_legacy,2023.1.0,Win32,59.88023952,,,,,,,,,,,,,,,,,,,,,,,,,,,,,,,,,,,,,,,,,,,,,,,,,,,,,,,,
,,,,,,,-0.0125,0.346296296,1,0,0,,0,16,16,12,1,0,0.33,34,001,2024-11-20_10h57.38.926,Attention_exp_legacy,2023.1.0,Win32,59.88023952,,,,,,,,,,,,,,,,,,,,,,,,,,,,,,,,,,,,,,,,,,,,,,,,,,,,,,,,
,,,,,,,-0.007291667,-0.640740741,1,0,0,,0,17,17,9,1,0,-0.67,34,001,2024-11-20_10h57.38.926,Attention_exp_legacy,2023.1.0,Win32,59.88023952,,,,,,,,,,,,,,,,,,,,,,,,,,,,,,,,,,,,,,,,,,,,,,,,,,,,,,,,
,,,,,,,-0.005208333,0.659259259,1,0,0,,0,18,18,13,1,0,0.67,34,001,2024-11-20_10h57.38.926,Attention_exp_legacy,2023.1.0,Win32,59.88023952,,,,,,,,,,,,,,,,,,,,,,,,,,,,,,,,,,,,,,,,,,,,,,,,,,,,,,,,
,,,,,,,-0.66875,0.318518519,1,0,0,,0,19,19,3,1,-0.67,0.33,34,001,2024-11-20_10h57.38.926,Attention_exp_legacy,2023.1.0,Win32,59.88023952,,,,,,,,,,,,,,,,,,,,,,,,,,,,,,,,,,,,,,,,,,,,,,,,,,,,,,,,
,,,,,,,-0.3125,-0.007407407,1,0,0,,0,20,20,6,1,-0.33,0,34,001,2024-11-20_10h57.38.926,Attention_exp_legacy,2023.1.0,Win32,59.88023952,,,,,,,,,,,,,,,,,,,,,,,,,,,,,,,,,,,,,,,,,,,,,,,,,,,,,,,,
,,,,,,,,,,,,,,,,,,,,34,001,2024-11-20_10h57.38.926,Attention_exp_legacy,2023.1.0,Win32,59.88023952,"[1920,1080]",[-0.06458333333333334],[-0.49074074074074076],[1],[0],[0],[0.8471999998092627],"[""StartButton""]","[640,480]",[0.41770833333333335],[0.3537037037037037],[1],[0],[0],[6.002499999999998],"[""RH_label""]",RH_label,1,7.0149,"[[-0.004166666666666667,-0.3814814814814815],[-0.0125,-0.37592592592592594],[-0.016666666666666666,-0.37592592592592594],[-0.023958333333333335,-0.37592592592592594],[-0.029166666666666667,-0.37592592592592594],[-0.029166666666666667,-0.37592592592592594],[-0.029166666666666667,-0.37592592592592594],[-0.029166666666666667,-0.37592592592592594],[-0.029166666666666667,-0.37592592592592594],[-0.029166666666666667,-0.37592592592592594],[-0.029166666666666667,-0.37592592592592594],[-0.029166666666666667,-0.37592592592592594],[-0.029166666666666667,-0.37592592592592594],[-0.029166666666666667,-0.37592592592592594],[-0.029166666666666667,-0.37592592592592594],[-0.029166666666666667,-0.37592592592592594],[-0.029166666666666667,-0.37592592592592594],[-0.029166666666666667,-0.37592592592592594],[-0.029166666666666667,-0.37592592592592594],[-0.029166666666666667,-0.37592592592592594],[-0.029166666666666667,-0.37592592592592594],[-0.029166666666666667,-0.37592592592592594],[-0.029166666666666667,-0.37592592592592594],[-0.029166666666666667,-0.37592592592592594],[-0.028125,-0.37592592592592594],[-0.028125,-0.37592592592592594],[-0.027083333333333334,-0.37592592592592594],[-0.027083333333333334,-0.37592592592592594],[-0.025,-0.37592592592592594],[-0.025,-0.37592592592592594],[-0.025,-0.37592592592592594],[-0.025,-0.37592592592592594],[-0.025,-0.37592592592592594],[-0.025,-0.37592592592592594],[-0.025,-0.37592592592592594],[-0.025,-0.37592592592592594],[-0.025,-0.37592592592592594],[-0.025,-0.37592592592592594],[-0.025,-0.37592592592592594],[-0.025,-0.37592592592592594],[-0.027083333333333334,-0.37592592592592594],[-0.027083333333333334,-0.37592592592592594],[-0.028125,-0.37592592592592594],[-0.028125,-0.37592592592592594],[-0.028125,-0.37592592592592594],[-0.028125,-0.37592592592592594],[-0.028125,-0.37592592592592594],[-0.028125,-0.37592592592592594],[-0.028125,-0.37592592592592594],[-0.028125,-0.37592592592592594],[-0.028125,-0.37592592592592594],[-0.028125,-0.37592592592592594],[-0.028125,-0.37592592592592594],[-0.028125,-0.37592592592592594],[-0.028125,-0.37592592592592594],[-0.028125,-0.37592592592592594],[-0.028125,-0.37592592592592594],[-0.028125,-0.37592592592592594],[-0.028125,-0.37592592592592594],[-0.028125,-0.37592592592592594],[-0.028125,-0.37592592592592594],[-0.028125,-0.37592592592592594],[-0.028125,-0.37592592592592594],[-0.028125,-0.37592592592592594],[-0.028125,-0.37592592592592594],[-0.028125,-0.37592592592592594],[-0.028125,-0.37592592592592594],[-0.028125,-0.37592592592592594],[-0.028125,-0.37592592592592594],[-0.028125,-0.37592592592592594],[-0.028125,-0.37592592592592594],[-0.028125,-0.37592592592592594],[-0.028125,-0.37592592592592594],[-0.028125,-0.37592592592592594],[-0.028125,-0.37592592592592594],[-0.028125,-0.37592592592592594],[-0.028125,-0.37592592592592594],[-0.028125,-0.37592592592592594],[-0.028125,-0.37592592592592594],[-0.028125,-0.37592592592592594],[-0.028125,-0.37592592592592594],[-0.028125,-0.37592592592592594],[-0.027083333333333334,-0.37592592592592594],[-0.026041666666666668,-0.37592592592592594],[-0.025,-0.37592592592592594],[-0.025,-0.37592592592592594],[-0.025,-0.37592592592592594],[-0.025,-0.37592592592592594],[-0.023958333333333335,-0.37592592592592594],[-0.023958333333333335,-0.37592592592592594],[-0.023958333333333335,-0.37592592592592594],[-0.023958333333333335,-0.37592592592592594],[-0.023958333333333335,-0.37592592592592594],[-0.023958333333333335,-0.37592592592592594],[-0.023958333333333335,-0.37592592592592594],[-0.023958333333333335,-0.37592592592592594],[-0.023958333333333335,-0.37592592592592594],[-0.023958333333333335,-0.37592592592592594],[-0.025,-0.37592592592592594],[-0.025,-0.37592592592592594],[-0.025,-0.37592592592592594],[-0.025,-0.37592592592592594],[-0.025,-0.37592592592592594],[-0.025,-0.37592592592592594],[-0.025,-0.37592592592592594],[-0.025,-0.37592592592592594],[-0.025,-0.37592592592592594],[-0.025,-0.37592592592592594],[-0.025,-0.37592592592592594],[-0.025,-0.37592592592592594],[-0.025,-0.37592592592592594],[-0.025,-0.37592592592592594],[-0.025,-0.37592592592592594],[-0.025,-0.37592592592592594],[-0.025,-0.37592592592592594],[-0.025,-0.37592592592592594],[-0.025,-0.37592592592592594],[-0.025,-0.37592592592592594],[-0.025,-0.37592592592592594],[-0.025,-0.37222222222222223],[-0.025,-0.37037037037037035],[-0.025,-0.3685185185185185],[-0.025,-0.3685185185185185],[-0.025,-0.3685185185185185],[-0.025,-0.3685185185185185],[-0.025,-0.3685185185185185],[-0.025,-0.3685185185185185],[-0.025,-0.3685185185185185],[-0.025,-0.3648148148148148],[-0.023958333333333335,-0.3611111111111111],[-0.023958333333333335,-0.3611111111111111],[-0.023958333333333335,-0.3611111111111111],[-0.023958333333333335,-0.3611111111111111],[-0.023958333333333335,-0.3611111111111111],[-0.023958333333333335,-0.3611111111111111],[-0.023958333333333335,-0.3611111111111111],[-0.023958333333333335,-0.3611111111111111],[-0.023958333333333335,-0.3611111111111111],[-0.023958333333333335,-0.3611111111111111],[-0.023958333333333335,-0.3611111111111111],[-0.023958333333333335,-0.3592592592592593],[-0.023958333333333335,-0.3537037037037037],[-0.023958333333333335,-0.34814814814814815],[-0.023958333333333335,-0.34444444444444444],[-0.023958333333333335,-0.34074074074074073],[-0.023958333333333335,-0.3388888888888889],[-0.025,-0.337037037037037],[-0.025,-0.337037037037037],[-0.025,-0.337037037037037],[-0.025,-0.337037037037037],[-0.025,-0.337037037037037],[-0.025,-0.337037037037037],[-0.025,-0.337037037037037],[-0.025,-0.337037037037037],[-0.025,-0.337037037037037],[-0.025,-0.337037037037037],[-0.025,-0.337037037037037],[-0.025,-0.337037037037037],[-0.025,-0.337037037037037],[-0.025,-0.337037037037037],[-0.025,-0.337037037037037],[-0.025,-0.337037037037037],[-0.025,-0.337037037037037],[-0.025,-0.337037037037037],[-0.025,-0.337037037037037],[-0.025,-0.337037037037037],[-0.025,-0.337037037037037],[-0.025,-0.337037037037037],[-0.025,-0.337037037037037],[-0.025,-0.337037037037037],[-0.025,-0.337037037037037],[-0.025,-0.337037037037037],[-0.025,-0.337037037037037],[-0.025,-0.337037037037037],[-0.025,-0.337037037037037],[-0.025,-0.337037037037037],[-0.025,-0.337037037037037],[-0.025,-0.337037037037037],[-0.025,-0.337037037037037],[-0.025,-0.337037037037037],[-0.025,-0.337037037037037],[-0.025,-0.337037037037037],[-0.025,-0.337037037037037],[-0.025,-0.337037037037037],[-0.025,-0.337037037037037],[-0.025,-0.337037037037037],[-0.025,-0.337037037037037],[-0.025,-0.337037037037037],[-0.025,-0.337037037037037],[-0.025,-0.337037037037037],[-0.025,-0.337037037037037],[-0.025,-0.3333333333333333],[-0.025,-0.3314814814814815],[-0.025,-0.3296296296296296],[-0.025,-0.3277777777777778],[-0.025,-0.32592592592592595],[-0.025,-0.32592592592592595],[-0.025,-0.32407407407407407],[-0.025,-0.32407407407407407],[-0.025,-0.32407407407407407],[-0.025,-0.32407407407407407],[-0.025,-0.32407407407407407],[-0.025,-0.32407407407407407],[-0.025,-0.32407407407407407],[-0.025,-0.32407407407407407],[-0.025,-0.32407407407407407],[-0.025,-0.32407407407407407],[-0.025,-0.32407407407407407],[-0.025,-0.32407407407407407],[-0.025,-0.32407407407407407],[-0.025,-0.32407407407407407],[-0.025,-0.32407407407407407],[-0.025,-0.32407407407407407],[-0.025,-0.32407407407407407],[-0.025,-0.32407407407407407],[-0.025,-0.32407407407407407],[-0.025,-0.32407407407407407],[-0.025,-0.32407407407407407],[-0.025,-0.32407407407407407],[-0.025,-0.32407407407407407],[-0.025,-0.32407407407407407],[-0.025,-0.32407407407407407],[-0.025,-0.32407407407407407],[-0.025,-0.32407407407407407],[-0.025,-0.32407407407407407],[-0.025,-0.32407407407407407],[-0.025,-0.32407407407407407],[-0.025,-0.32407407407407407],[-0.025,-0.32407407407407407],[-0.025,-0.32407407407407407],[-0.025,-0.32407407407407407],[-0.025,-0.32407407407407407],[-0.025,-0.32407407407407407],[-0.025,-0.32407407407407407],[-0.025,-0.32407407407407407],[-0.025,-0.32407407407407407],[-0.025,-0.32407407407407407],[-0.025,-0.32407407407407407],[-0.025,-0.32407407407407407],[-0.025,-0.32407407407407407],[-0.025,-0.32407407407407407],[-0.025,-0.32407407407407407],[-0.025,-0.32407407407407407],[-0.025,-0.32407407407407407],[-0.025,-0.32407407407407407],[-0.025,-0.32222222222222224],[-0.025,-0.32222222222222224],[-0.025,-0.32222222222222224],[-0.025,-0.32222222222222224],[-0.025,-0.32222222222222224],[-0.025,-0.32222222222222224],[-0.025,-0.32222222222222224],[-0.025,-0.32222222222222224],[-0.025,-0.32222222222222224],[-0.025,-0.32222222222222224],[-0.025,-0.32222222222222224],[-0.025,-0.32222222222222224],[-0.025,-0.32222222222222224],[-0.025,-0.32222222222222224],[-0.025,-0.32222222222222224],[-0.025,-0.32222222222222224],[-0.025,-0.32222222222222224],[-0.025,-0.32222222222222224],[-0.025,-0.32222222222222224],[-0.025,-0.32222222222222224],[-0.025,-0.32222222222222224],[-0.025,-0.32222222222222224],[-0.022916666666666665,-0.3333333333333333],[-0.022916666666666665,-0.3333333333333333],[-0.022916666666666665,-0.3333333333333333],[-0.019791666666666666,-0.32592592592592595],[-0.017708333333333333,-0.34074074074074073],[-0.016666666666666666,-0.34074074074074073],[-0.010416666666666666,-0.3425925925925926],[-0.0020833333333333333,-0.35555555555555557],[-0.0020833333333333333,-0.37037037037037035],[0,-0.37037037037037035],[0.00625,-0.3814814814814815],[0.0020833333333333333,-0.3814814814814815],[0.004166666666666667,-0.37222222222222223],[0.0020833333333333333,-0.37222222222222223],[0.0125,-0.37962962962962965],[0.011458333333333333,-0.37962962962962965],[0.009375,-0.37962962962962965],[0.04375,-0.37222222222222223],[0.04791666666666667,-0.3648148148148148],[0.042708333333333334,-0.3574074074074074],[0.042708333333333334,-0.3574074074074074],[0.042708333333333334,-0.3574074074074074],[0.042708333333333334,-0.3574074074074074],[0.042708333333333334,-0.3574074074074074],[0.042708333333333334,-0.3574074074074074],[0.042708333333333334,-0.3574074074074074],[0.042708333333333334,-0.3574074074074074],[0.042708333333333334,-0.3574074074074074],[0.042708333333333334,-0.3574074074074074],[0.042708333333333334,-0.3574074074074074],[0.042708333333333334,-0.3574074074074074],[0.042708333333333334,-0.3537037037037037],[0.042708333333333334,-0.3537037037037037],[0.042708333333333334,-0.35185185185185186],[0.042708333333333334,-0.34814814814814815],[0.04375,-0.34629629629629627],[0.04479166666666667,-0.3425925925925926],[0.04479166666666667,-0.3425925925925926],[0.04583333333333333,-0.34074074074074073],[0.046875,-0.337037037037037],[0.046875,-0.337037037037037],[0.046875,-0.3351851851851852],[0.046875,-0.3351851851851852],[0.04791666666666667,-0.3351851851851852],[0.04895833333333333,-0.3296296296296296],[0.05,-0.32592592592592595],[0.053125,-0.31851851851851853],[0.05625,-0.31296296296296294],[0.0625,-0.3037037037037037],[0.06979166666666667,-0.2962962962962963],[0.09375,-0.2722222222222222],[0.16458333333333333,-0.2037037037037037],[0.19166666666666668,-0.18333333333333332],[0.2635416666666667,-0.1111111111111111],[0.2989583333333333,-0.07222222222222222],[0.32916666666666666,-0.03333333333333333],[0.353125,-0.001851851851851852],[0.3729166666666667,0.03333333333333333],[0.3875,0.06111111111111111],[0.39791666666666664,0.09074074074074075],[0.40520833333333334,0.11481481481481481],[0.41041666666666665,0.13148148148148148],[0.41458333333333336,0.14814814814814814],[0.41875,0.1685185185185185],[0.42083333333333334,0.17962962962962964],[0.4270833333333333,0.20555555555555555],[0.43020833333333336,0.22407407407407406],[0.43333333333333335,0.24444444444444444],[0.434375,0.2611111111111111],[0.434375,0.27037037037037037],[0.434375,0.2759259259259259],[0.43333333333333335,0.2833333333333333],[0.43125,0.29814814814814816],[0.42916666666666664,0.3037037037037037],[0.428125,0.30925925925925923],[0.425,0.31851851851851853],[0.4239583333333333,0.3277777777777778],[0.421875,0.3314814814814815],[0.421875,0.3333333333333333],[0.42083333333333334,0.337037037037037],[0.42083333333333334,0.337037037037037],[0.42083333333333334,0.3388888888888889],[0.42083333333333334,0.34074074074074073],[0.41875,0.34629629629629627],[0.41875,0.34814814814814815],[0.41875,0.35185185185185186],[0.41875,0.3537037037037037],[0.41770833333333335,0.3537037037037037],[0.41770833333333335,0.3537037037037037],[0.41770833333333335,0.3537037037037037],[0.41770833333333335,0.3537037037037037],[0.41770833333333335,0.3537037037037037],[0.41770833333333335,0.3537037037037037],[0.41770833333333335,0.3537037037037037],[0.41770833333333335,0.3537037037037037],[0.41770833333333335,0.3537037037037037],[0.41770833333333335,0.3537037037037037],[0.41770833333333335,0.3537037037037037],[0.41770833333333335,0.3537037037037037],[0.41770833333333335,0.3537037037037037],[0.41770833333333335,0.3537037037037037],[0.41770833333333335,0.3537037037037037],[0.41770833333333335,0.3537037037037037],[0.41770833333333335,0.3537037037037037],[0.41770833333333335,0.3537037037037037],[0.41770833333333335,0.3592592592592593],[0.41770833333333335,0.3648148148148148],[0.41770833333333335,0.3685185185185185],[0.41770833333333335,0.37407407407407406],[0.41770833333333335,0.37592592592592594],[0.41770833333333335,0.37777777777777777],[0.41770833333333335,0.37962962962962965],[0.41770833333333335,0.37962962962962965],[0.41770833333333335,0.37962962962962965],[0.41770833333333335,0.37962962962962965],[0.41770833333333335,0.37962962962962965],[0.41770833333333335,0.37962962962962965],[0.41770833333333335,0.37962962962962965],[0.41770833333333335,0.37962962962962965],[0.41770833333333335,0.37962962962962965],[0.41770833333333335,0.37962962962962965],[0.41770833333333335,0.37962962962962965],[0.41770833333333335,0.37962962962962965],[0.41770833333333335,0.37962962962962965],[0.41770833333333335,0.37962962962962965],[0.41770833333333335,0.37962962962962965],[0.41770833333333335,0.37962962962962965],[0.41770833333333335,0.37962962962962965],[0.41770833333333335,0.37962962962962965],[0.41770833333333335,0.37962962962962965],[0.41770833333333335,0.37962962962962965],[0.41770833333333335,0.37962962962962965],[0.41770833333333335,0.37962962962962965],[0.41770833333333335,0.37962962962962965],[0.41770833333333335,0.37962962962962965],[0.41770833333333335,0.37962962962962965],[0.41770833333333335,0.37962962962962965],[0.41770833333333335,0.37962962962962965],[0.41770833333333335,0.37962962962962965],[0.415625,0.37962962962962965],[0.41354166666666664,0.37962962962962965],[0.4125,0.37777777777777777],[0.4125,0.37777777777777777],[0.4125,0.37777777777777777],[0.4125,0.37777777777777777],[0.4125,0.37777777777777777],[0.4125,0.37777777777777777],[0.4125,0.37777777777777777],[0.4114583333333333,0.37592592592592594],[0.41041666666666665,0.37222222222222223],[0.409375,0.3685185185185185],[0.409375,0.3685185185185185],[0.409375,0.36666666666666664]]","[[0.04583333333333333,-0.058333333333333334],[0.04583333333333333,-0.058333333333333334],[0.05489583333333338,-0.07037037037037037],[0.057395833333333354,-0.0653703703703704],[0.05354166666666664,-0.043703703703703745],[0.05354166666666664,-0.043703703703703745],[0.052083333333333336,-0.022037037037036994],[0.0546875,0.09314814814814806],[0.04645833333333336,0.17888888888888893],[0.03093750000000005,0.25555555555555554],[0.033958333333333354,0.285],[0.035000000000000024,0.30907407407407406],[0.030312500000000023,0.3274074074074073],[0.0125,0.37166666666666676],[0.008541666666666715,0.4287037037037037],[0.0109375,0.4729629629629629],[0.010625000000000048,0.49240740740740735],[0.004999999999999952,0.44314814814814807],[0.007500000000000047,0.4192592592592592],[0.007500000000000047,0.4192592592592592],[0.014479166666666644,0.3942592592592592],[0.005833333333333357,0.40018518518518525],[-0.000833333333333286,0.41148148148148156],[0.0034374999999999527,0.4081481481481481],[0.007708333333333309,0.40481481481481485],[-0.01875,0.3905555555555555],[-0.04520833333333331,0.3762962962962964],[-0.06708333333333331,0.37759259259259254],[-0.07989583333333337,0.3625925925925925],[-0.11343749999999998,0.3405555555555555],[-0.1469791666666667,0.31851851851851853],[-0.16760416666666664,0.27148148148148155],[-0.18677083333333327,0.22092592592592583],[-0.18677083333333327,0.22092592592592583],[-0.21302083333333333,0.19666666666666674],[-0.23333333333333334,0.1668518518518519],[-0.2476041666666667,0.18944444444444436],[-0.26187499999999997,0.21203703703703702],[-0.26187499999999997,0.21203703703703702],[-0.27291666666666664,0.222037037037037],[-0.28458333333333335,0.2485185185185186],[-0.2608333333333333,0.2551851851851851],[-0.24291666666666673,0.2646296296296296],[-0.22250000000000003,0.2796296296296296],[-0.19958333333333336,0.2631481481481482],[-0.19958333333333336,0.2631481481481482],[-0.17145833333333335,0.22611111111111115],[-0.17145833333333335,0.22611111111111115],[-0.1508333333333333,0.22666666666666663],[-0.1508333333333333,0.22666666666666663],[-0.1310416666666666,0.17018518518518513],[-0.1310416666666666,0.17018518518518513],[-0.10677083333333333,0.09148148148148144],[-0.10677083333333333,0.09148148148148144],[-0.07447916666666667,0.049074074074074076],[-0.07447916666666667,0.049074074074074076],[-0.04614583333333329,0.02388888888888885],[-0.026041666666666668,-0.008888888888888804],[-0.026041666666666668,-0.008888888888888804],[-0.0067708333333333336,-0.04203703703703712],[-0.0067708333333333336,-0.04203703703703712],[0.020729166666666642,-0.09592592592592594],[0.050416666666666644,-0.1361111111111111],[0.07489583333333343,-0.16500000000000004],[0.09979166666666663,-0.18462962962962962],[0.13739583333333344,-0.19888888888888884],[0.16708333333333342,-0.21055555555555552],[0.1853125000000001,-0.24888888888888885],[0.2109375,-0.3007407407407407],[0.22239583333333332,-0.3403703703703704],[0.24052083333333343,-0.3824074074074074],[0.2557291666666667,-0.3905555555555555],[0.2647916666666667,-0.3774074074074074],[0.2765625,-0.36018518518518516],[0.29354166666666665,-0.37962962962962965],[0.30281250000000004,-0.3890740740740741],[0.3155208333333334,-0.37888888888888894],[0.3316666666666668,-0.3427777777777778],[0.3336458333333333,-0.32981481481481484],[0.3388541666666666,-0.28888888888888886],[0.3388541666666666,-0.28888888888888886],[0.3494791666666667,-0.2844444444444445],[0.35958333333333337,-0.2542592592592593],[0.35958333333333337,-0.2542592592592593],[0.3507291666666667,-0.21092592592592588],[0.3251041666666666,-0.20425925925925928],[0.29541666666666655,-0.2022222222222222],[0.2865624999999999,-0.21574074074074073],[0.2660416666666668,-0.23296296296296298],[0.2660416666666668,-0.23296296296296298],[0.2283333333333334,-0.19870370370370372],[0.2068749999999999,-0.14148148148148143],[0.2068749999999999,-0.14148148148148143],[0.17020833333333343,-0.13333333333333333],[0.128125,-0.08870370370370366],[0.07854166666666676,-0.10740740740740741],[0.04874999999999995,-0.11944444444444445],[0.04874999999999995,-0.11944444444444445],[0.035520833333333356,-0.10425925925925927],[0.020624999999999952,-0.0992592592592593],[-0.007395833333333357,-0.08870370370370366],[-0.007395833333333357,-0.08870370370370366],[-0.035520833333333356,-0.06981481481481479],[-0.05947916666666669,-0.13296296296296298],[-0.10208333333333333,-0.16203703703703703],[-0.12760416666666666,-0.17907407407407405],[-0.12760416666666666,-0.17907407407407405],[-0.153125,-0.19611111111111107],[-0.19104166666666664,-0.16777777777777783],[-0.23312499999999994,-0.1633333333333333],[-0.2727083333333333,-0.1522222222222222],[-0.2727083333333333,-0.1522222222222222],[-0.31062500000000004,-0.13092592592592592],[-0.3311458333333333,-0.03129629629629625],[-0.34312499999999996,0.2264814814814814],[-0.3455208333333334,0.4888888888888889],[-0.34697916666666667,0.7335185185185186],[-0.3540625,0.9879629629629629],[-0.3611458333333334,1.2424074074074076],[-0.3623958333333333,1.4796296296296296],[-0.3233333333333333,1.5094444444444444],[-0.28489583333333335,1.537037037037037],[-0.24645833333333336,1.5646296296296298],[-0.2107291666666666,1.5233333333333332],[-0.2107291666666666,1.5233333333333332],[-0.16354166666666667,1.3211111111111113],[-0.0921875,1.0687037037037035],[-0.03604166666666669,0.8305555555555556],[0.020624999999999952,0.5916666666666667],[0.0640625,0.3764814814814814],[0.12822916666666656,0.12259259259259268],[0.1396874999999999,0.10999999999999996],[0.16875,0.059999999999999956],[0.18020833333333333,0.10777777777777786],[0.18677083333333327,0.1479629629629629],[0.1851041666666667,0.18629629629629635],[0.1642708333333334,0.27870370370370373],[0.1640625,0.35907407407407405],[0.14197916666666663,0.44092592592592594],[0.12354166666666658,0.4757407407407407],[0.09333333333333324,0.5251851851851852],[0.08406250000000005,0.5388888888888889],[0.05697916666666671,0.6014814814814814],[0.0678124999999999,0.5742592592592592],[0.06885416666666658,0.5451851851851851],[0.06885416666666658,0.5451851851851851],[0.071875,0.4800000000000001],[0.058645833333333286,0.45388888888888895],[0.07020833333333343,0.40981481481481474],[0.06677083333333324,0.39648148148148155],[0.10572916666666667,0.4016666666666666],[0.10572916666666667,0.4016666666666666],[0.1318749999999999,0.43925925925925935],[0.14885416666666676,0.43074074074074076],[0.16354166666666667,0.41500000000000004],[0.15572916666666667,0.36925925925925923],[0.14791666666666667,0.3235185185185186],[0.14354166666666662,0.32444444444444454],[0.1414583333333333,0.2916666666666667],[0.11375000000000005,0.2572222222222222],[0.13010416666666677,0.19518518518518516],[0.11875,0.09351851851851851],[0.1384375000000001,-0.014814814814814815],[0.1404166666666666,-0.032777777777777864],[0.12999999999999995,-0.06944444444444445],[0.10947916666666657,-0.031111111111111027],[0.10125000000000005,-0.045740740740740825],[0.10125000000000005,-0.045740740740740825],[0.06166666666666672,-0.06944444444444445],[0.01906249999999995,-0.05888888888888891],[-0.0012500000000000473,-0.08796296296296297],[-0.021354166666666667,-0.15703703703703706],[-0.04895833333333333,-0.18351851851851855],[-0.1391666666666667,-0.1331481481481481],[-0.2077083333333333,-0.12111111111111107],[-0.24114583333333334,-0.13444444444444448],[-0.26229166666666665,-0.2007407407407407],[-0.26229166666666665,-0.2007407407407407],[-0.2856250000000001,-0.18499999999999997],[-0.2811458333333333,-0.192037037037037],[-0.2690624999999999,-0.2264814814814815],[-0.27843749999999995,-0.20166666666666663],[-0.271875,-0.10888888888888891],[-0.26291666666666663,-0.014259259259259343],[-0.1844791666666667,-0.0003703703703704546],[-0.10604166666666662,0.013518518518518435],[-0.057500000000000044,0.09092592592592597],[-0.057500000000000044,0.09092592592592597],[-0.008958333333333356,0.16833333333333328],[0.04854166666666669,0.1925925925925926],[0.10416666666666667,0.2381481481481482],[0.16770833333333332,0.22740740740740734],[0.20499999999999996,0.2857407407407407],[0.21677083333333325,0.2762962962962964],[0.22854166666666675,0.2668518518518519],[0.22791666666666663,0.26962962962962966],[0.20677083333333332,0.2661111111111112],[0.18104166666666663,0.26518518518518525],[0.16052083333333325,0.25870370370370377],[0.13052083333333328,0.2646296296296296],[0.10541666666666671,0.27092592592592585],[0.059687499999999956,0.3148148148148148],[0.052291666666666715,0.22925925925925916],[0.052291666666666715,0.22925925925925916],[0.041666666666666664,0.1962962962962963],[0.05406249999999998,0.1485185185185186],[0.05510416666666664,0.11222222222222226],[0.07958333333333342,0.08314814814814811],[0.10552083333333329,0.024814814814814772],[0.12625000000000006,-0.027962962962963005],[0.12572916666666673,-0.07592592592592592],[0.1203125,-0.1242592592592593],[0.1203125,-0.1242592592592593],[0.13031249999999991,-0.15722222222222218],[0.1388541666666666,-0.13796296296296295],[0.16770833333333332,-0.14518518518518514],[0.16770833333333332,-0.14518518518518514],[0.15593750000000003,-0.13333333333333333],[0.1484375,-0.16277777777777774],[0.13531250000000009,-0.18111111111111114],[0.13250000000000003,-0.19222222222222224],[0.1304166666666667,-0.19296296296296295],[0.1400000000000001,-0.1868518518518518],[0.16145833333333334,-0.175],[0.18937499999999996,-0.18370370370370367],[0.19572916666666676,-0.19518518518518516],[0.19572916666666676,-0.19518518518518516],[0.19427083333333334,-0.2131481481481482],[0.19427083333333334,-0.2131481481481482],[0.21041666666666667,-0.23537037037037042],[0.21041666666666667,-0.23537037037037042],[0.20010416666666658,-0.22000000000000003],[0.20010416666666658,-0.22000000000000003],[0.18781249999999997,-0.19296296296296295],[0.1642708333333334,-0.1675925925925926],[0.153125,-0.17259259259259258],[0.13958333333333334,-0.17],[0.10447916666666662,-0.14611111111111108],[0.06343749999999998,-0.12611111111111115],[0.04874999999999995,-0.12759259259259256],[0.01864583333333331,-0.10462962962962963],[0.0018749999999999527,-0.09314814814814817],[0.0018749999999999527,-0.09314814814814817],[0.00625,-0.10314814814814813],[0.00625,-0.10314814814814813],[0.005729166666666666,-0.09185185185185189],[0.005729166666666666,-0.09185185185185189],[0.024270833333333287,-0.1037037037037037],[0.024270833333333287,-0.1037037037037037],[0.022291666666666644,-0.11648148148148144],[0.022291666666666644,-0.11648148148148144],[0.03156249999999995,-0.10907407407407403],[0.03156249999999995,-0.10907407407407403],[0.034687499999999954,-0.16166666666666668],[0.034687499999999954,-0.16166666666666668],[0.046875,-0.16962962962962966],[0.06875,-0.15722222222222218],[0.09895833333333333,-0.1537037037037037],[0.1087500000000001,-0.14074074074074075],[0.12072916666666676,-0.11462962962962958],[0.14291666666666672,-0.14296296296296293],[0.1560416666666666,-0.14222222222222225],[0.1765625,-0.1205555555555556],[0.19072916666666656,-0.13333333333333333],[0.22072916666666675,-0.11314814814814819],[0.24427083333333333,-0.13240740740740742],[0.22999999999999995,-0.1479629629629629],[0.22999999999999995,-0.1479629629629629],[0.22614583333333324,-0.1557407407407408],[0.21687500000000004,-0.14574074074074073],[0.20541666666666672,-0.14888888888888885],[0.18645833333333334,-0.10759259259259263],[0.16875,-0.0705555555555556],[0.14416666666666675,-0.02296296296296292],[0.14416666666666675,-0.02296296296296292],[0.11458333333333333,0],[0.08499999999999991,0.02296296296296292],[0.05010416666666669,0.10259259259259255],[0.03312499999999995,0.1685185185185185],[0.005729166666666666,0.22666666666666663],[0.001979166666666643,0.27148148148148155],[-0.008645833333333287,0.3087037037037038],[-0.008645833333333287,0.3087037037037038],[-0.012083333333333357,0.3012962962962964],[-0.007187499999999976,0.3022222222222223],[0.002708333333333357,0.30703703703703694],[0.002708333333333357,0.30703703703703694],[0.015104166666666667,0.3431481481481481],[0.015104166666666667,0.3431481481481481],[0.02302083333333336,0.35],[0.03697916666666667,0.3357407407407407],[0.042708333333333334,0.3394444444444444],[0.04812500000000005,0.35796296296296287],[0.03885416666666662,0.39166666666666666],[0.036458333333333336,0.4329629629629629],[0.03854166666666667,0.4696296296296297],[0.03229166666666667,0.49796296296296294],[0.029166666666666667,0.5062962962962962],[0.026041666666666668,0.5146296296296295],[0.05239583333333329,0.5298148148148148],[0.05791666666666669,0.5475925925925926],[0.0834374999999999,0.5344444444444445],[0.07114583333333328,0.5062962962962962],[0.035104166666666714,0.4885185185185184],[0.007187499999999976,0.4507407407407407],[-0.034375,0.4462962962962963],[-0.05593750000000005,0.42240740740740745],[-0.09656250000000005,0.42185185185185176],[-0.11843750000000004,0.38685185185185184],[-0.11843750000000004,0.38685185185185184],[-0.14343750000000005,0.3905555555555555],[-0.1686458333333333,0.36944444444444446],[-0.21302083333333333,0.3827777777777779],[-0.20218750000000002,0.3774074074074073],[-0.1640625,0.344074074074074],[-0.16666666666666666,0.3622222222222223],[-0.16666666666666666,0.3622222222222223],[-0.10833333333333334,0.32092592592592584],[-0.09947916666666666,0.3375925925925925],[-0.09947916666666666,0.3375925925925925],[-0.0702083333333333,0.33000000000000007],[-0.07854166666666665,0.3683333333333333],[-0.09447916666666671,0.3661111111111112],[-0.09552083333333337,0.3668518518518519],[-0.07083333333333333,0.35722222222222216],[-0.07708333333333334,0.35425925925925916],[-0.07322916666666662,0.35185185185185186],[0.008333333333333333,0.30703703703703694],[0.036354166666666646,0.30925925925925923],[0.09385416666666657,0.2729629629629629],[0.12354166666666658,0.2300000000000001],[0.17604166666666668,0.17240740740740745],[0.2335416666666667,0.11592592592592597],[0.2919791666666666,0.057777777777777865],[0.32687499999999997,0.01055555555555564],[0.35218749999999993,-0.02166666666666675],[0.36708333333333343,-0.04759259259259268],[0.34354166666666663,-0.07925925925925928],[0.32145833333333323,-0.1175925925925926],[0.2924999999999999,-0.14500000000000002],[0.31260416666666657,-0.1757407407407407],[0.2933333333333332,-0.19740740740740745],[0.2738541666666668,-0.17592592592592593],[0.24666666666666662,-0.18407407407407403],[0.2404166666666666,-0.17166666666666663],[0.24406249999999996,-0.1794444444444444],[0.24406249999999996,-0.1794444444444444],[0.2630208333333333,-0.19592592592592595],[0.27531249999999996,-0.19574074074074072],[0.2846874999999999,-0.2064814814814815],[0.3290625000000001,-0.2235185185185185],[0.3290625000000001,-0.2235185185185185],[0.32791666666666663,-0.22833333333333336],[0.3545833333333334,-0.25759259259259265],[0.3814583333333334,-0.3081481481481481],[0.4071875000000001,-0.3183333333333333],[0.43020833333333336,-0.3183333333333333],[0.46145833333333336,-0.30944444444444447],[0.47770833333333323,-0.2851851851851852],[0.49489583333333326,-0.2611111111111111],[0.4839583333333332,-0.2198148148148148],[0.46104166666666657,-0.1581481481481481],[0.45416666666666666,-0.08888888888888889],[0.4827083333333334,-0.029814814814814856],[0.45645833333333335,0.009074074074074031],[0.43083333333333323,0.05851851851851856],[0.43083333333333323,0.05851851851851856],[0.38697916666666665,0.0772222222222223],[0.35,0.10018518518518522],[0.33468749999999997,0.12462962962962955],[0.32874999999999993,0.14296296296296304],[0.3538541666666667,0.15500000000000008],[0.3628124999999999,0.14203703703703713],[0.3651041666666667,0.11055555555555564],[0.34385416666666657,0.09759259259259268],[0.35812499999999997,0.10611111111111103],[0.3785416666666668,0.07314814814814814],[0.4005208333333333,0.012222222222222264],[0.40958333333333335,-0.01314814814814819],[0.40958333333333335,-0.01314814814814819],[0.38864583333333325,-0.07574074074074069],[0.37177083333333344,-0.16259259259259262],[0.35489583333333335,-0.2494444444444444],[0.3333333333333333,-0.30185185185185187],[0.3240624999999999,-0.33907407407407414],[0.32020833333333343,-0.3425925925925926],[0.3163541666666667,-0.3461111111111111],[0.30531249999999993,-0.37907407407407406],[0.29270833333333335,-0.384074074074074],[0.2900000000000001,-0.41148148148148145],[0.2867708333333333,-0.43555555555555553],[0.2868750000000001,-0.3937037037037037],[0.2868750000000001,-0.3937037037037037],[0.2860416666666666,-0.3492592592592593],[0.28458333333333335,-0.3398148148148148],[0.2959374999999999,-0.3351851851851852],[0.2976041666666667,-0.35407407407407404],[0.3107291666666666,-0.36648148148148146],[0.32062499999999994,-0.3440740740740741],[0.3315624999999999,-0.3042592592592593],[0.3446875000000001,-0.29518518518518516],[0.36666666666666664,-0.26722222222222225],[0.37229166666666674,-0.2727777777777778],[0.3805208333333333,-0.27037037037037037],[0.39302083333333326,-0.2722222222222222],[0.3927083333333333,-0.2692592592592592],[0.3923958333333334,-0.2662962962962963],[0.3923958333333334,-0.2662962962962963],[0.38177083333333334,-0.2809259259259259],[0.38177083333333334,-0.2809259259259259],[0.3863541666666668,-0.3081481481481481],[0.3863541666666668,-0.3081481481481481],[0.3929166666666667,-0.3446296296296297],[0.3992708333333333,-0.36129629629629634],[0.40562500000000007,-0.377962962962963],[0.4154166666666666,-0.39444444444444443],[0.41427083333333337,-0.4118518518518518],[0.4166666666666667,-0.4116666666666667],[0.4166666666666667,-0.4116666666666667],[0.4174999999999999,-0.4183333333333333]]","[[0.04583333333333333,-0.058333333333333334,0.0001999998092614419],[0.04583333333333333,-0.058333333333333334,0.055499999999995],[0.05489583333333338,-0.07037037037037037,0.061499999999995225],[0.057395833333333354,-0.0653703703703704,0.08029999971389401],[0.05354166666666664,-0.043703703703703745,0.09840000009536709],[0.05354166666666664,-0.043703703703703745,0.11049999999999471],[0.052083333333333336,-0.022037037037036994,0.1271999998092639],[0.0546875,0.09314814814814806,0.14450000000000074],[0.04645833333333336,0.17888888888888893,0.16399999999999437],[0.03093750000000005,0.25555555555555554,0.17990000009536544],[0.033958333333333354,0.285,0.19699999999999562],[0.035000000000000024,0.30907407407407406,0.21299999999999386],[0.030312500000000023,0.3274074074074073,0.2311999998092631],[0.0125,0.37166666666666676,0.24809999990463183],[0.008541666666666715,0.4287037037037037,0.2655999999046301],[0.0109375,0.4729629629629629,0.2812999997138945],[0.010625000000000048,0.49240740740740735,0.2966999998092632],[0.004999999999999952,0.44314814814814807,0.31090000009536567],[0.007500000000000047,0.4192592592592592,0.32799999999999585],[0.007500000000000047,0.4192592592592592,0.34369999980926025],[0.014479166666666644,0.3942592592592592,0.3604999999999947],[0.005833333333333357,0.40018518518518525,0.37769999980925917],[-0.000833333333333286,0.41148148148148156,0.39709999990463274],[0.0034374999999999527,0.4081481481481481,0.413099999904631],[0.007708333333333309,0.40481481481481485,0.4319000000953679],[-0.01875,0.3905555555555555,0.44690000009536135],[-0.04520833333333331,0.3762962962962964,0.46379999971389196],[-0.06708333333333331,0.37759259259259254,0.4799000000953626],[-0.07989583333333337,0.3625925925925925,0.4964999999999975],[-0.11343749999999998,0.3405555555555555,0.5104000000953661],[-0.1469791666666667,0.31851851851851853,0.527799999713892],[-0.16760416666666664,0.27148148148148155,0.5442999997138926],[-0.18677083333333327,0.22092592592592583,0.5604999999999976],[-0.18677083333333327,0.22092592592592583,0.5770999999046325],[-0.21302083333333333,0.19666666666666674,0.5936999998092602],[-0.23333333333333334,0.1668518518518519,0.6111999998092656],[-0.2476041666666667,0.18944444444444436,0.6316999998092641],[-0.26187499999999997,0.21203703703703702,0.6489000000953666],[-0.26187499999999997,0.21203703703703702,0.660499999999999],[-0.27291666666666664,0.222037037037037,0.677199999809261],[-0.28458333333333335,0.2485185185185186,0.6984999999999957],[-0.2608333333333333,0.2551851851851851,0.7136999998092648],[-0.24291666666666673,0.2646296296296296,0.7305999999046264],[-0.22250000000000003,0.2796296296296296,0.7464999999999975],[-0.19958333333333336,0.2631481481481482,0.7694000000953665],[-0.19958333333333336,0.2631481481481482,0.7770999999046282],[-0.17145833333333335,0.22611111111111115,0.7937999997138974],[-0.17145833333333335,0.22611111111111115,0.8104000000953633],[-0.1508333333333333,0.22666666666666663,0.8270999999046325],[-0.1508333333333333,0.22666666666666663,0.8437999997138945],[-0.1310416666666666,0.17018518518518513,0.8604000000953675],[-0.1310416666666666,0.17018518518518513,0.8770999999046296],[-0.10677083333333333,0.09148148148148144,0.8936999998092645],[-0.10677083333333333,0.09148148148148144,0.9104000000953647],[-0.07447916666666667,0.049074074074074076,0.9270999999046268],[-0.07447916666666667,0.049074074074074076,0.9437999997138959],[-0.04614583333333329,0.02388888888888885,0.9604999999999961],[-0.026041666666666668,-0.008888888888888804,0.9852999997138951],[-0.026041666666666668,-0.008888888888888804,0.9936999998092588],[-0.0067708333333333336,-0.04203703703703712,1.0104000000953661],[-0.0067708333333333336,-0.04203703703703712,1.0271999998092625],[0.020729166666666642,-0.09592592592592594,1.0437999997138974],[0.050416666666666644,-0.1361111111111111,1.0639000000953658],[0.07489583333333343,-0.16500000000000004,1.080299999713894],[0.09979166666666663,-0.18462962962962962,1.0976999998092651],[0.13739583333333344,-0.19888888888888884,1.1141999998092658],[0.16708333333333342,-0.21055555555555552,1.1306999998092593],[0.1853125000000001,-0.24888888888888885,1.1477999997138966],[0.2109375,-0.3007407407407407,1.1651999998092606],[0.22239583333333332,-0.3403703703703704,1.1805999999046293],[0.24052083333333343,-0.3824074074074074,1.1997999997138962],[0.2557291666666667,-0.3905555555555555,1.2146999998092625],[0.2647916666666667,-0.3774074074074074,1.2299000000953626],[0.2765625,-0.36018518518518516,1.247099999904627],[0.29354166666666665,-0.37962962962962965,1.2639000000953615],[0.30281250000000004,-0.3890740740740741,1.2794999999999987],[0.3155208333333334,-0.37888888888888894,1.2979000000953675],[0.3316666666666668,-0.3427777777777778,1.3144000000953682],[0.3336458333333333,-0.32981481481481484,1.330999999999996],[0.3388541666666666,-0.28888888888888886,1.348799999713897],[0.3388541666666666,-0.28888888888888886,1.3604999999999947],[0.3494791666666667,-0.2844444444444445,1.3771999998092639],[0.35958333333333337,-0.2542592592592593,1.39869999980926],[0.35958333333333337,-0.2542592592592593,1.4106999998092604],[0.3507291666666667,-0.21092592592592588,1.427199999809261],[0.3251041666666666,-0.20425925925925928,1.4436999998092617],[0.29541666666666655,-0.2022222222222222,1.4606999998092647],[0.2865624999999999,-0.21574074074074073,1.4775999999046263],[0.2660416666666668,-0.23296296296296298,1.5009999999999977],[0.2660416666666668,-0.23296296296296298,1.5104000000953661],[0.2283333333333334,-0.19870370370370372,1.5270999999046282],[0.2068749999999999,-0.14148148148148143,1.5444999999999993],[0.2068749999999999,-0.14148148148148143,1.5604000000953633],[0.17020833333333343,-0.13333333333333333,1.5770999999046325],[0.128125,-0.08870370370370366,1.5936999998092602],[0.07854166666666676,-0.10740740740740741,1.6134999999999948],[0.04874999999999995,-0.11944444444444445,1.638699999809262],[0.04874999999999995,-0.11944444444444445,1.644999999999996],[0.035520833333333356,-0.10425925925925927,1.6644999999999968],[0.020624999999999952,-0.0992592592592593,1.6799000000953654],[-0.007395833333333357,-0.08870370370370366,1.7081999998092599],[-0.007395833333333357,-0.08870370370370366,1.7194999999999965],[-0.035520833333333356,-0.06981481481481479,1.730400000095365],[-0.05947916666666669,-0.13296296296296298,1.7436999998092588],[-0.10208333333333333,-0.16203703703703703,1.7614000000953638],[-0.12760416666666666,-0.17907407407407405,1.7775999999046306],[-0.12760416666666666,-0.17907407407407405,1.7937999997138974],[-0.153125,-0.19611111111111107,1.8104000000953633],[-0.19104166666666664,-0.16777777777777783,1.8297999997138916],[-0.23312499999999994,-0.1633333333333333,1.843999999999994],[-0.2727083333333333,-0.1522222222222222,1.8612999997138928],[-0.2727083333333333,-0.1522222222222222,1.8770999999046296],[-0.31062500000000004,-0.13092592592592592,1.8937999997138917],[-0.3311458333333333,-0.03129629629629625,1.9104000000953647],[-0.34312499999999996,0.2264814814814814,1.9292999997138978],[-0.3455208333333334,0.4888888888888889,1.9436999998092617],[-0.34697916666666667,0.7335185185185186,1.96119999980926],[-0.3540625,0.9879629629629629,1.977099999904631],[-0.3611458333333334,1.2424074074074076,1.9946999998092636],[-0.3623958333333333,1.4796296296296296,2.0126999998092643],[-0.3233333333333333,1.5094444444444444,2.0271999998092625],[-0.28489583333333335,1.537037037037037,2.044400000095365],[-0.24645833333333336,1.5646296296296298,2.060599999904632],[-0.2107291666666666,1.5233333333333332,2.0777999997138963],[-0.2107291666666666,1.5233333333333332,2.0945999999046307],[-0.16354166666666667,1.3211111111111113,2.1104000000953675],[-0.0921875,1.0687037037037035,2.1270999999046296],[-0.03604166666666669,0.8305555555555556,2.1437999997138917],[0.020624999999999952,0.5916666666666667,2.164900000095365],[0.0640625,0.3764814814814814,2.180400000095368],[0.12822916666666656,0.12259259259259268,2.1936999998092617],[0.1396874999999999,0.10999999999999996,2.210400000095362],[0.16875,0.059999999999999956,2.227099999904631],[0.18020833333333333,0.10777777777777786,2.2439000000953655],[0.18677083333333327,0.1479629629629629,2.2631999998092596],[0.1851041666666667,0.18629629629629635,2.2771999998092625],[0.1642708333333334,0.27870370370370373,2.296199999809261],[0.1640625,0.35907407407407405,2.310699999809259],[0.14197916666666663,0.44092592592592594,2.326999999999998],[0.12354166666666658,0.4757407407407407,2.3436999998092602],[0.09333333333333324,0.5251851851851852,2.363499999999995],[0.08406250000000005,0.5388888888888889,2.3777999997138934],[0.05697916666666671,0.6014814814814814,2.3944000000953665],[0.0678124999999999,0.5742592592592592,2.4106999998092604],[0.06885416666666658,0.5451851851851851,2.4306999998092635],[0.06885416666666658,0.5451851851851851,2.4439000000953612],[0.071875,0.4800000000000001,2.4609999999999985],[0.058645833333333286,0.45388888888888895,2.4769999999999968],[0.07020833333333343,0.40981481481481474,2.493699999809259],[0.06677083333333324,0.39648148148148155,2.5109000000953614],[0.10572916666666667,0.4016666666666666,2.526999999999994],[0.10572916666666667,0.4016666666666666,2.5437999997138974],[0.1318749999999999,0.43925925925925935,2.560599999904632],[0.14885416666666676,0.43074074074074076,2.576999999999998],[0.16354166666666667,0.41500000000000004,2.5936999998092602],[0.15572916666666667,0.36925925925925923,2.6104000000953675],[0.14791666666666667,0.3235185185185186,2.6270999999046296],[0.14354166666666662,0.32444444444444454,2.6436999998092645],[0.1414583333333333,0.2916666666666667,2.6632999997138924],[0.11375000000000005,0.2572222222222222,2.677599999904629],[0.13010416666666677,0.19518518518518516,2.6944000000953636],[0.11875,0.09351851851851851,2.7129000000953667],[0.1384375000000001,-0.014814814814814815,2.7309999999999945],[0.1404166666666666,-0.032777777777777864,2.7446999998092636],[0.12999999999999995,-0.06944444444444445,2.7626999998092643],[0.10947916666666657,-0.031111111111111027,2.776999999999994],[0.10125000000000005,-0.045740740740740825,2.795099999904629],[0.10125000000000005,-0.045740740740740825,2.8104000000953633],[0.06166666666666672,-0.06944444444444445,2.8270999999046325],[0.01906249999999995,-0.05888888888888891,2.8436999998092602],[-0.0012500000000000473,-0.08796296296296297,2.860599999904629],[-0.021354166666666667,-0.15703703703703706,2.8770999999046296],[-0.04895833333333333,-0.18351851851851855,2.896400000095362],[-0.1391666666666667,-0.1331481481481481,2.9114000000953624],[-0.2077083333333333,-0.12111111111111107,2.9270999999046268],[-0.24114583333333334,-0.13444444444444448,2.9436999998092617],[-0.26229166666666665,-0.2007407407407407,2.9632999997138967],[-0.26229166666666665,-0.2007407407407407,2.9769999999999968],[-0.2856250000000001,-0.18499999999999997,2.993699999809259],[-0.2811458333333333,-0.192037037037037,3.01109999990463],[-0.2690624999999999,-0.2264814814814815,3.029999999999994],[-0.27843749999999995,-0.20166666666666663,3.043999999999997],[-0.271875,-0.10888888888888891,3.0656999998092616],[-0.26291666666666663,-0.014259259259259343,3.0819000000953665],[-0.1844791666666667,-0.0003703703703704546,3.098400000095367],[-0.10604166666666662,0.013518518518518435,3.1155999999046315],[-0.057500000000000044,0.09092592592592597,3.1337999997138937],[-0.057500000000000044,0.09092592592592597,3.1436999998092645],[-0.008958333333333356,0.16833333333333328,3.1604000000953647],[0.04854166666666669,0.1925925925925926,3.179699999809266],[0.10416666666666667,0.2381481481481482,3.196400000095366],[0.16770833333333332,0.22740740740740734,3.2135999999046305],[0.20499999999999996,0.2857407407407407,3.2314000000953627],[0.21677083333333325,0.2762962962962964,3.246699999809259],[0.22854166666666675,0.2668518518518519,3.2611999998092642],[0.22791666666666663,0.26962962962962966,3.2815999999046284],[0.20677083333333332,0.2661111111111112,3.2979000000953675],[0.18104166666666663,0.26518518518518525,3.313900000095366],[0.16052083333333325,0.25870370370370377,3.3296999998092645],[0.13052083333333328,0.2646296296296296,3.346599999904633],[0.10541666666666671,0.27092592592592585,3.3629999999999995],[0.059687499999999956,0.3148148148148148,3.3810000000000002],[0.052291666666666715,0.22925925925925916,3.400599999904628],[0.052291666666666715,0.22925925925925916,3.4104000000953647],[0.041666666666666664,0.1962962962962963,3.4270999999046268],[0.05406249999999998,0.1485185185185186,3.446699999809262],[0.05510416666666664,0.11222222222222226,3.464900000095362],[0.07958333333333342,0.08314814814814811,3.4814000000953627],[0.10552083333333329,0.024814814814814772,3.4971999998092613],[0.12625000000000006,-0.027962962962963005,3.5135000000000005],[0.12572916666666673,-0.07592592592592592,3.531499999999994],[0.1203125,-0.1242592592592593,3.549299999713895],[0.1203125,-0.1242592592592593,3.5604000000953633],[0.13031249999999991,-0.15722222222222218,3.576999999999998],[0.1388541666666666,-0.13796296296296295,3.596099999904631],[0.16770833333333332,-0.14518518518518514,3.6130999999046267],[0.16770833333333332,-0.14518518518518514,3.6269999999999953],[0.15593750000000003,-0.13333333333333333,3.6436999998092645],[0.1484375,-0.16277777777777774,3.6635999999046263],[0.13531250000000009,-0.18111111111111114,3.677900000095363],[0.13250000000000003,-0.19222222222222224,3.696799999713896],[0.1304166666666667,-0.19296296296296295,3.7132999997138967],[0.1400000000000001,-0.1868518518518518,3.7302999997138926],[0.16145833333333334,-0.175,3.7479000000953633],[0.18937499999999996,-0.18370370370370367,3.76559999990463],[0.19572916666666676,-0.19518518518518516,3.782999999999994],[0.19572916666666676,-0.19518518518518516,3.793699999809263],[0.19427083333333334,-0.2131481481481482,3.8104999999999976],[0.19427083333333334,-0.2131481481481482,3.8270999999046325],[0.21041666666666667,-0.23537037037037042,3.8436999998092602],[0.21041666666666667,-0.23537037037037042,3.864299999713893],[0.20010416666666658,-0.22000000000000003,3.8770999999046296],[0.20010416666666658,-0.22000000000000003,3.8936999998092645],[0.18781249999999997,-0.19296296296296295,3.9102999997138923],[0.1642708333333334,-0.1675925925925926,3.929699999809266],[0.153125,-0.17259259259259258,3.946799999713896],[0.13958333333333334,-0.17,3.9650999999046306],[0.10447916666666662,-0.14611111111111108,3.979999999999997],[0.06343749999999998,-0.12611111111111115,3.9965999999046318],[0.04874999999999995,-0.12759259259259256,4.012999999999998],[0.01864583333333331,-0.10462962962962963,4.030400000095362],[0.0018749999999999527,-0.09314814814814817,4.052],[0.0018749999999999527,-0.09314814814814817,4.0604999999999976],[0.00625,-0.10314814814814813,4.076900000095364],[0.00625,-0.10314814814814813,4.09369999980926],[0.005729166666666666,-0.09185185185185189,4.115299999713898],[0.005729166666666666,-0.09185185185185189,4.126999999999995],[0.024270833333333287,-0.1037037037037037,4.1436999998092645],[0.024270833333333287,-0.1037037037037037,4.160400000095365],[0.022291666666666644,-0.11648148148148144,4.177],[0.022291666666666644,-0.11648148148148144,4.193699999809262],[0.03156249999999995,-0.10907407407407403,4.210400000095362],[0.03156249999999995,-0.10907407407407403,4.227099999904631],[0.034687499999999954,-0.16166666666666668,4.243799999713893],[0.034687499999999954,-0.16166666666666668,4.2605],[0.046875,-0.16962962962962966,4.277099999904628],[0.06875,-0.15722222222222218,4.295799999713893],[0.09895833333333333,-0.1537037037037037,4.313400000095363],[0.1087500000000001,-0.14074074074074075,4.32959999990463],[0.12072916666666676,-0.11462962962962958,4.344299999713897],[0.14291666666666672,-0.14296296296296293,4.363999999999997],[0.1560416666666666,-0.14222222222222225,4.379199999809259],[0.1765625,-0.1205555555555556,4.39419999980926],[0.19072916666666656,-0.13333333333333333,4.410299999713892],[0.22072916666666675,-0.11314814814814819,4.4280999999046315],[0.24427083333333333,-0.13240740740740742,4.444499999999998],[0.22999999999999995,-0.1479629629629629,4.461099999904633],[0.22999999999999995,-0.1479629629629629,4.480400000095365],[0.22614583333333324,-0.1557407407407408,4.493699999809259],[0.21687500000000004,-0.14574074074074073,4.510400000095366],[0.20541666666666672,-0.14888888888888885,4.530400000095362],[0.18645833333333334,-0.10759259259259263,4.546699999809263],[0.16875,-0.0705555555555556,4.563599999904632],[0.14416666666666675,-0.02296296296296292,4.583999999999996],[0.14416666666666675,-0.02296296296296292,4.593900000095367],[0.11458333333333333,0,4.610499999999995],[0.08499999999999991,0.02296296296296292,4.627299999713898],[0.05010416666666669,0.10259259259259255,4.647799999713897],[0.03312499999999995,0.1685185185185185,4.665199999809261],[0.005729166666666666,0.22666666666666663,4.6817999997138955],[0.001979166666666643,0.27148148148148155,4.6991999998092595],[-0.008645833333333287,0.3087037037037038,4.7220999999046285],[-0.008645833333333287,0.3087037037037038,4.729099999904626],[-0.012083333333333357,0.3012962962962964,4.7439000000953655],[-0.007187499999999976,0.3022222222222223,4.764499999999998],[0.002708333333333357,0.30703703703703694,4.781099999904633],[0.002708333333333357,0.30703703703703694,4.794499999999999],[0.015104166666666667,0.3431481481481481,4.810400000095363],[0.015104166666666667,0.3431481481481481,4.8270999999046325],[0.02302083333333336,0.35,4.84369999980926],[0.03697916666666667,0.3357407407407407,4.860499999999995],[0.042708333333333334,0.3394444444444444,4.876999999999995],[0.04812500000000005,0.35796296296296287,4.8936999998092645],[0.03885416666666662,0.39166666666666666,4.910799999713895],[0.036458333333333336,0.4329629629629629,4.927],[0.03854166666666667,0.4696296296296297,4.943699999809262],[0.03229166666666667,0.49796296296296294,4.96119999980926],[0.029166666666666667,0.5062962962962962,4.977199999809265],[0.026041666666666668,0.5146296296296295,4.996900000095366],[0.05239583333333329,0.5298148148148148,5.012299999713896],[0.05791666666666669,0.5475925925925926,5.027499999999996],[0.0834374999999999,0.5344444444444445,5.047799999713895],[0.07114583333333328,0.5062962962962962,5.065199999809259],[0.035104166666666714,0.4885185185185184,5.080400000095366],[0.007187499999999976,0.4507407407407407,5.096599999904633],[-0.034375,0.4462962962962963,5.115299999713898],[-0.05593750000000005,0.42240740740740745,5.131099999904627],[-0.09656250000000005,0.42185185185185176,5.146400000095362],[-0.11843750000000004,0.38685185185185184,5.167199999809263],[-0.11843750000000004,0.38685185185185184,5.176900000095365],[-0.14343750000000005,0.3905555555555555,5.193900000095361],[-0.1686458333333333,0.36944444444444446,5.213900000095364],[-0.21302083333333333,0.3827777777777779,5.231999999999999],[-0.20218750000000002,0.3774074074074073,5.248599999904627],[-0.1640625,0.344074074074074,5.264499999999998],[-0.16666666666666666,0.3622222222222223,5.282799999713895],[-0.16666666666666666,0.3622222222222223,5.293999999999997],[-0.10833333333333334,0.32092592592592584,5.310699999809259],[-0.09947916666666666,0.3375925925925925,5.333299999713894],[-0.09947916666666666,0.3375925925925925,5.343900000095367],[-0.0702083333333333,0.33000000000000007,5.360900000095363],[-0.07854166666666665,0.3683333333333333,5.377299999713898],[-0.09447916666666671,0.3661111111111112,5.39659999990463],[-0.09552083333333337,0.3668518518518519,5.410499999999999],[-0.07083333333333333,0.35722222222222216,5.427199999809261],[-0.07708333333333334,0.35425925925925916,5.447400000095364],[-0.07322916666666662,0.35185185185185186,5.462900000095367],[0.008333333333333333,0.30703703703703694,5.4772999997138925],[0.036354166666666646,0.30925925925925923,5.493799999713893],[0.09385416666666657,0.2729629629629629,5.513699999809262],[0.12354166666666658,0.2300000000000001,5.528400000095367],[0.17604166666666668,0.17240740740740745,5.543999999999997],[0.2335416666666667,0.11592592592592597,5.5641999998092615],[0.2919791666666666,0.057777777777777865,5.579299999713896],[0.32687499999999997,0.01055555555555564,5.593999999999994],[0.35218749999999993,-0.02166666666666675,5.610599999904629],[0.36708333333333343,-0.04759259259259268,5.629599999904627],[0.34354166666666663,-0.07925925925925928,5.643799999713892],[0.32145833333333323,-0.1175925925925926,5.661400000095362],[0.2924999999999999,-0.14500000000000002,5.6817999997138955],[0.31260416666666657,-0.1757407407407407,5.696099999904632],[0.2933333333333332,-0.19740740740740745,5.710499999999996],[0.2738541666666668,-0.17592592592592593,5.727199999809265],[0.24666666666666662,-0.18407407407407403,5.747],[0.2404166666666666,-0.17166666666666663,5.763799999713896],[0.24406249999999996,-0.1794444444444444,5.780599999904631],[0.24406249999999996,-0.1794444444444444,5.799199999809261],[0.2630208333333333,-0.19592592592592595,5.810400000095363],[0.27531249999999996,-0.19574074074074072,5.829199999809262],[0.2846874999999999,-0.2064814814814815,5.8437999997138945],[0.3290625000000001,-0.2235185185185185,5.863299999713895],[0.3290625000000001,-0.2235185185185185,5.877499999999998],[0.32791666666666663,-0.22833333333333336,5.893900000095364],[0.3545833333333334,-0.25759259259259265,5.910499999999999],[0.3814583333333334,-0.3081481481481481,5.9306999998092635],[0.4071875000000001,-0.3183333333333333,5.943699999809262],[0.43020833333333336,-0.3183333333333333,5.960299999713897],[0.46145833333333336,-0.30944444444444447,5.976999999999997],[0.47770833333333323,-0.2851851851851852,5.9939000000953655],[0.49489583333333326,-0.2611111111111111,6.011599999904632],[0.4839583333333332,-0.2198148148148148,6.026900000095367],[0.46104166666666657,-0.1581481481481481,6.043599999904629],[0.45416666666666666,-0.08888888888888889,6.060299999713898],[0.4827083333333334,-0.029814814814814856,6.076999999999998],[0.45645833333333335,0.009074074074074031,6.096400000095365],[0.43083333333333323,0.05851851851851856,6.112900000095365],[0.43083333333333323,0.05851851851851856,6.126999999999995],[0.38697916666666665,0.0772222222222223,6.1436999998092645],[0.35,0.10018518518518522,6.160400000095365],[0.33468749999999997,0.12462962962962955,6.1806999998092635],[0.32874999999999993,0.14296296296296304,6.198],[0.3538541666666667,0.15500000000000008,6.2109999999999985],[0.3628124999999999,0.14203703703703713,6.229999999999997],[0.3651041666666667,0.11055555555555564,6.243799999713893],[0.34385416666666657,0.09759259259259268,6.263099999904632],[0.35812499999999997,0.10611111111111103,6.2809000000953645],[0.3785416666666668,0.07314814814814814,6.296299999713895],[0.4005208333333333,0.012222222222222264,6.3104999999999976],[0.40958333333333335,-0.01314814814814819,6.3296999998092645],[0.40958333333333335,-0.01314814814814819,6.34369999980926],[0.38864583333333325,-0.07574074074074069,6.360499999999995],[0.37177083333333344,-0.16259259259259262,6.376999999999995],[0.35489583333333335,-0.2494444444444444,6.3936999998092645],[0.3333333333333333,-0.30185185185185187,6.410499999999999],[0.3240624999999999,-0.33907407407407414,6.427],[0.32020833333333343,-0.3425925925925926,6.444400000095364],[0.3163541666666667,-0.3461111111111111,6.460900000095364],[0.30531249999999993,-0.37907407407407406,6.476999999999997],[0.29270833333333335,-0.384074074074074,6.4942999997138955],[0.2900000000000001,-0.41148148148148145,6.512699999809264],[0.2867708333333333,-0.43555555555555553,6.526999999999994],[0.2868750000000001,-0.3937037037037037,6.544799999713895],[0.2868750000000001,-0.3937037037037037,6.560400000095363],[0.2860416666666666,-0.3492592592592593,6.576999999999998],[0.28458333333333335,-0.3398148148148148,6.593599999904633],[0.2959374999999999,-0.3351851851851852,6.610499999999995],[0.2976041666666667,-0.35407407407407404,6.627900000095366],[0.3107291666666666,-0.36648148148148146,6.643900000095364],[0.32062499999999994,-0.3440740740740741,6.663299999713892],[0.3315624999999999,-0.3042592592592593,6.677099999904627],[0.3446875000000001,-0.29518518518518516,6.697499999999998],[0.36666666666666664,-0.26722222222222225,6.714599999904628],[0.37229166666666674,-0.2727777777777778,6.730099999904631],[0.3805208333333333,-0.27037037037037037,6.744400000095368],[0.39302083333333326,-0.2722222222222222,6.7645999999046325],[0.3927083333333333,-0.2692592592592592,6.779999999999994],[0.3923958333333334,-0.2662962962962963,6.797799999713895],[0.3923958333333334,-0.2662962962962963,6.810599999904632],[0.38177083333333334,-0.2809259259259259,6.827299999713894],[0.38177083333333334,-0.2809259259259259,6.843599999904633],[0.3863541666666668,-0.3081481481481481,6.8604000000953675],[0.3863541666666668,-0.3081481481481481,6.876999999999995],[0.3929166666666667,-0.3446296296296297,6.8936999998092645],[0.3992708333333333,-0.36129629629629634,6.910900000095367],[0.40562500000000007,-0.377962962962963,6.927599999904629],[0.4154166666666666,-0.39444444444444443,6.947900000095366],[0.41427083333333337,-0.4118518518518518,6.965499999999999],[0.4166666666666667,-0.4116666666666667,6.988699999809263],[0.4166666666666667,-0.4116666666666667,6.994999999999997],[0.4174999999999999,-0.4183333333333333,7.014900000095366]]","[0.0001999998092614419,0.055499999999995,0.061499999999995225,0.08029999971389401,0.09840000009536709,0.11049999999999471,0.1271999998092639,0.14450000000000074,0.16399999999999437,0.17990000009536544,0.19699999999999562,0.21299999999999386,0.2311999998092631,0.24809999990463183,0.2655999999046301,0.2812999997138945,0.2966999998092632,0.31090000009536567,0.32799999999999585,0.34369999980926025,0.3604999999999947,0.37769999980925917,0.39709999990463274,0.413099999904631,0.4319000000953679,0.44690000009536135,0.46379999971389196,0.4799000000953626,0.4964999999999975,0.5104000000953661,0.527799999713892,0.5442999997138926,0.5604999999999976,0.5770999999046325,0.5936999998092602,0.6111999998092656,0.6316999998092641,0.6489000000953666,0.660499999999999,0.677199999809261,0.6984999999999957,0.7136999998092648,0.7305999999046264,0.7464999999999975,0.7694000000953665,0.7770999999046282,0.7937999997138974,0.8104000000953633,0.8270999999046325,0.8437999997138945,0.8604000000953675,0.8770999999046296,0.8936999998092645,0.9104000000953647,0.9270999999046268,0.9437999997138959,0.9604999999999961,0.9852999997138951,0.9936999998092588,1.0104000000953661,1.0271999998092625,1.0437999997138974,1.0639000000953658,1.080299999713894,1.0976999998092651,1.1141999998092658,1.1306999998092593,1.1477999997138966,1.1651999998092606,1.1805999999046293,1.1997999997138962,1.2146999998092625,1.2299000000953626,1.247099999904627,1.2639000000953615,1.2794999999999987,1.2979000000953675,1.3144000000953682,1.330999999999996,1.348799999713897,1.3604999999999947,1.3771999998092639,1.39869999980926,1.4106999998092604,1.427199999809261,1.4436999998092617,1.4606999998092647,1.4775999999046263,1.5009999999999977,1.5104000000953661,1.5270999999046282,1.5444999999999993,1.5604000000953633,1.5770999999046325,1.5936999998092602,1.6134999999999948,1.638699999809262,1.644999999999996,1.6644999999999968,1.6799000000953654,1.7081999998092599,1.7194999999999965,1.730400000095365,1.7436999998092588,1.7614000000953638,1.7775999999046306,1.7937999997138974,1.8104000000953633,1.8297999997138916,1.843999999999994,1.8612999997138928,1.8770999999046296,1.8937999997138917,1.9104000000953647,1.9292999997138978,1.9436999998092617,1.96119999980926,1.977099999904631,1.9946999998092636,2.0126999998092643,2.0271999998092625,2.044400000095365,2.060599999904632,2.0777999997138963,2.0945999999046307,2.1104000000953675,2.1270999999046296,2.1437999997138917,2.164900000095365,2.180400000095368,2.1936999998092617,2.210400000095362,2.227099999904631,2.2439000000953655,2.2631999998092596,2.2771999998092625,2.296199999809261,2.310699999809259,2.326999999999998,2.3436999998092602,2.363499999999995,2.3777999997138934,2.3944000000953665,2.4106999998092604,2.4306999998092635,2.4439000000953612,2.4609999999999985,2.4769999999999968,2.493699999809259,2.5109000000953614,2.526999999999994,2.5437999997138974,2.560599999904632,2.576999999999998,2.5936999998092602,2.6104000000953675,2.6270999999046296,2.6436999998092645,2.6632999997138924,2.677599999904629,2.6944000000953636,2.7129000000953667,2.7309999999999945,2.7446999998092636,2.7626999998092643,2.776999999999994,2.795099999904629,2.8104000000953633,2.8270999999046325,2.8436999998092602,2.860599999904629,2.8770999999046296,2.896400000095362,2.9114000000953624,2.9270999999046268,2.9436999998092617,2.9632999997138967,2.9769999999999968,2.993699999809259,3.01109999990463,3.029999999999994,3.043999999999997,3.0656999998092616,3.0819000000953665,3.098400000095367,3.1155999999046315,3.1337999997138937,3.1436999998092645,3.1604000000953647,3.179699999809266,3.196400000095366,3.2135999999046305,3.2314000000953627,3.246699999809259,3.2611999998092642,3.2815999999046284,3.2979000000953675,3.313900000095366,3.3296999998092645,3.346599999904633,3.3629999999999995,3.3810000000000002,3.400599999904628,3.4104000000953647,3.4270999999046268,3.446699999809262,3.464900000095362,3.4814000000953627,3.4971999998092613,3.5135000000000005,3.531499999999994,3.549299999713895,3.5604000000953633,3.576999999999998,3.596099999904631,3.6130999999046267,3.6269999999999953,3.6436999998092645,3.6635999999046263,3.677900000095363,3.696799999713896,3.7132999997138967,3.7302999997138926,3.7479000000953633,3.76559999990463,3.782999999999994,3.793699999809263,3.8104999999999976,3.8270999999046325,3.8436999998092602,3.864299999713893,3.8770999999046296,3.8936999998092645,3.9102999997138923,3.929699999809266,3.946799999713896,3.9650999999046306,3.979999999999997,3.9965999999046318,4.012999999999998,4.030400000095362,4.052,4.0604999999999976,4.076900000095364,4.09369999980926,4.115299999713898,4.126999999999995,4.1436999998092645,4.160400000095365,4.177,4.193699999809262,4.210400000095362,4.227099999904631,4.243799999713893,4.2605,4.277099999904628,4.295799999713893,4.313400000095363,4.32959999990463,4.344299999713897,4.363999999999997,4.379199999809259,4.39419999980926,4.410299999713892,4.4280999999046315,4.444499999999998,4.461099999904633,4.480400000095365,4.493699999809259,4.510400000095366,4.530400000095362,4.546699999809263,4.563599999904632,4.583999999999996,4.593900000095367,4.610499999999995,4.627299999713898,4.647799999713897,4.665199999809261,4.6817999997138955,4.6991999998092595,4.7220999999046285,4.729099999904626,4.7439000000953655,4.764499999999998,4.781099999904633,4.794499999999999,4.810400000095363,4.8270999999046325,4.84369999980926,4.860499999999995,4.876999999999995,4.8936999998092645,4.910799999713895,4.927,4.943699999809262,4.96119999980926,4.977199999809265,4.996900000095366,5.012299999713896,5.027499999999996,5.047799999713895,5.065199999809259,5.080400000095366,5.096599999904633,5.115299999713898,5.131099999904627,5.146400000095362,5.167199999809263,5.176900000095365,5.193900000095361,5.213900000095364,5.231999999999999,5.248599999904627,5.264499999999998,5.282799999713895,5.293999999999997,5.310699999809259,5.333299999713894,5.343900000095367,5.360900000095363,5.377299999713898,5.39659999990463,5.410499999999999,5.427199999809261,5.447400000095364,5.462900000095367,5.4772999997138925,5.493799999713893,5.513699999809262,5.528400000095367,5.543999999999997,5.5641999998092615,5.579299999713896,5.593999999999994,5.610599999904629,5.629599999904627,5.643799999713892,5.661400000095362,5.6817999997138955,5.696099999904632,5.710499999999996,5.727199999809265,5.747,5.763799999713896,5.780599999904631,5.799199999809261,5.810400000095363,5.829199999809262,5.8437999997138945,5.863299999713895,5.877499999999998,5.893900000095364,5.910499999999999,5.9306999998092635,5.943699999809262,5.960299999713897,5.976999999999997,5.9939000000953655,6.011599999904632,6.026900000095367,6.043599999904629,6.060299999713898,6.076999999999998,6.096400000095365,6.112900000095365,6.126999999999995,6.1436999998092645,6.160400000095365,6.1806999998092635,6.198,6.2109999999999985,6.229999999999997,6.243799999713893,6.263099999904632,6.2809000000953645,6.296299999713895,6.3104999999999976,6.3296999998092645,6.34369999980926,6.360499999999995,6.376999999999995,6.3936999998092645,6.410499999999999,6.427,6.444400000095364,6.460900000095364,6.476999999999997,6.4942999997138955,6.512699999809264,6.526999999999994,6.544799999713895,6.560400000095363,6.576999999999998,6.593599999904633,6.610499999999995,6.627900000095366,6.643900000095364,6.663299999713892,6.677099999904627,6.697499999999998,6.714599999904628,6.730099999904631,6.744400000095368,6.7645999999046325,6.779999999999994,6.797799999713895,6.810599999904632,6.827299999713894,6.843599999904633,6.8604000000953675,6.876999999999995,6.8936999998092645,6.910900000095367,6.927599999904629,6.947900000095366,6.965499999999999,6.988699999809263,6.994999999999997,7.014900000095366]","[1732071496473,1732071496520,1732071496526,1732071496544,1732071496563,1732071496575,1732071496591,1732071496609,1732071496628,1732071496644,1732071496661,1732071496677,1732071496695,1732071496712,1732071496730,1732071496745,1732071496761,1732071496775,1732071496792,1732071496808,1732071496825,1732071496842,1732071496861,1732071496877,1732071496896,1732071496911,1732071496928,1732071496944,1732071496961,1732071496975,1732071496992,1732071497008,1732071497025,1732071497041,1732071497058,1732071497075,1732071497096,1732071497113,1732071497125,1732071497141,1732071497163,1732071497178,1732071497195,1732071497211,1732071497233,1732071497241,1732071497258,1732071497275,1732071497291,1732071497308,1732071497325,1732071497341,1732071497358,1732071497375,1732071497391,1732071497408,1732071497425,1732071497449,1732071497458,1732071497474,1732071497491,1732071497508,1732071497528,1732071497544,1732071497562,1732071497578,1732071497595,1732071497612,1732071497629,1732071497645,1732071497664,1732071497679,1732071497694,1732071497711,1732071497728,1732071497744,1732071497762,1732071497779,1732071497795,1732071497813,1732071497825,1732071497841,1732071497863,1732071497875,1732071497891,1732071497908,1732071497925,1732071497942,1732071497965,1732071497975,1732071497991,1732071498009,1732071498025,1732071498041,1732071498058,1732071498078,1732071498103,1732071498109,1732071498129,1732071498144,1732071498172,1732071498184,1732071498194,1732071498208,1732071498225,1732071498242,1732071498258,1732071498275,1732071498294,1732071498308,1732071498325,1732071498341,1732071498358,1732071498374,1732071498393,1732071498408,1732071498425,1732071498441,1732071498459,1732071498477,1732071498491,1732071498509,1732071498525,1732071498542,1732071498559,1732071498575,1732071498591,1732071498608,1732071498629,1732071498644,1732071498658,1732071498674,1732071498691,1732071498708,1732071498727,1732071498741,1732071498760,1732071498775,1732071498791,1732071498808,1732071498828,1732071498842,1732071498859,1732071498875,1732071498895,1732071498908,1732071498925,1732071498941,1732071498958,1732071498975,1732071498991,1732071499008,1732071499025,1732071499041,1732071499058,1732071499074,1732071499091,1732071499108,1732071499127,1732071499142,1732071499158,1732071499177,1732071499195,1732071499209,1732071499227,1732071499241,1732071499259,1732071499275,1732071499291,1732071499308,1732071499325,1732071499341,1732071499361,1732071499375,1732071499391,1732071499408,1732071499427,1732071499441,1732071499458,1732071499475,1732071499494,1732071499508,1732071499530,1732071499546,1732071499563,1732071499580,1732071499598,1732071499608,1732071499625,1732071499644,1732071499661,1732071499678,1732071499696,1732071499711,1732071499725,1732071499746,1732071499762,1732071499778,1732071499794,1732071499811,1732071499827,1732071499845,1732071499865,1732071499874,1732071499891,1732071499911,1732071499929,1732071499945,1732071499961,1732071499978,1732071499996,1732071500013,1732071500025,1732071500041,1732071500060,1732071500077,1732071500091,1732071500108,1732071500128,1732071500142,1732071500161,1732071500177,1732071500194,1732071500212,1732071500230,1732071500247,1732071500258,1732071500275,1732071500291,1732071500308,1732071500328,1732071500341,1732071500358,1732071500374,1732071500394,1732071500411,1732071500429,1732071500444,1732071500461,1732071500477,1732071500495,1732071500516,1732071500525,1732071500541,1732071500558,1732071500579,1732071500591,1732071500608,1732071500624,1732071500641,1732071500658,1732071500675,1732071500691,1732071500708,1732071500725,1732071500741,1732071500760,1732071500778,1732071500794,1732071500808,1732071500828,1732071500843,1732071500858,1732071500874,1732071500892,1732071500909,1732071500925,1732071500944,1732071500958,1732071500974,1732071500994,1732071501011,1732071501028,1732071501048,1732071501058,1732071501075,1732071501091,1732071501112,1732071501129,1732071501146,1732071501163,1732071501186,1732071501193,1732071501208,1732071501229,1732071501245,1732071501259,1732071501275,1732071501291,1732071501308,1732071501325,1732071501341,1732071501358,1732071501375,1732071501391,1732071501408,1732071501425,1732071501441,1732071501461,1732071501476,1732071501492,1732071501512,1732071501529,1732071501544,1732071501561,1732071501579,1732071501595,1732071501610,1732071501631,1732071501641,1732071501658,1732071501678,1732071501696,1732071501713,1732071501729,1732071501747,1732071501758,1732071501775,1732071501797,1732071501808,1732071501825,1732071501841,1732071501861,1732071501875,1732071501891,1732071501912,1732071501927,1732071501941,1732071501958,1732071501978,1732071501992,1732071502008,1732071502028,1732071502043,1732071502058,1732071502075,1732071502094,1732071502108,1732071502126,1732071502146,1732071502160,1732071502175,1732071502191,1732071502211,1732071502228,1732071502245,1732071502263,1732071502274,1732071502293,1732071502308,1732071502327,1732071502342,1732071502358,1732071502375,1732071502395,1732071502408,1732071502424,1732071502443,1732071502460,1732071502478,1732071502493,1732071502510,1732071502527,1732071502543,1732071502563,1732071502579,1732071502593,1732071502610,1732071502627,1732071502647,1732071502664,1732071502677,1732071502696,1732071502710,1732071502729,1732071502747,1732071502763,1732071502777,1732071502796,1732071502810,1732071502827,1732071502843,1732071502860,1732071502877,1732071502893,1732071502911,1732071502927,1732071502943,1732071502961,1732071502979,1732071502993,1732071503011,1732071503027,1732071503043,1732071503060,1732071503077,1732071503094,1732071503110,1732071503130,1732071503143,1732071503164,1732071503181,1732071503196,1732071503211,1732071503231,1732071503246,1732071503264,1732071503277,1732071503294,1732071503310,1732071503327,1732071503343,1732071503360,1732071503377,1732071503394,1732071503414,1732071503432,1732071503455,1732071503461,1732071503481]","[[1004,508.5],[1004,508.5],[1012.7,502],[1015.1,504.7],[1011.4,516.4],[1011.4,516.4],[1010,528.1],[1012.5,590.3],[1004.6,636.6],[989.7,678],[992.6,693.9],[993.6,706.9],[989.1,716.8],[972,740.7],[968.2,771.5],[970.5,795.4],[970.2,805.9],[964.8,779.3],[967.2,766.4],[967.2,766.4],[973.9,752.9],[965.6,756.1],[959.2,762.2],[963.3,760.4],[967.4,758.6],[942,750.9],[916.6,743.2],[895.6,743.9],[883.3,735.8],[851.1,723.9],[818.9,712],[799.1,686.6],[780.7,659.3],[780.7,659.3],[755.5,646.2],[736,630.1],[722.3,642.3],[708.6,654.5],[708.6,654.5],[698,659.9],[686.8,674.2],[709.6,677.8],[726.8,682.9],[746.4,691],[768.4,682.1],[768.4,682.1],[795.4,662.1],[795.4,662.1],[815.2,662.4],[815.2,662.4],[834.2,631.9],[834.2,631.9],[857.5,589.4],[857.5,589.4],[888.5,566.5],[888.5,566.5],[915.7,552.9],[935,535.2],[935,535.2],[953.5,517.3],[953.5,517.3],[979.9,488.2],[1008.4,466.5],[1031.9,450.9],[1055.8,440.3],[1091.9,432.6],[1120.4,426.3],[1137.9,405.6],[1162.5,377.6],[1173.5,356.2],[1190.9,333.5],[1205.5,329.1],[1214.2,336.2],[1225.5,345.5],[1241.8,335],[1250.7,329.9],[1262.9,335.4],[1278.4,354.9],[1280.3,361.9],[1285.3,384],[1285.3,384],[1295.5,386.4],[1305.2,402.7],[1305.2,402.7],[1296.7,426.1],[1272.1,429.7],[1243.6,430.8],[1235.1,423.5],[1215.4,414.2],[1215.4,414.2],[1179.2,432.7],[1158.6,463.6],[1158.6,463.6],[1123.4,468],[1083,492.1],[1035.4,482],[1006.8,475.5],[1006.8,475.5],[994.1,483.7],[979.8,486.4],[952.9,492.1],[952.9,492.1],[925.9,502.3],[902.9,468.2],[862,452.5],[837.5,443.3],[837.5,443.3],[813,434.1],[776.6,449.4],[736.2,451.8],[698.2,457.8],[698.2,457.8],[661.8,469.3],[642.1,523.1],[630.6,662.3],[628.3,804],[626.9,936.1],[620.1,1073.5],[613.3,1210.9],[612.1,1339],[649.6,1355.1],[686.5,1370],[723.4,1384.9],[757.7,1362.6],[757.7,1362.6],[803,1253.4],[871.5,1117.1],[925.4,988.5],[979.8,859.5],[1021.5,743.3],[1083.1,606.2],[1094.1,599.4],[1122,572.4],[1133,598.2],[1139.3,619.9],[1137.7,640.6],[1117.7,690.5],[1117.5,733.9],[1096.3,778.1],[1078.6,796.9],[1049.6,823.6],[1040.7,831],[1014.7,864.8],[1025.1,850.1],[1026.1,834.4],[1026.1,834.4],[1029,799.2],[1016.3,785.1],[1027.4,761.3],[1024.1,754.1],[1061.5,756.9],[1061.5,756.9],[1086.6,777.2],[1102.9,772.6],[1117,764.1],[1109.5,739.4],[1102,714.7],[1097.8,715.2],[1095.8,697.5],[1069.2,678.9],[1084.9,645.4],[1074,590.5],[1092.9,532],[1094.8,522.3],[1084.8,502.5],[1065.1,523.2],[1057.2,515.3],[1057.2,515.3],[1019.2,502.5],[978.3,508.2],[958.8,492.5],[939.5,455.2],[913,440.9],[826.4,468.1],[760.6,474.6],[728.5,467.4],[708.2,431.6],[708.2,431.6],[685.8,440.1],[690.1,436.3],[701.7,417.7],[692.7,431.1],[699,481.2],[707.6,532.3],[782.9,539.8],[858.2,547.3],[904.8,589.1],[904.8,589.1],[951.4,630.9],[1006.6,644],[1060,668.6],[1121,662.8],[1156.8,694.3],[1168.1,689.2],[1179.4,684.1],[1178.8,685.6],[1158.5,683.7],[1133.8,683.2],[1114.1,679.7],[1085.3,682.9],[1061.2,686.3],[1017.3,710],[1010.2,663.8],[1010.2,663.8],[1000,646],[1011.9,620.2],[1012.9,600.6],[1036.4,584.9],[1061.3,553.4],[1081.2,524.9],[1080.7,499],[1075.5,472.9],[1075.5,472.9],[1085.1,455.1],[1093.3,465.5],[1121,461.6],[1121,461.6],[1109.7,468],[1102.5,452.1],[1089.9,442.2],[1087.2,436.2],[1085.2,435.8],[1094.4,439.1],[1115,445.5],[1141.8,440.8],[1147.9,434.6],[1147.9,434.6],[1146.5,424.9],[1146.5,424.9],[1162,412.9],[1162,412.9],[1152.1,421.2],[1152.1,421.2],[1140.3,435.8],[1117.7,449.5],[1107,446.8],[1094,448.2],[1060.3,461.1],[1020.9,471.9],[1006.8,471.1],[977.9,483.5],[961.8,489.7],[961.8,489.7],[966,484.3],[966,484.3],[965.5,490.4],[965.5,490.4],[983.3,484],[983.3,484],[981.4,477.1],[981.4,477.1],[990.3,481.1],[990.3,481.1],[993.3,452.7],[993.3,452.7],[1005,448.4],[1026,455.1],[1055,457],[1064.4,464],[1075.9,478.1],[1097.2,462.8],[1109.8,463.2],[1129.5,474.9],[1143.1,468],[1171.9,478.9],[1194.5,468.5],[1180.8,460.1],[1180.8,460.1],[1177.1,455.9],[1168.2,461.3],[1157.2,459.6],[1139,481.9],[1122,501.9],[1098.4,527.6],[1098.4,527.6],[1070,540],[1041.6,552.4],[1008.1,595.4],[991.8,631],[965.5,662.4],[961.9,686.6],[951.7,706.7],[951.7,706.7],[948.4,702.7],[953.1,703.2],[962.6,705.8],[962.6,705.8],[974.5,725.3],[974.5,725.3],[982.1,729],[995.5,721.3],[1001,723.3],[1006.2,733.3],[997.3,751.5],[995,773.8],[997,793.6],[991,808.9],[988,813.4],[985,817.9],[1010.3,826.1],[1015.6,835.7],[1040.1,828.6],[1028.3,813.4],[993.7,803.8],[966.9,783.4],[927,781],[906.3,768.1],[867.3,767.8],[846.3,748.9],[846.3,748.9],[822.3,750.9],[798.1,739.5],[755.5,746.7],[765.9,743.8],[802.5,725.8],[800,735.6],[800,735.6],[856,713.3],[864.5,722.3],[864.5,722.3],[892.6,718.2],[884.6,738.9],[869.3,737.7],[868.3,738.1],[892,732.9],[886,731.3],[889.7,730],[968,705.8],[994.9,707],[1050.1,687.4],[1078.6,664.2],[1129,633.1],[1184.2,602.6],[1240.3,571.2],[1273.8,545.7],[1298.1,528.3],[1312.4,514.3],[1289.8,497.2],[1268.6,476.5],[1240.8,461.7],[1260.1,445.1],[1241.6,433.4],[1222.9,445],[1196.8,440.6],[1190.8,447.3],[1194.3,443.1],[1194.3,443.1],[1212.5,434.2],[1224.3,434.3],[1233.3,428.5],[1275.9,419.3],[1275.9,419.3],[1274.8,416.7],[1300.4,400.9],[1326.2,373.6],[1350.9,368.1],[1373,368.1],[1403,372.9],[1418.6,386],[1435.1,399],[1424.6,421.3],[1402.6,454.6],[1396,492],[1423.4,523.9],[1398.2,544.9],[1373.6,571.6],[1373.6,571.6],[1331.5,581.7],[1296,594.1],[1281.3,607.3],[1275.6,617.2],[1299.7,623.7],[1308.3,616.7],[1310.5,599.7],[1290.1,592.7],[1303.8,597.3],[1323.4,579.5],[1344.5,546.6],[1353.2,532.9],[1353.2,532.9],[1333.1,499.1],[1316.9,452.2],[1300.7,405.3],[1280,377],[1271.1,356.9],[1267.4,355],[1263.7,353.1],[1253.1,335.3],[1241,332.6],[1238.4,317.8],[1235.3,304.8],[1235.4,327.4],[1235.4,327.4],[1234.6,351.4],[1233.2,356.5],[1244.1,359],[1245.7,348.8],[1258.3,342.1],[1267.8,354.2],[1278.3,375.7],[1290.9,380.6],[1312,395.7],[1317.4,392.7],[1325.3,394],[1337.3,393],[1337,394.6],[1336.7,396.2],[1336.7,396.2],[1326.5,388.3],[1326.5,388.3],[1330.9,373.6],[1330.9,373.6],[1337.2,353.9],[1343.3,344.9],[1349.4,335.9],[1358.8,327],[1357.7,317.6],[1360,317.7],[1360,317.7],[1360.8,314.1]]","[-0.132282,0.39684600000000003]","[0.132282,0.39684600000000003]","[0.39684600000000003,0.39684600000000003]","[-0.39684600000000003,-0.132282]","[-0.39684600000000003,0.132282]","[-0.39684600000000003,-0.39684600000000003]","[-0.132282,-0.132282]","[0.132282,-0.132282]","[0.39684600000000003,-0.132282]","[-0.132282,0.132282]","[0.132282,0.132282]","[0.39684600000000003,0.132282]","[-0.132282,-0.39684600000000003]","[0.132282,-0.39684600000000003]","[0.39684600000000003,-0.39684600000000003]",0,0,0,0,1,1,Tablet,20,20,7,2,70,4,2,70,4
