inst1_resp.keys,inst1_resp.rt,calibrationMouse.x,calibrationMouse.y,calibrationMouse.leftButton,calibrationMouse.midButton,calibrationMouse.rightButton,calibrationClick.x,calibrationClick.y,calibrationClick.leftButton,calibrationClick.midButton,calibrationClick.rightButton,calibrationClick.clicked_name,trialsc.thisRepN,trialsc.thisTrialN,trialsc.thisN,trialsc.thisIndex,trialsc.ran,calibration_x,calibration_y,participant,session,date,expName,psychopyVersion,OS,frameRate,ScreenRes_pixels,Camera_pixels,mouse_2.x,mouse_2.y,mouse_2.leftButton,mouse_2.midButton,mouse_2.rightButton,mouse_2.time,mouse_2.clicked_name,mouse.x,mouse.y,mouse.leftButton,mouse.midButton,mouse.rightButton,mouse.time,mouse.clicked_name,Choice,Trial,TrialDuration,MOUSE_GAZE,ET_GAZE,ET_GAZE_x_T,time,unixTime,ET_GAZE_NF,Loc_Bus_label,Loc_Metro_label,Loc_RH_label,Loc_Cost_label,Loc_Travel_label,Loc_Comfort_label,Loc_Bus_cost,Loc_Metro_cost,Loc_RH_cost,Loc_Bus_travel,Loc_Metro_travel,Loc_RH_travel,Loc_Bus_comfort,Loc_Metro_comfort,Loc_RH_comfort,trials.thisRepN,trials.thisTrialN,trials.thisN,trials.thisIndex,trials.ran,Block,Device,RH_cost,RH_travel_time,RH_Comfort,metro_cost,metro_travel_time,metro_Comfort,Bus_cost,Bus_travel_time,Bus_Comfort
space,3.1513,-0.010416667,-0.17962963,1,0,0,0.672916667,0.675925926,1,0,0,calibration_square,0,0,0,19,1,0.67,0.67,11,001,2024-11-19_17h15.32.508,Attention_exp_legacy,2023.1.0,Win32,59.88023952,,,,,,,,,,,,,,,,,,,,,,,,,,,,,,,,,,,,,,,,,,,,,,,,,,,,,,,,
,,,,,,,-0.667708333,-0.664814815,1,0,0,calibration_square,0,1,1,0,1,-0.67,-0.67,11,001,2024-11-19_17h15.32.508,Attention_exp_legacy,2023.1.0,Win32,59.88023952,,,,,,,,,,,,,,,,,,,,,,,,,,,,,,,,,,,,,,,,,,,,,,,,,,,,,,,,
,,,,,,,0.321875,0.687037037,1,0,0,,0,2,2,18,1,0.33,0.67,11,001,2024-11-19_17h15.32.508,Attention_exp_legacy,2023.1.0,Win32,59.88023952,,,,,,,,,,,,,,,,,,,,,,,,,,,,,,,,,,,,,,,,,,,,,,,,,,,,,,,,
,,,,,,,0.008333333,-0.675925926,1,0,0,calibration_square,0,3,3,9,1,0,-0.67,11,001,2024-11-19_17h15.32.508,Attention_exp_legacy,2023.1.0,Win32,59.88023952,,,,,,,,,,,,,,,,,,,,,,,,,,,,,,,,,,,,,,,,,,,,,,,,,,,,,,,,
,,,,,,,-0.334375,0.322222222,1,0,0,calibration_square,0,4,4,7,1,-0.33,0.33,11,001,2024-11-19_17h15.32.508,Attention_exp_legacy,2023.1.0,Win32,59.88023952,,,,,,,,,,,,,,,,,,,,,,,,,,,,,,,,,,,,,,,,,,,,,,,,,,,,,,,,
,,,,,,,0.329166667,-0.316666667,1,0,0,,0,5,5,15,1,0.33,-0.33,11,001,2024-11-19_17h15.32.508,Attention_exp_legacy,2023.1.0,Win32,59.88023952,,,,,,,,,,,,,,,,,,,,,,,,,,,,,,,,,,,,,,,,,,,,,,,,,,,,,,,,
,,,,,,,-0.677083333,-0.005555556,1,0,0,calibration_square,0,6,6,2,1,-0.67,0,11,001,2024-11-19_17h15.32.508,Attention_exp_legacy,2023.1.0,Win32,59.88023952,,,,,,,,,,,,,,,,,,,,,,,,,,,,,,,,,,,,,,,,,,,,,,,,,,,,,,,,
,,,,,,,-0.325,-0.333333333,1,0,0,calibration_square,0,7,7,5,1,-0.33,-0.33,11,001,2024-11-19_17h15.32.508,Attention_exp_legacy,2023.1.0,Win32,59.88023952,,,,,,,,,,,,,,,,,,,,,,,,,,,,,,,,,,,,,,,,,,,,,,,,,,,,,,,,
,,,,,,,-0.66875,0.338888889,1,0,0,calibration_square,0,8,8,3,1,-0.67,0.33,11,001,2024-11-19_17h15.32.508,Attention_exp_legacy,2023.1.0,Win32,59.88023952,,,,,,,,,,,,,,,,,,,,,,,,,,,,,,,,,,,,,,,,,,,,,,,,,,,,,,,,
,,,,,,,0.667708333,-0.672222222,1,0,0,calibration_square,0,9,9,20,1,0.67,-0.67,11,001,2024-11-19_17h15.32.508,Attention_exp_legacy,2023.1.0,Win32,59.88023952,,,,,,,,,,,,,,,,,,,,,,,,,,,,,,,,,,,,,,,,,,,,,,,,,,,,,,,,
,,,,,,,-0.011458333,-0.322222222,1,0,0,,0,10,10,10,1,0,-0.33,11,001,2024-11-19_17h15.32.508,Attention_exp_legacy,2023.1.0,Win32,59.88023952,,,,,,,,,,,,,,,,,,,,,,,,,,,,,,,,,,,,,,,,,,,,,,,,,,,,,,,,
,,,,,,,0.002083333,0.662962963,1,0,0,calibration_square,0,11,11,13,1,0,0.67,11,001,2024-11-19_17h15.32.508,Attention_exp_legacy,2023.1.0,Win32,59.88023952,,,,,,,,,,,,,,,,,,,,,,,,,,,,,,,,,,,,,,,,,,,,,,,,,,,,,,,,
,,,,,,,-0.341666667,0.672222222,1,0,0,,0,12,12,8,1,-0.33,0.67,11,001,2024-11-19_17h15.32.508,Attention_exp_legacy,2023.1.0,Win32,59.88023952,,,,,,,,,,,,,,,,,,,,,,,,,,,,,,,,,,,,,,,,,,,,,,,,,,,,,,,,
,,,,,,,-0.001041667,0.314814815,1,0,0,,0,13,13,12,1,0,0.33,11,001,2024-11-19_17h15.32.508,Attention_exp_legacy,2023.1.0,Win32,59.88023952,,,,,,,,,,,,,,,,,,,,,,,,,,,,,,,,,,,,,,,,,,,,,,,,,,,,,,,,
,,,,,,,0.335416667,0.318518519,1,0,0,,0,14,14,17,1,0.33,0.33,11,001,2024-11-19_17h15.32.508,Attention_exp_legacy,2023.1.0,Win32,59.88023952,,,,,,,,,,,,,,,,,,,,,,,,,,,,,,,,,,,,,,,,,,,,,,,,,,,,,,,,
,,,,,,,0.33125,-0.664814815,1,0,0,calibration_square,0,15,15,14,1,0.33,-0.67,11,001,2024-11-19_17h15.32.508,Attention_exp_legacy,2023.1.0,Win32,59.88023952,,,,,,,,,,,,,,,,,,,,,,,,,,,,,,,,,,,,,,,,,,,,,,,,,,,,,,,,
,,,,,,,-0.009375,-0.003703704,1,0,0,calibration_square,0,16,16,11,1,0,0,11,001,2024-11-19_17h15.32.508,Attention_exp_legacy,2023.1.0,Win32,59.88023952,,,,,,,,,,,,,,,,,,,,,,,,,,,,,,,,,,,,,,,,,,,,,,,,,,,,,,,,
,,,,,,,-0.333333333,-0.65,1,0,0,,0,17,17,4,1,-0.33,-0.67,11,001,2024-11-19_17h15.32.508,Attention_exp_legacy,2023.1.0,Win32,59.88023952,,,,,,,,,,,,,,,,,,,,,,,,,,,,,,,,,,,,,,,,,,,,,,,,,,,,,,,,
,,,,,,,-0.326041667,0.005555556,1,0,0,calibration_square,0,18,18,6,1,-0.33,0,11,001,2024-11-19_17h15.32.508,Attention_exp_legacy,2023.1.0,Win32,59.88023952,,,,,,,,,,,,,,,,,,,,,,,,,,,,,,,,,,,,,,,,,,,,,,,,,,,,,,,,
,,,,,,,-0.670833333,-0.331481481,1,0,0,calibration_square,0,19,19,1,1,-0.67,-0.33,11,001,2024-11-19_17h15.32.508,Attention_exp_legacy,2023.1.0,Win32,59.88023952,,,,,,,,,,,,,,,,,,,,,,,,,,,,,,,,,,,,,,,,,,,,,,,,,,,,,,,,
,,,,,,,0.33125,0.001851852,1,0,0,calibration_square,0,20,20,16,1,0.33,0,11,001,2024-11-19_17h15.32.508,Attention_exp_legacy,2023.1.0,Win32,59.88023952,,,,,,,,,,,,,,,,,,,,,,,,,,,,,,,,,,,,,,,,,,,,,,,,,,,,,,,,
,,,,,,,,,,,,,,,,,,,,11,001,2024-11-19_17h15.32.508,Attention_exp_legacy,2023.1.0,Win32,59.88023952,"[1920,1080]","[640,480]",[0.026041666666666668],[-0.5148148148148148],[1],[0],[0],[7.5005999999046296],"[""StartButton""]",[0.34375],[0.5685185185185185],[1],[0],[0],[5.329499999999996],"[""Metro_label""]",Metro_label,1,6.3578,"[[0.026041666666666668,-0.5148148148148148],[0.026041666666666668,-0.5148148148148148],[0.026041666666666668,-0.5148148148148148],[0.026041666666666668,-0.5148148148148148],[0.026041666666666668,-0.5148148148148148],[0.026041666666666668,-0.5148148148148148],[0.026041666666666668,-0.5148148148148148],[0.026041666666666668,-0.5148148148148148],[0.026041666666666668,-0.5148148148148148],[0.026041666666666668,-0.5148148148148148],[0.026041666666666668,-0.5148148148148148],[0.026041666666666668,-0.5148148148148148],[0.026041666666666668,-0.5148148148148148],[0.026041666666666668,-0.5148148148148148],[0.026041666666666668,-0.5148148148148148],[0.026041666666666668,-0.5148148148148148],[0.026041666666666668,-0.5148148148148148],[0.026041666666666668,-0.5148148148148148],[0.026041666666666668,-0.5148148148148148],[0.026041666666666668,-0.5148148148148148],[0.026041666666666668,-0.5148148148148148],[0.026041666666666668,-0.5148148148148148],[0.026041666666666668,-0.5148148148148148],[0.026041666666666668,-0.5148148148148148],[0.026041666666666668,-0.5148148148148148],[0.026041666666666668,-0.5148148148148148],[0.026041666666666668,-0.5148148148148148],[0.026041666666666668,-0.5148148148148148],[0.026041666666666668,-0.5148148148148148],[0.026041666666666668,-0.5148148148148148],[0.026041666666666668,-0.5148148148148148],[0.026041666666666668,-0.5148148148148148],[0.026041666666666668,-0.5148148148148148],[0.026041666666666668,-0.5148148148148148],[0.026041666666666668,-0.5148148148148148],[0.026041666666666668,-0.5148148148148148],[0.026041666666666668,-0.5148148148148148],[0.026041666666666668,-0.5148148148148148],[0.026041666666666668,-0.5148148148148148],[0.026041666666666668,-0.5148148148148148],[0.026041666666666668,-0.5148148148148148],[0.026041666666666668,-0.5148148148148148],[0.026041666666666668,-0.5148148148148148],[0.026041666666666668,-0.5148148148148148],[0.026041666666666668,-0.5148148148148148],[0.026041666666666668,-0.5148148148148148],[0.026041666666666668,-0.5148148148148148],[0.026041666666666668,-0.5148148148148148],[0.026041666666666668,-0.5148148148148148],[0.026041666666666668,-0.5148148148148148],[0.026041666666666668,-0.5148148148148148],[0.026041666666666668,-0.5148148148148148],[0.026041666666666668,-0.5148148148148148],[0.026041666666666668,-0.5148148148148148],[0.026041666666666668,-0.5148148148148148],[0.026041666666666668,-0.5148148148148148],[0.026041666666666668,-0.5148148148148148],[0.026041666666666668,-0.5148148148148148],[0.026041666666666668,-0.5148148148148148],[0.026041666666666668,-0.5148148148148148],[0.026041666666666668,-0.5148148148148148],[0.026041666666666668,-0.5148148148148148],[0.026041666666666668,-0.5148148148148148],[0.026041666666666668,-0.5148148148148148],[0.026041666666666668,-0.5148148148148148],[0.026041666666666668,-0.5148148148148148],[0.026041666666666668,-0.5148148148148148],[0.026041666666666668,-0.5148148148148148],[0.026041666666666668,-0.5148148148148148],[0.026041666666666668,-0.5148148148148148],[0.026041666666666668,-0.5148148148148148],[0.026041666666666668,-0.5148148148148148],[0.026041666666666668,-0.5148148148148148],[0.026041666666666668,-0.5148148148148148],[0.026041666666666668,-0.5148148148148148],[0.026041666666666668,-0.5148148148148148],[0.026041666666666668,-0.5148148148148148],[0.026041666666666668,-0.5148148148148148],[0.026041666666666668,-0.5148148148148148],[0.026041666666666668,-0.5148148148148148],[0.026041666666666668,-0.5148148148148148],[0.026041666666666668,-0.5148148148148148],[0.026041666666666668,-0.5148148148148148],[0.026041666666666668,-0.5148148148148148],[0.026041666666666668,-0.5148148148148148],[0.026041666666666668,-0.5148148148148148],[0.026041666666666668,-0.5148148148148148],[0.026041666666666668,-0.5148148148148148],[0.026041666666666668,-0.5148148148148148],[0.026041666666666668,-0.5148148148148148],[0.026041666666666668,-0.5148148148148148],[0.026041666666666668,-0.5148148148148148],[0.026041666666666668,-0.5148148148148148],[0.026041666666666668,-0.5148148148148148],[0.026041666666666668,-0.5148148148148148],[0.026041666666666668,-0.5148148148148148],[0.026041666666666668,-0.5148148148148148],[0.026041666666666668,-0.5148148148148148],[0.026041666666666668,-0.5148148148148148],[0.026041666666666668,-0.5148148148148148],[0.026041666666666668,-0.5148148148148148],[0.026041666666666668,-0.5148148148148148],[0.026041666666666668,-0.5148148148148148],[0.026041666666666668,-0.5148148148148148],[0.026041666666666668,-0.5148148148148148],[0.026041666666666668,-0.5148148148148148],[0.026041666666666668,-0.5148148148148148],[0.026041666666666668,-0.5148148148148148],[0.026041666666666668,-0.5148148148148148],[0.026041666666666668,-0.5148148148148148],[0.026041666666666668,-0.5148148148148148],[0.026041666666666668,-0.5148148148148148],[0.026041666666666668,-0.5148148148148148],[0.026041666666666668,-0.5148148148148148],[0.026041666666666668,-0.5148148148148148],[0.026041666666666668,-0.5148148148148148],[0.026041666666666668,-0.5148148148148148],[0.026041666666666668,-0.5148148148148148],[0.026041666666666668,-0.5148148148148148],[0.03125,-0.512962962962963],[0.03854166666666667,-0.5055555555555555],[0.041666666666666664,-0.5037037037037037],[0.046875,-0.4981481481481482],[0.04895833333333333,-0.4962962962962963],[0.051041666666666666,-0.4925925925925926],[0.052083333333333336,-0.49074074074074076],[0.05416666666666667,-0.48703703703703705],[0.05625,-0.48518518518518516],[0.059375,-0.47962962962962963],[0.0625,-0.4740740740740741],[0.06354166666666666,-0.4722222222222222],[0.06666666666666667,-0.4666666666666667],[0.06979166666666667,-0.45925925925925926],[0.075,-0.4462962962962963],[0.07708333333333334,-0.44074074074074077],[0.07916666666666666,-0.4351851851851852],[0.08229166666666667,-0.42407407407407405],[0.08333333333333333,-0.4166666666666667],[0.08645833333333333,-0.40555555555555556],[0.08645833333333333,-0.40185185185185185],[0.08854166666666667,-0.3925925925925926],[0.09166666666666666,-0.37407407407407406],[0.09375,-0.3648148148148148],[0.096875,-0.35],[0.10104166666666667,-0.32592592592592595],[0.10416666666666667,-0.30925925925925923],[0.10833333333333334,-0.2851851851851852],[0.11458333333333333,-0.24259259259259258],[0.11770833333333333,-0.22777777777777777],[0.12083333333333333,-0.2074074074074074],[0.12395833333333334,-0.1925925925925926],[0.125,-0.17962962962962964],[0.128125,-0.16296296296296298],[0.128125,-0.15185185185185185],[0.128125,-0.14444444444444443],[0.128125,-0.1388888888888889],[0.128125,-0.13703703703703704],[0.128125,-0.13703703703703704],[0.128125,-0.13703703703703704],[0.128125,-0.13518518518518519],[0.128125,-0.13518518518518519],[0.128125,-0.13518518518518519],[0.128125,-0.13518518518518519],[0.128125,-0.13518518518518519],[0.128125,-0.13518518518518519],[0.128125,-0.13518518518518519],[0.128125,-0.13518518518518519],[0.128125,-0.13518518518518519],[0.128125,-0.13518518518518519],[0.128125,-0.13518518518518519],[0.128125,-0.13518518518518519],[0.128125,-0.13518518518518519],[0.128125,-0.13518518518518519],[0.128125,-0.13518518518518519],[0.128125,-0.13518518518518519],[0.128125,-0.13518518518518519],[0.128125,-0.13518518518518519],[0.128125,-0.13518518518518519],[0.128125,-0.13518518518518519],[0.128125,-0.13518518518518519],[0.128125,-0.13518518518518519],[0.128125,-0.13518518518518519],[0.128125,-0.13518518518518519],[0.128125,-0.13518518518518519],[0.128125,-0.13148148148148148],[0.128125,-0.13148148148148148],[0.128125,-0.13148148148148148],[0.128125,-0.13148148148148148],[0.128125,-0.13148148148148148],[0.128125,-0.13148148148148148],[0.128125,-0.13148148148148148],[0.13020833333333334,-0.13148148148148148],[0.13020833333333334,-0.13148148148148148],[0.13020833333333334,-0.13148148148148148],[0.13020833333333334,-0.13148148148148148],[0.13020833333333334,-0.13148148148148148],[0.13020833333333334,-0.13148148148148148],[0.13125,-0.13333333333333333],[0.13125,-0.13333333333333333],[0.13125,-0.13333333333333333],[0.13229166666666667,-0.13333333333333333],[0.13333333333333333,-0.13518518518518519],[0.13645833333333332,-0.1388888888888889],[0.13854166666666667,-0.1388888888888889],[0.14270833333333333,-0.14074074074074075],[0.14791666666666667,-0.14074074074074075],[0.15520833333333334,-0.14074074074074075],[0.16145833333333334,-0.14074074074074075],[0.16770833333333332,-0.14074074074074075],[0.175,-0.14074074074074075],[0.18125,-0.14074074074074075],[0.18854166666666666,-0.1388888888888889],[0.20208333333333334,-0.12777777777777777],[0.20729166666666668,-0.1259259259259259],[0.21041666666666667,-0.12222222222222222],[0.2125,-0.11851851851851852],[0.21666666666666667,-0.11481481481481481],[0.21875,-0.11296296296296296],[0.21979166666666666,-0.1111111111111111],[0.22083333333333333,-0.10925925925925926],[0.221875,-0.10925925925925926],[0.22291666666666668,-0.10740740740740741],[0.225,-0.1037037037037037],[0.22708333333333333,-0.10185185185185185],[0.22708333333333333,-0.10185185185185185],[0.22708333333333333,-0.10185185185185185],[0.22708333333333333,-0.10185185185185185],[0.22708333333333333,-0.10185185185185185],[0.22708333333333333,-0.10185185185185185],[0.22708333333333333,-0.10185185185185185],[0.22708333333333333,-0.10185185185185185],[0.228125,-0.1],[0.23020833333333332,-0.09814814814814815],[0.23125,-0.0962962962962963],[0.23333333333333334,-0.09259259259259259],[0.23541666666666666,-0.08888888888888889],[0.23854166666666668,-0.08518518518518518],[0.24166666666666667,-0.07962962962962963],[0.24375,-0.07222222222222222],[0.24583333333333332,-0.06851851851851852],[0.24791666666666667,-0.06481481481481481],[0.24791666666666667,-0.06111111111111111],[0.24791666666666667,-0.06111111111111111],[0.24791666666666667,-0.06111111111111111],[0.24895833333333334,-0.05925925925925926],[0.24895833333333334,-0.05925925925925926],[0.24895833333333334,-0.05925925925925926],[0.24895833333333334,-0.05925925925925926],[0.24895833333333334,-0.05925925925925926],[0.24895833333333334,-0.05925925925925926],[0.24895833333333334,-0.05925925925925926],[0.24895833333333334,-0.05925925925925926],[0.24895833333333334,-0.05925925925925926],[0.24895833333333334,-0.05925925925925926],[0.24895833333333334,-0.05925925925925926],[0.25104166666666666,-0.05555555555555555],[0.25416666666666665,-0.04814814814814815],[0.2552083333333333,-0.044444444444444446],[0.259375,-0.03518518518518519],[0.2635416666666667,-0.022222222222222223],[0.275,0.005555555555555556],[0.28020833333333334,0.024074074074074074],[0.2875,0.046296296296296294],[0.29375,0.06666666666666667],[0.30104166666666665,0.08703703703703704],[0.30520833333333336,0.1037037037037037],[0.30833333333333335,0.11296296296296296],[0.309375,0.12222222222222222],[0.31354166666666666,0.1388888888888889],[0.31666666666666665,0.1537037037037037],[0.31979166666666664,0.17037037037037037],[0.321875,0.17777777777777778],[0.3260416666666667,0.1962962962962963],[0.3302083333333333,0.2111111111111111],[0.33125,0.21851851851851853],[0.33541666666666664,0.2351851851851852],[0.33645833333333336,0.2462962962962963],[0.3375,0.2537037037037037],[0.340625,0.2722222222222222],[0.3416666666666667,0.2814814814814815],[0.34375,0.30185185185185187],[0.346875,0.32037037037037036],[0.3489583333333333,0.3388888888888889],[0.35104166666666664,0.362962962962963],[0.353125,0.38333333333333336],[0.353125,0.4148148148148148],[0.3541666666666667,0.42962962962962964],[0.3541666666666667,0.44074074074074077],[0.35625,0.4537037037037037],[0.3572916666666667,0.46296296296296297],[0.3572916666666667,0.4703703703703704],[0.3572916666666667,0.4740740740740741],[0.3572916666666667,0.47962962962962963],[0.3572916666666667,0.48518518518518516],[0.3572916666666667,0.49074074074074076],[0.3572916666666667,0.4981481481481482],[0.3572916666666667,0.5018518518518519],[0.3572916666666667,0.5111111111111111],[0.3572916666666667,0.5166666666666667],[0.3572916666666667,0.5203703703703704],[0.35625,0.5259259259259259],[0.35625,0.5333333333333333],[0.3541666666666667,0.5370370370370371],[0.35208333333333336,0.5444444444444444],[0.35104166666666664,0.5481481481481482],[0.34791666666666665,0.5574074074074075],[0.3458333333333333,0.562962962962963],[0.34479166666666666,0.5648148148148148],[0.34479166666666666,0.5666666666666667],[0.34375,0.5666666666666667],[0.34375,0.5685185185185185],[0.34375,0.5685185185185185],[0.34375,0.5685185185185185],[0.34375,0.5685185185185185],[0.34375,0.5685185185185185],[0.34375,0.5685185185185185],[0.34375,0.5685185185185185],[0.34375,0.5685185185185185],[0.34375,0.5685185185185185],[0.34375,0.5685185185185185],[0.34375,0.5685185185185185],[0.34375,0.5685185185185185],[0.34375,0.5685185185185185],[0.34375,0.5685185185185185],[0.34375,0.5685185185185185],[0.34375,0.5685185185185185],[0.34375,0.5685185185185185],[0.34375,0.5685185185185185],[0.34375,0.5685185185185185],[0.34375,0.5685185185185185],[0.34375,0.5685185185185185],[0.34375,0.5685185185185185],[0.34375,0.5685185185185185],[0.34375,0.5685185185185185],[0.34375,0.5685185185185185],[0.34375,0.5685185185185185],[0.34375,0.5685185185185185],[0.34375,0.5685185185185185],[0.34375,0.5685185185185185],[0.34375,0.5685185185185185],[0.34375,0.5685185185185185],[0.34375,0.5685185185185185],[0.34375,0.5685185185185185],[0.34375,0.5685185185185185],[0.34375,0.5685185185185185],[0.34375,0.5685185185185185],[0.34375,0.5685185185185185],[0.34375,0.5685185185185185],[0.34270833333333334,0.5685185185185185],[0.334375,0.5685185185185185],[0.32395833333333335,0.5685185185185185],[0.3104166666666667,0.5685185185185185],[0.30104166666666665,0.5685185185185185],[0.28125,0.5740740740740741],[0.26666666666666666,0.5740740740740741],[0.25416666666666665,0.575925925925926],[0.25,0.575925925925926],[0.24375,0.5777777777777777],[0.24166666666666667,0.5796296296296296],[0.24166666666666667,0.5796296296296296],[0.24166666666666667,0.5796296296296296],[0.24166666666666667,0.5796296296296296],[0.24166666666666667,0.5796296296296296],[0.24166666666666667,0.5796296296296296],[0.24166666666666667,0.5796296296296296],[0.24166666666666667,0.5796296296296296],[0.24166666666666667,0.5796296296296296],[0.24166666666666667,0.5796296296296296],[0.24166666666666667,0.5796296296296296],[0.24166666666666667,0.5796296296296296],[0.24166666666666667,0.5796296296296296],[0.23854166666666668,0.5796296296296296],[0.23333333333333334,0.5796296296296296],[0.22708333333333333,0.5796296296296296],[0.22291666666666668,0.5796296296296296],[0.21979166666666666,0.5796296296296296],[0.215625,0.5796296296296296],[0.2125,0.5796296296296296],[0.2125,0.5796296296296296]]","[[-0.17406250000000004,-0.012037037037037037],[-0.17406250000000004,-0.012037037037037037],[-0.13489583333333333,-0.05407407407407405],[-0.13489583333333333,-0.05407407407407405],[-0.13541666666666666,-0.10407407407407405],[-0.13541666666666666,-0.10407407407407405],[-0.10322916666666669,-0.1259259259259259],[-0.10322916666666669,-0.1259259259259259],[-0.07875000000000003,-0.122037037037037],[-0.07875000000000003,-0.122037037037037],[-0.08302083333333338,-0.11444444444444446],[-0.08302083333333338,-0.11444444444444446],[-0.0921875,-0.08148148148148149],[-0.08624999999999995,-0.03888888888888889],[-0.08156249999999995,-0.005185185185185101],[-0.08093750000000005,-0.0020370370370370794],[-0.07958333333333331,0.024629629629629547],[-0.10718749999999998,0.09759259259259268],[-0.10406249999999997,0.17611111111111116],[-0.12166666666666662,0.202962962962963],[-0.15531250000000002,0.22592592592592592],[-0.16968749999999996,0.25],[-0.18739583333333332,0.2192592592592592],[-0.20697916666666671,0.19018518518518526],[-0.20572916666666666,0.19240740740740736],[-0.20447916666666663,0.19462962962962968],[-0.18541666666666667,0.1772222222222223],[-0.17677083333333338,0.15648148148148147],[-0.15270833333333336,0.13759259259259252],[-0.12895833333333329,0.1507407407407407],[-0.06781250000000003,0.13740740740740748],[-0.006666666666666643,0.12407407407407407],[0.06354166666666666,0.09462962962962967],[0.1337500000000001,0.06518518518518526],[0.17645833333333344,0.04462962962962967],[0.20302083333333343,0.0242592592592593],[0.21802083333333327,0.0025925925925925505],[0.21802083333333327,0.0025925925925925505],[0.22645833333333343,-0.019259259259259216],[0.22645833333333343,-0.019259259259259216],[0.1977083333333333,-0.056666666666666705],[0.1977083333333333,-0.056666666666666705],[0.11552083333333343,-0.10314814814814813],[0.11552083333333343,-0.10314814814814813],[-0.0026041666666666665,-0.10777777777777775],[-0.0026041666666666665,-0.10777777777777775],[-0.11104166666666669,-0.1544444444444444],[-0.11104166666666669,-0.1544444444444444],[-0.19333333333333336,-0.13370370370370369],[-0.2859375,-0.13185185185185183],[-0.2859375,-0.13185185185185183],[-0.3802083333333333,-0.1205555555555556],[-0.4445833333333333,-0.1307407407407408],[-0.5152083333333334,-0.12000000000000002],[-0.6005208333333333,-0.08722222222222227],[-0.6669791666666666,-0.056851851851851834],[-0.6654166666666667,-0.07833333333333335],[-0.6415624999999999,-0.13703703703703704],[-0.5661458333333333,-0.1418518518518519],[-0.5177083333333333,-0.1685185185185185],[-0.4469791666666667,-0.14611111111111108],[-0.38822916666666674,-0.1537037037037037],[-0.3446875,-0.14444444444444443],[-0.29791666666666666,-0.14148148148148143],[-0.23312499999999994,-0.15407407407407406],[-0.1482291666666666,-0.1638888888888889],[-0.07791666666666662,-0.11277777777777774],[-0.02177083333333331,-0.057777777777777754],[-0.022500000000000023,-0.04407407407407399],[-0.022500000000000023,-0.04407407407407399],[-0.02322916666666662,-0.03037037037037033],[-0.02322916666666662,-0.03037037037037033],[-0.011979166666666667,-0.01722222222222214],[0.02041666666666669,-0.03370370370370379],[0.06041666666666667,-0.012592592592592508],[0.07104166666666671,0.0198148148148149],[0.07104166666666671,0.0198148148148149],[0.08760416666666657,0.0257407407407407],[0.0806250000000001,0.020370370370370372],[0.07364583333333338,0.015000000000000043],[0.09239583333333339,0.030555555555555555],[0.10677083333333333,0.07555555555555547],[0.11749999999999995,0.13111111111111104],[0.10427083333333324,0.15703703703703695],[0.125,0.2192592592592592],[0.10635416666666657,0.23203703703703696],[0.10541666666666671,0.23555555555555563],[0.10177083333333338,0.25925925925925924],[0.1015625,0.29148148148148145],[0.13333333333333333,0.3168518518518519],[0.15354166666666677,0.31740740740740736],[0.15927083333333342,0.2890740740740741],[0.15291666666666662,0.2948148148148149],[0.15291666666666662,0.2948148148148149],[0.14656250000000004,0.30055555555555546],[0.11062500000000004,0.33000000000000007],[0.13114583333333343,0.34592592592592586],[0.15291666666666662,0.3622222222222223],[0.19541666666666657,0.3803703703703703],[0.23791666666666675,0.3985185185185186],[0.21552083333333344,0.4094444444444445],[0.1931250000000001,0.4203703703703704],[0.19479166666666667,0.43574074074074065],[0.21218750000000006,0.4064814814814815],[0.2462500000000001,0.3685185185185185],[0.2763541666666666,0.28944444444444434],[0.2669791666666666,0.2524074074074073],[0.2647916666666667,0.2192592592592592],[0.2490624999999999,0.1624074074074075],[0.23333333333333334,0.10555555555555556],[0.25968749999999996,0.028888888888888933],[0.2860416666666666,-0.0477777777777777],[0.30281250000000004,-0.1],[0.31270833333333337,-0.12888888888888894],[0.30593750000000003,-0.14907407407407408],[0.2709374999999999,-0.18407407407407403],[0.2621875000000001,-0.2381481481481482],[0.2534374999999999,-0.2922222222222222],[0.2365624999999999,-0.2903703703703704],[0.2196875000000001,-0.28851851851851856],[0.1943749999999999,-0.20555555555555555],[0.16875,-0.11092592592592589],[0.128125,-0.03425925925925926],[0.0943749999999999,0.01907407407407399],[0.07000000000000005,0.09185185185185189],[0.07000000000000005,0.09185185185185189],[0.07385416666666676,0.1794444444444444],[0.07989583333333337,0.2548148148148149],[0.041979166666666616,0.3427777777777778],[0.041979166666666616,0.3427777777777778],[0.004999999999999952,0.3966666666666668],[0.004999999999999952,0.3966666666666668],[-0.021249999999999977,0.4516666666666666],[-0.04583333333333333,0.46333333333333343],[-0.04583333333333333,0.46333333333333343],[-0.08104166666666662,0.45851851851851855],[-0.10125000000000005,0.47166666666666673],[-0.06645833333333329,0.47685185185185186],[-0.10197916666666665,0.44166666666666665],[-0.1375,0.4064814814814815],[-0.18520833333333328,0.3903703703703703],[-0.18520833333333328,0.3903703703703703],[-0.1929166666666667,0.37814814814814823],[-0.21437499999999995,0.36666666666666664],[-0.20416666666666666,0.3566666666666667],[-0.19635416666666666,0.3427777777777778],[-0.13666666666666671,0.33833333333333343],[-0.07697916666666664,0.3338888888888888],[-0.07697916666666664,0.3338888888888888],[-0.1092708333333333,0.32518518518518524],[-0.07000000000000005,0.3533333333333332],[-0.018333333333333358,0.3822222222222222],[-0.01114583333333338,0.3798148148148149],[0,0.3609259259259259],[0.018124999999999978,0.3431481481481481],[0.03291666666666669,0.31962962962962965],[0.04052083333333331,0.3096296296296297],[0.007291666666666667,0.2983333333333334],[-0.0109375,0.31740740740740736],[-0.0109375,0.31740740740740736],[0.014583333333333334,0.319074074074074],[0.014583333333333334,0.319074074074074],[0.033958333333333354,0.3050000000000001],[0.033958333333333354,0.3050000000000001],[0.04593750000000003,0.3205555555555556],[0.04593750000000003,0.3205555555555556],[0.08739583333333342,0.3394444444444444],[0.15489583333333337,0.3646296296296296],[0.15489583333333337,0.3646296296296296],[0.20833333333333334,0.3877777777777777],[0.23114583333333344,0.4105555555555556],[0.23114583333333344,0.4105555555555556],[0.26114583333333335,0.4198148148148149],[0.2720833333333334,0.4383333333333334],[0.28312499999999996,0.4287037037037037],[0.2873958333333334,0.4487037037037036],[0.2617708333333333,0.4455555555555556],[0.23083333333333325,0.452962962962963],[0.23833333333333329,0.4838888888888888],[0.21979166666666666,0.5085185185185186],[0.21739583333333337,0.5066666666666667],[0.20656249999999995,0.5083333333333333],[0.1953125,0.505925925925926],[0.20302083333333343,0.490925925925926],[0.19562499999999997,0.4737037037037036],[0.2055208333333333,0.40111111111111114],[0.27760416666666665,0.35796296296296287],[0.27760416666666665,0.35796296296296287],[0.35281250000000003,0.27259259259259266],[0.35281250000000003,0.27259259259259266],[0.36447916666666674,0.1824074074074074],[0.36447916666666674,0.1824074074074074],[0.38135416666666655,0.11611111111111119],[0.35052083333333334,0.12444444444444452],[0.3522916666666667,0.10648148148148148],[0.3522916666666667,0.10648148148148148],[0.3696875000000001,0.08777777777777773],[0.3991666666666667,0.12240740740740745],[0.3818749999999999,0.06185185185185181],[0.3629166666666668,0.07277777777777769],[0.28187499999999993,0.0992592592592593],[0.19395833333333337,0.11444444444444436],[0.16302083333333334,0.12888888888888894],[0.12687499999999996,0.11944444444444445],[0.12687499999999996,0.11944444444444445],[0.16104166666666658,0.07166666666666675],[0.1694791666666667,0.03851851851851843],[0.15875000000000009,0.005370370370370328],[0.19020833333333323,-0.10888888888888891],[0.19072916666666656,-0.08555555555555554],[0.18083333333333323,-0.07407407407407407],[0.18010416666666676,-0.07999999999999997],[0.18635416666666677,-0.07388888888888885],[0.2039583333333333,-0.06814814814814817],[0.22760416666666666,-0.0933333333333333],[0.23895833333333344,-0.12481481481481477],[0.2125,-0.0883333333333333],[0.19000000000000009,-0.047037037037036995],[0.1234375,0.01592592592592597],[0.1345833333333334,0.036481481481481566],[0.13531250000000009,0.04333333333333329],[0.13791666666666677,0.046296296296296294],[0.15572916666666667,0.054259259259259174],[0.15333333333333338,0.06814814814814807],[0.15333333333333338,0.06814814814814807],[0.1345833333333334,0.12537037037037047],[0.05614583333333331,0.1587037037037038],[0.008645833333333287,0.13574074074074066],[-0.07093750000000003,0.1264814814814814],[-0.16072916666666662,0.12333333333333338],[-0.22854166666666664,0.12666666666666662],[-0.22854166666666664,0.12666666666666662],[-0.2163541666666667,0.1270370370370371],[-0.21145833333333333,0.0985185185185186],[-0.22468750000000004,0.06555555555555552],[-0.24802083333333336,0.06666666666666667],[-0.23250000000000004,0.040370370370370286],[-0.23250000000000004,0.040370370370370286],[-0.16291666666666665,0.03462962962962971],[-0.11572916666666669,0.01777777777777782],[-0.057395833333333354,0.012592592592592508],[0.0009374999999999763,0.007407407407407408],[0.09447916666666671,0.004814814814814857],[0.11322916666666671,0.014629629629629588],[0.12302083333333323,0.015555555555555513],[0.1328125,0.01648148148148144],[0.15770833333333342,-0.011111111111111112],[0.1540625000000001,-0.02370370370370362],[0.14343750000000005,-0.030555555555555555],[0.14343750000000005,-0.030555555555555555],[0.15520833333333334,-0.02629629629629638],[0.19677083333333342,0.009999999999999959],[0.21541666666666662,0.03259259259259263],[0.17687499999999995,0.04611111111111107],[0.1765625,0.05259259259259255],[0.20677083333333332,0.09611111111111106],[0.2209374999999999,0.11888888888888897],[0.2209374999999999,0.11888888888888897],[0.19249999999999995,0.14462962962962966],[0.19249999999999995,0.14462962962962966],[0.17531249999999995,0.20407407407407416],[0.19874999999999995,0.26222222222222225],[0.2241666666666667,0.2996296296296295],[0.22552083333333334,0.26518518518518525],[0.23989583333333328,0.22833333333333325],[0.2696875000000001,0.2007407407407407],[0.23875000000000005,0.16296296296296298],[0.24927083333333327,0.12962962962962962],[0.2626041666666666,0.12111111111111107],[0.32177083333333345,0.08351851851851856],[0.3654166666666666,0.07166666666666675],[0.3654166666666666,0.07166666666666675],[0.36124999999999996,-0.006851851851851936],[0.3586458333333333,-0.06314814814814819],[0.36041666666666666,-0.09185185185185189],[0.3720833333333334,-0.10444444444444441],[0.3772916666666667,-0.10851851851851856],[0.40499999999999997,-0.09537037037037037],[0.38479166666666675,-0.1398148148148148],[0.38479166666666675,-0.1398148148148148],[0.37781250000000005,-0.18833333333333332],[0.37781250000000005,-0.18833333333333332],[0.3394791666666668,-0.19037037037037038],[0.3394791666666668,-0.19037037037037038],[0.3311458333333334,-0.20833333333333334],[0.3311458333333334,-0.20833333333333334],[0.3770833333333333,-0.14462962962962966],[0.3770833333333333,-0.14462962962962966],[0.36656250000000007,-0.1242592592592593],[0.36656250000000007,-0.1242592592592593],[0.3580208333333334,-0.1294444444444444],[0.3580208333333334,-0.1294444444444444],[0.38385416666666666,-0.16129629629629633],[0.3754166666666668,-0.20462962962962963],[0.38125,-0.26222222222222225],[0.3910416666666668,-0.2455555555555556],[0.3802083333333333,-0.20666666666666672],[0.3977083333333333,-0.19388888888888886],[0.3844791666666666,-0.22814814814814813],[0.3311458333333334,-0.28185185185185185],[0.3489583333333333,-0.3296296296296296],[0.37562499999999993,-0.36500000000000005],[0.3654166666666666,-0.3333333333333333],[0.3654166666666666,-0.3333333333333333],[0.3805208333333333,-0.307962962962963],[0.36687500000000006,-0.30111111111111116],[0.3384375000000001,-0.27018518518518514],[0.3381249999999999,-0.26722222222222225],[0.3381249999999999,-0.26722222222222225],[0.32958333333333345,-0.3274074074074074],[0.3297916666666666,-0.33796296296296297],[0.32999999999999996,-0.3485185185185185],[0.32999999999999996,-0.3485185185185185],[0.3071875000000001,-0.36148148148148146],[0.3132291666666667,-0.3705555555555556],[0.32177083333333345,-0.42000000000000004],[0.30927083333333344,-0.4557407407407408],[0.31124999999999997,-0.45870370370370367],[0.31062500000000004,-0.4674074074074074],[0.3025000000000001,-0.4703703703703704],[0.30416666666666664,-0.43444444444444447],[0.3020833333333333,-0.44462962962962965],[0.3020833333333333,-0.44462962962962965],[0.28635416666666674,-0.422037037037037],[0.28395833333333326,-0.42685185185185187],[0.25270833333333326,-0.43555555555555553],[0.2328125,-0.40481481481481485],[0.2349999999999999,-0.4096296296296296],[0.23718750000000005,-0.41444444444444445],[0.265625,-0.4653703703703704],[0.28843750000000007,-0.5246296296296297],[0.2897916666666667,-0.5575925925925926],[0.2911458333333333,-0.5905555555555555],[0.2877083333333334,-0.6551851851851852],[0.29677083333333343,-0.6237037037037038],[0.2868750000000001,-0.6440740740740741],[0.2894791666666668,-0.6698148148148148],[0.29104166666666675,-0.6737037037037037],[0.2928124999999999,-0.678888888888889],[0.27281250000000007,-0.6968518518518518],[0.26583333333333337,-0.6964814814814815],[0.26291666666666674,-0.7061111111111111],[0.275,-0.6977777777777778],[0.3055208333333333,-0.6905555555555555],[0.2955208333333334,-0.6922222222222223],[0.30447916666666663,-0.642037037037037],[0.3006249999999999,-0.6637037037037037],[0.29666666666666663,-0.6855555555555556],[0.2931250000000001,-0.7035185185185184],[0.30666666666666675,-0.679074074074074],[0.32447916666666665,-0.6822222222222222],[0.33958333333333335,-0.6707407407407407],[0.3420833333333334,-0.6640740740740741],[0.3321875000000001,-0.6718518518518519],[0.3084374999999999,-0.6607407407407407],[0.3125,-0.7014814814814815],[0.3125,-0.7014814814814815],[0.3193749999999999,-0.6729629629629629],[0.3051041666666668,-0.6657407407407407],[0.2883333333333333,-0.6642592592592592],[0.2618750000000001,-0.6872222222222223],[0.2125,-0.65],[0.2009375000000001,-0.6494444444444444],[0.18697916666666667,-0.6620370370370371],[0.17510416666666656,-0.6418518518518519],[0.21822916666666667,-0.6724074074074075],[0.2515625,-0.6312962962962962],[0.27104166666666674,-0.6216666666666667],[0.2757291666666667,-0.571111111111111],[0.3006249999999999,-0.5127777777777778],[0.28062500000000007,-0.4309259259259259],[0.271875,-0.39166666666666666],[0.271875,-0.39166666666666666],[0.26749999999999996,-0.35],[0.2933333333333332,-0.28277777777777774],[0.2933333333333332,-0.28277777777777774],[0.3,-0.30333333333333334],[0.27999999999999997,-0.2331481481481481],[0.2419791666666666,-0.18277777777777776]]","[[-0.17406250000000004,-0.012037037037037037,0.00040000009536811376],[-0.17406250000000004,-0.012037037037037037,0.053400000095365385],[-0.13489583333333333,-0.05407407407407405,0.07550000000000523],[-0.13489583333333333,-0.05407407407407405,0.08329999971390123],[-0.13541666666666666,-0.10407407407407405,0.11079999971390464],[-0.13541666666666666,-0.10407407407407405,0.11959999990463643],[-0.10322916666666669,-0.1259259259259259,0.14400000000000546],[-0.10322916666666669,-0.1259259259259259,0.15149999999999864],[-0.07875000000000003,-0.122037037037037,0.177900000095363],[-0.07875000000000003,-0.122037037037037,0.20679999971389407],[-0.08302083333333338,-0.11444444444444446,0.2267999997139043],[-0.08302083333333338,-0.11444444444444446,0.24329999971389782],[-0.0921875,-0.08148148148148149,0.2579000000953613],[-0.08624999999999995,-0.03888888888888889,0.27459999990463757],[-0.08156249999999995,-0.005185185185185101,0.292500000000004],[-0.08093750000000005,-0.0020370370370370794,0.30829999971389555],[-0.07958333333333331,0.024629629629629547,0.324699999809269],[-0.10718749999999998,0.09759259259259268,0.3411999998092625],[-0.10406249999999997,0.17611111111111116,0.3579000000953698],[-0.12166666666666662,0.202962962962963,0.3745999999046319],[-0.15531250000000002,0.22592592592592592,0.3930000000000007],[-0.16968749999999996,0.25,0.4081999998092698],[-0.18739583333333332,0.2192592592592592,0.4255999999046338],[-0.20697916666666671,0.19018518518518526,0.44440000009537073],[-0.20572916666666666,0.19240740740740736,0.46219999980927184],[-0.20447916666666663,0.19462962962962968,0.4772999997138925],[-0.18541666666666667,0.1772222222222223,0.49619999980926366],[-0.17677083333333338,0.15648148148148147,0.5112999997138985],[-0.15270833333333336,0.13759259259259252,0.527699999809272],[-0.12895833333333329,0.1507407407407407,0.5419000000953673],[-0.06781250000000003,0.13740740740740748,0.5577999997138932],[-0.006666666666666643,0.12407407407407407,0.5745000000000005],[0.06354166666666666,0.09462962962962967,0.5912999997138968],[0.1337500000000001,0.06518518518518526,0.6079000000953698],[0.17645833333333344,0.04462962962962967,0.6245999999046319],[0.20302083333333343,0.0242592592592593,0.6411999998092597],[0.21802083333333327,0.0025925925925925505,0.6580000000000013],[0.21802083333333327,0.0025925925925925505,0.674599999904629],[0.22645833333333343,-0.019259259259259216,0.6912999997138911],[0.22645833333333343,-0.019259259259259216,0.7079000000953641],[0.1977083333333333,-0.056666666666666705,0.7245000000000061],[0.1977083333333333,-0.056666666666666705,0.7412999997139025],[0.11552083333333343,-0.10314814814814813,0.7579999999999956],[0.11552083333333343,-0.10314814814814813,0.7745999999046376],[-0.0026041666666666665,-0.10777777777777775,0.7914999999999992],[-0.0026041666666666665,-0.10777777777777775,0.8079000000953727],[-0.11104166666666669,-0.1544444444444444,0.8247999997139033],[-0.11104166666666669,-0.1544444444444444,0.8412999997138968],[-0.19333333333333336,-0.13370370370370369,0.8579000000953698],[-0.2859375,-0.13185185185185183,0.8840999999046346],[-0.2859375,-0.13185185185185183,0.8914000000953735],[-0.3802083333333333,-0.1205555555555556,0.9080000000000013],[-0.4445833333333333,-0.1307407407407408,0.924599999904629],[-0.5152083333333334,-0.12000000000000002,0.941199999809271],[-0.6005208333333333,-0.08722222222222227,0.9579000000953641],[-0.6669791666666666,-0.056851851851851834,0.9745999999046262],[-0.6654166666666667,-0.07833333333333335,0.9912999997139025],[-0.6415624999999999,-0.13703703703703704,1.0102999997138937],[-0.5661458333333333,-0.1418518518518519,1.0245000000000033],[-0.5177083333333333,-0.1685185185185185,1.0411999998092654],[-0.4469791666666667,-0.14611111111111108,1.0577999997138932],[-0.38822916666666674,-0.1537037037037037,1.0745000000000005],[-0.3446875,-0.14444444444444443,1.091400000095362],[-0.29791666666666666,-0.14148148148148143,1.1077999997139045],[-0.23312499999999994,-0.15407407407407406,1.1245999999046319],[-0.1482291666666666,-0.1638888888888889,1.1411999998092597],[-0.07791666666666662,-0.11277777777777774,1.157900000095367],[-0.02177083333333331,-0.057777777777777754,1.174599999904629],[-0.022500000000000023,-0.04407407407407399,1.196400000095366],[-0.022500000000000023,-0.04407407407407399,1.2079000000953641],[-0.02322916666666662,-0.03037037037037033,1.2245999999046262],[-0.02322916666666662,-0.03037037037037033,1.2412999997139025],[-0.011979166666666667,-0.01722222222222214,1.2579999999999956],[0.02041666666666669,-0.03370370370370379,1.2745000000000033],[0.06041666666666667,-0.012592592592592508,1.2911999998092654],[0.07104166666666671,0.0198148148148149,1.3077999997138932],[0.07104166666666671,0.0198148148148149,1.3245000000000005],[0.08760416666666657,0.0257407407407407,1.3412999997138968],[0.0806250000000001,0.020370370370370372,1.3592999997138975],[0.07364583333333338,0.015000000000000043,1.3746999998092662],[0.09239583333333339,0.030555555555555555,1.393099999904635],[0.10677083333333333,0.07555555555555547,1.4120999999046262],[0.11749999999999995,0.13111111111111104,1.4277999997138977],[0.10427083333333324,0.15703703703703695,1.441199999809271],[0.125,0.2192592592592592,1.4579000000953641],[0.10635416666666657,0.23203703703703696,1.4745999999046262],[0.10541666666666671,0.23555555555555563,1.4914000000953678],[0.10177083333333338,0.25925925925925924,1.5090000000000003],[0.1015625,0.29148148148148145,1.5245000000000033],[0.13333333333333333,0.3168518518518519,1.5414999999999992],[0.15354166666666677,0.31740740740740736,1.5589000000953632],[0.15927083333333342,0.2890740740740741,1.57659999990463],[0.15291666666666662,0.2948148148148149,1.5967999997138946],[0.15291666666666662,0.2948148148148149,1.6079000000953698],[0.14656250000000004,0.30055555555555546,1.6245999999046319],[0.11062500000000004,0.33000000000000007,1.641699999809262],[0.13114583333333343,0.34592592592592586,1.6592999997138946],[0.15291666666666662,0.3622222222222223,1.6776999998092634],[0.19541666666666657,0.3803703703703703,1.6949000000953731],[0.23791666666666675,0.3985185185185186,1.70969999980926],[0.21552083333333344,0.4094444444444445,1.7246999998092605],[0.1931250000000001,0.4203703703703704,1.741099999904634],[0.19479166666666667,0.43574074074074065,1.7582999997138984],[0.21218750000000006,0.4064814814814815,1.7745000000000033],[0.2462500000000001,0.3685185185185185,1.7911999998092654],[0.2763541666666666,0.28944444444444434,1.8081999998092613],[0.2669791666666666,0.2524074074074073,1.8257999997138938],[0.2647916666666667,0.2192592592592592,1.8417999997138992],[0.2490624999999999,0.1624074074074075,1.8617999997138952],[0.23333333333333334,0.10555555555555556,1.8751999998092685],[0.25968749999999996,0.028888888888888933,1.891299999713894],[0.2860416666666666,-0.0477777777777777,1.9085000000000036],[0.30281250000000004,-0.1,1.9244999999999948],[0.31270833333333337,-0.12888888888888894,1.941199999809271],[0.30593750000000003,-0.14907407407407408,1.9579000000953641],[0.2709374999999999,-0.18407407407407403,1.9745999999046262],[0.2621875000000001,-0.2381481481481482,1.9912999997139025],[0.2534374999999999,-0.2922222222222222,2.0079000000953613],[0.2365624999999999,-0.2903703703703704,2.027299999713904],[0.2196875000000001,-0.28851851851851856,2.044699999809268],[0.1943749999999999,-0.20555555555555555,2.0589999999999975],[0.16875,-0.11092592592592589,2.0747999997139033],[0.128125,-0.03425925925925926,2.091400000095362],[0.0943749999999999,0.01907407407407399,2.11090000009537],[0.07000000000000005,0.09185185185185189,2.125699999809271],[0.07000000000000005,0.09185185185185189,2.141299999713894],[0.07385416666666676,0.1794444444444444,2.1580999999046355],[0.07989583333333337,0.2548148148148149,2.177499999999995],[0.041979166666666616,0.3427777777777778,2.1970000000000027],[0.041979166666666616,0.3427777777777778,2.2080999999046327],[0.004999999999999952,0.3966666666666668,2.22969999980927],[0.004999999999999952,0.3966666666666668,2.24190000009537],[-0.021249999999999977,0.4516666666666666,2.25809999990463],[-0.04583333333333333,0.46333333333333343,2.281099999904626],[-0.04583333333333333,0.46333333333333343,2.291400000095365],[-0.08104166666666662,0.45851851851851855,2.308099999904627],[-0.10125000000000005,0.47166666666666673,2.324699999809269],[-0.06645833333333329,0.47685185185185186,2.343900000095374],[-0.10197916666666665,0.44166666666666665,2.3606999998092704],[-0.1375,0.4064814814814815,2.3747999997139004],[-0.18520833333333328,0.3903703703703703,2.396000000000001],[-0.18520833333333328,0.3903703703703703,2.4080999999046355],[-0.1929166666666667,0.37814814814814823,2.4246999998092633],[-0.21437499999999995,0.36666666666666664,2.444099999904637],[-0.20416666666666666,0.3566666666666667,2.460799999713899],[-0.19635416666666666,0.3427777777777778,2.4747999997138947],[-0.13666666666666671,0.33833333333333343,2.491500000000002],[-0.07697916666666664,0.3338888888888888,2.51409999990463],[-0.07697916666666664,0.3338888888888888,2.524699999809272],[-0.1092708333333333,0.32518518518518524,2.541400000095365],[-0.07000000000000005,0.3533333333333332,2.558000000000007],[-0.018333333333333358,0.3822222222222222,2.5774000000953663],[-0.01114583333333338,0.3798148148148149,2.5936999998092602],[0,0.3609259259259259,2.609099999904629],[0.018124999999999978,0.3431481481481481,2.627900000095366],[0.03291666666666669,0.31962962962962965,2.641999999999996],[0.04052083333333331,0.3096296296296297,2.6589000000953718],[0.007291666666666667,0.2983333333333334,2.6744999999999948],[-0.0109375,0.31740740740740736,2.691199999809271],[-0.0109375,0.31740740740740736,2.7116999998092695],[0.014583333333333334,0.319074074074074,2.724500000000006],[0.014583333333333334,0.319074074074074,2.741199999809268],[0.033958333333333354,0.3050000000000001,2.757799999713896],[0.033958333333333354,0.3050000000000001,2.7745999999046376],[0.04593750000000003,0.3205555555555556,2.791499999999999],[0.04593750000000003,0.3205555555555556,2.8079000000953727],[0.08739583333333342,0.3394444444444444,2.8245000000000005],[0.15489583333333337,0.3646296296296296,2.846999999999994],[0.15489583333333337,0.3646296296296296,2.85790000009537],[0.20833333333333334,0.3877777777777777,2.8744999999999976],[0.23114583333333344,0.4105555555555556,2.899799999713892],[0.23114583333333344,0.4105555555555556,2.9077999997139017],[0.26114583333333335,0.4198148148148149,2.9244999999999948],[0.2720833333333334,0.4383333333333334,2.941299999713891],[0.28312499999999996,0.4287037037037037,2.957799999713899],[0.2873958333333334,0.4487037037037036,2.974500000000006],[0.2617708333333333,0.4455555555555556,2.991199999809268],[0.23083333333333325,0.452962962962963,3.007799999713896],[0.23833333333333329,0.4838888888888888,3.0245000000000033],[0.21979166666666666,0.5085185185185186,3.041099999904631],[0.21739583333333337,0.5066666666666667,3.057799999713893],[0.20656249999999995,0.5083333333333333,3.0745000000000005],[0.1953125,0.505925925925926,3.0911999998092625],[0.20302083333333343,0.490925925925926,3.10790000009537],[0.19562499999999997,0.4737037037037036,3.1276999998092663],[0.2055208333333333,0.40111111111111114,3.1437999997138917],[0.27760416666666665,0.35796296296296287,3.1625999999046286],[0.27760416666666665,0.35796296296296287,3.174599999904629],[0.35281250000000003,0.27259259259259266,3.1920000000000073],[0.35281250000000003,0.27259259259259266,3.207799999713899],[0.36447916666666674,0.1824074074074074,3.2247999997138947],[0.36447916666666674,0.1824074074074074,3.2454000000953727],[0.38135416666666655,0.11611111111111119,3.2579000000953613],[0.35052083333333334,0.12444444444444452,3.278799999713897],[0.3522916666666667,0.10648148148148148,3.3004999999999995],[0.3522916666666667,0.10648148148148148,3.3079000000953727],[0.3696875000000001,0.08777777777777773,3.3245999999046347],[0.3991666666666667,0.12240740740740745,3.345400000095367],[0.3818749999999999,0.06185185185185181,3.3600999999046337],[0.3629166666666668,0.07277777777777769,3.374599999904632],[0.28187499999999993,0.0992592592592593,3.3921999998092645],[0.19395833333333337,0.11444444444444436,3.4121999998092605],[0.16302083333333334,0.12888888888888894,3.4276999998092634],[0.12687499999999996,0.11944444444444445,3.443400000095366],[0.12687499999999996,0.11944444444444445,3.4579999999999984],[0.16104166666666658,0.07166666666666675,3.4784000000953625],[0.1694791666666667,0.03851851851851843,3.495599999904627],[0.15875000000000009,0.005370370370370328,3.511799999713901],[0.19020833333333323,-0.10888888888888891,3.5296999998092673],[0.19072916666666656,-0.08555555555555554,3.5456999998092584],[0.18083333333333323,-0.07407407407407407,3.561099999904627],[0.18010416666666676,-0.07999999999999997,3.574699999809269],[0.18635416666666677,-0.07388888888888885,3.5955999999046355],[0.2039583333333333,-0.06814814814814817,3.6122999997138976],[0.22760416666666666,-0.0933333333333333,3.6276999998092663],[0.23895833333333344,-0.12481481481481477,3.6450999999046303],[0.2125,-0.0883333333333333,3.6606999998092675],[0.19000000000000009,-0.047037037037036995,3.6747999997138976],[0.1234375,0.01592592592592597,3.6914000000953706],[0.1345833333333334,0.036481481481481566,3.7125000000000057],[0.13531250000000009,0.04333333333333329,3.7275999999046263],[0.13791666666666677,0.046296296296296294,3.742999999999995],[0.15572916666666667,0.054259259259259174,3.7620000000000005],[0.15333333333333338,0.06814814814814807,3.779599999904633],[0.15333333333333338,0.06814814814814807,3.7990999999046267],[0.1345833333333334,0.12537037037037047,3.8130000000000024],[0.05614583333333331,0.1587037037037038,3.8277999997139034],[0.008645833333333287,0.13574074074074066,3.8414999999999964],[-0.07093750000000003,0.1264814814814814,3.8577999997139045],[-0.16072916666666662,0.12333333333333338,3.8744999999999976],[-0.22854166666666664,0.12666666666666662,3.893400000095369],[-0.22854166666666664,0.12666666666666662,3.909799999713897],[-0.2163541666666667,0.1270370370370371,3.9247999997138976],[-0.21145833333333333,0.0985185185185186,3.941299999713891],[-0.22468750000000004,0.06555555555555552,3.962199999809272],[-0.24802083333333336,0.06666666666666667,3.9760999999046334],[-0.23250000000000004,0.040370370370370286,3.9927999997138954],[-0.23250000000000004,0.040370370370370286,4.00809999990463],[-0.16291666666666665,0.03462962962962971,4.027099999904635],[-0.11572916666666669,0.01777777777777782,4.041900000095367],[-0.057395833333333354,0.012592592592592508,4.0582999997138955],[0.0009374999999999763,0.007407407407407408,4.076499999999996],[0.09447916666666671,0.004814814814814857,4.091099999904628],[0.11322916666666671,0.014629629629629588,4.1077999997139045],[0.12302083333333323,0.015555555555555513,4.124599999904632],[0.1328125,0.01648148148148144,4.14119999980926],[0.15770833333333342,-0.011111111111111112,4.157900000095367],[0.1540625000000001,-0.02370370370370362,4.174499999999995],[0.14343750000000005,-0.030555555555555555,4.1924999999999955],[0.14343750000000005,-0.030555555555555555,4.207900000095364],[0.15520833333333334,-0.02629629629629638,4.224599999904626],[0.19677083333333342,0.009999999999999959,4.244799999713905],[0.21541666666666662,0.03259259259259263,4.259699999809271],[0.17687499999999995,0.04611111111111107,4.274500000000003],[0.1765625,0.05259259259259255,4.291400000095365],[0.20677083333333332,0.09611111111111106,4.309799999713903],[0.2209374999999999,0.11888888888888897,4.327799999713903],[0.2209374999999999,0.11888888888888897,4.341299999713897],[0.19249999999999995,0.14462962962962966,4.358199999809258],[0.19249999999999995,0.14462962962962966,4.3766999998092615],[0.17531249999999995,0.20407407407407416,4.3914999999999935],[0.19874999999999995,0.26222222222222225,4.408599999904638],[0.2241666666666667,0.2996296296296295,4.427699999809263],[0.22552083333333334,0.26518518518518525,4.441400000095371],[0.23989583333333328,0.22833333333333325,4.457999999999998],[0.2696875000000001,0.2007407407407407,4.4746999998092605],[0.23875000000000005,0.16296296296296298,4.494599999904636],[0.24927083333333327,0.12962962962962962,4.509099999904635],[0.2626041666666666,0.12111111111111107,4.5294000000953645],[0.32177083333333345,0.08351851851851856,4.545099999904636],[0.3654166666666666,0.07166666666666675,4.561199999809261],[0.3654166666666666,0.07166666666666675,4.574699999809269],[0.36124999999999996,-0.006851851851851936,4.591400000095362],[0.3586458333333333,-0.06314814814814819,4.6097999997139],[0.36041666666666666,-0.09185185185185189,4.6247999997139],[0.3720833333333334,-0.10444444444444441,4.6414999999999935],[0.3772916666666667,-0.10851851851851856,4.657900000095367],[0.40499999999999997,-0.09537037037037037,4.676599999904639],[0.38479166666666675,-0.1398148148148148,4.697400000095371],[0.38479166666666675,-0.1398148148148148,4.707900000095364],[0.37781250000000005,-0.18833333333333332,4.728900000095365],[0.37781250000000005,-0.18833333333333332,4.7412999997139025],[0.3394791666666668,-0.19037037037037038,4.757999999999996],[0.3394791666666668,-0.19037037037037038,4.781599999904628],[0.3311458333333334,-0.20833333333333334,4.791900000095367],[0.3311458333333334,-0.20833333333333334,4.808099999904627],[0.3770833333333333,-0.14462962962962966,4.8289000000953735],[0.3770833333333333,-0.14462962962962966,4.841299999713897],[0.36656250000000007,-0.1242592592592593,4.858099999904638],[0.36656250000000007,-0.1242592592592593,4.874699999809266],[0.3580208333333334,-0.1294444444444444,4.895599999904633],[0.3580208333333334,-0.1294444444444444,4.908000000000001],[0.38385416666666666,-0.16129629629629633,4.924799999713898],[0.3754166666666668,-0.20462962962962963,4.941299999713891],[0.38125,-0.26222222222222225,4.960499999999996],[0.3910416666666668,-0.2455555555555556,4.975999999999999],[0.3802083333333333,-0.20666666666666672,4.991500000000002],[0.3977083333333333,-0.19388888888888886,5.010999999999996],[0.3844791666666666,-0.22814814814814813,5.0279000000953715],[0.3311458333333334,-0.28185185185185185,5.0415999999046335],[0.3489583333333333,-0.3296296296296296,5.058000000000007],[0.37562499999999993,-0.36500000000000005,5.076499999999996],[0.3654166666666666,-0.3333333333333333,5.091699999809265],[0.3654166666666666,-0.3333333333333333,5.108000000000004],[0.3805208333333333,-0.307962962962963,5.128099999904634],[0.36687500000000006,-0.30111111111111116,5.1432999997139035],[0.3384375000000001,-0.27018518518518514,5.161500000000004],[0.3381249999999999,-0.26722222222222225,5.1785],[0.3381249999999999,-0.26722222222222225,5.191400000095371],[0.32958333333333345,-0.3274074074074074,5.208199999809267],[0.3297916666666666,-0.33796296296296297,5.225599999904631],[0.32999999999999996,-0.3485185185185185,5.251299999713893],[0.32999999999999996,-0.3485185185185185,5.258199999809264],[0.3071875000000001,-0.36148148148148146,5.274500000000003],[0.3132291666666667,-0.3705555555555556,5.292500000000004],[0.32177083333333345,-0.42000000000000004,5.308000000000007],[0.30927083333333344,-0.4557407407407408,5.3245000000000005],[0.31124999999999997,-0.45870370370370367,5.341799999713899],[0.31062500000000004,-0.4674074074074074,5.3577999997139045],[0.3025000000000001,-0.4703703703703704,5.374400000095363],[0.30416666666666664,-0.43444444444444447,5.391299999713894],[0.3020833333333333,-0.44462962962962965,5.408799999713892],[0.3020833333333333,-0.44462962962962965,5.424499999999995],[0.28635416666666674,-0.422037037037037,5.441099999904637],[0.28395833333333326,-0.42685185185185187,5.457799999713899],[0.25270833333333326,-0.43555555555555553,5.474400000095372],[0.2328125,-0.40481481481481485,5.491599999904636],[0.2349999999999999,-0.4096296296296296,5.510499999999993],[0.23718750000000005,-0.41444444444444445,5.526900000095367],[0.265625,-0.4653703703703704,5.542000000000002],[0.28843750000000007,-0.5246296296296297,5.559799999713903],[0.2897916666666667,-0.5575925925925926,5.574900000095369],[0.2911458333333333,-0.5905555555555555,5.594900000095365],[0.2877083333333334,-0.6551851851851852,5.610099999904634],[0.29677083333333343,-0.6237037037037038,5.626799999713896],[0.2868750000000001,-0.6440740740740741,5.642299999713899],[0.2894791666666668,-0.6698148148148148,5.65819999980927],[0.29104166666666675,-0.6737037037037037,5.674499999999995],[0.2928124999999999,-0.678888888888889,5.694900000095373],[0.27281250000000007,-0.6968518518518518,5.712799999713894],[0.26583333333333337,-0.6964814814814815,5.72990000009537],[0.26291666666666674,-0.7061111111111111,5.745299999713893],[0.275,-0.6977777777777778,5.761499999999998],[0.3055208333333333,-0.6905555555555555,5.777099999904635],[0.2955208333333334,-0.6922222222222223,5.794699999809268],[0.30447916666666663,-0.642037037037037,5.810500000000005],[0.3006249999999999,-0.6637037037037037,5.824400000095366],[0.29666666666666663,-0.6855555555555556,5.841099999904628],[0.2931250000000001,-0.7035185185185184,5.860099999904634],[0.30666666666666675,-0.679074074074074,5.874699999809266],[0.32447916666666665,-0.6822222222222222,5.895199999809265],[0.33958333333333335,-0.6707407407407407,5.911799999713892],[0.3420833333333334,-0.6640740740740741,5.927000000000007],[0.3321875000000001,-0.6718518518518519,5.944099999904637],[0.3084374999999999,-0.6607407407407407,5.962099999904638],[0.3125,-0.7014814814814815,5.97969999980927],[0.3125,-0.7014814814814815,5.991599999904636],[0.3193749999999999,-0.6729629629629629,6.007999999999996],[0.3051041666666668,-0.6657407407407407,6.027400000095369],[0.2883333333333333,-0.6642592592592592,6.041499999999999],[0.2618750000000001,-0.6872222222222223,6.059699999809268],[0.2125,-0.65,6.074799999713903],[0.2009375000000001,-0.6494444444444444,6.0911999998092625],[0.18697916666666667,-0.6620370370370371,6.111000000000004],[0.17510416666666656,-0.6418518518518519,6.126299999713893],[0.21822916666666667,-0.6724074074074075,6.14119999980926],[0.2515625,-0.6312962962962962,6.157799999713902],[0.27104166666666674,-0.6216666666666667,6.174400000095375],[0.2757291666666667,-0.571111111111111,6.191500000000005],[0.3006249999999999,-0.5127777777777778,6.212000000000003],[0.28062500000000007,-0.4309259259259259,6.229199999809268],[0.271875,-0.39166666666666666,6.24790000009537],[0.271875,-0.39166666666666666,6.257900000095361],[0.26749999999999996,-0.35,6.274699999809272],[0.2933333333333332,-0.28277777777777774,6.2912999997139],[0.2933333333333332,-0.28277777777777774,6.310900000095373],[0.3,-0.30333333333333334,6.324699999809269],[0.27999999999999997,-0.2331481481481481,6.341299999713897],[0.2419791666666666,-0.18277777777777776,6.3577999997139045]]","[0.00040000009536811376,0.053400000095365385,0.07550000000000523,0.08329999971390123,0.11079999971390464,0.11959999990463643,0.14400000000000546,0.15149999999999864,0.177900000095363,0.20679999971389407,0.2267999997139043,0.24329999971389782,0.2579000000953613,0.27459999990463757,0.292500000000004,0.30829999971389555,0.324699999809269,0.3411999998092625,0.3579000000953698,0.3745999999046319,0.3930000000000007,0.4081999998092698,0.4255999999046338,0.44440000009537073,0.46219999980927184,0.4772999997138925,0.49619999980926366,0.5112999997138985,0.527699999809272,0.5419000000953673,0.5577999997138932,0.5745000000000005,0.5912999997138968,0.6079000000953698,0.6245999999046319,0.6411999998092597,0.6580000000000013,0.674599999904629,0.6912999997138911,0.7079000000953641,0.7245000000000061,0.7412999997139025,0.7579999999999956,0.7745999999046376,0.7914999999999992,0.8079000000953727,0.8247999997139033,0.8412999997138968,0.8579000000953698,0.8840999999046346,0.8914000000953735,0.9080000000000013,0.924599999904629,0.941199999809271,0.9579000000953641,0.9745999999046262,0.9912999997139025,1.0102999997138937,1.0245000000000033,1.0411999998092654,1.0577999997138932,1.0745000000000005,1.091400000095362,1.1077999997139045,1.1245999999046319,1.1411999998092597,1.157900000095367,1.174599999904629,1.196400000095366,1.2079000000953641,1.2245999999046262,1.2412999997139025,1.2579999999999956,1.2745000000000033,1.2911999998092654,1.3077999997138932,1.3245000000000005,1.3412999997138968,1.3592999997138975,1.3746999998092662,1.393099999904635,1.4120999999046262,1.4277999997138977,1.441199999809271,1.4579000000953641,1.4745999999046262,1.4914000000953678,1.5090000000000003,1.5245000000000033,1.5414999999999992,1.5589000000953632,1.57659999990463,1.5967999997138946,1.6079000000953698,1.6245999999046319,1.641699999809262,1.6592999997138946,1.6776999998092634,1.6949000000953731,1.70969999980926,1.7246999998092605,1.741099999904634,1.7582999997138984,1.7745000000000033,1.7911999998092654,1.8081999998092613,1.8257999997138938,1.8417999997138992,1.8617999997138952,1.8751999998092685,1.891299999713894,1.9085000000000036,1.9244999999999948,1.941199999809271,1.9579000000953641,1.9745999999046262,1.9912999997139025,2.0079000000953613,2.027299999713904,2.044699999809268,2.0589999999999975,2.0747999997139033,2.091400000095362,2.11090000009537,2.125699999809271,2.141299999713894,2.1580999999046355,2.177499999999995,2.1970000000000027,2.2080999999046327,2.22969999980927,2.24190000009537,2.25809999990463,2.281099999904626,2.291400000095365,2.308099999904627,2.324699999809269,2.343900000095374,2.3606999998092704,2.3747999997139004,2.396000000000001,2.4080999999046355,2.4246999998092633,2.444099999904637,2.460799999713899,2.4747999997138947,2.491500000000002,2.51409999990463,2.524699999809272,2.541400000095365,2.558000000000007,2.5774000000953663,2.5936999998092602,2.609099999904629,2.627900000095366,2.641999999999996,2.6589000000953718,2.6744999999999948,2.691199999809271,2.7116999998092695,2.724500000000006,2.741199999809268,2.757799999713896,2.7745999999046376,2.791499999999999,2.8079000000953727,2.8245000000000005,2.846999999999994,2.85790000009537,2.8744999999999976,2.899799999713892,2.9077999997139017,2.9244999999999948,2.941299999713891,2.957799999713899,2.974500000000006,2.991199999809268,3.007799999713896,3.0245000000000033,3.041099999904631,3.057799999713893,3.0745000000000005,3.0911999998092625,3.10790000009537,3.1276999998092663,3.1437999997138917,3.1625999999046286,3.174599999904629,3.1920000000000073,3.207799999713899,3.2247999997138947,3.2454000000953727,3.2579000000953613,3.278799999713897,3.3004999999999995,3.3079000000953727,3.3245999999046347,3.345400000095367,3.3600999999046337,3.374599999904632,3.3921999998092645,3.4121999998092605,3.4276999998092634,3.443400000095366,3.4579999999999984,3.4784000000953625,3.495599999904627,3.511799999713901,3.5296999998092673,3.5456999998092584,3.561099999904627,3.574699999809269,3.5955999999046355,3.6122999997138976,3.6276999998092663,3.6450999999046303,3.6606999998092675,3.6747999997138976,3.6914000000953706,3.7125000000000057,3.7275999999046263,3.742999999999995,3.7620000000000005,3.779599999904633,3.7990999999046267,3.8130000000000024,3.8277999997139034,3.8414999999999964,3.8577999997139045,3.8744999999999976,3.893400000095369,3.909799999713897,3.9247999997138976,3.941299999713891,3.962199999809272,3.9760999999046334,3.9927999997138954,4.00809999990463,4.027099999904635,4.041900000095367,4.0582999997138955,4.076499999999996,4.091099999904628,4.1077999997139045,4.124599999904632,4.14119999980926,4.157900000095367,4.174499999999995,4.1924999999999955,4.207900000095364,4.224599999904626,4.244799999713905,4.259699999809271,4.274500000000003,4.291400000095365,4.309799999713903,4.327799999713903,4.341299999713897,4.358199999809258,4.3766999998092615,4.3914999999999935,4.408599999904638,4.427699999809263,4.441400000095371,4.457999999999998,4.4746999998092605,4.494599999904636,4.509099999904635,4.5294000000953645,4.545099999904636,4.561199999809261,4.574699999809269,4.591400000095362,4.6097999997139,4.6247999997139,4.6414999999999935,4.657900000095367,4.676599999904639,4.697400000095371,4.707900000095364,4.728900000095365,4.7412999997139025,4.757999999999996,4.781599999904628,4.791900000095367,4.808099999904627,4.8289000000953735,4.841299999713897,4.858099999904638,4.874699999809266,4.895599999904633,4.908000000000001,4.924799999713898,4.941299999713891,4.960499999999996,4.975999999999999,4.991500000000002,5.010999999999996,5.0279000000953715,5.0415999999046335,5.058000000000007,5.076499999999996,5.091699999809265,5.108000000000004,5.128099999904634,5.1432999997139035,5.161500000000004,5.1785,5.191400000095371,5.208199999809267,5.225599999904631,5.251299999713893,5.258199999809264,5.274500000000003,5.292500000000004,5.308000000000007,5.3245000000000005,5.341799999713899,5.3577999997139045,5.374400000095363,5.391299999713894,5.408799999713892,5.424499999999995,5.441099999904637,5.457799999713899,5.474400000095372,5.491599999904636,5.510499999999993,5.526900000095367,5.542000000000002,5.559799999713903,5.574900000095369,5.594900000095365,5.610099999904634,5.626799999713896,5.642299999713899,5.65819999980927,5.674499999999995,5.694900000095373,5.712799999713894,5.72990000009537,5.745299999713893,5.761499999999998,5.777099999904635,5.794699999809268,5.810500000000005,5.824400000095366,5.841099999904628,5.860099999904634,5.874699999809266,5.895199999809265,5.911799999713892,5.927000000000007,5.944099999904637,5.962099999904638,5.97969999980927,5.991599999904636,6.007999999999996,6.027400000095369,6.041499999999999,6.059699999809268,6.074799999713903,6.0911999998092625,6.111000000000004,6.126299999713893,6.14119999980926,6.157799999713902,6.174400000095375,6.191500000000005,6.212000000000003,6.229199999809268,6.24790000009537,6.257900000095361,6.274699999809272,6.2912999997139,6.310900000095373,6.324699999809269,6.341299999713897,6.3577999997139045]","[1732007788161,1732007788202,1732007788224,1732007788232,1732007788259,1732007788268,1732007788292,1732007788300,1732007788326,1732007788355,1732007788375,1732007788392,1732007788406,1732007788423,1732007788441,1732007788457,1732007788473,1732007788489,1732007788506,1732007788523,1732007788542,1732007788556,1732007788574,1732007788593,1732007788610,1732007788626,1732007788644,1732007788660,1732007788676,1732007788690,1732007788706,1732007788723,1732007788740,1732007788756,1732007788773,1732007788789,1732007788806,1732007788823,1732007788840,1732007788856,1732007788873,1732007788889,1732007788906,1732007788923,1732007788940,1732007788956,1732007788973,1732007788990,1732007789006,1732007789032,1732007789040,1732007789056,1732007789073,1732007789089,1732007789106,1732007789123,1732007789140,1732007789159,1732007789173,1732007789189,1732007789206,1732007789223,1732007789240,1732007789256,1732007789273,1732007789289,1732007789306,1732007789323,1732007789345,1732007789356,1732007789373,1732007789390,1732007789406,1732007789423,1732007789439,1732007789456,1732007789473,1732007789490,1732007789508,1732007789523,1732007789541,1732007789560,1732007789576,1732007789589,1732007789606,1732007789623,1732007789640,1732007789657,1732007789673,1732007789690,1732007789707,1732007789725,1732007789745,1732007789756,1732007789773,1732007789790,1732007789808,1732007789826,1732007789843,1732007789858,1732007789873,1732007789889,1732007789907,1732007789923,1732007789939,1732007789957,1732007789974,1732007789990,1732007790010,1732007790023,1732007790040,1732007790057,1732007790073,1732007790089,1732007790106,1732007790123,1732007790140,1732007790156,1732007790176,1732007790193,1732007790207,1732007790223,1732007790240,1732007790259,1732007790274,1732007790290,1732007790306,1732007790326,1732007790345,1732007790356,1732007790378,1732007790390,1732007790406,1732007790429,1732007790440,1732007790456,1732007790473,1732007790492,1732007790509,1732007790523,1732007790544,1732007790556,1732007790573,1732007790592,1732007790609,1732007790623,1732007790640,1732007790662,1732007790673,1732007790690,1732007790706,1732007790726,1732007790742,1732007790757,1732007790776,1732007790790,1732007790807,1732007790823,1732007790839,1732007790860,1732007790873,1732007790889,1732007790906,1732007790923,1732007790940,1732007790956,1732007790973,1732007790995,1732007791006,1732007791023,1732007791048,1732007791056,1732007791073,1732007791089,1732007791106,1732007791123,1732007791139,1732007791156,1732007791173,1732007791189,1732007791206,1732007791223,1732007791240,1732007791256,1732007791276,1732007791292,1732007791311,1732007791323,1732007791340,1732007791356,1732007791373,1732007791394,1732007791406,1732007791427,1732007791449,1732007791456,1732007791473,1732007791494,1732007791508,1732007791523,1732007791541,1732007791560,1732007791576,1732007791592,1732007791606,1732007791627,1732007791644,1732007791660,1732007791678,1732007791694,1732007791709,1732007791723,1732007791744,1732007791761,1732007791776,1732007791793,1732007791809,1732007791823,1732007791840,1732007791861,1732007791876,1732007791891,1732007791910,1732007791928,1732007791947,1732007791961,1732007791976,1732007791990,1732007792006,1732007792023,1732007792042,1732007792058,1732007792073,1732007792090,1732007792110,1732007792124,1732007792141,1732007792156,1732007792175,1732007792190,1732007792207,1732007792225,1732007792239,1732007792256,1732007792273,1732007792289,1732007792306,1732007792323,1732007792341,1732007792356,1732007792373,1732007792393,1732007792408,1732007792423,1732007792440,1732007792458,1732007792476,1732007792490,1732007792506,1732007792525,1732007792540,1732007792557,1732007792576,1732007792590,1732007792606,1732007792623,1732007792643,1732007792657,1732007792678,1732007792693,1732007792709,1732007792723,1732007792740,1732007792758,1732007792773,1732007792790,1732007792806,1732007792825,1732007792846,1732007792856,1732007792877,1732007792890,1732007792906,1732007792930,1732007792940,1732007792956,1732007792977,1732007792990,1732007793006,1732007793023,1732007793044,1732007793056,1732007793073,1732007793090,1732007793109,1732007793124,1732007793140,1732007793159,1732007793176,1732007793190,1732007793206,1732007793225,1732007793240,1732007793256,1732007793276,1732007793292,1732007793310,1732007793327,1732007793340,1732007793356,1732007793374,1732007793400,1732007793406,1732007793423,1732007793441,1732007793456,1732007793473,1732007793490,1732007793506,1732007793523,1732007793540,1732007793557,1732007793573,1732007793589,1732007793606,1732007793623,1732007793640,1732007793659,1732007793675,1732007793690,1732007793708,1732007793723,1732007793743,1732007793758,1732007793775,1732007793791,1732007793807,1732007793823,1732007793843,1732007793861,1732007793878,1732007793894,1732007793910,1732007793925,1732007793943,1732007793959,1732007793973,1732007793989,1732007794008,1732007794023,1732007794043,1732007794060,1732007794075,1732007794092,1732007794110,1732007794128,1732007794140,1732007794156,1732007794176,1732007794190,1732007794208,1732007794223,1732007794239,1732007794259,1732007794275,1732007794289,1732007794306,1732007794323,1732007794340,1732007794360,1732007794377,1732007794396,1732007794406,1732007794423,1732007794440,1732007794459,1732007794473,1732007794490,1732007794506]","[[792.9,533.5],[792.9,533.5],[830.5,510.8],[830.5,510.8],[830,483.8],[830,483.8],[860.9,472],[860.9,472],[884.4,474.1],[884.4,474.1],[880.3,478.2],[880.3,478.2],[871.5,496],[877.2,519],[881.7,537.2],[882.3,538.9],[883.6,553.3],[857.1,592.7],[860.1,635.1],[843.2,649.6],[810.9,662],[797.1,675],[780.1,658.4],[761.3,642.7],[762.5,643.9],[763.7,645.1],[782,635.7],[790.3,624.5],[813.4,614.3],[836.2,621.4],[894.9,614.2],[953.6,607],[1021,591.1],[1088.4,575.2],[1129.4,564.1],[1154.9,553.1],[1169.3,541.4],[1169.3,541.4],[1177.4,529.6],[1177.4,529.6],[1149.8,509.4],[1149.8,509.4],[1070.9,484.3],[1070.9,484.3],[957.5,481.8],[957.5,481.8],[853.4,456.6],[853.4,456.6],[774.4,467.8],[685.5,468.8],[685.5,468.8],[595,474.9],[533.2,469.4],[465.4,475.2],[383.5,492.9],[319.7,509.3],[321.2,497.7],[344.1,466],[416.5,463.4],[463,449],[530.9,461.1],[587.3,457],[629.1,462],[674,463.6],[736.2,456.8],[817.7,451.5],[885.2,479.1],[939.1,508.8],[938.4,516.2],[938.4,516.2],[937.7,523.6],[937.7,523.6],[948.5,530.7],[979.6,521.8],[1018,533.2],[1028.2,550.7],[1028.2,550.7],[1044.1,553.9],[1037.4,551],[1030.7,548.1],[1048.7,556.5],[1062.5,580.8],[1072.8,610.8],[1060.1,624.8],[1080,658.4],[1062.1,665.3],[1061.2,667.2],[1057.7,680],[1057.5,697.4],[1088,711.1],[1107.4,711.4],[1112.9,696.1],[1106.8,699.2],[1106.8,699.2],[1100.7,702.3],[1066.2,718.2],[1085.9,726.8],[1106.8,735.6],[1147.6,745.4],[1188.4,755.2],[1166.9,761.1],[1145.4,767],[1147,775.3],[1163.7,759.5],[1196.4,739],[1225.3,696.3],[1216.3,676.3],[1214.2,658.4],[1199.1,627.7],[1184,597],[1209.3,555.6],[1234.6,514.2],[1250.7,486],[1260.2,470.4],[1253.7,459.5],[1220.1,440.6],[1211.7,411.4],[1203.3,382.2],[1187.1,383.2],[1170.9,384.2],[1146.6,429],[1122,480.1],[1083,521.5],[1050.6,550.3],[1027.2,589.6],[1027.2,589.6],[1030.9,636.9],[1036.7,677.6],[1000.3,725.1],[1000.3,725.1],[964.8,754.2],[964.8,754.2],[939.6,783.9],[916,790.2],[916,790.2],[882.2,787.6],[862.8,794.7],[896.2,797.5],[862.1,778.5],[828,759.5],[782.2,750.8],[782.2,750.8],[774.8,744.2],[754.2,738],[764,732.6],[771.5,725.1],[828.8,722.7],[886.1,720.3],[886.1,720.3],[855.1,715.6],[892.8,730.8],[942.4,746.4],[949.3,745.1],[960,734.9],[977.4,725.3],[991.6,712.6],[998.9,707.2],[967,701.1],[949.5,711.4],[949.5,711.4],[974,712.3],[974,712.3],[992.6,704.7],[992.6,704.7],[1004.1,713.1],[1004.1,713.1],[1043.9,723.3],[1108.7,736.9],[1108.7,736.9],[1160,749.4],[1181.9,761.7],[1181.9,761.7],[1210.7,766.7],[1221.2,776.7],[1231.8,771.5],[1235.9,782.3],[1211.3,780.6],[1181.6,784.6],[1188.8,801.3],[1171,814.6],[1168.7,813.6],[1158.3,814.5],[1147.5,813.2],[1154.9,805.1],[1147.8,795.8],[1157.3,756.6],[1226.5,733.3],[1226.5,733.3],[1298.7,687.2],[1298.7,687.2],[1309.9,638.5],[1309.9,638.5],[1326.1,602.7],[1296.5,607.2],[1298.2,597.5],[1298.2,597.5],[1314.9,587.4],[1343.2,606.1],[1326.6,573.4],[1308.4,579.3],[1230.6,593.6],[1146.2,601.8],[1116.5,609.6],[1081.8,604.5],[1081.8,604.5],[1114.6,578.7],[1122.7,560.8],[1112.4,542.9],[1142.6,481.2],[1143.1,493.8],[1133.6,500],[1132.9,496.8],[1138.9,500.1],[1155.8,503.2],[1178.5,489.6],[1189.4,472.6],[1164,492.3],[1142.4,514.6],[1078.5,548.6],[1089.2,559.7],[1089.9,563.4],[1092.4,565],[1109.5,569.3],[1107.2,576.8],[1107.2,576.8],[1089.2,607.7],[1013.9,625.7],[968.3,613.3],[891.9,608.3],[805.7,606.6],[740.6,608.4],[740.6,608.4],[752.3,608.6],[757,593.2],[744.3,575.4],[721.9,576],[736.8,561.8],[736.8,561.8],[803.6,558.7],[848.9,549.6],[904.9,546.8],[960.9,544],[1050.7,542.6],[1068.7,547.9],[1078.1,548.4],[1087.5,548.9],[1111.4,534],[1107.9,527.2],[1097.7,523.5],[1097.7,523.5],[1109,525.8],[1148.9,545.4],[1166.8,557.6],[1129.8,564.9],[1129.5,568.4],[1158.5,591.9],[1172.1,604.2],[1172.1,604.2],[1144.8,618.1],[1144.8,618.1],[1128.3,650.2],[1150.8,681.6],[1175.2,701.8],[1176.5,683.2],[1190.3,663.3],[1218.9,648.4],[1189.2,628],[1199.3,610],[1212.1,605.4],[1268.9,585.1],[1310.8,578.7],[1310.8,578.7],[1306.8,536.3],[1304.3,505.9],[1306,490.4],[1317.2,483.6],[1322.2,481.4],[1348.8,488.5],[1329.4,464.5],[1329.4,464.5],[1322.7,438.3],[1322.7,438.3],[1285.9,437.2],[1285.9,437.2],[1277.9,427.5],[1277.9,427.5],[1322,461.9],[1322,461.9],[1311.9,472.9],[1311.9,472.9],[1303.7,470.1],[1303.7,470.1],[1328.5,452.9],[1320.4,429.5],[1326,398.4],[1335.4,407.4],[1325,428.4],[1341.8,435.3],[1329.1,416.8],[1277.9,387.8],[1295,362],[1320.6,342.9],[1310.8,360],[1310.8,360],[1325.3,373.7],[1312.2,377.4],[1284.9,394.1],[1284.6,395.7],[1284.6,395.7],[1276.4,363.2],[1276.6,357.5],[1276.8,351.8],[1276.8,351.8],[1254.9,344.8],[1260.7,339.9],[1268.9,313.2],[1256.9,293.9],[1258.8,292.3],[1258.2,287.6],[1250.4,286],[1252,305.4],[1250,299.9],[1250,299.9],[1234.9,312.1],[1232.6,309.5],[1202.6,304.8],[1183.5,321.4],[1185.6,318.8],[1187.7,316.2],[1215,288.7],[1236.9,256.7],[1238.2,238.9],[1239.5,221.1],[1236.2,186.2],[1244.9,203.2],[1235.4,192.2],[1237.9,178.3],[1239.4,176.2],[1241.1,173.4],[1221.9,163.7],[1215.2,163.9],[1212.4,158.7],[1224,163.2],[1253.3,167.1],[1243.7,166.2],[1252.3,193.3],[1248.6,181.6],[1244.8,169.8],[1241.4,160.1],[1254.4,173.3],[1271.5,171.6],[1286,177.8],[1288.4,181.4],[1278.9,177.2],[1256.1,183.2],[1260,161.2],[1260,161.2],[1266.6,176.6],[1252.9,180.5],[1236.8,181.3],[1211.4,168.9],[1164,189],[1152.9,189.3],[1139.5,182.5],[1128.1,193.4],[1169.5,176.9],[1201.5,199.1],[1220.2,204.3],[1224.7,231.6],[1248.6,263.1],[1229.4,307.3],[1221,328.5],[1221,328.5],[1216.8,351],[1241.6,387.3],[1241.6,387.3],[1248,376.2],[1228.8,414.1],[1192.3,441.3]]","[-0.2,0.6000000000000001]","[0.2,0.6000000000000001]","[0.6000000000000001,0.6000000000000001]","[-0.6000000000000001,-0.2]","[-0.6000000000000001,-0.6000000000000001]","[-0.6000000000000001,0.2]","[-0.2,-0.2]","[0.2,-0.2]","[0.6000000000000001,-0.2]","[-0.2,-0.6000000000000001]","[0.2,-0.6000000000000001]","[0.6000000000000001,-0.6000000000000001]","[-0.2,0.2]","[0.2,0.2]","[0.6000000000000001,0.2]",0,0,0,0,1,4,Monitor,25,20,8,1,60,4,1,60,3
