inst1_resp.keys,inst1_resp.rt,calibrationMouse.x,calibrationMouse.y,calibrationMouse.leftButton,calibrationMouse.midButton,calibrationMouse.rightButton,calibrationClick.x,calibrationClick.y,calibrationClick.leftButton,calibrationClick.midButton,calibrationClick.rightButton,calibrationClick.clicked_name,trialsc.thisRepN,trialsc.thisTrialN,trialsc.thisN,trialsc.thisIndex,trialsc.ran,calibration_x,calibration_y,participant,session,date,expName,psychopyVersion,OS,frameRate,ScreenRes_pixels,Camera_pixels,mouse_2.x,mouse_2.y,mouse_2.leftButton,mouse_2.midButton,mouse_2.rightButton,mouse_2.time,mouse_2.clicked_name,mouse.x,mouse.y,mouse.leftButton,mouse.midButton,mouse.rightButton,mouse.time,mouse.clicked_name,Choice,Trial,TrialDuration,MOUSE_GAZE,ET_GAZE,ET_GAZE_x_T,time,unixTime,ET_GAZE_NF,Loc_Bus_label,Loc_Metro_label,Loc_RH_label,Loc_Cost_label,Loc_Travel_label,Loc_Comfort_label,Loc_Bus_cost,Loc_Metro_cost,Loc_RH_cost,Loc_Bus_travel,Loc_Metro_travel,Loc_RH_travel,Loc_Bus_comfort,Loc_Metro_comfort,Loc_RH_comfort,trials.thisRepN,trials.thisTrialN,trials.thisN,trials.thisIndex,trials.ran,Block,Device,RH_cost,RH_travel_time,RH_Comfort,metro_cost,metro_travel_time,metro_Comfort,Bus_cost,Bus_travel_time,Bus_Comfort
space,2.6244,0.094791667,-0.037037037,1,0,0,-0.33125,0.337037037,1,0,0,calibration_square,0,0,0,7,1,-0.33,0.33,22,001,2024-11-19_13h14.21.560,Attention_exp_legacy,2023.1.0,Win32,60.24096386,,,,,,,,,,,,,,,,,,,,,,,,,,,,,,,,,,,,,,,,,,,,,,,,,,,,,,,,
,,,,,,,-0.66875,-0.001851852,1,0,0,calibration_square,0,1,1,2,1,-0.67,0,22,001,2024-11-19_13h14.21.560,Attention_exp_legacy,2023.1.0,Win32,60.24096386,,,,,,,,,,,,,,,,,,,,,,,,,,,,,,,,,,,,,,,,,,,,,,,,,,,,,,,,
,,,,,,,0.663541667,0.67037037,1,0,0,calibration_square,0,2,2,19,1,0.67,0.67,22,001,2024-11-19_13h14.21.560,Attention_exp_legacy,2023.1.0,Win32,60.24096386,,,,,,,,,,,,,,,,,,,,,,,,,,,,,,,,,,,,,,,,,,,,,,,,,,,,,,,,
,,,,,,,0.673958333,-0.664814815,1,0,0,calibration_square,0,3,3,20,1,0.67,-0.67,22,001,2024-11-19_13h14.21.560,Attention_exp_legacy,2023.1.0,Win32,60.24096386,,,,,,,,,,,,,,,,,,,,,,,,,,,,,,,,,,,,,,,,,,,,,,,,,,,,,,,,
,,,,,,,-0.001041667,-0.657407407,1,0,0,,0,4,4,9,1,0,-0.67,22,001,2024-11-19_13h14.21.560,Attention_exp_legacy,2023.1.0,Win32,60.24096386,,,,,,,,,,,,,,,,,,,,,,,,,,,,,,,,,,,,,,,,,,,,,,,,,,,,,,,,
,,,,,,,0.334375,0.348148148,1,0,0,,0,5,5,17,1,0.33,0.33,22,001,2024-11-19_13h14.21.560,Attention_exp_legacy,2023.1.0,Win32,60.24096386,,,,,,,,,,,,,,,,,,,,,,,,,,,,,,,,,,,,,,,,,,,,,,,,,,,,,,,,
,,,,,,,-0.010416667,0.333333333,1,0,0,,0,6,6,12,1,0,0.33,22,001,2024-11-19_13h14.21.560,Attention_exp_legacy,2023.1.0,Win32,60.24096386,,,,,,,,,,,,,,,,,,,,,,,,,,,,,,,,,,,,,,,,,,,,,,,,,,,,,,,,
,,,,,,,-0.330208333,0.677777778,1,0,0,calibration_square,0,7,7,8,1,-0.33,0.67,22,001,2024-11-19_13h14.21.560,Attention_exp_legacy,2023.1.0,Win32,60.24096386,,,,,,,,,,,,,,,,,,,,,,,,,,,,,,,,,,,,,,,,,,,,,,,,,,,,,,,,
,,,,,,,-0.675,-0.661111111,1,0,0,calibration_square,0,8,8,0,1,-0.67,-0.67,22,001,2024-11-19_13h14.21.560,Attention_exp_legacy,2023.1.0,Win32,60.24096386,,,,,,,,,,,,,,,,,,,,,,,,,,,,,,,,,,,,,,,,,,,,,,,,,,,,,,,,
,,,,,,,0,-0.32037037,1,0,0,calibration_square,0,9,9,10,1,0,-0.33,22,001,2024-11-19_13h14.21.560,Attention_exp_legacy,2023.1.0,Win32,60.24096386,,,,,,,,,,,,,,,,,,,,,,,,,,,,,,,,,,,,,,,,,,,,,,,,,,,,,,,,
,,,,,,,0.323958333,0.687037037,1,0,0,,0,10,10,18,1,0.33,0.67,22,001,2024-11-19_13h14.21.560,Attention_exp_legacy,2023.1.0,Win32,60.24096386,,,,,,,,,,,,,,,,,,,,,,,,,,,,,,,,,,,,,,,,,,,,,,,,,,,,,,,,
,,,,,,,-0.677083333,0.333333333,1,0,0,calibration_square,0,11,11,3,1,-0.67,0.33,22,001,2024-11-19_13h14.21.560,Attention_exp_legacy,2023.1.0,Win32,60.24096386,,,,,,,,,,,,,,,,,,,,,,,,,,,,,,,,,,,,,,,,,,,,,,,,,,,,,,,,
,,,,,,,-0.321875,-0.675925926,1,0,0,calibration_square,0,12,12,4,1,-0.33,-0.67,22,001,2024-11-19_13h14.21.560,Attention_exp_legacy,2023.1.0,Win32,60.24096386,,,,,,,,,,,,,,,,,,,,,,,,,,,,,,,,,,,,,,,,,,,,,,,,,,,,,,,,
,,,,,,,-0.3375,-0.333333333,1,0,0,calibration_square,0,13,13,5,1,-0.33,-0.33,22,001,2024-11-19_13h14.21.560,Attention_exp_legacy,2023.1.0,Win32,60.24096386,,,,,,,,,,,,,,,,,,,,,,,,,,,,,,,,,,,,,,,,,,,,,,,,,,,,,,,,
,,,,,,,0.002083333,0.672222222,1,0,0,calibration_square,0,14,14,13,1,0,0.67,22,001,2024-11-19_13h14.21.560,Attention_exp_legacy,2023.1.0,Win32,60.24096386,,,,,,,,,,,,,,,,,,,,,,,,,,,,,,,,,,,,,,,,,,,,,,,,,,,,,,,,
,,,,,,,0.002083333,0.005555556,1,0,0,calibration_square,0,15,15,11,1,0,0,22,001,2024-11-19_13h14.21.560,Attention_exp_legacy,2023.1.0,Win32,60.24096386,,,,,,,,,,,,,,,,,,,,,,,,,,,,,,,,,,,,,,,,,,,,,,,,,,,,,,,,
,,,,,,,-0.328125,0.001851852,1,0,0,calibration_square,0,16,16,6,1,-0.33,0,22,001,2024-11-19_13h14.21.560,Attention_exp_legacy,2023.1.0,Win32,60.24096386,,,,,,,,,,,,,,,,,,,,,,,,,,,,,,,,,,,,,,,,,,,,,,,,,,,,,,,,
,,,,,,,0.323958333,-0.331481481,1,0,0,calibration_square,0,17,17,15,1,0.33,-0.33,22,001,2024-11-19_13h14.21.560,Attention_exp_legacy,2023.1.0,Win32,60.24096386,,,,,,,,,,,,,,,,,,,,,,,,,,,,,,,,,,,,,,,,,,,,,,,,,,,,,,,,
,,,,,,,0.332291667,-0.655555556,1,0,0,,0,18,18,14,1,0.33,-0.67,22,001,2024-11-19_13h14.21.560,Attention_exp_legacy,2023.1.0,Win32,60.24096386,,,,,,,,,,,,,,,,,,,,,,,,,,,,,,,,,,,,,,,,,,,,,,,,,,,,,,,,
,,,,,,,-0.672916667,-0.32962963,1,0,0,calibration_square,0,19,19,1,1,-0.67,-0.33,22,001,2024-11-19_13h14.21.560,Attention_exp_legacy,2023.1.0,Win32,60.24096386,,,,,,,,,,,,,,,,,,,,,,,,,,,,,,,,,,,,,,,,,,,,,,,,,,,,,,,,
,,,,,,,0.322916667,-0.001851852,1,0,0,calibration_square,0,20,20,16,1,0.33,0,22,001,2024-11-19_13h14.21.560,Attention_exp_legacy,2023.1.0,Win32,60.24096386,,,,,,,,,,,,,,,,,,,,,,,,,,,,,,,,,,,,,,,,,,,,,,,,,,,,,,,,
,,,,,,,,,,,,,,,,,,,,22,001,2024-11-19_13h14.21.560,Attention_exp_legacy,2023.1.0,Win32,60.24096386,"[1920,1080]","[640,480]",[0.03958333333333333],[-0.4962962962962963],[1],[0],[0],[7.395799999713894],"[""StartButton""]",[0.11770833333333333],[0.37592592592592594],[1],[0],[0],[4.5859999999999985],"[""Metro_label""]",Metro_label,1,5.5972,"[[0.03958333333333333,-0.4962962962962963],[0.03958333333333333,-0.4962962962962963],[0.03958333333333333,-0.4962962962962963],[0.03958333333333333,-0.4962962962962963],[0.03958333333333333,-0.4962962962962963],[0.03958333333333333,-0.4962962962962963],[0.03958333333333333,-0.4962962962962963],[0.03958333333333333,-0.4962962962962963],[0.03958333333333333,-0.4962962962962963],[0.03958333333333333,-0.4962962962962963],[0.03958333333333333,-0.4962962962962963],[0.03958333333333333,-0.4962962962962963],[0.03958333333333333,-0.4962962962962963],[0.03958333333333333,-0.4962962962962963],[0.03958333333333333,-0.4962962962962963],[0.03958333333333333,-0.4962962962962963],[0.03958333333333333,-0.4962962962962963],[0.03958333333333333,-0.4962962962962963],[0.03958333333333333,-0.4962962962962963],[0.03958333333333333,-0.4962962962962963],[0.03958333333333333,-0.4962962962962963],[0.03958333333333333,-0.4962962962962963],[0.03958333333333333,-0.4962962962962963],[0.03958333333333333,-0.4962962962962963],[0.03958333333333333,-0.4962962962962963],[0.03958333333333333,-0.4962962962962963],[0.03958333333333333,-0.4962962962962963],[0.03958333333333333,-0.4962962962962963],[0.03958333333333333,-0.4962962962962963],[0.03958333333333333,-0.4962962962962963],[0.03958333333333333,-0.4962962962962963],[0.03958333333333333,-0.4962962962962963],[0.03958333333333333,-0.4962962962962963],[0.03958333333333333,-0.4962962962962963],[0.03958333333333333,-0.4962962962962963],[0.03958333333333333,-0.4962962962962963],[0.03958333333333333,-0.4962962962962963],[0.03958333333333333,-0.4962962962962963],[0.03958333333333333,-0.4962962962962963],[0.03958333333333333,-0.4962962962962963],[0.03958333333333333,-0.4962962962962963],[0.03958333333333333,-0.4962962962962963],[0.03958333333333333,-0.4962962962962963],[0.03958333333333333,-0.4962962962962963],[0.03958333333333333,-0.4962962962962963],[0.03958333333333333,-0.4962962962962963],[0.03958333333333333,-0.4962962962962963],[0.03958333333333333,-0.4962962962962963],[0.03958333333333333,-0.4962962962962963],[0.03958333333333333,-0.4962962962962963],[0.03958333333333333,-0.4962962962962963],[0.03958333333333333,-0.4962962962962963],[0.03958333333333333,-0.4962962962962963],[0.03958333333333333,-0.4962962962962963],[0.03958333333333333,-0.4962962962962963],[0.03958333333333333,-0.4962962962962963],[0.03958333333333333,-0.4962962962962963],[0.03958333333333333,-0.4962962962962963],[0.03958333333333333,-0.4962962962962963],[0.03958333333333333,-0.4962962962962963],[0.03958333333333333,-0.4962962962962963],[0.03958333333333333,-0.4962962962962963],[0.03958333333333333,-0.4962962962962963],[0.03958333333333333,-0.4962962962962963],[0.03958333333333333,-0.4962962962962963],[0.03958333333333333,-0.4962962962962963],[0.03958333333333333,-0.4962962962962963],[0.03958333333333333,-0.4962962962962963],[0.03958333333333333,-0.4962962962962963],[0.03958333333333333,-0.4962962962962963],[0.03958333333333333,-0.4962962962962963],[0.03958333333333333,-0.4962962962962963],[0.03958333333333333,-0.4962962962962963],[0.03958333333333333,-0.4962962962962963],[0.03958333333333333,-0.4962962962962963],[0.03958333333333333,-0.4962962962962963],[0.03958333333333333,-0.4962962962962963],[0.03958333333333333,-0.4962962962962963],[0.03958333333333333,-0.4962962962962963],[0.03958333333333333,-0.4962962962962963],[0.03958333333333333,-0.4962962962962963],[0.03958333333333333,-0.4962962962962963],[0.03958333333333333,-0.4962962962962963],[0.03958333333333333,-0.4962962962962963],[0.03958333333333333,-0.4962962962962963],[0.03958333333333333,-0.49444444444444446],[0.03958333333333333,-0.48703703703703705],[0.03958333333333333,-0.4777777777777778],[0.03958333333333333,-0.46296296296296297],[0.03958333333333333,-0.4537037037037037],[0.03958333333333333,-0.4425925925925926],[0.03958333333333333,-0.42777777777777776],[0.03958333333333333,-0.4074074074074074],[0.03958333333333333,-0.3851851851851852],[0.03958333333333333,-0.3592592592592593],[0.03958333333333333,-0.34074074074074073],[0.03958333333333333,-0.32407407407407407],[0.03958333333333333,-0.3111111111111111],[0.03958333333333333,-0.30185185185185187],[0.03958333333333333,-0.2962962962962963],[0.03958333333333333,-0.2833333333333333],[0.03958333333333333,-0.2777777777777778],[0.03958333333333333,-0.26296296296296295],[0.03958333333333333,-0.24074074074074073],[0.03958333333333333,-0.22407407407407406],[0.03958333333333333,-0.2111111111111111],[0.03958333333333333,-0.2],[0.03958333333333333,-0.19074074074074074],[0.040625,-0.18518518518518517],[0.040625,-0.17222222222222222],[0.041666666666666664,-0.16111111111111112],[0.042708333333333334,-0.14814814814814814],[0.04479166666666667,-0.1388888888888889],[0.04479166666666667,-0.13148148148148148],[0.046875,-0.12407407407407407],[0.04895833333333333,-0.1111111111111111],[0.051041666666666666,-0.09814814814814815],[0.051041666666666666,-0.09074074074074075],[0.053125,-0.08518518518518518],[0.05416666666666667,-0.08333333333333333],[0.05416666666666667,-0.08333333333333333],[0.05416666666666667,-0.08333333333333333],[0.05416666666666667,-0.08333333333333333],[0.05416666666666667,-0.08333333333333333],[0.05416666666666667,-0.08333333333333333],[0.05416666666666667,-0.08333333333333333],[0.05416666666666667,-0.08333333333333333],[0.05416666666666667,-0.08333333333333333],[0.05416666666666667,-0.08333333333333333],[0.05416666666666667,-0.08333333333333333],[0.05416666666666667,-0.08333333333333333],[0.05416666666666667,-0.08333333333333333],[0.05416666666666667,-0.08333333333333333],[0.05416666666666667,-0.08333333333333333],[0.05416666666666667,-0.08333333333333333],[0.05416666666666667,-0.08333333333333333],[0.05416666666666667,-0.08333333333333333],[0.05416666666666667,-0.08333333333333333],[0.05416666666666667,-0.08333333333333333],[0.05416666666666667,-0.08333333333333333],[0.05416666666666667,-0.08333333333333333],[0.05416666666666667,-0.08333333333333333],[0.05416666666666667,-0.08333333333333333],[0.05416666666666667,-0.08333333333333333],[0.05416666666666667,-0.08333333333333333],[0.05416666666666667,-0.08333333333333333],[0.05416666666666667,-0.08333333333333333],[0.05416666666666667,-0.08333333333333333],[0.05416666666666667,-0.08333333333333333],[0.05416666666666667,-0.08333333333333333],[0.05416666666666667,-0.08333333333333333],[0.05416666666666667,-0.08333333333333333],[0.05416666666666667,-0.08333333333333333],[0.05416666666666667,-0.08333333333333333],[0.05416666666666667,-0.08333333333333333],[0.05416666666666667,-0.08333333333333333],[0.05416666666666667,-0.08333333333333333],[0.05416666666666667,-0.08333333333333333],[0.05416666666666667,-0.08333333333333333],[0.05416666666666667,-0.08333333333333333],[0.05416666666666667,-0.08333333333333333],[0.05416666666666667,-0.08333333333333333],[0.05416666666666667,-0.08333333333333333],[0.05416666666666667,-0.08333333333333333],[0.05416666666666667,-0.08333333333333333],[0.05416666666666667,-0.08333333333333333],[0.05416666666666667,-0.08333333333333333],[0.05416666666666667,-0.08333333333333333],[0.05416666666666667,-0.08333333333333333],[0.05416666666666667,-0.08333333333333333],[0.05416666666666667,-0.08333333333333333],[0.05416666666666667,-0.08333333333333333],[0.05416666666666667,-0.08333333333333333],[0.05416666666666667,-0.08333333333333333],[0.05416666666666667,-0.08333333333333333],[0.05416666666666667,-0.08333333333333333],[0.05416666666666667,-0.08333333333333333],[0.05416666666666667,-0.08333333333333333],[0.05416666666666667,-0.08333333333333333],[0.05416666666666667,-0.08333333333333333],[0.05416666666666667,-0.08333333333333333],[0.05416666666666667,-0.08333333333333333],[0.05416666666666667,-0.08333333333333333],[0.05416666666666667,-0.08333333333333333],[0.05416666666666667,-0.08333333333333333],[0.05416666666666667,-0.08333333333333333],[0.05416666666666667,-0.08333333333333333],[0.05416666666666667,-0.08333333333333333],[0.05416666666666667,-0.08333333333333333],[0.05416666666666667,-0.08333333333333333],[0.05416666666666667,-0.08333333333333333],[0.05416666666666667,-0.08333333333333333],[0.05416666666666667,-0.08333333333333333],[0.05416666666666667,-0.08333333333333333],[0.05416666666666667,-0.08333333333333333],[0.05416666666666667,-0.08333333333333333],[0.05416666666666667,-0.08333333333333333],[0.05416666666666667,-0.08333333333333333],[0.05416666666666667,-0.08333333333333333],[0.05416666666666667,-0.08333333333333333],[0.05416666666666667,-0.08333333333333333],[0.05416666666666667,-0.08333333333333333],[0.05416666666666667,-0.08333333333333333],[0.05416666666666667,-0.08333333333333333],[0.05416666666666667,-0.08333333333333333],[0.05416666666666667,-0.08333333333333333],[0.05416666666666667,-0.08333333333333333],[0.05416666666666667,-0.08333333333333333],[0.05416666666666667,-0.08333333333333333],[0.05416666666666667,-0.08333333333333333],[0.05416666666666667,-0.08333333333333333],[0.05416666666666667,-0.08333333333333333],[0.05416666666666667,-0.08333333333333333],[0.05416666666666667,-0.08333333333333333],[0.05416666666666667,-0.08333333333333333],[0.05416666666666667,-0.08333333333333333],[0.05416666666666667,-0.08333333333333333],[0.05625,-0.08518518518518518],[0.057291666666666664,-0.09444444444444444],[0.058333333333333334,-0.09814814814814815],[0.059375,-0.1037037037037037],[0.06041666666666667,-0.10740740740740741],[0.06041666666666667,-0.10925925925925926],[0.06041666666666667,-0.10925925925925926],[0.06041666666666667,-0.10925925925925926],[0.06041666666666667,-0.10925925925925926],[0.06041666666666667,-0.10925925925925926],[0.06041666666666667,-0.10925925925925926],[0.06041666666666667,-0.10925925925925926],[0.06041666666666667,-0.10925925925925926],[0.06041666666666667,-0.10925925925925926],[0.06041666666666667,-0.10925925925925926],[0.06041666666666667,-0.10925925925925926],[0.06041666666666667,-0.10740740740740741],[0.057291666666666664,-0.09444444444444444],[0.05416666666666667,-0.08888888888888889],[0.053125,-0.08703703703703704],[0.052083333333333336,-0.08518518518518518],[0.052083333333333336,-0.08333333333333333],[0.052083333333333336,-0.08333333333333333],[0.052083333333333336,-0.08333333333333333],[0.052083333333333336,-0.08333333333333333],[0.052083333333333336,-0.08333333333333333],[0.052083333333333336,-0.08333333333333333],[0.052083333333333336,-0.07962962962962963],[0.052083333333333336,-0.06851851851851852],[0.057291666666666664,-0.037037037037037035],[0.0625,-0.014814814814814815],[0.06979166666666667,0.012962962962962963],[0.07708333333333334,0.05],[0.08125,0.07962962962962963],[0.08645833333333333,0.12037037037037036],[0.08958333333333333,0.1574074074074074],[0.09270833333333334,0.20555555555555555],[0.09583333333333334,0.2351851851851852],[0.096875,0.2611111111111111],[0.10104166666666667,0.3],[0.10208333333333333,0.31666666666666665],[0.103125,0.32592592592592595],[0.10729166666666666,0.34074074074074073],[0.109375,0.35],[0.1125,0.3574074074074074],[0.11458333333333333,0.362962962962963],[0.11666666666666667,0.37037037037037035],[0.11666666666666667,0.37037037037037035],[0.11666666666666667,0.37037037037037035],[0.11666666666666667,0.37037037037037035],[0.11666666666666667,0.37037037037037035],[0.11666666666666667,0.37407407407407406],[0.11666666666666667,0.37407407407407406],[0.11770833333333333,0.37592592592592594],[0.11770833333333333,0.37592592592592594],[0.11770833333333333,0.37592592592592594],[0.11770833333333333,0.37592592592592594],[0.11770833333333333,0.37592592592592594],[0.11770833333333333,0.37592592592592594],[0.11770833333333333,0.37592592592592594],[0.11770833333333333,0.37592592592592594],[0.11770833333333333,0.37592592592592594],[0.11770833333333333,0.37592592592592594],[0.11770833333333333,0.37592592592592594],[0.11770833333333333,0.37592592592592594],[0.11770833333333333,0.37592592592592594],[0.11770833333333333,0.37592592592592594],[0.11770833333333333,0.37592592592592594],[0.11770833333333333,0.37592592592592594],[0.11770833333333333,0.37592592592592594],[0.11770833333333333,0.37592592592592594],[0.11770833333333333,0.37592592592592594],[0.11770833333333333,0.37592592592592594],[0.11770833333333333,0.37592592592592594],[0.11770833333333333,0.37592592592592594],[0.11770833333333333,0.37592592592592594],[0.11770833333333333,0.37592592592592594],[0.11770833333333333,0.37592592592592594],[0.11770833333333333,0.37592592592592594],[0.11770833333333333,0.37592592592592594],[0.11770833333333333,0.37592592592592594],[0.11770833333333333,0.37592592592592594],[0.11770833333333333,0.37592592592592594],[0.11770833333333333,0.37592592592592594],[0.11770833333333333,0.37592592592592594],[0.11770833333333333,0.37592592592592594],[0.11770833333333333,0.37592592592592594],[0.11770833333333333,0.37592592592592594],[0.11770833333333333,0.37592592592592594],[0.11770833333333333,0.37592592592592594],[0.11770833333333333,0.37592592592592594],[0.11770833333333333,0.37592592592592594],[0.11770833333333333,0.37592592592592594],[0.11770833333333333,0.37592592592592594],[0.11770833333333333,0.37592592592592594],[0.11770833333333333,0.37592592592592594],[0.11770833333333333,0.37592592592592594],[0.11770833333333333,0.37592592592592594],[0.11770833333333333,0.37592592592592594],[0.11770833333333333,0.37592592592592594],[0.11770833333333333,0.37592592592592594],[0.11770833333333333,0.37592592592592594],[0.11770833333333333,0.37592592592592594],[0.11770833333333333,0.37592592592592594],[0.11770833333333333,0.37592592592592594],[0.11770833333333333,0.37592592592592594],[0.11770833333333333,0.37592592592592594],[0.11770833333333333,0.37592592592592594],[0.11770833333333333,0.37592592592592594],[0.11770833333333333,0.37592592592592594],[0.11770833333333333,0.37592592592592594],[0.11770833333333333,0.37592592592592594],[0.11770833333333333,0.37592592592592594],[0.11770833333333333,0.37592592592592594],[0.11770833333333333,0.37592592592592594],[0.11770833333333333,0.37592592592592594],[0.11770833333333333,0.37592592592592594]]","[[0.015625,0.05962962962962971],[0.015625,0.05962962962962971],[0.02364583333333338,0.059999999999999956],[0.029375000000000047,0.04981481481481477],[0.036562500000000026,0.03296296296296288],[0.05135416666666662,0.0235185185185186],[0.06645833333333329,0.0235185185185186],[0.08156249999999995,0.0235185185185186],[0.11854166666666661,-0.0005555555555554713],[0.14729166666666677,0.020740740740740823],[0.1806250000000001,0.0035185185185184764],[0.21395833333333342,-0.013703703703703662],[0.21677083333333325,-0.008333333333333333],[0.240625,-0.000925925925925926],[0.25625,0.005555555555555556],[0.2547916666666666,0.0005555555555554713],[0.2542708333333332,-0.008888888888888804],[0.2453125,-0.012037037037037037],[0.23645833333333333,-0.00592592592592601],[0.23645833333333333,-0.00592592592592601],[0.22166666666666662,-0.03037037037037033],[0.1694791666666667,-0.013518518518518435],[0.1694791666666667,-0.013518518518518435],[0.11729166666666657,0.003333333333333249],[0.06041666666666667,-0.004444444444444402],[0.01864583333333331,-0.032037037037036954],[-0.050416666666666644,-0.05351851851851848],[-0.075,-0.05925925925925926],[-0.12427083333333329,-0.05351851851851848],[-0.11968749999999997,-0.07222222222222222],[-0.14375,-0.05907407407407403],[-0.14739583333333334,-0.0448148148148149],[-0.13854166666666667,-0.04407407407407399],[-0.11677083333333335,-0.06296296296296296],[-0.09604166666666672,-0.06314814814814819],[-0.09041666666666662,-0.04351851851851852],[-0.03208333333333328,-0.03425925925925926],[-0.001145833333333357,-0.029259259259259176],[0.050937499999999976,-0.020555555555555598],[0.057604166666666616,0.006296296296296254],[0.09666666666666662,-0.004629629629629629],[0.09927083333333328,0.05555555555555555],[0.12104166666666671,0.10777777777777786],[0.1443749999999999,0.20833333333333334],[0.17864583333333334,0.3085185185185186],[0.20510416666666675,0.40425925925925915],[0.19583333333333333,0.4751851851851852],[0.16593749999999996,0.5651851851851852],[0.13958333333333334,0.64],[0.09093749999999995,0.6829629629629629],[0.025729166666666713,0.735],[-0.022291666666666644,0.7192592592592593],[-0.022291666666666644,0.7192592592592593],[-0.0733333333333333,0.7266666666666666],[-0.12614583333333335,0.6757407407407408],[-0.18354166666666671,0.6166666666666667],[-0.18354166666666671,0.6166666666666667],[-0.255625,0.5599999999999999],[-0.2883333333333333,0.5568518518518519],[-0.30041666666666667,0.5346296296296297],[-0.33354166666666674,0.5068518518518519],[-0.34437500000000004,0.5109259259259259],[-0.33395833333333336,0.49666666666666676],[-0.32354166666666667,0.4824074074074074],[-0.2915625,0.4646296296296296],[-0.2976041666666667,0.4655555555555555],[-0.3117708333333333,0.469074074074074],[-0.2657291666666667,0.4644444444444444],[-0.2657291666666667,0.4644444444444444],[-0.28104166666666663,0.4631481481481482],[-0.32010416666666663,0.4329629629629629],[-0.34187500000000004,0.40314814814814826],[-0.36364583333333333,0.37333333333333335],[-0.38604166666666667,0.37407407407407406],[-0.4084375,0.37481481481481477],[-0.44937499999999997,0.35592592592592603],[-0.44937499999999997,0.35592592592592603],[-0.4675,0.3472222222222222],[-0.4778125,0.36148148148148157],[-0.4778125,0.36148148148148157],[-0.5258333333333334,0.3859259259259259],[-0.5258333333333334,0.3859259259259259],[-0.5358333333333333,0.38333333333333336],[-0.49624999999999997,0.3848148148148147],[-0.43468749999999995,0.40370370370370373],[-0.37312500000000004,0.4225925925925927],[-0.37312500000000004,0.4225925925925927],[-0.31187499999999996,0.43740740740740747],[-0.23927083333333338,0.46111111111111114],[-0.18458333333333338,0.48148148148148145],[-0.1273958333333333,0.5025925925925926],[-0.07427083333333329,0.4853703703703704],[-0.07427083333333329,0.4853703703703704],[-0.01583333333333338,0.4674074074074074],[-0.01583333333333338,0.4674074074074074],[0.020937500000000022,0.4737037037037036],[0.020937500000000022,0.4737037037037036],[0.027708333333333356,0.447037037037037],[0.027708333333333356,0.447037037037037],[0.0265625,0.430925925925926],[0.0265625,0.430925925925926],[0.024374999999999977,0.4209259259259258],[0.024374999999999977,0.4209259259259258],[0.021145833333333287,0.4162962962962962],[0.021145833333333287,0.4162962962962962],[0.004999999999999952,0.3731481481481482],[-0.00635416666666669,0.3229629629629629],[-0.00635416666666669,0.3229629629629629],[-0.011562500000000024,0.30185185185185187],[-0.011562500000000024,0.30185185185185187],[-0.012395833333333309,0.2935185185185185],[-0.012395833333333309,0.2935185185185185],[-0.021354166666666667,0.2683333333333333],[-0.021354166666666667,0.2683333333333333],[-0.018020833333333285,0.22092592592592583],[-0.018020833333333285,0.22092592592592583],[-0.005520833333333286,0.24870370370370362],[-0.005520833333333286,0.24870370370370362],[0.01895833333333338,0.2542592592592592],[0.01895833333333338,0.2542592592592592],[0.024583333333333356,0.25685185185185194],[0.014999999999999977,0.2492592592592593],[0.018124999999999978,0.25092592592592594],[0.02322916666666662,0.2833333333333333],[0.036458333333333336,0.2601851851851852],[0.049687500000000044,0.23703703703703705],[0.06958333333333329,0.25685185185185194],[0.06958333333333329,0.25685185185185194],[0.08635416666666676,0.2833333333333333],[0.0990624999999999,0.28722222222222227],[0.08989583333333329,0.2803703703703703],[0.08989583333333329,0.2803703703703703],[0.10062499999999991,0.27037037037037037],[0.12458333333333324,0.25203703703703706],[0.13645833333333332,0.2381481481481482],[0.15177083333333338,0.20259259259259255],[0.17333333333333342,0.19870370370370363],[0.2013541666666666,0.20685185185185193],[0.22552083333333334,0.1896296296296296],[0.22552083333333334,0.1896296296296296],[0.23156249999999995,0.13962962962962958],[0.23156249999999995,0.13962962962962958],[0.22489583333333343,0.1175925925925926],[0.2430208333333333,0.09648148148148153],[0.2696875000000001,0.03888888888888889],[0.2805208333333333,-0.03296296296296288],[0.28875000000000006,-0.03351851851851856],[0.28875000000000006,-0.03351851851851856],[0.3046875,-0.032777777777777864],[0.2924999999999999,-0.05240740740740743],[0.2607291666666666,-0.06740740740740736],[0.2289583333333333,-0.0824074074074074],[0.23187499999999991,-0.06925925925925921],[0.24656250000000005,-0.07888888888888893],[0.2520833333333333,-0.06481481481481481],[0.2490624999999999,-0.014259259259259343],[0.23875000000000005,0.04314814814814806],[0.2319791666666667,0.04518518518518514],[0.2283333333333334,0.04685185185185177],[0.23229166666666667,0.06370370370370367],[0.25625,0.06740740740740736],[0.25510416666666674,0.04722222222222222],[0.24333333333333323,0.0257407407407407],[0.23895833333333344,0.020555555555555598],[0.22000000000000006,0.029259259259259176],[0.19145833333333329,-0.01055555555555564],[0.18156249999999996,-0.041111111111111195],[0.18041666666666673,-0.03259259259259263],[0.17614583333333325,-0.02370370370370362],[0.1734375,0.009999999999999959],[0.1638541666666666,0.04018518518518527],[0.17937500000000003,0.09648148148148153],[0.17416666666666672,0.1427777777777778],[0.17604166666666668,0.16888888888888898],[0.18260416666666662,0.1638888888888889],[0.19677083333333342,0.20055555555555546],[0.1935416666666666,0.23481481481481473],[0.18156249999999996,0.2300000000000001],[0.12645833333333342,0.2322222222222222],[0.06499999999999997,0.1962962962962963],[0.020729166666666642,0.16814814814814807],[-0.026250000000000048,0.14740740740740746],[-0.06656249999999998,0.13759259259259252],[-0.06656249999999998,0.13759259259259252],[-0.1202083333333333,0.1300000000000001],[-0.16052083333333336,0.1381481481481482],[-0.19885416666666664,0.15314814814814823],[-0.24010416666666667,0.15703703703703695],[-0.2813541666666667,0.1609259259259259],[-0.2803125,0.1581481481481481],[-0.27447916666666666,0.16870370370370374],[-0.31281249999999994,0.1725925925925927],[-0.3484375,0.1668518518518519],[-0.35822916666666665,0.15555555555555556],[-0.36916666666666664,0.14592592592592585],[-0.39958333333333335,0.12333333333333338],[-0.43093750000000003,0.10314814814814824],[-0.44197916666666665,0.09648148148148153],[-0.4510416666666667,0.07462962962962955],[-0.4592708333333333,0.052407407407407326],[-0.4592708333333333,0.052407407407407326],[-0.42729166666666674,0.034074074074074034],[-0.35656249999999995,0.003888888888888931],[-0.28583333333333333,-0.02629629629629638],[-0.2247916666666666,-0.04796296296296292],[-0.18312499999999995,-0.05351851851851848],[-0.12916666666666668,-0.07240740740740745],[-0.07427083333333329,-0.09370370370370375],[-0.03697916666666667,-0.12444444444444443],[-0.03145833333333338,-0.09537037037037037],[-0.009895833333333333,-0.10851851851851856],[-0.03218749999999997,-0.11944444444444445],[-0.06625000000000002,-0.11962962962962967],[-0.06625000000000002,-0.11962962962962967],[-0.10427083333333335,-0.11148148148148146],[-0.16031249999999997,-0.11740740740740736],[-0.19697916666666668,-0.13944444444444445],[-0.23927083333333338,-0.1257407407407407],[-0.23927083333333338,-0.1257407407407407],[-0.24437500000000004,-0.10277777777777777],[-0.268125,-0.07185185185185188],[-0.26208333333333333,-0.08555555555555554],[-0.24489583333333337,-0.07148148148148152],[-0.22406250000000003,-0.06351851851851854],[-0.19874999999999995,-0.043703703703703745],[-0.1694791666666667,-0.03222222222222218],[-0.1694791666666667,-0.03222222222222218],[-0.1694791666666667,-0.03222222222222218],[-0.12749999999999997,-0.0031481481481482323],[-0.12749999999999997,-0.0031481481481482323],[-0.09031250000000005,-0.005000000000000084],[-0.09031250000000005,-0.005000000000000084],[-0.021354166666666667,-0.011481481481481566],[-0.021354166666666667,-0.011481481481481566],[-0.028645833333333332,-0.028888888888888933],[-0.028645833333333332,-0.028888888888888933],[0.03822916666666672,-0.04092592592592597],[0.07864583333333333,-0.05537037037037033],[0.07489583333333343,-0.043703703703703745],[0.07114583333333328,-0.032037037037036954],[0.053125,-0.04462962962962967],[0.035104166666666714,-0.05722222222222218],[0.014374999999999952,-0.0712962962962963],[-0.008749999999999977,-0.05],[-0.008749999999999977,-0.05],[-0.04093749999999995,-0.03481481481481473],[-0.04093749999999995,-0.03481481481481473],[-0.052187500000000026,-0.026666666666666623],[-0.052187500000000026,-0.026666666666666623],[-0.10218750000000003,-0.027222222222222307],[-0.12843749999999995,-0.02166666666666675],[-0.13562500000000005,-0.03037037037037033],[-0.11979166666666667,-0.046481481481481526],[-0.10583333333333336,-0.05018518518518523],[-0.09187500000000005,-0.05388888888888893],[-0.05020833333333338,-0.056851851851851834],[0.011562500000000024,-0.06666666666666667],[0.036249999999999956,-0.04722222222222222],[0.036249999999999956,-0.04722222222222222],[0.04833333333333331,-0.060555555555555536],[0.04833333333333331,-0.060555555555555536],[0.07208333333333337,-0.07759259259259255],[0.109375,-0.11055555555555553],[0.14458333333333329,-0.14092592592592595],[0.1508333333333333,-0.14833333333333337],[0.16875,-0.1557407407407408],[0.1866666666666667,-0.16314814814814818],[0.18520833333333328,-0.1712962962962963],[0.18520833333333328,-0.1712962962962963],[0.159375,-0.19500000000000003],[0.11322916666666671,-0.2131481481481482],[0.11322916666666671,-0.2131481481481482],[0.11624999999999991,-0.19074074074074074],[0.14093749999999997,-0.17092592592592595],[0.14093749999999997,-0.17092592592592595],[0.15479166666666658,-0.1388888888888889],[0.13145833333333337,-0.10499999999999998],[0.11177083333333329,-0.08462962962962961],[0.11531250000000005,-0.05907407407407403],[0.11885416666666657,-0.03351851851851856],[0.11531250000000005,-0.020185185185185143],[0.11531250000000005,-0.020185185185185143],[0.11531250000000005,-0.020370370370370372],[0.1408333333333334,-0.07074074074074072],[0.13270833333333343,-0.10907407407407403],[0.1131249999999999,-0.14740740740740746],[0.07979166666666657,-0.18888888888888888],[0.08364583333333328,-0.2322222222222222],[0.07781250000000005,-0.2668518518518519],[0.04874999999999995,-0.3066666666666667],[0.019687499999999976,-0.3464814814814815],[0.019687499999999976,-0.3464814814814815],[-0.00625,-0.37462962962962965],[-0.005729166666666666,-0.3690740740740741],[-0.004375000000000047,-0.3594444444444445],[-0.0002083333333333807,-0.3464814814814815],[-0.017083333333333308,-0.3224074074074075],[-0.005520833333333286,-0.2892592592592592],[0.00604166666666662,-0.2561111111111111],[0.00604166666666662,-0.2561111111111111],[0.04729166666666664,-0.22907407407407404],[0.04729166666666664,-0.22907407407407404],[0.09156250000000009,-0.2051851851851852],[0.14447916666666671,-0.19814814814814816],[0.18291666666666656,-0.1940740740740741],[0.18291666666666656,-0.1940740740740741],[0.1946875000000001,-0.19092592592592597],[0.23562500000000006,-0.16407407407407412],[0.25718750000000007,-0.14870370370370373],[0.31520833333333326,-0.13796296296296295],[0.309375,-0.1581481481481481],[0.30354166666666677,-0.17833333333333334],[0.30625,-0.1581481481481481],[0.30531249999999993,-0.167037037037037],[0.30531249999999993,-0.167037037037037],[0.29489583333333325,-0.1603703703703704],[0.2703125,-0.14907407407407408],[0.2828125,-0.13407407407407404],[0.2828125,-0.13407407407407404],[0.26708333333333345,-0.14351851851851852],[0.2419791666666666,-0.16314814814814818],[0.2419791666666666,-0.16314814814814818],[0.20385416666666673,-0.16129629629629633],[0.17291666666666666,-0.14222222222222225],[0.14197916666666663,-0.12314814814814815],[0.0865624999999999,-0.147037037037037],[0.05270833333333336,-0.16055555555555553],[0.019687499999999976,-0.1727777777777778],[0.019895833333333356,-0.1655555555555555],[0.0006250000000000236,-0.16351851851851854],[-0.036458333333333336,-0.1668518518518519],[-0.03239583333333336,-0.16296296296296298],[-0.04864583333333338,-0.19296296296296295],[-0.022916666666666665,-0.21518518518518517]]","[[0.015625,0.05962962962962971,0.00019999980926854732],[0.015625,0.05962962962962971,0.05179999971389293],[0.02364583333333338,0.059999999999999956,0.06189999961853232],[0.029375000000000047,0.04981481481481477,0.07709999990463245],[0.036562500000000026,0.03296296296296288,0.09379999971389452],[0.05135416666666662,0.0235185185185186,0.11050000000000182],[0.06645833333333329,0.0235185185185186,0.1270999999046296],[0.08156249999999995,0.0235185185185186,0.14389999961852595],[0.11854166666666661,-0.0005555555555554713,0.1620999999046262],[0.14729166666666677,0.020740740740740823,0.17709999990462677],[0.1806250000000001,0.0035185185185184764,0.19379999971390305],[0.21395833333333342,-0.013703703703703662,0.21039999961853084],[0.21677083333333325,-0.008333333333333333,0.2276999998092606],[0.240625,-0.000925925925925926,0.24389999961853448],[0.25625,0.005555555555555556,0.264799999713901],[0.2547916666666666,0.0005555555555554713,0.2800999999046354],[0.2542708333333332,-0.008888888888888804,0.2940999999046312],[0.2453125,-0.012037037037037037,0.310699999809259],[0.23645833333333333,-0.00592592592592601,0.32789999961852345],[0.23645833333333333,-0.00592592592592601,0.34419999980926264],[0.22166666666666662,-0.03037037037037033,0.3605999999046361],[0.1694791666666667,-0.013518518518518435,0.38049999999999784],[0.1694791666666667,-0.013518518518518435,0.3941999998092598],[0.11729166666666657,0.003333333333333249,0.4103999996185337],[0.06041666666666667,-0.004444444444444402,0.42719999980926104],[0.01864583333333331,-0.032037037037036954,0.4438999996185231],[-0.050416666666666644,-0.05351851851851848,0.46399999999999864],[-0.075,-0.05925925925925926,0.48149999999999693],[-0.12427083333333329,-0.05351851851851848,0.4968999996185346],[-0.11968749999999997,-0.07222222222222222,0.5106999998092618],[-0.14375,-0.05907407407407403,0.5276999998092577],[-0.14739583333333334,-0.0448148148148149,0.5438999996185316],[-0.13854166666666667,-0.04407407407407399,0.5630000000000024],[-0.11677083333333335,-0.06296296296296296,0.5775000000000006],[-0.09604166666666672,-0.06314814814814819,0.5937999997138945],[-0.09041666666666662,-0.04351851851851852,0.6103999996185223],[-0.03208333333333328,-0.03425925925925926,0.6270999999046296],[-0.001145833333333357,-0.029259259259259176,0.6437999997138917],[0.050937499999999976,-0.020555555555555598,0.6617999997138924],[0.057604166666666616,0.006296296296296254,0.6775999999046292],[0.09666666666666662,-0.004629629629629629,0.6940999999046369],[0.09927083333333328,0.05555555555555555,0.710799999713899],[0.12104166666666671,0.10777777777777786,0.7270999999046381],[0.1443749999999999,0.20833333333333334,0.7454999999999927],[0.17864583333333334,0.3085185185185186,0.7632999997138938],[0.20510416666666675,0.40425925925925915,0.7773999996185239],[0.19583333333333333,0.4751851851851852,0.7951999998092703],[0.16593749999999996,0.5651851851851852,0.8103999996185252],[0.13958333333333334,0.64,0.8285000000000053],[0.09093749999999995,0.6829629629629629,0.8444999999999965],[0.025729166666666713,0.735,0.864699999809261],[-0.022291666666666644,0.7192592592592593,0.8818999996185255],[-0.022291666666666644,0.7192592592592593,0.8937999997138917],[-0.0733333333333333,0.7266666666666666,0.910499999999999],[-0.12614583333333335,0.6757407407407408,0.9300999999046269],[-0.18354166666666671,0.6166666666666667,0.9497999997139033],[-0.18354166666666671,0.6166666666666667,0.9604999999999961],[-0.255625,0.5599999999999999,0.9771999998092582],[-0.2883333333333333,0.5568518518518519,0.9942999997139026],[-0.30041666666666667,0.5346296296296297,1.0117999997139009],[-0.33354166666666674,0.5068518518518519,1.0272999997139038],[-0.34437500000000004,0.5109259259259259,1.0437999997138974],[-0.33395833333333336,0.49666666666666676,1.0630999999046367],[-0.32354166666666667,0.4824074074074074,1.0771999998092667],[-0.2915625,0.4646296296296296,1.0937999997138945],[-0.2976041666666667,0.4655555555555555,1.1105000000000018],[-0.3117708333333333,0.469074074074074,1.1287999997138911],[-0.2657291666666667,0.4644444444444444,1.1585000000000036],[-0.2657291666666667,0.4644444444444444,1.1658999996185315],[-0.28104166666666663,0.4631481481481482,1.1770999999046268],[-0.32010416666666663,0.4329629629629629,1.1962999997139008],[-0.34187500000000004,0.40314814814814826,1.2103999996185308],[-0.36364583333333333,0.37333333333333335,1.228899999618534],[-0.38604166666666667,0.37407407407407406,1.2445999999046364],[-0.4084375,0.37481481481481477,1.2641999998092643],[-0.44937499999999997,0.35592592592592603,1.2789999999999964],[-0.44937499999999997,0.35592592592592603,1.2937999997138974],[-0.4675,0.3472222222222222,1.3105999999046247],[-0.4778125,0.36148148148148157,1.329499999999996],[-0.4778125,0.36148148148148157,1.3438999996185288],[-0.5258333333333334,0.3859259259259259,1.360599999904636],[-0.5258333333333334,0.3859259259259259,1.3771999998092639],[-0.5358333333333333,0.38333333333333336,1.393899999618526],[-0.49624999999999997,0.3848148148148147,1.410499999999999],[-0.43468749999999995,0.40370370370370373,1.427199999809261],[-0.37312500000000004,0.4225925925925927,1.4475000000000051],[-0.37312500000000004,0.4225925925925927,1.460799999713899],[-0.31187499999999996,0.43740740740740747,1.477499999999992],[-0.23927083333333338,0.46111111111111114,1.4994999999999976],[-0.18458333333333338,0.48148148148148145,1.5144999999999982],[-0.1273958333333333,0.5025925925925926,1.5320999999046307],[-0.07427083333333329,0.4853703703703704,1.5516999998092587],[-0.07427083333333329,0.4853703703703704,1.560699999809259],[-0.01583333333333338,0.4674074074074074,1.577299999713901],[-0.01583333333333338,0.4674074074074074,1.5938999996185288],[0.020937500000000022,0.4737037037037036,1.6149999999999949],[0.020937500000000022,0.4737037037037036,1.6273999996185324],[0.027708333333333356,0.447037037037037,1.6440999999046255],[0.027708333333333356,0.447037037037037,1.6606999998092675],[0.0265625,0.430925925925926,1.6905999999046344],[0.0265625,0.430925925925926,1.6983999996185304],[0.024374999999999977,0.4209259259259258,1.710799999713899],[0.024374999999999977,0.4209259259259258,1.7272999997138925],[0.021145833333333287,0.4162962962962962,1.7505999999046367],[0.021145833333333287,0.4162962962962962,1.7605999999046276],[0.004999999999999952,0.3731481481481482,1.7772999997139038],[-0.00635416666666669,0.3229629629629629,1.8015000000000043],[-0.00635416666666669,0.3229629629629629,1.8105999999046247],[-0.011562500000000024,0.30185185185185187,1.827299999713901],[-0.011562500000000024,0.30185185185185187,1.843999999999994],[-0.012395833333333309,0.2935185185185185,1.8662999997139025],[-0.012395833333333309,0.2935185185185185,1.8771999998092639],[-0.021354166666666667,0.2683333333333333,1.8940999999046255],[-0.021354166666666667,0.2683333333333333,1.9106999998092675],[-0.018020833333333285,0.22092592592592583,1.9352999997138909],[-0.018020833333333285,0.22092592592592583,1.9446999998092593],[-0.005520833333333286,0.24870370370370362,1.9608999996185332],[-0.005520833333333286,0.24870370370370362,1.9772999997138925],[0.01895833333333338,0.2542592592592592,2.0127999997138915],[0.01895833333333338,0.2542592592592592,2.0223999996185285],[0.024583333333333356,0.25685185185185194,2.029899999618536],[0.014999999999999977,0.2492592592592593,2.0437999997138974],[0.018124999999999978,0.25092592592592594,2.062199999809266],[0.02322916666666662,0.2833333333333333,2.0770999999046325],[0.036458333333333336,0.2601851851851852,2.0952999997139017],[0.049687500000000044,0.23703703703703705,2.110500000000002],[0.06958333333333329,0.25685185185185194,2.1270999999046296],[0.06958333333333329,0.25685185185185194,2.1437999997138917],[0.08635416666666676,0.2833333333333333,2.160499999999999],[0.0990624999999999,0.28722222222222227,2.1784999999999997],[0.08989583333333329,0.2803703703703703,2.193799999713903],[0.08989583333333329,0.2803703703703703,2.210499999999996],[0.10062499999999991,0.27037037037037037,2.227199999809258],[0.12458333333333324,0.25203703703703706,2.2437999997139],[0.13645833333333332,0.2381481481481482,2.2620000000000005],[0.15177083333333338,0.20259259259259255,2.2770999999046353],[0.17333333333333342,0.19870370370370363,2.294399999618534],[0.2013541666666666,0.20685185185185193,2.3105000000000047],[0.22552083333333334,0.1896296296296296,2.3273999996185353],[0.22552083333333334,0.1896296296296296,2.3437999997138945],[0.23156249999999995,0.13962962962962958,2.360500000000002],[0.23156249999999995,0.13962962962962958,2.3770999999046296],[0.22489583333333343,0.1175925925925926,2.3937999997138917],[0.2430208333333333,0.09648148148148153,2.410499999999999],[0.2696875000000001,0.03888888888888889,2.427199999809261],[0.2805208333333333,-0.03296296296296288,2.443799999713903],[0.28875000000000006,-0.03351851851851856,2.4639999999999986],[0.28875000000000006,-0.03351851851851856,2.477099999904638],[0.3046875,-0.032777777777777864,2.4937999997139],[0.2924999999999999,-0.05240740740740743,2.5104999999999933],[0.2607291666666666,-0.06740740740740736,2.527299999713904],[0.2289583333333333,-0.0824074074074074,2.5437999997138974],[0.23187499999999991,-0.06925925925925921,2.5630999999046367],[0.24656250000000005,-0.07888888888888893,2.5770999999046325],[0.2520833333333333,-0.06481481481481481,2.5936999998092602],[0.2490624999999999,-0.014259259259259343,2.610500000000002],[0.23875000000000005,0.04314814814814806,2.6270999999046296],[0.2319791666666667,0.04518518518518514,2.6437999997138917],[0.2283333333333334,0.04685185185185177,2.662099999904626],[0.23229166666666667,0.06370370370370367,2.6770999999046268],[0.25625,0.06740740740740736,2.694199999809271],[0.25510416666666674,0.04722222222222222,2.711899999618524],[0.24333333333333323,0.0257407407407407,2.727099999904638],[0.23895833333333344,0.020555555555555598,2.7437999997139],[0.22000000000000006,0.029259259259259176,2.760799999713896],[0.19145833333333329,-0.01055555555555564,2.777799999713892],[0.18156249999999996,-0.041111111111111195,2.793699999809263],[0.18041666666666673,-0.03259259259259263,2.8105000000000047],[0.17614583333333325,-0.02370370370370362,2.8285000000000053],[0.1734375,0.009999999999999959,2.8437999997138945],[0.1638541666666666,0.04018518518518527,2.8611999998092585],[0.17937500000000003,0.09648148148148153,2.8770999999046296],[0.17416666666666672,0.1427777777777778,2.8937999997138917],[0.17604166666666668,0.16888888888888898,2.910499999999999],[0.18260416666666662,0.1638888888888889,2.9270999999046268],[0.19677083333333342,0.20055555555555546,2.943799999713903],[0.1935416666666666,0.23481481481481473,2.9617999997139037],[0.18156249999999996,0.2300000000000001,2.977099999904638],[0.12645833333333342,0.2322222222222222,2.993699999809266],[0.06499999999999997,0.1962962962962963,3.0104999999999933],[0.020729166666666642,0.16814814814814807,3.0270999999046353],[-0.026250000000000048,0.14740740740740746,3.0478999996185223],[-0.06656249999999998,0.13759259259259252,3.063199999809271],[-0.06656249999999998,0.13759259259259252,3.0770999999046325],[-0.1202083333333333,0.1300000000000001,3.0937999997138945],[-0.16052083333333336,0.1381481481481482,3.1107999997138904],[-0.19885416666666664,0.15314814814814823,3.1270999999046296],[-0.24010416666666667,0.15703703703703695,3.147999999999996],[-0.2813541666666667,0.1609259259259259,3.1640999999046358],[-0.2803125,0.1581481481481481,3.179799999713893],[-0.27447916666666666,0.16870370370370374,3.1940000000000026],[-0.31281249999999994,0.1725925925925927,3.2105999999046304],[-0.3484375,0.1668518518518519,3.227099999904638],[-0.35822916666666665,0.15555555555555556,3.2437999997139],[-0.36916666666666664,0.14592592592592585,3.262199999809269],[-0.39958333333333335,0.12333333333333338,3.2770999999046353],[-0.43093750000000003,0.10314814814814824,3.293699999809263],[-0.44197916666666665,0.09648148148148153,3.310699999809259],[-0.4510416666666667,0.07462962962962955,3.3278999996185235],[-0.4592708333333333,0.052407407407407326,3.348399999618536],[-0.4592708333333333,0.052407407407407326,3.360500000000002],[-0.42729166666666674,0.034074074074074034,3.377199999809264],[-0.35656249999999995,0.003888888888888931,3.3970000000000056],[-0.28583333333333333,-0.02629629629629638,3.4117999997138924],[-0.2247916666666666,-0.04796296296296292,3.427199999809261],[-0.18312499999999995,-0.05351851851851848,3.443799999713903],[-0.12916666666666668,-0.07240740740740745,3.4621999998092576],[-0.07427083333333329,-0.09370370370370375,3.477099999904638],[-0.03697916666666667,-0.12444444444444443,3.4937999997139],[-0.03145833333333338,-0.09537037037037037,3.5104999999999933],[-0.009895833333333333,-0.10851851851851856,3.5271999998092696],[-0.03218749999999997,-0.11944444444444445,3.5475999999046337],[-0.06625000000000002,-0.11962962962962967,3.563199999809271],[-0.06625000000000002,-0.11962962962962967,3.5773999996185353],[-0.10427083333333335,-0.11148148148148146,3.5936999998092602],[-0.16031249999999997,-0.11740740740740736,3.614699999809261],[-0.19697916666666668,-0.13944444444444445,3.630199999809264],[-0.23927083333333338,-0.1257407407407407,3.650599999904628],[-0.23927083333333338,-0.1257407407407407,3.6605999999046333],[-0.24437500000000004,-0.10277777777777777,3.6772999997138953],[-0.268125,-0.07185185185185188,3.693899999618523],[-0.26208333333333333,-0.08555555555555554,3.7143999996185357],[-0.24489583333333337,-0.07148148148148152,3.7300999999046383],[-0.22406250000000003,-0.06351851851851854,3.743699999809266],[-0.19874999999999995,-0.043703703703703745,3.763399999618528],[-0.1694791666666667,-0.03222222222222218,3.777399999618524],[-0.1694791666666667,-0.03222222222222218,3.7937999997138974],[-0.1694791666666667,-0.03222222222222218,3.812199999809266],[-0.12749999999999997,-0.0031481481481482323,3.852499999999992],[-0.12749999999999997,-0.0031481481481482323,3.865099999904629],[-0.09031250000000005,-0.005000000000000084,3.8769999999999953],[-0.09031250000000005,-0.005000000000000084,3.8937999997138917],[-0.021354166666666667,-0.011481481481481566,3.910499999999999],[-0.021354166666666667,-0.011481481481481566,3.9318999996185227],[-0.028645833333333332,-0.028888888888888933,3.943899999618523],[-0.028645833333333332,-0.028888888888888933,3.9605999999046304],[0.03822916666666672,-0.04092592592592597,3.982599999904636],[0.07864583333333333,-0.05537037037037033,3.9971999998092684],[0.07489583333333343,-0.043703703703703745,4.012599999904637],[0.07114583333333328,-0.032037037037036954,4.027099999904635],[0.053125,-0.04462962962962967,4.043699999809263],[0.035104166666666714,-0.05722222222222218,4.0625],[0.014374999999999952,-0.0712962962962963,4.081799999713894],[-0.008749999999999977,-0.05,4.097399999618531],[-0.008749999999999977,-0.05,4.120599999904627],[-0.04093749999999995,-0.03481481481481473,4.127199999809264],[-0.04093749999999995,-0.03481481481481473,4.1440000000000055],[-0.052187500000000026,-0.026666666666666623,4.1606999998092675],[-0.052187500000000026,-0.026666666666666623,4.179999999999993],[-0.10218750000000003,-0.027222222222222307,4.194000000000003],[-0.12843749999999995,-0.02166666666666675,4.21059999990463],[-0.13562500000000005,-0.03037037037037033,4.2298999996185245],[-0.11979166666666667,-0.046481481481481526,4.244599999904636],[-0.10583333333333336,-0.05018518518518523,4.26089999961853],[-0.09187500000000005,-0.05388888888888893,4.279899999618536],[-0.05020833333333338,-0.056851851851851834,4.295899999618527],[0.011562500000000024,-0.06666666666666667,4.313500000000005],[0.036249999999999956,-0.04722222222222222,4.335399999618531],[0.036249999999999956,-0.04722222222222222,4.344199999809263],[0.04833333333333331,-0.060555555555555536,4.36079999971389],[0.04833333333333331,-0.060555555555555536,4.377399999618532],[0.07208333333333337,-0.07759259259259255,4.3973999996185285],[0.109375,-0.11055555555555553,4.412599999904629],[0.14458333333333329,-0.14092592592592595,4.427299999713895],[0.1508333333333333,-0.14833333333333337,4.443899999618523],[0.16875,-0.1557407407407408,4.464099999904633],[0.1866666666666667,-0.16314814814814818,4.480000000000004],[0.18520833333333328,-0.1712962962962963,4.495199999809259],[0.18520833333333328,-0.1712962962962963,4.5138999996185305],[0.159375,-0.19500000000000003,4.527099999904635],[0.11322916666666671,-0.2131481481481482,4.545999999999992],[0.11322916666666671,-0.2131481481481482,4.560500000000005],[0.11624999999999991,-0.19074074074074074,4.5770999999046325],[0.14093749999999997,-0.17092592592592595,4.5955999999046355],[0.14093749999999997,-0.17092592592592595,4.610399999618522],[0.15479166666666658,-0.1388888888888889,4.627199999809264],[0.13145833333333337,-0.10499999999999998,4.645199999809265],[0.11177083333333329,-0.08462962962962961,4.663599999904633],[0.11531250000000005,-0.05907407407407403,4.679899999618527],[0.11885416666666657,-0.03351851851851856,4.693799999713903],[0.11531250000000005,-0.020185185185185143,4.715999999999994],[0.11531250000000005,-0.020185185185185143,4.7272999997138925],[0.11531250000000005,-0.020370370370370372,4.7437999997139],[0.1408333333333334,-0.07074074074074072,4.763699999809262],[0.13270833333333343,-0.10907407407407403,4.780000000000001],[0.1131249999999999,-0.14740740740740746,4.796299999713895],[0.07979166666666657,-0.18888888888888888,4.810399999618525],[0.08364583333333328,-0.2322222222222222,4.827199999809267],[0.07781250000000005,-0.2668518518518519,4.844299999713897],[0.04874999999999995,-0.3066666666666667,4.862199999809263],[0.019687499999999976,-0.3464814814814815,4.877299999713898],[0.019687499999999976,-0.3464814814814815,4.893799999713892],[-0.00625,-0.37462962962962965,4.910399999618534],[-0.005729166666666666,-0.3690740740740741,4.927299999713895],[-0.004375000000000047,-0.3594444444444445,4.943899999618523],[-0.0002083333333333807,-0.3464814814814815,4.963399999618531],[-0.017083333333333308,-0.3224074074074075,4.980000000000004],[-0.005520833333333286,-0.2892592592592592,4.997500000000002],[0.00604166666666662,-0.2561111111111111,5.015199999809269],[0.00604166666666662,-0.2561111111111111,5.02719999980927],[0.04729166666666664,-0.22907407407407404,5.043899999618532],[0.04729166666666664,-0.22907407407407404,5.060500000000005],[0.09156250000000009,-0.2051851851851852,5.077199999809267],[0.14447916666666671,-0.19814814814814816,5.095299999713902],[0.18291666666666656,-0.1940740740740741,5.118599999904632],[0.18291666666666656,-0.1940740740740741,5.127199999809264],[0.1946875000000001,-0.19092592592592597,5.143899999618526],[0.23562500000000006,-0.16407407407407412,5.163199999809265],[0.25718750000000007,-0.14870370370370373,5.177199999809261],[0.31520833333333326,-0.13796296296296295,5.194000000000003],[0.309375,-0.1581481481481481,5.210399999618531],[0.30354166666666677,-0.17833333333333334,5.227099999904638],[0.30625,-0.1581481481481481,5.2437999997139],[0.30531249999999993,-0.167037037037037,5.264199999809264],[0.30531249999999993,-0.167037037037037,5.277099999904635],[0.29489583333333325,-0.1603703703703704,5.293699999809263],[0.2703125,-0.14907407407407408,5.310500000000005],[0.2828125,-0.13407407407407404,5.329999999999998],[0.2828125,-0.13407407407407404,5.3437999997138945],[0.26708333333333345,-0.14351851851851852,5.360500000000002],[0.2419791666666666,-0.16314814814814818,5.383199999809264],[0.2419791666666666,-0.16314814814814818,5.393699999809257],[0.20385416666666673,-0.16129629629629633,5.410499999999999],[0.17291666666666666,-0.14222222222222225,5.4269999999999925],[0.14197916666666663,-0.12314814814814815,5.443699999809269],[0.0865624999999999,-0.147037037037037,5.463999999999999],[0.05270833333333336,-0.16055555555555553,5.480499999999992],[0.019687499999999976,-0.1727777777777778,5.498499999999993],[0.019895833333333356,-0.1655555555555555,5.5138999996185305],[0.0006250000000000236,-0.16351851851851854,5.530000000000001],[-0.036458333333333336,-0.1668518518518519,5.5472999997139],[-0.03239583333333336,-0.16296296296296298,5.563299999713891],[-0.04864583333333338,-0.19296296296296295,5.580399999618535],[-0.022916666666666665,-0.21518518518518517,5.597199999809263]]","[0.00019999980926854732,0.05179999971389293,0.06189999961853232,0.07709999990463245,0.09379999971389452,0.11050000000000182,0.1270999999046296,0.14389999961852595,0.1620999999046262,0.17709999990462677,0.19379999971390305,0.21039999961853084,0.2276999998092606,0.24389999961853448,0.264799999713901,0.2800999999046354,0.2940999999046312,0.310699999809259,0.32789999961852345,0.34419999980926264,0.3605999999046361,0.38049999999999784,0.3941999998092598,0.4103999996185337,0.42719999980926104,0.4438999996185231,0.46399999999999864,0.48149999999999693,0.4968999996185346,0.5106999998092618,0.5276999998092577,0.5438999996185316,0.5630000000000024,0.5775000000000006,0.5937999997138945,0.6103999996185223,0.6270999999046296,0.6437999997138917,0.6617999997138924,0.6775999999046292,0.6940999999046369,0.710799999713899,0.7270999999046381,0.7454999999999927,0.7632999997138938,0.7773999996185239,0.7951999998092703,0.8103999996185252,0.8285000000000053,0.8444999999999965,0.864699999809261,0.8818999996185255,0.8937999997138917,0.910499999999999,0.9300999999046269,0.9497999997139033,0.9604999999999961,0.9771999998092582,0.9942999997139026,1.0117999997139009,1.0272999997139038,1.0437999997138974,1.0630999999046367,1.0771999998092667,1.0937999997138945,1.1105000000000018,1.1287999997138911,1.1585000000000036,1.1658999996185315,1.1770999999046268,1.1962999997139008,1.2103999996185308,1.228899999618534,1.2445999999046364,1.2641999998092643,1.2789999999999964,1.2937999997138974,1.3105999999046247,1.329499999999996,1.3438999996185288,1.360599999904636,1.3771999998092639,1.393899999618526,1.410499999999999,1.427199999809261,1.4475000000000051,1.460799999713899,1.477499999999992,1.4994999999999976,1.5144999999999982,1.5320999999046307,1.5516999998092587,1.560699999809259,1.577299999713901,1.5938999996185288,1.6149999999999949,1.6273999996185324,1.6440999999046255,1.6606999998092675,1.6905999999046344,1.6983999996185304,1.710799999713899,1.7272999997138925,1.7505999999046367,1.7605999999046276,1.7772999997139038,1.8015000000000043,1.8105999999046247,1.827299999713901,1.843999999999994,1.8662999997139025,1.8771999998092639,1.8940999999046255,1.9106999998092675,1.9352999997138909,1.9446999998092593,1.9608999996185332,1.9772999997138925,2.0127999997138915,2.0223999996185285,2.029899999618536,2.0437999997138974,2.062199999809266,2.0770999999046325,2.0952999997139017,2.110500000000002,2.1270999999046296,2.1437999997138917,2.160499999999999,2.1784999999999997,2.193799999713903,2.210499999999996,2.227199999809258,2.2437999997139,2.2620000000000005,2.2770999999046353,2.294399999618534,2.3105000000000047,2.3273999996185353,2.3437999997138945,2.360500000000002,2.3770999999046296,2.3937999997138917,2.410499999999999,2.427199999809261,2.443799999713903,2.4639999999999986,2.477099999904638,2.4937999997139,2.5104999999999933,2.527299999713904,2.5437999997138974,2.5630999999046367,2.5770999999046325,2.5936999998092602,2.610500000000002,2.6270999999046296,2.6437999997138917,2.662099999904626,2.6770999999046268,2.694199999809271,2.711899999618524,2.727099999904638,2.7437999997139,2.760799999713896,2.777799999713892,2.793699999809263,2.8105000000000047,2.8285000000000053,2.8437999997138945,2.8611999998092585,2.8770999999046296,2.8937999997138917,2.910499999999999,2.9270999999046268,2.943799999713903,2.9617999997139037,2.977099999904638,2.993699999809266,3.0104999999999933,3.0270999999046353,3.0478999996185223,3.063199999809271,3.0770999999046325,3.0937999997138945,3.1107999997138904,3.1270999999046296,3.147999999999996,3.1640999999046358,3.179799999713893,3.1940000000000026,3.2105999999046304,3.227099999904638,3.2437999997139,3.262199999809269,3.2770999999046353,3.293699999809263,3.310699999809259,3.3278999996185235,3.348399999618536,3.360500000000002,3.377199999809264,3.3970000000000056,3.4117999997138924,3.427199999809261,3.443799999713903,3.4621999998092576,3.477099999904638,3.4937999997139,3.5104999999999933,3.5271999998092696,3.5475999999046337,3.563199999809271,3.5773999996185353,3.5936999998092602,3.614699999809261,3.630199999809264,3.650599999904628,3.6605999999046333,3.6772999997138953,3.693899999618523,3.7143999996185357,3.7300999999046383,3.743699999809266,3.763399999618528,3.777399999618524,3.7937999997138974,3.812199999809266,3.852499999999992,3.865099999904629,3.8769999999999953,3.8937999997138917,3.910499999999999,3.9318999996185227,3.943899999618523,3.9605999999046304,3.982599999904636,3.9971999998092684,4.012599999904637,4.027099999904635,4.043699999809263,4.0625,4.081799999713894,4.097399999618531,4.120599999904627,4.127199999809264,4.1440000000000055,4.1606999998092675,4.179999999999993,4.194000000000003,4.21059999990463,4.2298999996185245,4.244599999904636,4.26089999961853,4.279899999618536,4.295899999618527,4.313500000000005,4.335399999618531,4.344199999809263,4.36079999971389,4.377399999618532,4.3973999996185285,4.412599999904629,4.427299999713895,4.443899999618523,4.464099999904633,4.480000000000004,4.495199999809259,4.5138999996185305,4.527099999904635,4.545999999999992,4.560500000000005,4.5770999999046325,4.5955999999046355,4.610399999618522,4.627199999809264,4.645199999809265,4.663599999904633,4.679899999618527,4.693799999713903,4.715999999999994,4.7272999997138925,4.7437999997139,4.763699999809262,4.780000000000001,4.796299999713895,4.810399999618525,4.827199999809267,4.844299999713897,4.862199999809263,4.877299999713898,4.893799999713892,4.910399999618534,4.927299999713895,4.943899999618523,4.963399999618531,4.980000000000004,4.997500000000002,5.015199999809269,5.02719999980927,5.043899999618532,5.060500000000005,5.077199999809267,5.095299999713902,5.118599999904632,5.127199999809264,5.143899999618526,5.163199999809265,5.177199999809261,5.194000000000003,5.210399999618531,5.227099999904638,5.2437999997139,5.264199999809264,5.277099999904635,5.293699999809263,5.310500000000005,5.329999999999998,5.3437999997138945,5.360500000000002,5.383199999809264,5.393699999809257,5.410499999999999,5.4269999999999925,5.443699999809269,5.463999999999999,5.480499999999992,5.498499999999993,5.5138999996185305,5.530000000000001,5.5472999997139,5.563299999713891,5.580399999618535,5.597199999809263]","[1731993319477,1731993319519,1731993319529,1731993319544,1731993319561,1731993319577,1731993319594,1731993319611,1731993319629,1731993319644,1731993319661,1731993319677,1731993319695,1731993319711,1731993319732,1731993319747,1731993319761,1731993319778,1731993319795,1731993319811,1731993319827,1731993319847,1731993319861,1731993319877,1731993319894,1731993319911,1731993319931,1731993319948,1731993319964,1731993319978,1731993319995,1731993320011,1731993320030,1731993320044,1731993320061,1731993320077,1731993320094,1731993320111,1731993320129,1731993320145,1731993320161,1731993320178,1731993320194,1731993320212,1731993320230,1731993320244,1731993320262,1731993320277,1731993320295,1731993320311,1731993320332,1731993320349,1731993320361,1731993320377,1731993320397,1731993320417,1731993320427,1731993320444,1731993320461,1731993320479,1731993320494,1731993320511,1731993320530,1731993320544,1731993320561,1731993320577,1731993320596,1731993320625,1731993320633,1731993320644,1731993320663,1731993320677,1731993320696,1731993320711,1731993320731,1731993320746,1731993320761,1731993320777,1731993320796,1731993320811,1731993320828,1731993320844,1731993320861,1731993320877,1731993320894,1731993320914,1731993320928,1731993320944,1731993320966,1731993320981,1731993320999,1731993321019,1731993321028,1731993321044,1731993321061,1731993321082,1731993321094,1731993321111,1731993321128,1731993321157,1731993321165,1731993321178,1731993321194,1731993321218,1731993321227,1731993321244,1731993321268,1731993321277,1731993321294,1731993321311,1731993321333,1731993321344,1731993321361,1731993321378,1731993321402,1731993321412,1731993321428,1731993321444,1731993321480,1731993321489,1731993321497,1731993321511,1731993321529,1731993321544,1731993321562,1731993321577,1731993321594,1731993321611,1731993321627,1731993321645,1731993321661,1731993321677,1731993321694,1731993321711,1731993321729,1731993321744,1731993321761,1731993321777,1731993321794,1731993321811,1731993321827,1731993321844,1731993321861,1731993321877,1731993321894,1731993321911,1731993321931,1731993321944,1731993321961,1731993321977,1731993321994,1731993322011,1731993322030,1731993322044,1731993322061,1731993322077,1731993322094,1731993322111,1731993322129,1731993322144,1731993322161,1731993322179,1731993322194,1731993322211,1731993322228,1731993322245,1731993322261,1731993322277,1731993322295,1731993322311,1731993322328,1731993322344,1731993322361,1731993322377,1731993322394,1731993322411,1731993322429,1731993322444,1731993322461,1731993322477,1731993322494,1731993322515,1731993322530,1731993322544,1731993322561,1731993322578,1731993322594,1731993322615,1731993322631,1731993322647,1731993322661,1731993322677,1731993322694,1731993322711,1731993322729,1731993322744,1731993322761,1731993322778,1731993322795,1731993322815,1731993322827,1731993322844,1731993322864,1731993322879,1731993322894,1731993322911,1731993322929,1731993322944,1731993322961,1731993322977,1731993322994,1731993323014,1731993323030,1731993323044,1731993323061,1731993323082,1731993323097,1731993323117,1731993323127,1731993323144,1731993323161,1731993323181,1731993323197,1731993323211,1731993323230,1731993323244,1731993323261,1731993323279,1731993323319,1731993323332,1731993323344,1731993323361,1731993323377,1731993323399,1731993323411,1731993323428,1731993323449,1731993323464,1731993323480,1731993323494,1731993323511,1731993323529,1731993323549,1731993323564,1731993323588,1731993323594,1731993323611,1731993323628,1731993323647,1731993323661,1731993323677,1731993323697,1731993323711,1731993323728,1731993323747,1731993323763,1731993323780,1731993323802,1731993323811,1731993323828,1731993323844,1731993323864,1731993323879,1731993323894,1731993323911,1731993323931,1731993323947,1731993323962,1731993323981,1731993323994,1731993324013,1731993324027,1731993324044,1731993324063,1731993324077,1731993324094,1731993324112,1731993324130,1731993324147,1731993324161,1731993324183,1731993324194,1731993324211,1731993324231,1731993324247,1731993324263,1731993324277,1731993324294,1731993324311,1731993324329,1731993324344,1731993324361,1731993324377,1731993324394,1731993324411,1731993324430,1731993324447,1731993324464,1731993324482,1731993324494,1731993324511,1731993324527,1731993324544,1731993324562,1731993324586,1731993324594,1731993324611,1731993324630,1731993324644,1731993324661,1731993324677,1731993324694,1731993324711,1731993324731,1731993324744,1731993324761,1731993324777,1731993324797,1731993324811,1731993324827,1731993324850,1731993324861,1731993324877,1731993324894,1731993324911,1731993324931,1731993324947,1731993324965,1731993324981,1731993324997,1731993325014,1731993325030,1731993325047,1731993325064]","[[975,572.2],[975,572.2],[982.7,572.4],[988.2,566.9],[995.1,557.8],[1009.3,552.7],[1023.8,552.7],[1038.3,552.7],[1073.8,539.7],[1101.4,551.2],[1133.4,541.9],[1165.4,532.6],[1168.1,535.5],[1191,539.5],[1206,543],[1204.6,540.3],[1204.1,535.2],[1195.5,533.5],[1187,536.8],[1187,536.8],[1172.8,523.6],[1122.7,532.7],[1122.7,532.7],[1072.6,541.8],[1018,537.6],[977.9,522.7],[911.6,511.1],[888,508],[840.7,511.1],[845.1,501],[822,508.1],[818.5,515.8],[827,516.2],[847.9,506],[867.8,505.9],[873.2,516.5],[929.2,521.5],[958.9,524.2],[1008.9,528.9],[1015.3,543.4],[1052.8,537.5],[1055.3,570],[1076.2,598.2],[1098.6,652.5],[1131.5,706.6],[1156.9,758.3],[1148,796.6],[1119.3,845.2],[1094,885.6],[1047.3,908.8],[984.7,936.9],[938.6,928.4],[938.6,928.4],[889.6,932.4],[838.9,904.9],[783.8,873],[783.8,873],[714.6,842.4],[683.2,840.7],[671.6,828.7],[639.8,813.7],[629.4,815.9],[639.4,808.2],[649.4,800.5],[680.1,790.9],[674.3,791.4],[660.7,793.3],[704.9,790.8],[704.9,790.8],[690.2,790.1],[652.7,773.8],[631.8,757.7],[610.9,741.6],[589.4,742],[567.9,742.4],[528.6,732.2],[528.6,732.2],[511.2,727.5],[501.3,735.2],[501.3,735.2],[455.2,748.4],[455.2,748.4],[445.6,747],[483.6,747.8],[542.7,758],[601.8,768.2],[601.8,768.2],[660.6,776.2],[730.3,789],[782.8,800],[837.7,811.4],[888.7,802.1],[888.7,802.1],[944.8,792.4],[944.8,792.4],[980.1,795.8],[980.1,795.8],[986.6,781.4],[986.6,781.4],[985.5,772.7],[985.5,772.7],[983.4,767.3],[983.4,767.3],[980.3,764.8],[980.3,764.8],[964.8,741.5],[953.9,714.4],[953.9,714.4],[948.9,703],[948.9,703],[948.1,698.5],[948.1,698.5],[939.5,684.9],[939.5,684.9],[942.7,659.3],[942.7,659.3],[954.7,674.3],[954.7,674.3],[978.2,677.3],[978.2,677.3],[983.6,678.7],[974.4,674.6],[977.4,675.5],[982.3,693],[995,680.5],[1007.7,668],[1026.8,678.7],[1026.8,678.7],[1042.9,693],[1055.1,695.1],[1046.3,691.4],[1046.3,691.4],[1056.6,686],[1079.6,676.1],[1091,668.6],[1105.7,649.4],[1126.4,647.3],[1153.3,651.7],[1176.5,642.4],[1176.5,642.4],[1182.3,615.4],[1182.3,615.4],[1175.9,603.5],[1193.3,592.1],[1218.9,561],[1229.3,522.2],[1237.2,521.9],[1237.2,521.9],[1252.5,522.3],[1240.8,511.7],[1210.3,503.6],[1179.8,495.5],[1182.6,502.6],[1196.7,497.4],[1202,505],[1199.1,532.3],[1189.2,563.3],[1182.7,564.4],[1179.2,565.3],[1183,574.4],[1206,576.4],[1204.9,565.5],[1193.6,553.9],[1189.4,551.1],[1171.2,555.8],[1143.8,534.3],[1134.3,517.8],[1133.2,522.4],[1129.1,527.2],[1126.5,545.4],[1117.3,561.7],[1132.2,592.1],[1127.2,617.1],[1129,631.2],[1135.3,628.5],[1148.9,648.3],[1145.8,666.8],[1134.3,664.2],[1081.4,665.4],[1022.4,646],[979.9,630.8],[934.8,619.6],[896.1,614.3],[896.1,614.3],[844.6,610.2],[805.9,614.6],[769.1,622.7],[729.5,624.8],[689.9,626.9],[690.9,625.4],[696.5,631.1],[659.7,633.2],[625.5,630.1],[616.1,624],[605.6,618.8],[576.4,606.6],[546.3,595.7],[535.7,592.1],[527,580.3],[519.1,568.3],[519.1,568.3],[549.8,558.4],[617.7,542.1],[685.6,525.8],[744.2,514.1],[784.2,511.1],[836,500.9],[888.7,489.4],[924.5,472.8],[929.8,488.5],[950.5,481.4],[929.1,475.5],[896.4,475.4],[896.4,475.4],[859.9,479.8],[806.1,476.6],[770.9,464.7],[730.3,472.1],[730.3,472.1],[725.4,484.5],[702.6,501.2],[708.4,493.8],[724.9,501.4],[744.9,505.7],[769.2,516.4],[797.3,522.6],[797.3,522.6],[797.3,522.6],[837.6,538.3],[837.6,538.3],[873.3,537.3],[873.3,537.3],[939.5,533.8],[939.5,533.8],[932.5,524.4],[932.5,524.4],[996.7,517.9],[1035.5,510.1],[1031.9,516.4],[1028.3,522.7],[1011,515.9],[993.7,509.1],[973.8,501.5],[951.6,513],[951.6,513],[920.7,521.2],[920.7,521.2],[909.9,525.6],[909.9,525.6],[861.9,525.3],[836.7,528.3],[829.8,523.6],[845,514.9],[858.4,512.9],[871.8,510.9],[911.8,509.3],[971.1,504],[994.8,514.5],[994.8,514.5],[1006.4,507.3],[1006.4,507.3],[1029.2,498.1],[1065,480.3],[1098.8,463.9],[1104.8,459.9],[1122,455.9],[1139.2,451.9],[1137.8,447.5],[1137.8,447.5],[1113,434.7],[1068.7,424.9],[1068.7,424.9],[1071.6,437],[1095.3,447.7],[1095.3,447.7],[1108.6,465],[1086.2,483.3],[1067.3,494.3],[1070.7,508.1],[1074.1,521.9],[1070.7,529.1],[1070.7,529.1],[1070.7,529],[1095.2,501.8],[1087.4,481.1],[1068.6,460.4],[1036.6,438],[1040.3,414.6],[1034.7,395.9],[1006.8,374.4],[978.9,352.9],[978.9,352.9],[954,337.7],[954.5,340.7],[955.8,345.9],[959.8,352.9],[943.6,365.9],[954.7,383.8],[965.8,401.7],[965.8,401.7],[1005.4,416.3],[1005.4,416.3],[1047.9,429.2],[1098.7,433],[1135.6,435.2],[1135.6,435.2],[1146.9,436.9],[1186.2,451.4],[1206.9,459.7],[1262.6,465.5],[1257,454.6],[1251.4,443.7],[1254,454.6],[1253.1,449.8],[1253.1,449.8],[1243.1,453.4],[1219.5,459.5],[1231.5,467.6],[1231.5,467.6],[1216.4,462.5],[1192.3,451.9],[1192.3,451.9],[1155.7,452.9],[1126,463.2],[1096.3,473.5],[1043.1,460.6],[1010.6,453.3],[978.9,446.7],[979.1,450.6],[960.6,451.7],[925,449.9],[928.9,452],[913.3,435.8],[938,423.8]]","[-0.132282,0.39684600000000003]","[0.132282,0.39684600000000003]","[0.39684600000000003,0.39684600000000003]","[-0.39684600000000003,-0.39684600000000003]","[-0.39684600000000003,0.132282]","[-0.39684600000000003,-0.132282]","[-0.132282,-0.39684600000000003]","[0.132282,-0.39684600000000003]","[0.39684600000000003,-0.39684600000000003]","[-0.132282,0.132282]","[0.132282,0.132282]","[0.39684600000000003,0.132282]","[-0.132282,-0.132282]","[0.132282,-0.132282]","[0.39684600000000003,-0.132282]",0,0,0,0,1,4,Tablet,25,20,8,1,60,4,1,60,3
