inst1_resp.keys,inst1_resp.rt,calibrationMouse.x,calibrationMouse.y,calibrationMouse.leftButton,calibrationMouse.midButton,calibrationMouse.rightButton,calibrationClick.x,calibrationClick.y,calibrationClick.leftButton,calibrationClick.midButton,calibrationClick.rightButton,trialsc.thisRepN,trialsc.thisTrialN,trialsc.thisN,trialsc.thisIndex,trialsc.ran,calibration_x,calibration_y,participant,session,date,expName,psychopyVersion,OS,frameRate,calibrationClick.clicked_name,ScreenRes_pixels,Camera_pixels,mouse_2.x,mouse_2.y,mouse_2.leftButton,mouse_2.midButton,mouse_2.rightButton,mouse_2.time,mouse_2.clicked_name,mouse.x,mouse.y,mouse.leftButton,mouse.midButton,mouse.rightButton,mouse.time,mouse.clicked_name,Choice,Trial,TrialDuration,MOUSE_GAZE,ET_GAZE,ET_GAZE_x_T,time,unixTime,ET_GAZE_NF,Loc_Bus_label,Loc_Metro_label,Loc_RH_label,Loc_Cost_label,Loc_Travel_label,Loc_Comfort_label,Loc_Bus_cost,Loc_Metro_cost,Loc_RH_cost,Loc_Bus_travel,Loc_Metro_travel,Loc_RH_travel,Loc_Bus_comfort,Loc_Metro_comfort,Loc_RH_comfort,trials.thisRepN,trials.thisTrialN,trials.thisN,trials.thisIndex,trials.ran,Block,Device,RH_cost,RH_travel_time,RH_Comfort,metro_cost,metro_travel_time,metro_Comfort,Bus_cost,Bus_travel_time,Bus_Comfort
space,1.1639,-0.048958333,-0.390740741,1,0,0,0.659375,0.67037037,1,0,0,0,0,0,19,1,0.67,0.67,40,001,2024-11-19_16h53.11.625,Attention_exp_legacy,2023.1.0,Win32,59.88023952,,,,,,,,,,,,,,,,,,,,,,,,,,,,,,,,,,,,,,,,,,,,,,,,,,,,,,,,,
,,,,,,,0.335416667,-0.674074074,1,0,0,0,1,1,14,1,0.33,-0.67,40,001,2024-11-19_16h53.11.625,Attention_exp_legacy,2023.1.0,Win32,59.88023952,calibration_square,,,,,,,,,,,,,,,,,,,,,,,,,,,,,,,,,,,,,,,,,,,,,,,,,,,,,,,,
,,,,,,,-0.00625,0.675925926,1,0,0,0,2,2,13,1,0,0.67,40,001,2024-11-19_16h53.11.625,Attention_exp_legacy,2023.1.0,Win32,59.88023952,calibration_square,,,,,,,,,,,,,,,,,,,,,,,,,,,,,,,,,,,,,,,,,,,,,,,,,,,,,,,,
,,,,,,,0.327083333,-0.322222222,1,0,0,0,3,3,15,1,0.33,-0.33,40,001,2024-11-19_16h53.11.625,Attention_exp_legacy,2023.1.0,Win32,59.88023952,calibration_square,,,,,,,,,,,,,,,,,,,,,,,,,,,,,,,,,,,,,,,,,,,,,,,,,,,,,,,,
,,,,,,,-0.327083333,-0.675925926,1,0,0,0,4,4,4,1,-0.33,-0.67,40,001,2024-11-19_16h53.11.625,Attention_exp_legacy,2023.1.0,Win32,59.88023952,calibration_square,,,,,,,,,,,,,,,,,,,,,,,,,,,,,,,,,,,,,,,,,,,,,,,,,,,,,,,,
,,,,,,,-0.673958333,-0.32962963,1,0,0,0,5,5,1,1,-0.67,-0.33,40,001,2024-11-19_16h53.11.625,Attention_exp_legacy,2023.1.0,Win32,59.88023952,calibration_square,,,,,,,,,,,,,,,,,,,,,,,,,,,,,,,,,,,,,,,,,,,,,,,,,,,,,,,,
,,,,,,,-0.329166667,0.325925926,1,0,0,0,6,6,7,1,-0.33,0.33,40,001,2024-11-19_16h53.11.625,Attention_exp_legacy,2023.1.0,Win32,59.88023952,calibration_square,,,,,,,,,,,,,,,,,,,,,,,,,,,,,,,,,,,,,,,,,,,,,,,,,,,,,,,,
,,,,,,,0,-0.318518519,1,0,0,0,7,7,10,1,0,-0.33,40,001,2024-11-19_16h53.11.625,Attention_exp_legacy,2023.1.0,Win32,59.88023952,,,,,,,,,,,,,,,,,,,,,,,,,,,,,,,,,,,,,,,,,,,,,,,,,,,,,,,,,
,,,,,,,-0.672916667,-0.001851852,1,0,0,0,8,8,2,1,-0.67,0,40,001,2024-11-19_16h53.11.625,Attention_exp_legacy,2023.1.0,Win32,59.88023952,calibration_square,,,,,,,,,,,,,,,,,,,,,,,,,,,,,,,,,,,,,,,,,,,,,,,,,,,,,,,,
,,,,,,,0.330208333,0.67962963,1,0,0,0,9,9,18,1,0.33,0.67,40,001,2024-11-19_16h53.11.625,Attention_exp_legacy,2023.1.0,Win32,59.88023952,calibration_square,,,,,,,,,,,,,,,,,,,,,,,,,,,,,,,,,,,,,,,,,,,,,,,,,,,,,,,,
,,,,,,,-0.346875,0.005555556,1,0,0,0,10,10,6,1,-0.33,0,40,001,2024-11-19_16h53.11.625,Attention_exp_legacy,2023.1.0,Win32,59.88023952,,,,,,,,,,,,,,,,,,,,,,,,,,,,,,,,,,,,,,,,,,,,,,,,,,,,,,,,,
,,,,,,,-0.673958333,-0.685185185,1,0,0,0,11,11,0,1,-0.67,-0.67,40,001,2024-11-19_16h53.11.625,Attention_exp_legacy,2023.1.0,Win32,59.88023952,,,,,,,,,,,,,,,,,,,,,,,,,,,,,,,,,,,,,,,,,,,,,,,,,,,,,,,,,
,,,,,,,0.00625,0.335185185,1,0,0,0,12,12,12,1,0,0.33,40,001,2024-11-19_16h53.11.625,Attention_exp_legacy,2023.1.0,Win32,59.88023952,calibration_square,,,,,,,,,,,,,,,,,,,,,,,,,,,,,,,,,,,,,,,,,,,,,,,,,,,,,,,,
,,,,,,,0.321875,0.327777778,1,0,0,0,13,13,17,1,0.33,0.33,40,001,2024-11-19_16h53.11.625,Attention_exp_legacy,2023.1.0,Win32,59.88023952,calibration_square,,,,,,,,,,,,,,,,,,,,,,,,,,,,,,,,,,,,,,,,,,,,,,,,,,,,,,,,
,,,,,,,0.669791667,-0.657407407,1,0,0,0,14,14,20,1,0.67,-0.67,40,001,2024-11-19_16h53.11.625,Attention_exp_legacy,2023.1.0,Win32,59.88023952,,,,,,,,,,,,,,,,,,,,,,,,,,,,,,,,,,,,,,,,,,,,,,,,,,,,,,,,,
,,,,,,,0.002083333,-0.67037037,1,0,0,0,15,15,9,1,0,-0.67,40,001,2024-11-19_16h53.11.625,Attention_exp_legacy,2023.1.0,Win32,59.88023952,calibration_square,,,,,,,,,,,,,,,,,,,,,,,,,,,,,,,,,,,,,,,,,,,,,,,,,,,,,,,,
,,,,,,,-0.670833333,0.32962963,1,0,0,0,16,16,3,1,-0.67,0.33,40,001,2024-11-19_16h53.11.625,Attention_exp_legacy,2023.1.0,Win32,59.88023952,calibration_square,,,,,,,,,,,,,,,,,,,,,,,,,,,,,,,,,,,,,,,,,,,,,,,,,,,,,,,,
,,,,,,,0.003125,-0.001851852,1,0,0,0,17,17,11,1,0,0,40,001,2024-11-19_16h53.11.625,Attention_exp_legacy,2023.1.0,Win32,59.88023952,calibration_square,,,,,,,,,,,,,,,,,,,,,,,,,,,,,,,,,,,,,,,,,,,,,,,,,,,,,,,,
,,,,,,,-0.335416667,0.666666667,1,0,0,0,18,18,8,1,-0.33,0.67,40,001,2024-11-19_16h53.11.625,Attention_exp_legacy,2023.1.0,Win32,59.88023952,calibration_square,,,,,,,,,,,,,,,,,,,,,,,,,,,,,,,,,,,,,,,,,,,,,,,,,,,,,,,,
,,,,,,,-0.325,-0.32037037,1,0,0,0,19,19,5,1,-0.33,-0.33,40,001,2024-11-19_16h53.11.625,Attention_exp_legacy,2023.1.0,Win32,59.88023952,calibration_square,,,,,,,,,,,,,,,,,,,,,,,,,,,,,,,,,,,,,,,,,,,,,,,,,,,,,,,,
,,,,,,,0.332291667,-0.001851852,1,0,0,0,20,20,16,1,0.33,0,40,001,2024-11-19_16h53.11.625,Attention_exp_legacy,2023.1.0,Win32,59.88023952,calibration_square,,,,,,,,,,,,,,,,,,,,,,,,,,,,,,,,,,,,,,,,,,,,,,,,,,,,,,,,
,,,,,,,,,,,,,,,,,,,40,001,2024-11-19_16h53.11.625,Attention_exp_legacy,2023.1.0,Win32,59.88023952,,"[1920,1080]","[640,480]",[0.0125],[-0.5148148148148148],[1],[0],[0],[16.645599999904633],"[""StartButton""]","[0.18020833333333333,0.140625,0.12395833333333334]","[0.10925925925925926,0.17037037037037037,0.4222222222222222]","[1,1,1]","[0,0,0]","[0,0,0]","[4.866799999713891,5.516699999809262,7.653599999904628]","[""Metro_label""]",Metro_label,1,8.6766,"[[0.01875,-0.4666666666666667],[0.01875,-0.4666666666666667],[0.01875,-0.4666666666666667],[0.01875,-0.4666666666666667],[0.01875,-0.4666666666666667],[0.01875,-0.4666666666666667],[0.01875,-0.4666666666666667],[0.01875,-0.4666666666666667],[0.01875,-0.4666666666666667],[0.01875,-0.4666666666666667],[0.01875,-0.4666666666666667],[0.01875,-0.4666666666666667],[0.01875,-0.4666666666666667],[0.01875,-0.4666666666666667],[0.01875,-0.4666666666666667],[0.01875,-0.4666666666666667],[0.01875,-0.4666666666666667],[0.01875,-0.4666666666666667],[0.01875,-0.4666666666666667],[0.01875,-0.4666666666666667],[0.01875,-0.4666666666666667],[0.01875,-0.4666666666666667],[0.01875,-0.4666666666666667],[0.01875,-0.4666666666666667],[0.01875,-0.4666666666666667],[0.01875,-0.4666666666666667],[0.01875,-0.4666666666666667],[0.01875,-0.4666666666666667],[0.01875,-0.4666666666666667],[0.01875,-0.4666666666666667],[0.01875,-0.4666666666666667],[0.01875,-0.4666666666666667],[0.01875,-0.4666666666666667],[0.01875,-0.4666666666666667],[0.01875,-0.4666666666666667],[0.01875,-0.4666666666666667],[0.01875,-0.4666666666666667],[0.01875,-0.4666666666666667],[0.01875,-0.4666666666666667],[0.01875,-0.4666666666666667],[0.01875,-0.4666666666666667],[0.01875,-0.4666666666666667],[0.01875,-0.4666666666666667],[0.01875,-0.4666666666666667],[0.01875,-0.4666666666666667],[0.01875,-0.4666666666666667],[0.01875,-0.4666666666666667],[0.01875,-0.4666666666666667],[0.01875,-0.4666666666666667],[0.01875,-0.4666666666666667],[0.01875,-0.4666666666666667],[0.01875,-0.46296296296296297],[0.01875,-0.45925925925925926],[0.01875,-0.45185185185185184],[0.01875,-0.44074074074074077],[0.016666666666666666,-0.4166666666666667],[0.014583333333333334,-0.39814814814814814],[0.014583333333333334,-0.3814814814814815],[0.0125,-0.3574074074074074],[0.007291666666666667,-0.32407407407407407],[-0.004166666666666667,-0.27037037037037037],[-0.026041666666666668,-0.19444444444444445],[-0.041666666666666664,-0.13703703703703704],[-0.057291666666666664,-0.09074074074074075],[-0.07291666666666667,-0.053703703703703705],[-0.090625,-0.014814814814814815],[-0.10729166666666666,0.018518518518518517],[-0.12395833333333334,0.046296296296296294],[-0.13854166666666667,0.06666666666666667],[-0.15416666666666667,0.08333333333333333],[-0.1625,0.09259259259259259],[-0.171875,0.09814814814814815],[-0.18020833333333333,0.1037037037037037],[-0.1875,0.10740740740740741],[-0.19479166666666667,0.10925925925925926],[-0.20104166666666667,0.11481481481481481],[-0.20520833333333333,0.11666666666666667],[-0.21041666666666667,0.11851851851851852],[-0.21354166666666666,0.11851851851851852],[-0.21666666666666667,0.11851851851851852],[-0.21979166666666666,0.11851851851851852],[-0.225,0.11851851851851852],[-0.22708333333333333,0.11851851851851852],[-0.228125,0.11851851851851852],[-0.23020833333333332,0.11851851851851852],[-0.23020833333333332,0.11666666666666667],[-0.23020833333333332,0.11666666666666667],[-0.23020833333333332,0.11666666666666667],[-0.23020833333333332,0.11666666666666667],[-0.23020833333333332,0.11666666666666667],[-0.23020833333333332,0.11666666666666667],[-0.23020833333333332,0.11666666666666667],[-0.23020833333333332,0.11666666666666667],[-0.23020833333333332,0.11666666666666667],[-0.23020833333333332,0.11666666666666667],[-0.23020833333333332,0.11666666666666667],[-0.23020833333333332,0.11666666666666667],[-0.23020833333333332,0.11666666666666667],[-0.23020833333333332,0.11666666666666667],[-0.23020833333333332,0.11666666666666667],[-0.23020833333333332,0.11666666666666667],[-0.22083333333333333,0.11666666666666667],[-0.196875,0.11666666666666667],[-0.18333333333333332,0.11296296296296296],[-0.17083333333333334,0.1111111111111111],[-0.16666666666666666,0.10740740740740741],[-0.15416666666666667,0.10555555555555556],[-0.146875,0.10555555555555556],[-0.13541666666666666,0.10555555555555556],[-0.12604166666666666,0.10555555555555556],[-0.11979166666666667,0.10185185185185185],[-0.115625,0.1],[-0.11354166666666667,0.09814814814814815],[-0.11145833333333334,0.0962962962962963],[-0.11145833333333334,0.0962962962962963],[-0.11145833333333334,0.0962962962962963],[-0.109375,0.09444444444444444],[-0.109375,0.09444444444444444],[-0.109375,0.09444444444444444],[-0.10833333333333334,0.09444444444444444],[-0.10833333333333334,0.09259259259259259],[-0.10833333333333334,0.09259259259259259],[-0.10833333333333334,0.09259259259259259],[-0.10833333333333334,0.09259259259259259],[-0.10833333333333334,0.09259259259259259],[-0.10833333333333334,0.09259259259259259],[-0.10833333333333334,0.09259259259259259],[-0.10833333333333334,0.09259259259259259],[-0.10833333333333334,0.09259259259259259],[-0.10833333333333334,0.09259259259259259],[-0.10833333333333334,0.09259259259259259],[-0.10833333333333334,0.09259259259259259],[-0.10833333333333334,0.09259259259259259],[-0.10833333333333334,0.09259259259259259],[-0.10833333333333334,0.09259259259259259],[-0.10833333333333334,0.09259259259259259],[-0.10833333333333334,0.09259259259259259],[-0.10833333333333334,0.09259259259259259],[-0.10833333333333334,0.09259259259259259],[-0.10833333333333334,0.09259259259259259],[-0.10833333333333334,0.09259259259259259],[-0.10833333333333334,0.09259259259259259],[-0.10833333333333334,0.09259259259259259],[-0.10833333333333334,0.09259259259259259],[-0.10833333333333334,0.09259259259259259],[-0.10833333333333334,0.09259259259259259],[-0.10833333333333334,0.09259259259259259],[-0.10833333333333334,0.09259259259259259],[-0.10833333333333334,0.09259259259259259],[-0.10833333333333334,0.09259259259259259],[-0.10833333333333334,0.09259259259259259],[-0.10833333333333334,0.09259259259259259],[-0.10833333333333334,0.09259259259259259],[-0.10833333333333334,0.09259259259259259],[-0.10833333333333334,0.09259259259259259],[-0.10833333333333334,0.09259259259259259],[-0.10833333333333334,0.09259259259259259],[-0.10833333333333334,0.09259259259259259],[-0.10833333333333334,0.09259259259259259],[-0.10833333333333334,0.09259259259259259],[-0.10833333333333334,0.09259259259259259],[-0.10520833333333333,0.09259259259259259],[-0.09270833333333334,0.09259259259259259],[-0.07604166666666666,0.09259259259259259],[-0.065625,0.09259259259259259],[-0.03125,0.09259259259259259],[-0.005208333333333333,0.09259259259259259],[0.020833333333333332,0.09259259259259259],[0.046875,0.09259259259259259],[0.065625,0.09259259259259259],[0.078125,0.09259259259259259],[0.08541666666666667,0.09259259259259259],[0.08854166666666667,0.09259259259259259],[0.08958333333333333,0.09259259259259259],[0.090625,0.09259259259259259],[0.090625,0.09259259259259259],[0.090625,0.09259259259259259],[0.09166666666666666,0.09259259259259259],[0.09270833333333334,0.09259259259259259],[0.09583333333333334,0.09259259259259259],[0.09791666666666667,0.09259259259259259],[0.10208333333333333,0.09259259259259259],[0.10520833333333333,0.09259259259259259],[0.109375,0.09259259259259259],[0.11041666666666666,0.09444444444444444],[0.11354166666666667,0.09444444444444444],[0.115625,0.09444444444444444],[0.11666666666666667,0.09444444444444444],[0.11875,0.09444444444444444],[0.11875,0.09444444444444444],[0.11979166666666667,0.09444444444444444],[0.11979166666666667,0.09444444444444444],[0.11979166666666667,0.09444444444444444],[0.11979166666666667,0.09444444444444444],[0.11979166666666667,0.09444444444444444],[0.11979166666666667,0.09444444444444444],[0.11979166666666667,0.09444444444444444],[0.11979166666666667,0.09444444444444444],[0.11979166666666667,0.09444444444444444],[0.12083333333333333,0.0962962962962963],[0.12395833333333334,0.0962962962962963],[0.12708333333333333,0.09814814814814815],[0.13541666666666666,0.10185185185185185],[0.14375,0.10740740740740741],[0.14791666666666667,0.10740740740740741],[0.15208333333333332,0.10740740740740741],[0.15416666666666667,0.10740740740740741],[0.15520833333333334,0.10740740740740741],[0.15729166666666666,0.10740740740740741],[0.15833333333333333,0.10740740740740741],[0.16041666666666668,0.10925925925925926],[0.1625,0.10925925925925926],[0.165625,0.10925925925925926],[0.16979166666666667,0.10925925925925926],[0.17395833333333333,0.10925925925925926],[0.17604166666666668,0.10925925925925926],[0.178125,0.10925925925925926],[0.17916666666666667,0.10925925925925926],[0.18020833333333333,0.10925925925925926],[0.18020833333333333,0.10925925925925926],[0.18020833333333333,0.10925925925925926],[0.18020833333333333,0.10925925925925926],[0.18020833333333333,0.10925925925925926],[0.18020833333333333,0.10925925925925926],[0.18020833333333333,0.10925925925925926],[0.18020833333333333,0.10925925925925926],[0.18020833333333333,0.10925925925925926],[0.18020833333333333,0.10925925925925926],[0.18020833333333333,0.10925925925925926],[0.18020833333333333,0.10925925925925926],[0.18020833333333333,0.10925925925925926],[0.18020833333333333,0.10925925925925926],[0.18020833333333333,0.10925925925925926],[0.18020833333333333,0.10925925925925926],[0.18020833333333333,0.10925925925925926],[0.18020833333333333,0.10925925925925926],[0.18020833333333333,0.10925925925925926],[0.18020833333333333,0.10925925925925926],[0.18020833333333333,0.10925925925925926],[0.18020833333333333,0.10925925925925926],[0.18020833333333333,0.10925925925925926],[0.18020833333333333,0.10925925925925926],[0.18020833333333333,0.10925925925925926],[0.18020833333333333,0.10925925925925926],[0.18020833333333333,0.10925925925925926],[0.18020833333333333,0.10925925925925926],[0.18020833333333333,0.10925925925925926],[0.18020833333333333,0.10925925925925926],[0.18020833333333333,0.10925925925925926],[0.18020833333333333,0.10925925925925926],[0.18020833333333333,0.10925925925925926],[0.18020833333333333,0.10925925925925926],[0.18020833333333333,0.10925925925925926],[0.18020833333333333,0.10925925925925926],[0.18020833333333333,0.10925925925925926],[0.18020833333333333,0.10925925925925926],[0.18020833333333333,0.10925925925925926],[0.18020833333333333,0.10925925925925926],[0.18020833333333333,0.10925925925925926],[0.18020833333333333,0.10925925925925926],[0.18020833333333333,0.10925925925925926],[0.18020833333333333,0.10925925925925926],[0.18020833333333333,0.10925925925925926],[0.18020833333333333,0.10925925925925926],[0.18020833333333333,0.10925925925925926],[0.18020833333333333,0.10925925925925926],[0.18020833333333333,0.10925925925925926],[0.18020833333333333,0.10925925925925926],[0.18020833333333333,0.10925925925925926],[0.18020833333333333,0.10925925925925926],[0.18020833333333333,0.10925925925925926],[0.18020833333333333,0.10925925925925926],[0.18020833333333333,0.10925925925925926],[0.18020833333333333,0.10925925925925926],[0.18020833333333333,0.10925925925925926],[0.18020833333333333,0.10925925925925926],[0.18020833333333333,0.10925925925925926],[0.18020833333333333,0.10925925925925926],[0.18020833333333333,0.10925925925925926],[0.18020833333333333,0.10925925925925926],[0.18020833333333333,0.10925925925925926],[0.18020833333333333,0.10925925925925926],[0.18020833333333333,0.10925925925925926],[0.18020833333333333,0.10925925925925926],[0.18020833333333333,0.10925925925925926],[0.18020833333333333,0.10925925925925926],[0.18020833333333333,0.10925925925925926],[0.18020833333333333,0.10925925925925926],[0.18020833333333333,0.10925925925925926],[0.18020833333333333,0.10925925925925926],[0.18020833333333333,0.10925925925925926],[0.18020833333333333,0.10925925925925926],[0.18020833333333333,0.10925925925925926],[0.18020833333333333,0.10925925925925926],[0.18020833333333333,0.10925925925925926],[0.18020833333333333,0.10925925925925926],[0.18020833333333333,0.10925925925925926],[0.18020833333333333,0.10925925925925926],[0.18020833333333333,0.10925925925925926],[0.18020833333333333,0.10925925925925926],[0.18020833333333333,0.10925925925925926],[0.18020833333333333,0.10925925925925926],[0.18020833333333333,0.10925925925925926],[0.18020833333333333,0.10925925925925926],[0.18020833333333333,0.10925925925925926],[0.18020833333333333,0.10925925925925926],[0.18020833333333333,0.10925925925925926],[0.18020833333333333,0.10925925925925926],[0.18020833333333333,0.10925925925925926],[0.18020833333333333,0.10925925925925926],[0.18020833333333333,0.10925925925925926],[0.18020833333333333,0.10925925925925926],[0.17395833333333333,0.10925925925925926],[0.16875,0.10925925925925926],[0.165625,0.10925925925925926],[0.1625,0.10925925925925926],[0.16145833333333334,0.10925925925925926],[0.16145833333333334,0.10925925925925926],[0.16145833333333334,0.10925925925925926],[0.16145833333333334,0.10925925925925926],[0.16145833333333334,0.10925925925925926],[0.16145833333333334,0.10925925925925926],[0.16145833333333334,0.10925925925925926],[0.159375,0.11666666666666667],[0.153125,0.1388888888888889],[0.146875,0.15555555555555556],[0.14270833333333333,0.1648148148148148],[0.140625,0.17037037037037037],[0.140625,0.17037037037037037],[0.140625,0.17037037037037037],[0.140625,0.17037037037037037],[0.140625,0.17037037037037037],[0.140625,0.17037037037037037],[0.140625,0.17037037037037037],[0.140625,0.17037037037037037],[0.140625,0.17037037037037037],[0.140625,0.17037037037037037],[0.140625,0.17037037037037037],[0.140625,0.17037037037037037],[0.140625,0.17037037037037037],[0.140625,0.17037037037037037],[0.140625,0.17037037037037037],[0.140625,0.17037037037037037],[0.140625,0.17037037037037037],[0.140625,0.17037037037037037],[0.140625,0.17037037037037037],[0.140625,0.17037037037037037],[0.140625,0.17037037037037037],[0.140625,0.17037037037037037],[0.140625,0.17037037037037037],[0.140625,0.17037037037037037],[0.140625,0.17037037037037037],[0.140625,0.17037037037037037],[0.140625,0.17037037037037037],[0.140625,0.17037037037037037],[0.140625,0.17037037037037037],[0.140625,0.17037037037037037],[0.140625,0.17037037037037037],[0.140625,0.17037037037037037],[0.140625,0.17037037037037037],[0.140625,0.17037037037037037],[0.140625,0.1685185185185185],[0.13854166666666667,0.1648148148148148],[0.13541666666666666,0.16296296296296298],[0.134375,0.16296296296296298],[0.134375,0.16296296296296298],[0.134375,0.16296296296296298],[0.134375,0.16296296296296298],[0.134375,0.16296296296296298],[0.134375,0.16296296296296298],[0.13229166666666667,0.15925925925925927],[0.13020833333333334,0.1537037037037037],[0.12708333333333333,0.14814814814814814],[0.12604166666666666,0.1425925925925926],[0.12291666666666666,0.13703703703703704],[0.12083333333333333,0.13333333333333333],[0.11979166666666667,0.12962962962962962],[0.11666666666666667,0.12777777777777777],[0.10729166666666666,0.12037037037037036],[0.096875,0.11666666666666667],[0.084375,0.10925925925925926],[0.07083333333333333,0.1037037037037037],[0.06666666666666667,0.10185185185185185],[0.065625,0.10185185185185185],[0.06458333333333334,0.10185185185185185],[0.06458333333333334,0.10185185185185185],[0.06458333333333334,0.10185185185185185],[0.06458333333333334,0.10185185185185185],[0.06458333333333334,0.10185185185185185],[0.06458333333333334,0.10185185185185185],[0.06458333333333334,0.10185185185185185],[0.06458333333333334,0.10185185185185185],[0.06458333333333334,0.10185185185185185],[0.06354166666666666,0.1],[0.06354166666666666,0.1],[0.06666666666666667,0.09814814814814815],[0.06875,0.1],[0.075,0.10185185185185185],[0.075,0.1037037037037037],[0.08020833333333334,0.10555555555555556],[0.08229166666666667,0.10555555555555556],[0.084375,0.10740740740740741],[0.084375,0.10740740740740741],[0.08541666666666667,0.10740740740740741],[0.08541666666666667,0.10740740740740741],[0.08541666666666667,0.10740740740740741],[0.08541666666666667,0.10740740740740741],[0.08541666666666667,0.10740740740740741],[0.08541666666666667,0.10740740740740741],[0.08541666666666667,0.10740740740740741],[0.08541666666666667,0.10740740740740741],[0.08541666666666667,0.10740740740740741],[0.08541666666666667,0.10740740740740741],[0.08541666666666667,0.10740740740740741],[0.08541666666666667,0.10740740740740741],[0.08541666666666667,0.10740740740740741],[0.08229166666666667,0.10740740740740741],[0.07916666666666666,0.10740740740740741],[0.07916666666666666,0.10740740740740741],[0.07604166666666666,0.10740740740740741],[0.07083333333333333,0.10740740740740741],[0.0625,0.10740740740740741],[0.052083333333333336,0.12407407407407407],[0.041666666666666664,0.1425925925925926],[0.025,0.17592592592592593],[0.017708333333333333,0.18703703703703703],[0.005208333333333333,0.21481481481481482],[-0.007291666666666667,0.2351851851851852],[-0.013541666666666667,0.24444444444444444],[-0.014583333333333334,0.2462962962962963],[-0.015625,0.2462962962962963],[-0.015625,0.2462962962962963],[-0.015625,0.2462962962962963],[-0.015625,0.2462962962962963],[-0.015625,0.2462962962962963],[-0.015625,0.2462962962962963],[-0.015625,0.2462962962962963],[-0.015625,0.2462962962962963],[-0.015625,0.2462962962962963],[-0.015625,0.2462962962962963],[-0.015625,0.2462962962962963],[-0.015625,0.2462962962962963],[-0.015625,0.2537037037037037],[-0.004166666666666667,0.26666666666666666],[0.015625,0.2851851851851852],[0.057291666666666664,0.32407407407407407],[0.09375,0.3611111111111111],[0.10833333333333334,0.38333333333333336],[0.11666666666666667,0.3962962962962963],[0.11979166666666667,0.40370370370370373],[0.12083333333333333,0.4074074074074074],[0.12291666666666666,0.4148148148148148],[0.12395833333333334,0.4222222222222222],[0.12395833333333334,0.4222222222222222],[0.12395833333333334,0.4222222222222222],[0.12395833333333334,0.4222222222222222],[0.12395833333333334,0.4222222222222222],[0.12395833333333334,0.4222222222222222],[0.12395833333333334,0.4222222222222222],[0.12395833333333334,0.4222222222222222],[0.12395833333333334,0.4222222222222222],[0.12395833333333334,0.4222222222222222],[0.12395833333333334,0.4222222222222222],[0.12395833333333334,0.4222222222222222],[0.12395833333333334,0.4222222222222222],[0.12395833333333334,0.4222222222222222],[0.12395833333333334,0.4222222222222222],[0.12395833333333334,0.4222222222222222],[0.12395833333333334,0.4222222222222222],[0.12395833333333334,0.4222222222222222],[0.12395833333333334,0.4222222222222222],[0.12395833333333334,0.4222222222222222],[0.12395833333333334,0.4222222222222222],[0.12395833333333334,0.4222222222222222],[0.12395833333333334,0.4222222222222222],[0.12395833333333334,0.4222222222222222],[0.12395833333333334,0.4222222222222222],[0.12395833333333334,0.4222222222222222],[0.12395833333333334,0.4222222222222222],[0.12395833333333334,0.4222222222222222],[0.12395833333333334,0.4222222222222222],[0.12395833333333334,0.4222222222222222],[0.12395833333333334,0.4222222222222222],[0.12395833333333334,0.4222222222222222],[0.12395833333333334,0.4222222222222222],[0.12395833333333334,0.4222222222222222],[0.12395833333333334,0.4222222222222222],[0.12083333333333333,0.4222222222222222],[0.11979166666666667,0.4203703703703704],[0.11770833333333333,0.4185185185185185],[0.11770833333333333,0.4185185185185185],[0.11770833333333333,0.4185185185185185],[0.11770833333333333,0.4185185185185185],[0.11770833333333333,0.4185185185185185],[0.11770833333333333,0.4185185185185185],[0.1375,0.4185185185185185],[0.2375,0.3962962962962963],[0.3229166666666667,0.37222222222222223],[0.359375,0.3574074074074074],[0.421875,0.32222222222222224],[0.446875,0.3055555555555556],[0.446875,0.3055555555555556],[0.446875,0.3037037037037037],[0.446875,0.3037037037037037],[0.446875,0.3037037037037037],[0.446875,0.3037037037037037],[0.446875,0.3037037037037037],[0.446875,0.3037037037037037],[0.446875,0.3037037037037037],[0.446875,0.3037037037037037],[0.446875,0.30185185185185187],[0.43854166666666666,0.3037037037037037],[0.434375,0.3055555555555556],[0.4239583333333333,0.30925925925925923],[0.4010416666666667,0.32407407407407407],[0.371875,0.3388888888888889],[0.3375,0.3574074074074074],[0.30416666666666664,0.37592592592592594],[0.29583333333333334,0.38333333333333336],[0.28020833333333334,0.3925925925925926]]","[[-0.010625000000000048,0.20277777777777778],[-0.010625000000000048,0.20277777777777778],[-0.003854166666666714,0.20037037037037045],[-0.020937500000000022,0.21814814814814806],[-0.03802083333333333,0.23592592592592587],[-0.044375000000000026,0.21148148148148158],[-0.050729166666666714,0.18703703703703703],[-0.04572916666666664,0.175],[-0.040625,0.18777777777777774],[-0.033854166666666664,0.18277777777777787],[-0.03135416666666669,0.2192592592592592],[-0.024791666666666618,0.2024074074074073],[-0.013750000000000047,0.19666666666666674],[0.004479166666666619,0.16925925925925922],[0.010416666666666666,0.16722222222222213],[0.016770833333333356,0.17388888888888884],[0.01875,0.17037037037037037],[0.01895833333333338,0.13833333333333342],[0.019166666666666644,0.10629629629629625],[0.001145833333333357,0.10999999999999996],[-0.017708333333333333,0.11611111111111119],[-0.034895833333333334,0.15425925925925918],[-0.04812500000000005,0.1948148148148149],[-0.06083333333333331,0.2655555555555555],[-0.06124999999999995,0.3109259259259259],[-0.05249999999999998,0.39092592592592595],[-0.04364583333333331,0.4838888888888888],[-0.058645833333333286,0.5659259259259259],[-0.06968749999999997,0.6435185185185185],[-0.06760416666666665,0.672037037037037],[-0.08250000000000005,0.693888888888889],[-0.09979166666666663,0.6849999999999999],[-0.12749999999999997,0.6742592592592593],[-0.15739583333333335,0.6444444444444445],[-0.1872916666666666,0.6146296296296296],[-0.20645833333333338,0.5507407407407408],[-0.22135416666666666,0.48407407407407405],[-0.22770833333333335,0.4118518518518518],[-0.24010416666666667,0.3411111111111112],[-0.246875,0.2857407407407407],[-0.22562500000000002,0.22092592592592583],[-0.2039583333333333,0.1853703703703704],[-0.18104166666666663,0.1418518518518519],[-0.16052083333333336,0.08777777777777773],[-0.14708333333333337,0.04000000000000004],[-0.1530208333333333,0.01777777777777782],[-0.15895833333333337,-0.004444444444444402],[-0.1905208333333333,0.0235185185185186],[-0.1905208333333333,0.0235185185185186],[-0.2234375,0.06092592592592588],[-0.24416666666666664,0.09870370370370361],[-0.2804166666666667,0.13425925925925927],[-0.28968750000000004,0.18055555555555555],[-0.31364583333333335,0.2064814814814815],[-0.3372916666666666,0.24777777777777768],[-0.3067708333333333,0.31740740740740736],[-0.27677083333333335,0.3609259259259259],[-0.26,0.37833333333333324],[-0.19968750000000005,0.4168518518518519],[-0.19968750000000005,0.4168518518518519],[-0.12864583333333332,0.4474074074074075],[-0.12864583333333332,0.4474074074074075],[-0.08541666666666667,0.4398148148148148],[-0.08541666666666667,0.4398148148148148],[-0.03937499999999995,0.4414814814814814],[-0.03937499999999995,0.4414814814814814],[-0.03322916666666664,0.44296296296296306],[-0.03322916666666664,0.44296296296296306],[0.013437499999999976,0.4457407407407408],[0.013437499999999976,0.4457407407407408],[0.05010416666666669,0.46574074074074073],[0.019687499999999976,0.4390740740740741],[0.019687499999999976,0.4390740740740741],[0.003541666666666643,0.39740740740740743],[-0.041458333333333285,0.37462962962962953],[-0.041458333333333285,0.37462962962962953],[-0.033854166666666664,0.3207407407407408],[-0.00635416666666669,0.27092592592592585],[0.03677083333333329,0.2588888888888888],[0.03677083333333329,0.2588888888888888],[0.05635416666666669,0.24314814814814806],[0.07791666666666662,0.1896296296296296],[0.07885416666666671,0.1625925925925925],[0.06666666666666667,0.1316666666666667],[0.07447916666666667,0.11277777777777774],[0.08385416666666666,0.13407407407407404],[0.08385416666666666,0.13407407407407404],[0.13395833333333323,0.1257407407407407],[0.10645833333333338,0.10277777777777777],[0.10645833333333338,0.10277777777777777],[0.051770833333333384,0.0772222222222223],[0.002708333333333357,0.02814814814814823],[0.002708333333333357,0.02814814814814823],[-0.0203125,-0.01055555555555564],[-0.019375000000000024,-0.012407407407407492],[-0.029895833333333382,-0.05277777777777778],[-0.01583333333333338,-0.11648148148148144],[-0.027083333333333334,-0.14907407407407408],[-0.05416666666666667,-0.20685185185185184],[-0.084375,-0.2235185185185185],[-0.10177083333333338,-0.2331481481481481],[-0.12010416666666662,-0.2668518518518519],[-0.13062499999999996,-0.23870370370370367],[-0.11302083333333333,-0.2337037037037037],[-0.14833333333333332,-0.23537037037037042],[-0.14833333333333332,-0.23537037037037042],[-0.16781250000000003,-0.19740740740740745],[-0.18364583333333329,-0.1624074074074074],[-0.17416666666666672,-0.15851851851851856],[-0.16135416666666663,-0.19185185185185188],[-0.14343750000000005,-0.2111111111111111],[-0.12552083333333333,-0.23037037037037034],[-0.09291666666666672,-0.19166666666666668],[-0.07374999999999995,-0.19129629629629633],[-0.07374999999999995,-0.19129629629629633],[-0.08270833333333331,-0.16777777777777783],[-0.06875,-0.1588888888888889],[-0.06333333333333328,-0.17777777777777778],[-0.06333333333333328,-0.17777777777777778],[-0.06156250000000003,-0.19370370370370374],[-0.049791666666666616,-0.1983333333333334],[-0.049270833333333285,-0.08981481481481482],[-0.04364583333333331,0.010185185185185186],[-0.019895833333333356,0.18518518518518517],[-0.009895833333333333,0.32629629629629636],[-0.0012500000000000473,0.42055555555555557],[0.007395833333333357,0.5148148148148148],[0.013229166666666714,0.5685185185185185],[0.02322916666666662,0.6488888888888888],[0.041458333333333285,0.6896296296296296],[0.02374999999999995,0.6979629629629629],[0.01395833333333331,0.6303703703703704],[0.01906249999999995,0.5957407407407408],[0.017916666666666713,0.4542592592592592],[0.01114583333333338,0.33129629629629626],[0.0017708333333333807,0.256111111111111],[-0.010312499999999976,0.15685185185185194],[-0.005833333333333357,0.10185185185185185],[-0.003333333333333381,0.04740740740740745],[-0.008229166666666643,0.05722222222222218],[0.012812499999999952,0.08814814814814818],[0.04052083333333331,0.10481481481481486],[0.04760416666666671,0.0787037037037037],[0.035208333333333286,0.08222222222222218],[0.028437499999999952,0.06722222222222214],[0.025833333333333285,0.05537037037037033],[0.029375000000000047,0.058703703703703786],[0.03229166666666667,0.06277777777777774],[0.03229166666666667,0.06277777777777774],[0.02958333333333331,0.07074074074074083],[0.026041666666666668,0.054074074074074156],[0.025,0.03777777777777774],[0.01729166666666669,0.035740740740740656],[0.00916666666666662,0.035740740740740656],[0.008645833333333287,0.03796296296296296],[0.007083333333333286,0.030555555555555555],[0.013125000000000024,0.02111111111111107],[0.01572916666666669,0.020555555555555598],[0.01572916666666669,0.020555555555555598],[0.0032291666666666905,0.03481481481481473],[0.007500000000000047,0.03129629629629625],[0.011770833333333286,0.027777777777777776],[0.0007291666666667141,0.01444444444444436],[-0.0009374999999999763,0.01907407407407399],[-0.0009374999999999763,0.01907407407407399],[-0.007604166666666619,0.003703703703703704],[-0.013020833333333334,0.011666666666666582],[-0.025520833333333333,0.009444444444444486],[-0.030416666666666713,0.0016666666666666245],[-0.044375000000000026,-0.005555555555555556],[-0.04458333333333329,-0.027777777777777776],[-0.04739583333333333,0.000925925925925926],[-0.05145833333333331,0.0016666666666666245],[-0.042916666666666714,0.002777777777777778],[-0.03927083333333338,-0.01444444444444436],[-0.029270833333333357,0],[-0.02052083333333338,-0.008888888888888804],[0.005208333333333333,-0.014259259259259343],[0.005208333333333333,-0.014259259259259343],[0.0026041666666666665,-0.013703703703703662],[0.0026041666666666665,-0.013703703703703662],[-0.019166666666666644,0.018333333333333292],[-0.019166666666666644,0.018333333333333292],[-0.043229166666666666,0.019444444444444445],[-0.043229166666666666,0.019444444444444445],[-0.07999999999999995,0.011111111111111112],[-0.07999999999999995,0.011111111111111112],[-0.08624999999999995,0.0035185185185184764],[-0.08624999999999995,0.0035185185185184764],[-0.09770833333333329,-0.006481481481481481],[-0.08531249999999997,-0.01444444444444436],[-0.08531249999999997,-0.01444444444444436],[-0.11499999999999998,-0.026111111111111154],[-0.11499999999999998,-0.026111111111111154],[-0.13802083333333334,-0.041111111111111195],[-0.13802083333333334,-0.041111111111111195],[-0.1694791666666667,-0.04666666666666675],[-0.22531249999999994,-0.04666666666666675],[-0.22531249999999994,-0.04666666666666675],[-0.20750000000000005,-0.08648148148148146],[-0.20750000000000005,-0.08648148148148146],[-0.1626041666666667,0.0007407407407406986],[-0.1626041666666667,0.0007407407407406986],[-0.08135416666666669,0.06999999999999991],[-0.06145833333333333,0.09796296296296292],[-0.035416666666666666,0.12962962962962962],[-0.034166666666666616,0.19981481481481478],[0.01260416666666669,0.1881481481481482],[0.02177083333333331,0.24277777777777781],[0.042604166666666644,0.3096296296296297],[0.08864583333333324,0.36314814814814816],[0.08864583333333324,0.36314814814814816],[0.11520833333333323,0.38203703703703695],[0.12208333333333338,0.3122222222222223],[0.1046875,0.23740740740740748],[0.09239583333333339,0.20888888888888882],[0.08781249999999995,0.18277777777777787],[0.07885416666666671,0.15611111111111103],[0.07885416666666671,0.15611111111111103],[0.0655208333333333,0.2012962962962964],[0.08166666666666676,0.19370370370370374],[0.09239583333333339,0.15648148148148147],[0.11520833333333323,0.12462962962962955],[0.08875000000000005,0.12092592592592584],[0.08875000000000005,0.12092592592592584],[0.057187499999999974,0.10981481481481473],[0.016666666666666666,0.08592592592592588],[0.01260416666666669,0.08851851851851844],[0.003958333333333286,0.09740740740740746],[0.016458333333333287,0.06962962962962967],[-0.003125,0.022777777777777692],[-0.009583333333333381,-0.02833333333333325],[-0.03843749999999998,-0.05259259259259255],[-0.0672916666666667,-0.07685185185185185],[-0.07281249999999997,-0.0868518518518518],[-0.08187500000000002,-0.11574074074074074],[-0.08333333333333333,-0.12962962962962962],[-0.07979166666666669,-0.14055555555555552],[-0.07197916666666669,-0.14944444444444444],[-0.09822916666666662,-0.17537037037037034],[-0.09239583333333339,-0.18222222222222217],[-0.07593749999999998,-0.1853703703703704],[-0.03958333333333333,-0.19314814814814818],[0.025625000000000023,-0.20425925925925928],[0.0931250000000001,-0.2235185185185185],[0.1570833333333333,-0.2322222222222222],[0.21864583333333343,-0.2531481481481481],[0.2326041666666666,-0.25981481481481483],[0.25770833333333343,-0.2927777777777778],[0.29500000000000004,-0.32592592592592595],[0.33229166666666665,-0.35907407407407405],[0.3444791666666667,-0.355],[0.3444791666666667,-0.355],[0.35427083333333326,-0.3424074074074074],[0.3325000000000001,-0.3448148148148148],[0.29541666666666655,-0.3466666666666666],[0.2771874999999999,-0.32814814814814813],[0.2742708333333333,-0.32462962962962966],[0.30447916666666663,-0.3425925925925926],[0.3140625,-0.34944444444444445],[0.32270833333333326,-0.3453703703703704],[0.31760416666666674,-0.3338888888888889],[0.31531250000000005,-0.36925925925925923],[0.30916666666666665,-0.4124074074074074],[0.32000000000000006,-0.43388888888888894],[0.3393749999999999,-0.4637037037037037],[0.34697916666666656,-0.5055555555555555],[0.34479166666666666,-0.5207407407407407],[0.34260416666666677,-0.5359259259259259],[0.3334374999999999,-0.5061111111111112],[0.3267708333333334,-0.4729629629629629],[0.32802083333333343,-0.4572222222222222],[0.32927083333333323,-0.4414814814814814],[0.34177083333333325,-0.44722222222222224],[0.35041666666666677,-0.45999999999999996],[0.3640625,-0.45111111111111113],[0.36822916666666666,-0.43333333333333335],[0.3396874999999999,-0.38796296296296295],[0.31583333333333335,-0.34],[0.3003124999999999,-0.3248148148148148],[0.2763541666666666,-0.2977777777777778],[0.2522916666666667,-0.2675925925925926],[0.22822916666666657,-0.23740740740740737],[0.18218750000000009,-0.09314814814814817],[0.12572916666666673,0.05481481481481486],[0.09354166666666662,0.20259259259259255],[0.07083333333333333,0.34148148148148144],[0.06479166666666672,0.43444444444444447],[0.0515625,0.5383333333333334],[0.005104166666666643,0.6218518518518518],[-0.03291666666666669,0.6935185185185185],[-0.07718750000000002,0.7751851851851852],[-0.10916666666666662,0.8581481481481481],[-0.1420833333333333,0.8307407407407408],[-0.175,0.8033333333333332],[-0.18489583333333334,0.793888888888889],[-0.20687500000000003,0.757037037037037],[-0.1851041666666667,0.6361111111111111],[-0.1851041666666667,0.6361111111111111],[-0.18302083333333338,0.5244444444444445],[-0.14885416666666665,0.41444444444444434],[-0.09916666666666671,0.3194444444444444],[-0.0390625,0.2064814814814815],[-0.011770833333333286,0.11666666666666667],[0.059062500000000046,0.02388888888888885],[0.12927083333333325,-0.060555555555555536],[0.15229166666666671,-0.17685185185185184],[0.18125,-0.2548148148148149],[0.17479166666666662,-0.23722222222222225],[0.19854166666666656,-0.27444444444444444],[0.21593749999999995,-0.2866666666666667],[0.21593749999999995,-0.2866666666666667],[0.2111458333333334,-0.3014814814814815],[0.2111458333333334,-0.3014814814814815],[0.21020833333333327,-0.2837037037037037],[0.21020833333333327,-0.2837037037037037],[0.21739583333333337,-0.2770370370370371],[0.19989583333333344,-0.22925925925925927],[0.19989583333333344,-0.22925925925925927],[0.19968750000000005,-0.2146296296296296],[0.19968750000000005,-0.2146296296296296],[0.19854166666666656,-0.19370370370370374],[0.2013541666666666,-0.1787037037037037],[0.21052083333333324,-0.1940740740740741],[0.21052083333333324,-0.1940740740740741],[0.18916666666666657,-0.1514814814814815],[0.18916666666666657,-0.1514814814814815],[0.19208333333333344,-0.12074074074074072],[0.19208333333333344,-0.12074074074074072],[0.1796875,-0.07555555555555557],[0.16520833333333323,-0.04814814814814815],[0.1580208333333334,-0.05407407407407405],[0.15,-0.0764814814814815],[0.0953125,-0.0653703703703704],[0.041562499999999974,-0.08907407407407411],[-0.014895833333333285,-0.08722222222222227],[-0.06604166666666664,-0.062407407407407384],[-0.07666666666666669,-0.06648148148148143],[-0.1123958333333333,-0.07296296296296292],[-0.1252083333333334,-0.08277777777777776],[-0.13270833333333332,-0.11148148148148146],[-0.12697916666666664,-0.09851851851851849],[-0.14375,-0.10333333333333336],[-0.1345833333333334,-0.12388888888888884],[-0.12604166666666666,-0.10759259259259263],[-0.11749999999999995,-0.127962962962963],[-0.12479166666666662,-0.12537037037037035],[-0.14583333333333334,-0.13037037037037033],[-0.15104166666666666,-0.11962962962962967],[-0.15270833333333336,-0.1403703703703704],[-0.18614583333333337,-0.13370370370370369],[-0.22770833333333335,-0.14870370370370373],[-0.24874999999999994,-0.14962962962962964],[-0.2657291666666667,-0.14351851851851852],[-0.2827083333333333,-0.1374074074074074],[-0.2719791666666667,-0.10629629629629625],[-0.2582291666666666,-0.09537037037037037],[-0.21083333333333332,-0.015000000000000043],[-0.17093750000000002,0.05759259259259263],[-0.15135416666666662,0.16777777777777783],[-0.09791666666666667,0.24240740740740738],[-0.09447916666666671,0.318888888888889],[-0.04510416666666662,0.31370370370370365],[-0.008749999999999977,0.29148148148148145],[0.035208333333333286,0.2892592592592593],[0.03135416666666669,0.2838888888888888],[0.033645833333333285,0.30407407407407416],[-0.008645833333333287,0.22629629629629638],[-0.050937499999999976,0.1485185185185186],[-0.0672916666666667,0.06888888888888897],[-0.09104166666666665,0.01629629629629621],[-0.03895833333333331,-0.060555555555555536],[-0.04781249999999997,-0.03722222222222227],[-0.03760416666666669,-0.005555555555555556],[-0.03760416666666669,-0.005555555555555556],[-0.042604166666666644,-0.009444444444444486],[-0.0036458333333333334,-0.03222222222222218],[0.03572916666666662,-0.09259259259259259],[0.0655208333333333,-0.08925925925925923],[0.08781249999999995,-0.09000000000000004],[0.1099999999999999,-0.11425925925925924],[0.12541666666666676,-0.14314814814814816],[0.10166666666666657,-0.147037037037037],[0.08947916666666676,-0.17074074074074072],[0.08947916666666676,-0.17074074074074072],[0.09104166666666676,-0.20759259259259263],[0.11104166666666657,-0.20703703703703705],[0.08979166666666671,-0.19740740740740745],[0.07145833333333323,-0.15555555555555556],[0.06958333333333329,-0.16888888888888887],[0.07697916666666677,-0.17388888888888884],[0.06843750000000005,-0.18499999999999997],[0.058645833333333286,-0.20462962962962963],[0.06822916666666666,-0.20685185185185184],[0.10208333333333333,-0.24870370370370373],[0.09562499999999995,-0.24259259259259258],[0.07989583333333337,-0.24166666666666667],[0.08270833333333343,-0.24166666666666667],[0.08270833333333343,-0.24166666666666667],[0.07927083333333323,-0.2551851851851852],[0.0796875,-0.26944444444444443],[0.07270833333333329,-0.22962962962962963],[0.08604166666666657,-0.21648148148148144],[0.0828125,-0.15685185185185183],[0.0696875000000001,-0.0794444444444444],[0.051979166666666646,-0.0514814814814814],[0.0578125,-0.04000000000000004],[0.04604166666666672,-0.05277777777777778],[0.04604166666666672,-0.05277777777777778],[0.06458333333333334,-0.05055555555555547],[0.04656250000000005,-0.037037037037037035],[0.05364583333333333,0.019259259259259216],[0.06375000000000004,0.020740740740740823],[0.058958333333333356,0.12629629629629638],[0.058958333333333356,0.12629629629629638],[0.0787499999999999,0.1985185185185186],[0.1015625,0.22277777777777769],[0.13562500000000005,0.24351851851851852],[0.1462500000000001,0.2711111111111111],[0.20947916666666658,0.31129629629629635],[0.20760416666666662,0.3194444444444444],[0.21479166666666671,0.3255555555555555],[0.17958333333333343,0.29518518518518516],[0.15499999999999994,0.2507407407407407],[0.1492708333333333,0.1618518518518518],[0.1492708333333333,0.1618518518518518],[0.14354166666666662,0.07296296296296292],[0.13677083333333329,-0.03148148148148148],[0.09291666666666672,-0.04462962962962967],[0.07593750000000009,-0.07444444444444442],[0.022395833333333334,-0.10925925925925926],[0.025833333333333285,-0.127962962962963],[0.025833333333333285,-0.127962962962963],[0.041770833333333354,-0.17111111111111107],[0.041770833333333354,-0.17111111111111107],[0.06083333333333331,-0.13203703703703706],[0.06083333333333331,-0.13203703703703706],[0.08135416666666657,-0.10203703703703708],[0.08135416666666657,-0.10203703703703708],[0.08458333333333339,-0.12481481481481477],[0.08458333333333339,-0.12481481481481477],[0.10104166666666667,-0.14203703703703702],[0.10104166666666667,-0.14203703703703702],[0.13208333333333327,-0.1374074074074074],[0.1662499999999999,-0.13277777777777774],[0.17645833333333344,-0.12407407407407407],[0.19281249999999991,-0.13203703703703706],[0.19072916666666656,-0.1440740740740741],[0.17437500000000009,-0.11481481481481481],[0.2022916666666667,-0.16074074074074077],[0.18239583333333323,-0.17370370370370372],[0.1759375000000001,-0.20055555555555557],[0.16218750000000004,-0.2479629629629629],[0.14885416666666676,-0.2681481481481482],[0.13708333333333325,-0.3024074074074074],[0.14104166666666676,-0.32759259259259255],[0.1388541666666666,-0.33611111111111114],[0.12374999999999996,-0.3388888888888889],[0.13406250000000006,-0.3581481481481481],[0.09479166666666666,-0.3718518518518519],[0.09635416666666667,-0.38740740740740737],[0.10864583333333329,-0.3755555555555556],[0.11500000000000009,-0.34870370370370374],[0.09604166666666672,-0.35111111111111115],[0.09604166666666672,-0.35111111111111115],[0.08250000000000005,-0.3333333333333333],[0.09145833333333328,-0.32833333333333337],[0.0978125000000001,-0.3229629629629629],[0.10729166666666666,-0.3151851851851852],[0.08989583333333329,-0.29981481481481476],[0.09416666666666676,-0.29888888888888887],[0.10020833333333339,-0.3116666666666667],[0.09916666666666671,-0.30703703703703705],[0.08104166666666662,-0.29370370370370374],[0.07510416666666657,-0.27444444444444444],[0.06229166666666662,-0.24814814814814815],[0.028750000000000022,-0.222037037037037],[0.03291666666666669,-0.22148148148148153],[0.046875,-0.22907407407407404],[0.09364583333333343,-0.2627777777777777],[0.12885416666666671,-0.267037037037037],[0.14645833333333325,-0.272037037037037],[0.15427083333333325,-0.29203703703703704],[0.18020833333333333,-0.32592592592592595],[0.1820833333333333,-0.33481481481481484],[0.20625,-0.362962962962963],[0.23041666666666671,-0.3911111111111111],[0.23687500000000009,-0.4046296296296296],[0.23687500000000009,-0.4046296296296296],[0.23104166666666662,-0.41444444444444445],[0.21302083333333333,-0.42055555555555557],[0.1961458333333333,-0.41148148148148145],[0.19260416666666677,-0.39944444444444444],[0.1859375,-0.37296296296296294],[0.19854166666666656,-0.2448148148148148],[0.23802083333333332,-0.1559259259259259],[0.2553124999999999,-0.01703703703703712],[0.2726041666666667,0.12185185185185177],[0.2724999999999999,0.2712962962962963],[0.32708333333333334,0.33240740740740743],[0.3584374999999999,0.362962962962963],[0.3584374999999999,0.362962962962963],[0.39833333333333343,0.3229629629629629],[0.4322916666666667,0.34685185185185174],[0.46104166666666657,0.36203703703703705],[0.4546875,0.2514814814814814],[0.46104166666666657,0.14370370370370375],[0.4578125,0.04314814814814806],[0.4696875000000001,-0.02388888888888885],[0.4708333333333333,-0.12314814814814815],[0.4392708333333334,-0.1368518518518518],[0.4122916666666666,-0.1427777777777778],[0.4122916666666666,-0.1427777777777778],[0.3400000000000001,-0.12222222222222222],[0.27364583333333337,-0.16518518518518516],[0.25802083333333337,-0.20574074074074078],[0.22395833333333334,-0.22000000000000003],[0.17437500000000009,-0.2227777777777778],[0.17437500000000009,-0.2227777777777778],[0.1642708333333334,-0.2442592592592592]]","[[-0.010625000000000048,0.20277777777777778,0.00020000028609956644],[-0.010625000000000048,0.20277777777777778,0.055499999999995],[-0.003854166666666714,0.20037037037037045,0.0608000001907385],[-0.020937500000000022,0.21814814814814806,0.0764999999999958],[-0.03802083333333333,0.23592592592592587,0.09330000019073736],[-0.044375000000000026,0.21148148148148158,0.1100999999046337],[-0.050729166666666714,0.18703703703703703,0.12649999999999295],[-0.04572916666666664,0.175,0.1447000002860932],[-0.040625,0.18777777777777774,0.16080000019073282],[-0.033854166666666664,0.18277777777777787,0.17680000019073816],[-0.03135416666666669,0.2192592592592592,0.1932000002860974],[-0.024791666666666618,0.2024074074074073,0.20990000009535947],[-0.013750000000000047,0.19666666666666674,0.22650000000000148],[0.004479166666666619,0.16925925925925922,0.24330000019072884],[0.010416666666666666,0.16722222222222213,0.26070000028609286],[0.016770833333333356,0.17388888888888884,0.27649999999999864],[0.01875,0.17037037037037037,0.29309999990462643],[0.01895833333333338,0.13833333333333342,0.3098000001907337],[0.019166666666666644,0.10629629629629625,0.3264999999999958],[0.001145833333333357,0.10999999999999996,0.3437000002861055],[-0.017708333333333333,0.11611111111111119,0.3605999999046361],[-0.034895833333333334,0.15425925925925918,0.37649999999999295],[-0.04812500000000005,0.1948148148148149,0.39320000028610025],[-0.06083333333333331,0.2655555555555555,0.40980000019072804],[-0.06124999999999995,0.3109259259259259,0.4264999999999901],[-0.05249999999999998,0.39092592592592595,0.445300000190727],[-0.04364583333333331,0.4838888888888888,0.4617000002861005],[-0.058645833333333286,0.5659259259259259,0.4765000000000015],[-0.06968749999999997,0.6435185185185185,0.49309999990462927],[-0.06760416666666665,0.672037037037037,0.5099000000953708],[-0.08250000000000005,0.693888888888889,0.5264999999999986],[-0.09979166666666663,0.6849999999999999,0.5432000002861059],[-0.12749999999999997,0.6742592592592593,0.5598000001907337],[-0.15739583333333335,0.6444444444444445,0.5764000000953615],[-0.1872916666666666,0.6146296296296296,0.5930999999046236],[-0.20645833333333338,0.5507407407407408,0.6098000001907309],[-0.22135416666666666,0.48407407407407405,0.6265999999046272],[-0.22770833333333335,0.4118518518518518,0.6432000002861002],[-0.24010416666666667,0.3411111111111112,0.660499999999999],[-0.246875,0.2857407407407407,0.6764999999999901],[-0.22562500000000002,0.22092592592592583,0.6939000000953683],[-0.2039583333333333,0.1853703703703704,0.7098000001907252],[-0.18104166666666663,0.1418518518518519,0.7265000000000015],[-0.16052083333333336,0.08777777777777773,0.7443000001907336],[-0.14708333333333337,0.04000000000000004,0.7620999999046347],[-0.1530208333333333,0.01777777777777782,0.7764999999999986],[-0.15895833333333337,-0.004444444444444402,0.7932000002861059],[-0.1905208333333333,0.0235185185185186,0.8107000002861042],[-0.1905208333333333,0.0235185185185186,0.8315999999046255],[-0.2234375,0.06092592592592588,0.8433000001907374],[-0.24416666666666664,0.09870370370370361,0.8598000001907309],[-0.2804166666666667,0.13425925925925927,0.8785999999046368],[-0.28968750000000004,0.18055555555555555,0.8935000000000031],[-0.31364583333333335,0.2064814814814815,0.9099999999999966],[-0.3372916666666666,0.24777777777777768,0.9299000000953583],[-0.3067708333333333,0.31740740740740736,0.9459000000953637],[-0.27677083333333335,0.3609259259259259,0.9633000001907277],[-0.26,0.37833333333333324,0.9785999999046311],[-0.19968750000000005,0.4168518518518519,0.9982000002861042],[-0.19968750000000005,0.4168518518518519,1.009999999999991],[-0.12864583333333332,0.4474074074074075,1.0267000002860982],[-0.12864583333333332,0.4474074074074075,1.0504999999999995],[-0.08541666666666667,0.4398148148148148,1.0600000000000023],[-0.08541666666666667,0.4398148148148148,1.07659999990463],[-0.03937499999999995,0.4414814814814814,1.0975999999046309],[-0.03937499999999995,0.4414814814814814,1.1099999999999994],[-0.03322916666666664,0.44296296296296306,1.1268000001907268],[-0.03322916666666664,0.44296296296296306,1.1489000000953666],[0.013437499999999976,0.4457407407407408,1.1602000002860962],[0.013437499999999976,0.4457407407407408,1.1767000002861039],[0.05010416666666669,0.46574074074074073,1.1965999999046346],[0.019687499999999976,0.4390740740740741,1.2113000001907324],[0.019687499999999976,0.4390740740740741,1.2273000001907377],[0.003541666666666643,0.39740740740740743,1.2434999999999974],[-0.041458333333333285,0.37462962962962953,1.2659999999999911],[-0.041458333333333285,0.37462962962962953,1.2769000000953667],[-0.033854166666666664,0.3207407407407408,1.2935999999046288],[-0.00635416666666669,0.27092592592592585,1.3109999999999928],[0.03677083333333329,0.2588888888888888,1.3309000000953688],[0.03677083333333329,0.2588888888888888,1.3434000000953716],[0.05635416666666669,0.24314814814814806,1.3600999999046337],[0.07791666666666662,0.1896296296296296,1.3767000002860925],[0.07885416666666671,0.1625925925925925,1.3960000000000008],[0.06666666666666667,0.1316666666666667,1.4099999999999966],[0.07447916666666667,0.11277777777777774,1.4268000001907382],[0.08385416666666666,0.13407407407407404,1.4484000000953614],[0.08385416666666666,0.13407407407407404,1.4599000000953595],[0.13395833333333323,0.1257407407407407,1.4765000000000015],[0.10645833333333338,0.10277777777777777,1.4994000000953633],[0.10645833333333338,0.10277777777777777,1.5099000000953708],[0.051770833333333384,0.0772222222222223,1.5264999999999986],[0.002708333333333357,0.02814814814814823,1.5438000001907284],[0.002708333333333357,0.02814814814814823,1.5598000001907337],[-0.0203125,-0.01055555555555564,1.5764999999999958],[-0.019375000000000024,-0.012407407407407492,1.593200000286103],[-0.029895833333333382,-0.05277777777777778,1.6099000000953652],[-0.01583333333333338,-0.11648148148148144,1.626499999999993],[-0.027083333333333334,-0.14907407407407408,1.6434000000953688],[-0.05416666666666667,-0.20685185185185184,1.6619000000953577],[-0.084375,-0.2235185185185185,1.67649999999999],[-0.10177083333333338,-0.2331481481481481,1.6940000000000026],[-0.12010416666666662,-0.2668518518518519,1.7142000002860982],[-0.13062499999999996,-0.23870370370370367,1.7303000001907378],[-0.11302083333333333,-0.2337037037037037,1.7479999999999905],[-0.14833333333333332,-0.23537037037037042,1.766200000286105],[-0.14833333333333332,-0.23537037037037042,1.7767000002860982],[-0.16781250000000003,-0.19740740740740745,1.793300000190726],[-0.18364583333333329,-0.1624074074074074,1.8104999999999905],[-0.17416666666666672,-0.15851851851851856,1.8294000000953616],[-0.16135416666666663,-0.19185185185185188,1.8460000000000036],[-0.14343750000000005,-0.2111111111111111,1.863500000000002],[-0.12552083333333333,-0.23037037037037034,1.881300000190734],[-0.09291666666666672,-0.19166666666666668,1.896800000190737],[-0.07374999999999995,-0.19129629629629633,1.9129999999999967],[-0.07374999999999995,-0.19129629629629633,1.92640000009537],[-0.08270833333333331,-0.16777777777777783,1.9432000002860974],[-0.06875,-0.1588888888888889,1.9645999999046353],[-0.06333333333333328,-0.17777777777777778,1.9853000001907333],[-0.06333333333333328,-0.17777777777777778,1.9932000002860946],[-0.06156250000000003,-0.19370370370370374,2.010099999904625],[-0.049791666666666616,-0.1983333333333334,2.0304000000953693],[-0.049270833333333285,-0.08981481481481482,2.0469000000953628],[-0.04364583333333331,0.010185185185185186,2.0625],[-0.019895833333333356,0.18518518518518517,2.0764000000953615],[-0.009895833333333333,0.32629629629629636,2.093200000286103],[-0.0012500000000000473,0.42055555555555557,2.109800000190731],[0.007395833333333357,0.5148148148148148,2.1264000000953587],[0.013229166666666714,0.5685185185185185,2.1465999999046232],[0.02322916666666662,0.6488888888888888,2.1635999999046334],[0.041458333333333285,0.6896296296296296,2.1773000001907263],[0.02374999999999995,0.6979629629629629,2.1972000002861023],[0.01395833333333331,0.6303703703703704,2.212300000190737],[0.01906249999999995,0.5957407407407408,2.227700000286106],[0.017916666666666713,0.4542592592592592,2.2457000002861065],[0.01114583333333338,0.33129629629629626,2.2617000002860976],[0.0017708333333333807,0.256111111111111,2.2764999999999986],[-0.010312499999999976,0.15685185185185194,2.2930999999046264],[-0.005833333333333357,0.10185185185185185,2.3098000001907337],[-0.003333333333333381,0.04740740740740745,2.3268000001907296],[-0.008229166666666643,0.05722222222222218,2.343200000286103],[0.012812499999999952,0.08814814814814818,2.359800000190731],[0.04052083333333331,0.10481481481481486,2.376499999999993],[0.04760416666666671,0.0787037037037037,2.3932000002861002],[0.035208333333333286,0.08222222222222218,2.409800000190728],[0.028437499999999952,0.06722222222222214,2.42649999999999],[0.025833333333333285,0.05537037037037033,2.4433000001907317],[0.029375000000000047,0.058703703703703786,2.459800000190725],[0.03229166666666667,0.06277777777777774,2.483000000000004],[0.03229166666666667,0.06277777777777774,2.4930999999046293],[0.02958333333333331,0.07074074074074083,2.5098000001907366],[0.026041666666666668,0.054074074074074156,2.5264999999999986],[0.025,0.03777777777777774,2.543599999904629],[0.01729166666666669,0.035740740740740656,2.562099999904632],[0.00916666666666662,0.035740740740740656,2.5767000002860954],[0.008645833333333287,0.03796296296296296,2.593200000286103],[0.007083333333333286,0.030555555555555555,2.6119999999999948],[0.013125000000000024,0.02111111111111107,2.627200000286095],[0.01572916666666669,0.020555555555555598,2.649400000095369],[0.01572916666666669,0.020555555555555598,2.659800000190728],[0.0032291666666666905,0.03481481481481473,2.67640000009537],[0.007500000000000047,0.03129629629629625,2.693099999904632],[0.011770833333333286,0.027777777777777776,2.713099999904628],[0.0007291666666667141,0.01444444444444436,2.7294000000953673],[-0.0009374999999999763,0.01907407407407399,2.7460999999046294],[-0.0009374999999999763,0.01907407407407399,2.763300000190739],[-0.007604166666666619,0.003703703703703704,2.776700000286098],[-0.013020833333333334,0.011666666666666582,2.793300000190726],[-0.025520833333333333,0.009444444444444486,2.812900000095368],[-0.030416666666666713,0.0016666666666666245,2.8277000002861],[-0.044375000000000026,-0.005555555555555556,2.8448000001907303],[-0.04458333333333329,-0.027777777777777776,2.865099999904629],[-0.04739583333333333,0.000925925925925926,2.8800999999046297],[-0.05145833333333331,0.0016666666666666245,2.895700000286098],[-0.042916666666666714,0.002777777777777778,2.911200000286101],[-0.03927083333333338,-0.01444444444444436,2.9295999999046245],[-0.029270833333333357,0,2.9465000000000003],[-0.02052083333333338,-0.008888888888888804,2.963099999904628],[0.005208333333333333,-0.014259259259259343,2.9825000000000017],[0.005208333333333333,-0.014259259259259343,2.993300000190729],[0.0026041666666666665,-0.013703703703703662,3.009999999999991],[0.0026041666666666665,-0.013703703703703662,3.0268000001907325],[-0.019166666666666644,0.018333333333333292,3.0509000000953677],[-0.019166666666666644,0.018333333333333292,3.0600000000000023],[-0.043229166666666666,0.019444444444444445,3.0768000001907296],[-0.043229166666666666,0.019444444444444445,3.093200000286103],[-0.07999999999999995,0.011111111111111112,3.1138000001907358],[-0.07999999999999995,0.011111111111111112,3.1267000002860925],[-0.08624999999999995,0.0035185185185184764,3.143500000000003],[-0.08624999999999995,0.0035185185185184764,3.1599000000953623],[-0.09770833333333329,-0.006481481481481481,3.17649999999999],[-0.08531249999999997,-0.01444444444444436,3.200499999999991],[-0.08531249999999997,-0.01444444444444436,3.2099000000953595],[-0.11499999999999998,-0.026111111111111154,3.2265000000000015],[-0.11499999999999998,-0.026111111111111154,3.2432000002860946],[-0.13802083333333334,-0.041111111111111195,3.259900000095371],[-0.13802083333333334,-0.041111111111111195,3.2764999999999986],[-0.1694791666666667,-0.04666666666666675,3.293200000286106],[-0.22531249999999994,-0.04666666666666675,3.3153000001907316],[-0.22531249999999994,-0.04666666666666675,3.326499999999996],[-0.20750000000000005,-0.08648148148148146,3.350599999904631],[-0.20750000000000005,-0.08648148148148146,3.361700000286106],[-0.1626041666666667,0.0007407407407406986,3.3767000002860925],[-0.1626041666666667,0.0007407407407406986,3.3933000001907345],[-0.08135416666666669,0.06999999999999991,3.4135999999046334],[-0.06145833333333333,0.09796296296296292,3.430099999904627],[-0.035416666666666666,0.12962962962962962,3.4470000000000027],[-0.034166666666666616,0.19981481481481478,3.4654999999999916],[0.01260416666666669,0.1881481481481482,3.479300000190733],[0.02177083333333331,0.24277777777777781,3.4954999999999927],[0.042604166666666644,0.3096296296296297,3.5117000002860976],[0.08864583333333324,0.36314814814814816,3.5294000000953645],[0.08864583333333324,0.36314814814814816,3.543700000286094],[0.11520833333333323,0.38203703703703695,3.5600999999046365],[0.12208333333333338,0.3122222222222223,3.5800999999046326],[0.1046875,0.23740740740740748,3.5979000000953647],[0.09239583333333339,0.20888888888888882,3.613200000286099],[0.08781249999999995,0.18277777777777787,3.632400000095359],[0.07885416666666671,0.15611111111111103,3.6478000001907276],[0.07885416666666671,0.15611111111111103,3.6599000000953623],[0.0655208333333333,0.2012962962962964,3.67640000009537],[0.08166666666666676,0.19370370370370374,3.6932000002860974],[0.09239583333333339,0.15648148148148147,3.710099999904628],[0.11520833333333323,0.12462962962962955,3.7265999999046358],[0.08875000000000005,0.12092592592592584,3.744400000095368],[0.08875000000000005,0.12092592592592584,3.7672000002860955],[0.057187499999999974,0.10981481481481473,3.7809000000953716],[0.016666666666666666,0.08592592592592588,3.7957000002861037],[0.01260416666666669,0.08851851851851844,3.8104999999999905],[0.003958333333333286,0.09740740740740746,3.8268000001907296],[0.016458333333333287,0.06962962962962967,3.843200000286103],[-0.003125,0.022777777777777692,3.8600999999046337],[-0.009583333333333381,-0.02833333333333325,3.876499999999993],[-0.03843749999999998,-0.05259259259259255,3.896500000000003],[-0.0672916666666667,-0.07685185185185185,3.9099999999999966],[-0.07281249999999997,-0.0868518518518518,3.92640000009537],[-0.08187500000000002,-0.11574074074074074,3.9432000002860974],[-0.08333333333333333,-0.12962962962962962,3.959800000190725],[-0.07979166666666669,-0.14055555555555552,3.9780999999046287],[-0.07197916666666669,-0.14944444444444444,3.9932000002860946],[-0.09822916666666662,-0.17537037037037034,4.009999999999991],[-0.09239583333333339,-0.18222222222222217,4.026499999999999],[-0.07593749999999998,-0.1853703703703704,4.0453000001907355],[-0.03958333333333333,-0.19314814814814818,4.062099999904632],[0.025625000000000023,-0.20425925925925928,4.076499999999996],[0.0931250000000001,-0.2235185185185185,4.093200000286103],[0.1570833333333333,-0.2322222222222222,4.109900000095365],[0.21864583333333343,-0.2531481481481481,4.127499999999998],[0.2326041666666666,-0.25981481481481483,4.1433000001907345],[0.25770833333333343,-0.2927777777777778,4.159800000190728],[0.29500000000000004,-0.32592592592592595,4.17649999999999],[0.33229166666666665,-0.35907407407407405,4.193200000286097],[0.3444791666666667,-0.355,4.209800000190725],[0.3444791666666667,-0.355,4.2265000000000015],[0.35427083333333326,-0.3424074074074074,4.243300000190729],[0.3325000000000001,-0.3448148148148148,4.260200000286105],[0.29541666666666655,-0.3466666666666666,4.276499999999999],[0.2771874999999999,-0.32814814814814813,4.293300000190726],[0.2742708333333333,-0.32462962962962966,4.309800000190734],[0.30447916666666663,-0.3425925925925926,4.326499999999996],[0.3140625,-0.34944444444444445,4.343300000190737],[0.32270833333333326,-0.3453703703703704,4.359900000095365],[0.31760416666666674,-0.3338888888888889,4.376400000095359],[0.31531250000000005,-0.36925925925925923,4.393099999904635],[0.30916666666666665,-0.4124074074074074,4.409800000190728],[0.32000000000000006,-0.43388888888888894,4.42649999999999],[0.3393749999999999,-0.4637037037037037,4.443200000286097],[0.34697916666666656,-0.5055555555555555,4.4599000000953595],[0.34479166666666666,-0.5207407407407407,4.476599999904636],[0.34260416666666677,-0.5359259259259259,4.494],[0.3334374999999999,-0.5061111111111112,4.509800000190737],[0.3267708333333334,-0.4729629629629629,4.526499999999999],[0.32802083333333343,-0.4572222222222222,4.543200000286106],[0.32927083333333323,-0.4414814814814814,4.559800000190734],[0.34177083333333325,-0.44722222222222224,4.5764000000953615],[0.35041666666666677,-0.45999999999999996,4.593200000286103],[0.3640625,-0.45111111111111113,4.609700000286097],[0.36822916666666666,-0.43333333333333335,4.626499999999993],[0.3396874999999999,-0.38796296296296295,4.643400000095369],[0.31583333333333335,-0.34,4.659800000190728],[0.3003124999999999,-0.3248148148148148,4.67640000009537],[0.2763541666666666,-0.2977777777777778,4.693099999904632],[0.2522916666666667,-0.2675925925925926,4.709800000190725],[0.22822916666666657,-0.23740740740740737,4.7265000000000015],[0.18218750000000009,-0.09314814814814817,4.743200000286095],[0.12572916666666673,0.05481481481481486,4.760200000286105],[0.09354166666666662,0.20259259259259255,4.776499999999999],[0.07083333333333333,0.34148148148148144,4.793099999904626],[0.06479166666666672,0.43444444444444447,4.809800000190734],[0.0515625,0.5383333333333334,4.82659999990463],[0.005104166666666643,0.6218518518518518,4.843599999904626],[-0.03291666666666669,0.6935185185185185,4.860800000190736],[-0.07718750000000002,0.7751851851851852,4.876400000095359],[-0.10916666666666662,0.8581481481481481,4.8932000002861],[-0.1420833333333333,0.8307407407407408,4.909800000190728],[-0.175,0.8033333333333332,4.930099999904627],[-0.18489583333333334,0.793888888888889,4.947099999904623],[-0.20687500000000003,0.757037037037037,4.963300000190728],[-0.1851041666666667,0.6361111111111111,4.9765000000000015],[-0.1851041666666667,0.6361111111111111,4.993099999904629],[-0.18302083333333338,0.5244444444444445,5.009900000095371],[-0.14885416666666665,0.41444444444444434,5.026499999999999],[-0.09916666666666671,0.3194444444444444,5.043200000286106],[-0.0390625,0.2064814814814815,5.0604999999999905],[-0.011770833333333286,0.11666666666666667,5.077500000000001],[0.059062500000000046,0.02388888888888885,5.093099999904624],[0.12927083333333325,-0.060555555555555536,5.110500000000002],[0.15229166666666671,-0.17685185185185184,5.126599999904627],[0.18125,-0.2548148148148149,5.1432000002861],[0.17479166666666662,-0.23722222222222225,5.161700000286103],[0.19854166666666656,-0.27444444444444444,5.177200000286106],[0.21593749999999995,-0.2866666666666667,5.193099999904632],[0.21593749999999995,-0.2866666666666667,5.209800000190725],[0.2111458333333334,-0.3014814814814815,5.231599999904631],[0.2111458333333334,-0.3014814814814815,5.243400000095363],[0.21020833333333327,-0.2837037037037037,5.260200000286105],[0.21020833333333327,-0.2837037037037037,5.276900000095367],[0.21739583333333337,-0.2770370370370371,5.298800000190738],[0.19989583333333344,-0.22925925925925927,5.31759999990463],[0.19989583333333344,-0.22925925925925927,5.3264000000953615],[0.19968750000000005,-0.2146296296296296,5.343300000190737],[0.19968750000000005,-0.2146296296296296,5.359900000095365],[0.19854166666666656,-0.19370370370370374,5.376499999999993],[0.2013541666666666,-0.1787037037037037,5.39809999990463],[0.21052083333333324,-0.1940740740740741,5.41840000009536],[0.21052083333333324,-0.1940740740740741,5.426800000190738],[0.18916666666666657,-0.1514814814814815,5.4437000002861],[0.18916666666666657,-0.1514814814814815,5.461599999904635],[0.19208333333333344,-0.12074074074074072,5.4854000000953675],[0.19208333333333344,-0.12074074074074072,5.493700000286097],[0.1796875,-0.07555555555555557,5.509800000190737],[0.16520833333333323,-0.04814814814814815,5.526499999999999],[0.1580208333333334,-0.05407407407407405,5.543200000286106],[0.15,-0.0764814814814815,5.559800000190734],[0.0953125,-0.0653703703703704,5.5764000000953615],[0.041562499999999974,-0.08907407407407411,5.5938000001907255],[-0.014895833333333285,-0.08722222222222227,5.609800000190731],[-0.06604166666666664,-0.062407407407407384,5.626400000095359],[-0.07666666666666669,-0.06648148148148143,5.644400000095359],[-0.1123958333333333,-0.07296296296296292,5.659700000286094],[-0.1252083333333334,-0.08277777777777776,5.67649999999999],[-0.13270833333333332,-0.11148148148148146,5.693099999904632],[-0.12697916666666664,-0.09851851851851849,5.7099000000953595],[-0.14375,-0.10333333333333336,5.726400000095367],[-0.1345833333333334,-0.12388888888888884,5.744300000190734],[-0.12604166666666666,-0.10759259259259263,5.759900000095371],[-0.11749999999999995,-0.127962962962963,5.776400000095364],[-0.12479166666666662,-0.12537037037037035,5.793099999904626],[-0.14583333333333334,-0.13037037037037033,5.8097000002860995],[-0.15104166666666666,-0.11962962962962967,5.826499999999996],[-0.15270833333333336,-0.1403703703703704,5.843499999999992],[-0.18614583333333337,-0.13370370370370369,5.859800000190731],[-0.22770833333333335,-0.14870370370370373,5.876400000095359],[-0.24874999999999994,-0.14962962962962964,5.893099999904635],[-0.2657291666666667,-0.14351851851851852,5.909700000286094],[-0.2827083333333333,-0.1374074074074074,5.92640000009537],[-0.2719791666666667,-0.10629629629629625,5.9435999999046345],[-0.2582291666666666,-0.09537037037037037,5.959800000190725],[-0.21083333333333332,-0.015000000000000043,5.9765000000000015],[-0.17093750000000002,0.05759259259259263,5.993099999904629],[-0.15135416666666662,0.16777777777777783,6.009700000286102],[-0.09791666666666667,0.24240740740740738,6.026499999999999],[-0.09447916666666671,0.318888888888889,6.046499999999995],[-0.04510416666666662,0.31370370370370365,6.061300000190727],[-0.008749999999999977,0.29148148148148145,6.076700000286095],[0.035208333333333286,0.2892592592592593,6.093300000190737],[0.03135416666666669,0.2838888888888888,6.109700000286097],[0.033645833333333285,0.30407407407407416,6.126499999999993],[-0.008645833333333287,0.22629629629629638,6.143099999904635],[-0.050937499999999976,0.1485185185185186,6.160499999999999],[-0.0672916666666667,0.06888888888888897,6.17649999999999],[-0.09104166666666665,0.01629629629629621,6.196099999904632],[-0.03895833333333331,-0.060555555555555536,6.211599999904635],[-0.04781249999999997,-0.03722222222222227,6.227099999904624],[-0.03760416666666669,-0.005555555555555556,6.249499999999998],[-0.03760416666666669,-0.005555555555555556,6.259900000095371],[-0.042604166666666644,-0.009444444444444486,6.276599999904633],[-0.0036458333333333334,-0.03222222222222218,6.293200000286106],[0.03572916666666662,-0.09259259259259259,6.3127000002861],[0.0655208333333333,-0.08925925925925923,6.32659999990463],[0.08781249999999995,-0.09000000000000004,6.343400000095372],[0.1099999999999999,-0.11425925925925924,6.363800000190736],[0.12541666666666676,-0.14314814814814816,6.378800000190736],[0.10166666666666657,-0.147037037037037,6.395400000095364],[0.08947916666666676,-0.17074074074074072,6.421900000095363],[0.08947916666666676,-0.17074074074074072,6.4285],[0.09104166666666676,-0.20759259259259263,6.443200000286097],[0.11104166666666657,-0.20703703703703705,6.46080000019073],[0.08979166666666671,-0.19740740740740745,6.4765000000000015],[0.07145833333333323,-0.15555555555555556,6.493099999904629],[0.06958333333333329,-0.16888888888888887,6.509800000190737],[0.07697916666666677,-0.17388888888888884,6.526499999999999],[0.06843750000000005,-0.18499999999999997,6.543200000286106],[0.058645833333333286,-0.20462962962962963,6.561300000190727],[0.06822916666666666,-0.20685185185185184,6.5808000001907345],[0.10208333333333333,-0.24870370370370373,6.595900000095369],[0.09562499999999995,-0.24259259259259258,6.611300000190738],[0.07989583333333337,-0.24166666666666667,6.6310999999046345],[0.08270833333333343,-0.24166666666666667,6.651200000286096],[0.08270833333333343,-0.24166666666666667,6.659900000095362],[0.07927083333333323,-0.2551851851851852,6.676700000286104],[0.0796875,-0.26944444444444443,6.6969000000953685],[0.07270833333333329,-0.22962962962962963,6.711300000190732],[0.08604166666666657,-0.21648148148148144,6.726400000095367],[0.0828125,-0.15685185185185183,6.743400000095363],[0.0696875000000001,-0.0794444444444444,6.760499999999993],[0.051979166666666646,-0.0514814814814814,6.777000000000001],[0.0578125,-0.04000000000000004,6.795900000095358],[0.04604166666666672,-0.05277777777777778,6.810599999904625],[0.04604166666666672,-0.05277777777777778,6.826499999999996],[0.06458333333333334,-0.05055555555555547,6.843099999904624],[0.04656250000000005,-0.037037037037037035,6.861700000286106],[0.05364583333333333,0.019259259259259216,6.877200000286095],[0.06375000000000004,0.020740740740740823,6.8962000002861],[0.058958333333333356,0.12629629629629638,6.910599999904633],[0.058958333333333356,0.12629629629629638,6.92640000009537],[0.0787499999999999,0.1985185185185186,6.943099999904632],[0.1015625,0.22277777777777769,6.964800000190735],[0.13562500000000005,0.24351851851851852,6.98090000009536],[0.1462500000000001,0.2711111111111111,6.997300000190734],[0.20947916666666658,0.31129629629629635,7.012300000190734],[0.20760416666666662,0.3194444444444444,7.031499999999994],[0.21479166666666671,0.3255555555555555,7.047800000190733],[0.17958333333333343,0.29518518518518516,7.063999999999993],[0.15499999999999994,0.2507407407407407,7.0808000001907345],[0.1492708333333333,0.1618518518518518,7.096999999999994],[0.1492708333333333,0.1618518518518518,7.1119000000953605],[0.14354166666666662,0.07296296296296292,7.1267000002860925],[0.13677083333333329,-0.03148148148148148,7.147999999999996],[0.09291666666666672,-0.04462962962962967,7.163099999904631],[0.07593750000000009,-0.07444444444444442,7.1777000002860945],[0.022395833333333334,-0.10925925925925926,7.193300000190732],[0.025833333333333285,-0.127962962962963,7.2154000000953715],[0.025833333333333285,-0.127962962962963,7.2265000000000015],[0.041770833333333354,-0.17111111111111107,7.243200000286095],[0.041770833333333354,-0.17111111111111107,7.259700000286102],[0.06083333333333331,-0.13203703703703706,7.276400000095364],[0.06083333333333331,-0.13203703703703706,7.293099999904626],[0.08135416666666657,-0.10203703703703708,7.309800000190734],[0.08135416666666657,-0.10203703703703708,7.326499999999996],[0.08458333333333339,-0.12481481481481477,7.343099999904624],[0.08458333333333339,-0.12481481481481477,7.359900000095365],[0.10104166666666667,-0.14203703703703702,7.376400000095359],[0.10104166666666667,-0.14203703703703702,7.395700000286098],[0.13208333333333327,-0.1374074074074074,7.409900000095362],[0.1662499999999999,-0.13277777777777774,7.426700000286104],[0.17645833333333344,-0.12407407407407407,7.447000000000003],[0.19281249999999991,-0.13203703703703706,7.46290000009536],[0.19072916666666656,-0.1440740740740741,7.477599999904626],[0.17437500000000009,-0.11481481481481481,7.493499999999997],[0.2022916666666667,-0.16074074074074077,7.512300000190734],[0.18239583333333323,-0.17370370370370372,7.527300000190735],[0.1759375000000001,-0.20055555555555557,7.54340000009536],[0.16218750000000004,-0.2479629629629629,7.56459999990463],[0.14885416666666676,-0.2681481481481482,7.579099999904628],[0.13708333333333325,-0.3024074074074074,7.593300000190737],[0.14104166666666676,-0.32759259259259255,7.610599999904636],[0.1388541666666666,-0.33611111111111114,7.626300000190739],[0.12374999999999996,-0.3388888888888889,7.643400000095369],[0.13406250000000006,-0.3581481481481481,7.663400000095365],[0.09479166666666666,-0.3718518518518519,7.677900000095363],[0.09635416666666667,-0.38740740740740737,7.693099999904632],[0.10864583333333329,-0.3755555555555556,7.709700000286105],[0.11500000000000009,-0.34870370370370374,7.726400000095367],[0.09604166666666672,-0.35111111111111115,7.743099999904629],[0.09604166666666672,-0.35111111111111115,7.760499999999993],[0.08250000000000005,-0.3333333333333333,7.776499999999999],[0.09145833333333328,-0.32833333333333337,7.792999999999992],[0.0978125000000001,-0.3229629629629629,7.809800000190734],[0.10729166666666666,-0.3151851851851852,7.826999999999998],[0.08989583333333329,-0.29981481481481476,7.843300000190737],[0.09416666666666676,-0.29888888888888887,7.861200000286104],[0.10020833333333339,-0.3116666666666667,7.877200000286095],[0.09916666666666671,-0.30703703703703705,7.893000000000001],[0.08104166666666662,-0.29370370370370374,7.909800000190728],[0.07510416666666657,-0.27444444444444444,7.92649999999999],[0.06229166666666662,-0.24814814814814815,7.943099999904632],[0.028750000000000022,-0.222037037037037,7.960099999904628],[0.03291666666666669,-0.22148148148148153,7.976400000095367],[0.046875,-0.22907407407407404,7.993099999904629],[0.09364583333333343,-0.2627777777777777,8.009999999999991],[0.12885416666666671,-0.267037037037037,8.026400000095364],[0.14645833333333325,-0.272037037037037,8.043099999904626],[0.15427083333333325,-0.29203703703703704,8.063000000000002],[0.18020833333333333,-0.32592592592592595,8.079999999999998],[0.1820833333333333,-0.33481481481481484,8.096999999999994],[0.20625,-0.362962962962963,8.113],[0.23041666666666671,-0.3911111111111111,8.130200000286095],[0.23687500000000009,-0.4046296296296296,8.150200000286105],[0.23687500000000009,-0.4046296296296296,8.159900000095362],[0.23104166666666662,-0.41444444444444445,8.176599999904624],[0.21302083333333333,-0.42055555555555557,8.193099999904632],[0.1961458333333333,-0.41148148148148145,8.209800000190725],[0.19260416666666677,-0.39944444444444444,8.226400000095367],[0.1859375,-0.37296296296296294,8.243300000190729],[0.19854166666666656,-0.2448148148148148,8.262],[0.23802083333333332,-0.1559259259259259,8.280300000190735],[0.2553124999999999,-0.01703703703703712,8.297200000286097],[0.2726041666666667,0.12185185185185177,8.3127000002861],[0.2724999999999999,0.2712962962962963,8.32680000019073],[0.32708333333333334,0.33240740740740743,8.347099999904628],[0.3584374999999999,0.362962962962963,8.363500000000002],[0.3584374999999999,0.362962962962963,8.376599999904627],[0.39833333333333343,0.3229629629629629,8.396900000095371],[0.4322916666666667,0.34685185185185174,8.412800000190728],[0.46104166666666657,0.36203703703703705,8.426700000286104],[0.4546875,0.2514814814814814,8.443300000190732],[0.46104166666666657,0.14370370370370375,8.462300000190737],[0.4578125,0.04314814814814806,8.477099999904624],[0.4696875000000001,-0.02388888888888885,8.494099999904634],[0.4708333333333333,-0.12314814814814815,8.509700000286102],[0.4392708333333334,-0.1368518518518518,8.530000000000001],[0.4122916666666666,-0.1427777777777778,8.547700000286099],[0.4122916666666666,-0.1427777777777778,8.560000000000002],[0.3400000000000001,-0.12222222222222222,8.576499999999996],[0.27364583333333337,-0.16518518518518516,8.597300000190728],[0.25802083333333337,-0.20574074074074078,8.613800000190736],[0.22395833333333334,-0.22000000000000003,8.630400000095364],[0.17437500000000009,-0.2227777777777778,8.652099999904635],[0.17437500000000009,-0.2227777777777778,8.659999999999997],[0.1642708333333334,-0.2442592592592592,8.676599999904624]]","[0.00020000028609956644,0.055499999999995,0.0608000001907385,0.0764999999999958,0.09330000019073736,0.1100999999046337,0.12649999999999295,0.1447000002860932,0.16080000019073282,0.17680000019073816,0.1932000002860974,0.20990000009535947,0.22650000000000148,0.24330000019072884,0.26070000028609286,0.27649999999999864,0.29309999990462643,0.3098000001907337,0.3264999999999958,0.3437000002861055,0.3605999999046361,0.37649999999999295,0.39320000028610025,0.40980000019072804,0.4264999999999901,0.445300000190727,0.4617000002861005,0.4765000000000015,0.49309999990462927,0.5099000000953708,0.5264999999999986,0.5432000002861059,0.5598000001907337,0.5764000000953615,0.5930999999046236,0.6098000001907309,0.6265999999046272,0.6432000002861002,0.660499999999999,0.6764999999999901,0.6939000000953683,0.7098000001907252,0.7265000000000015,0.7443000001907336,0.7620999999046347,0.7764999999999986,0.7932000002861059,0.8107000002861042,0.8315999999046255,0.8433000001907374,0.8598000001907309,0.8785999999046368,0.8935000000000031,0.9099999999999966,0.9299000000953583,0.9459000000953637,0.9633000001907277,0.9785999999046311,0.9982000002861042,1.009999999999991,1.0267000002860982,1.0504999999999995,1.0600000000000023,1.07659999990463,1.0975999999046309,1.1099999999999994,1.1268000001907268,1.1489000000953666,1.1602000002860962,1.1767000002861039,1.1965999999046346,1.2113000001907324,1.2273000001907377,1.2434999999999974,1.2659999999999911,1.2769000000953667,1.2935999999046288,1.3109999999999928,1.3309000000953688,1.3434000000953716,1.3600999999046337,1.3767000002860925,1.3960000000000008,1.4099999999999966,1.4268000001907382,1.4484000000953614,1.4599000000953595,1.4765000000000015,1.4994000000953633,1.5099000000953708,1.5264999999999986,1.5438000001907284,1.5598000001907337,1.5764999999999958,1.593200000286103,1.6099000000953652,1.626499999999993,1.6434000000953688,1.6619000000953577,1.67649999999999,1.6940000000000026,1.7142000002860982,1.7303000001907378,1.7479999999999905,1.766200000286105,1.7767000002860982,1.793300000190726,1.8104999999999905,1.8294000000953616,1.8460000000000036,1.863500000000002,1.881300000190734,1.896800000190737,1.9129999999999967,1.92640000009537,1.9432000002860974,1.9645999999046353,1.9853000001907333,1.9932000002860946,2.010099999904625,2.0304000000953693,2.0469000000953628,2.0625,2.0764000000953615,2.093200000286103,2.109800000190731,2.1264000000953587,2.1465999999046232,2.1635999999046334,2.1773000001907263,2.1972000002861023,2.212300000190737,2.227700000286106,2.2457000002861065,2.2617000002860976,2.2764999999999986,2.2930999999046264,2.3098000001907337,2.3268000001907296,2.343200000286103,2.359800000190731,2.376499999999993,2.3932000002861002,2.409800000190728,2.42649999999999,2.4433000001907317,2.459800000190725,2.483000000000004,2.4930999999046293,2.5098000001907366,2.5264999999999986,2.543599999904629,2.562099999904632,2.5767000002860954,2.593200000286103,2.6119999999999948,2.627200000286095,2.649400000095369,2.659800000190728,2.67640000009537,2.693099999904632,2.713099999904628,2.7294000000953673,2.7460999999046294,2.763300000190739,2.776700000286098,2.793300000190726,2.812900000095368,2.8277000002861,2.8448000001907303,2.865099999904629,2.8800999999046297,2.895700000286098,2.911200000286101,2.9295999999046245,2.9465000000000003,2.963099999904628,2.9825000000000017,2.993300000190729,3.009999999999991,3.0268000001907325,3.0509000000953677,3.0600000000000023,3.0768000001907296,3.093200000286103,3.1138000001907358,3.1267000002860925,3.143500000000003,3.1599000000953623,3.17649999999999,3.200499999999991,3.2099000000953595,3.2265000000000015,3.2432000002860946,3.259900000095371,3.2764999999999986,3.293200000286106,3.3153000001907316,3.326499999999996,3.350599999904631,3.361700000286106,3.3767000002860925,3.3933000001907345,3.4135999999046334,3.430099999904627,3.4470000000000027,3.4654999999999916,3.479300000190733,3.4954999999999927,3.5117000002860976,3.5294000000953645,3.543700000286094,3.5600999999046365,3.5800999999046326,3.5979000000953647,3.613200000286099,3.632400000095359,3.6478000001907276,3.6599000000953623,3.67640000009537,3.6932000002860974,3.710099999904628,3.7265999999046358,3.744400000095368,3.7672000002860955,3.7809000000953716,3.7957000002861037,3.8104999999999905,3.8268000001907296,3.843200000286103,3.8600999999046337,3.876499999999993,3.896500000000003,3.9099999999999966,3.92640000009537,3.9432000002860974,3.959800000190725,3.9780999999046287,3.9932000002860946,4.009999999999991,4.026499999999999,4.0453000001907355,4.062099999904632,4.076499999999996,4.093200000286103,4.109900000095365,4.127499999999998,4.1433000001907345,4.159800000190728,4.17649999999999,4.193200000286097,4.209800000190725,4.2265000000000015,4.243300000190729,4.260200000286105,4.276499999999999,4.293300000190726,4.309800000190734,4.326499999999996,4.343300000190737,4.359900000095365,4.376400000095359,4.393099999904635,4.409800000190728,4.42649999999999,4.443200000286097,4.4599000000953595,4.476599999904636,4.494,4.509800000190737,4.526499999999999,4.543200000286106,4.559800000190734,4.5764000000953615,4.593200000286103,4.609700000286097,4.626499999999993,4.643400000095369,4.659800000190728,4.67640000009537,4.693099999904632,4.709800000190725,4.7265000000000015,4.743200000286095,4.760200000286105,4.776499999999999,4.793099999904626,4.809800000190734,4.82659999990463,4.843599999904626,4.860800000190736,4.876400000095359,4.8932000002861,4.909800000190728,4.930099999904627,4.947099999904623,4.963300000190728,4.9765000000000015,4.993099999904629,5.009900000095371,5.026499999999999,5.043200000286106,5.0604999999999905,5.077500000000001,5.093099999904624,5.110500000000002,5.126599999904627,5.1432000002861,5.161700000286103,5.177200000286106,5.193099999904632,5.209800000190725,5.231599999904631,5.243400000095363,5.260200000286105,5.276900000095367,5.298800000190738,5.31759999990463,5.3264000000953615,5.343300000190737,5.359900000095365,5.376499999999993,5.39809999990463,5.41840000009536,5.426800000190738,5.4437000002861,5.461599999904635,5.4854000000953675,5.493700000286097,5.509800000190737,5.526499999999999,5.543200000286106,5.559800000190734,5.5764000000953615,5.5938000001907255,5.609800000190731,5.626400000095359,5.644400000095359,5.659700000286094,5.67649999999999,5.693099999904632,5.7099000000953595,5.726400000095367,5.744300000190734,5.759900000095371,5.776400000095364,5.793099999904626,5.8097000002860995,5.826499999999996,5.843499999999992,5.859800000190731,5.876400000095359,5.893099999904635,5.909700000286094,5.92640000009537,5.9435999999046345,5.959800000190725,5.9765000000000015,5.993099999904629,6.009700000286102,6.026499999999999,6.046499999999995,6.061300000190727,6.076700000286095,6.093300000190737,6.109700000286097,6.126499999999993,6.143099999904635,6.160499999999999,6.17649999999999,6.196099999904632,6.211599999904635,6.227099999904624,6.249499999999998,6.259900000095371,6.276599999904633,6.293200000286106,6.3127000002861,6.32659999990463,6.343400000095372,6.363800000190736,6.378800000190736,6.395400000095364,6.421900000095363,6.4285,6.443200000286097,6.46080000019073,6.4765000000000015,6.493099999904629,6.509800000190737,6.526499999999999,6.543200000286106,6.561300000190727,6.5808000001907345,6.595900000095369,6.611300000190738,6.6310999999046345,6.651200000286096,6.659900000095362,6.676700000286104,6.6969000000953685,6.711300000190732,6.726400000095367,6.743400000095363,6.760499999999993,6.777000000000001,6.795900000095358,6.810599999904625,6.826499999999996,6.843099999904624,6.861700000286106,6.877200000286095,6.8962000002861,6.910599999904633,6.92640000009537,6.943099999904632,6.964800000190735,6.98090000009536,6.997300000190734,7.012300000190734,7.031499999999994,7.047800000190733,7.063999999999993,7.0808000001907345,7.096999999999994,7.1119000000953605,7.1267000002860925,7.147999999999996,7.163099999904631,7.1777000002860945,7.193300000190732,7.2154000000953715,7.2265000000000015,7.243200000286095,7.259700000286102,7.276400000095364,7.293099999904626,7.309800000190734,7.326499999999996,7.343099999904624,7.359900000095365,7.376400000095359,7.395700000286098,7.409900000095362,7.426700000286104,7.447000000000003,7.46290000009536,7.477599999904626,7.493499999999997,7.512300000190734,7.527300000190735,7.54340000009536,7.56459999990463,7.579099999904628,7.593300000190737,7.610599999904636,7.626300000190739,7.643400000095369,7.663400000095365,7.677900000095363,7.693099999904632,7.709700000286105,7.726400000095367,7.743099999904629,7.760499999999993,7.776499999999999,7.792999999999992,7.809800000190734,7.826999999999998,7.843300000190737,7.861200000286104,7.877200000286095,7.893000000000001,7.909800000190728,7.92649999999999,7.943099999904632,7.960099999904628,7.976400000095367,7.993099999904629,8.009999999999991,8.026400000095364,8.043099999904626,8.063000000000002,8.079999999999998,8.096999999999994,8.113,8.130200000286095,8.150200000286105,8.159900000095362,8.176599999904624,8.193099999904632,8.209800000190725,8.226400000095367,8.243300000190729,8.262,8.280300000190735,8.297200000286097,8.3127000002861,8.32680000019073,8.347099999904628,8.363500000000002,8.376599999904627,8.396900000095371,8.412800000190728,8.426700000286104,8.443300000190732,8.462300000190737,8.477099999904624,8.494099999904634,8.509700000286102,8.530000000000001,8.547700000286099,8.560000000000002,8.576499999999996,8.597300000190728,8.613800000190736,8.630400000095364,8.652099999904635,8.659999999999997,8.676599999904624]","[1732006451691,1732006451737,1732006451742,1732006451758,1732006451775,1732006451792,1732006451808,1732006451826,1732006451842,1732006451858,1732006451875,1732006451891,1732006451908,1732006451925,1732006451942,1732006451958,1732006451975,1732006451991,1732006452008,1732006452025,1732006452042,1732006452058,1732006452075,1732006452091,1732006452108,1732006452127,1732006452143,1732006452158,1732006452175,1732006452191,1732006452208,1732006452225,1732006452241,1732006452258,1732006452275,1732006452291,1732006452308,1732006452325,1732006452342,1732006452358,1732006452375,1732006452391,1732006452408,1732006452426,1732006452444,1732006452458,1732006452475,1732006452492,1732006452513,1732006452525,1732006452541,1732006452560,1732006452575,1732006452591,1732006452611,1732006452627,1732006452645,1732006452660,1732006452680,1732006452691,1732006452708,1732006452732,1732006452741,1732006452758,1732006452779,1732006452791,1732006452808,1732006452830,1732006452842,1732006452858,1732006452878,1732006452893,1732006452909,1732006452925,1732006452947,1732006452958,1732006452975,1732006452992,1732006453012,1732006453025,1732006453042,1732006453058,1732006453077,1732006453091,1732006453108,1732006453130,1732006453141,1732006453158,1732006453181,1732006453191,1732006453208,1732006453225,1732006453241,1732006453258,1732006453275,1732006453291,1732006453308,1732006453325,1732006453343,1732006453358,1732006453375,1732006453396,1732006453412,1732006453429,1732006453448,1732006453458,1732006453475,1732006453492,1732006453511,1732006453527,1732006453545,1732006453563,1732006453578,1732006453594,1732006453608,1732006453625,1732006453646,1732006453667,1732006453675,1732006453692,1732006453712,1732006453728,1732006453744,1732006453758,1732006453775,1732006453791,1732006453808,1732006453828,1732006453845,1732006453859,1732006453879,1732006453894,1732006453909,1732006453927,1732006453943,1732006453958,1732006453975,1732006453991,1732006454008,1732006454025,1732006454041,1732006454058,1732006454075,1732006454091,1732006454108,1732006454125,1732006454141,1732006454164,1732006454175,1732006454191,1732006454208,1732006454225,1732006454244,1732006454258,1732006454275,1732006454293,1732006454309,1732006454331,1732006454341,1732006454358,1732006454375,1732006454394,1732006454411,1732006454427,1732006454445,1732006454458,1732006454475,1732006454494,1732006454509,1732006454526,1732006454546,1732006454562,1732006454577,1732006454593,1732006454611,1732006454628,1732006454645,1732006454664,1732006454675,1732006454691,1732006454708,1732006454732,1732006454741,1732006454758,1732006454775,1732006454795,1732006454808,1732006454825,1732006454841,1732006454858,1732006454882,1732006454891,1732006454908,1732006454925,1732006454941,1732006454958,1732006454975,1732006454997,1732006455008,1732006455032,1732006455043,1732006455058,1732006455075,1732006455095,1732006455112,1732006455128,1732006455147,1732006455161,1732006455177,1732006455193,1732006455211,1732006455225,1732006455241,1732006455261,1732006455279,1732006455295,1732006455314,1732006455329,1732006455341,1732006455358,1732006455375,1732006455392,1732006455408,1732006455426,1732006455449,1732006455462,1732006455477,1732006455492,1732006455508,1732006455525,1732006455542,1732006455558,1732006455578,1732006455591,1732006455608,1732006455625,1732006455641,1732006455659,1732006455675,1732006455691,1732006455708,1732006455727,1732006455743,1732006455758,1732006455775,1732006455791,1732006455809,1732006455825,1732006455841,1732006455858,1732006455875,1732006455891,1732006455908,1732006455925,1732006455942,1732006455958,1732006455975,1732006455991,1732006456008,1732006456025,1732006456041,1732006456058,1732006456075,1732006456091,1732006456108,1732006456125,1732006456141,1732006456158,1732006456175,1732006456191,1732006456208,1732006456225,1732006456241,1732006456258,1732006456275,1732006456291,1732006456308,1732006456325,1732006456341,1732006456358,1732006456375,1732006456391,1732006456408,1732006456425,1732006456442,1732006456458,1732006456475,1732006456491,1732006456508,1732006456525,1732006456542,1732006456558,1732006456575,1732006456591,1732006456611,1732006456628,1732006456645,1732006456658,1732006456675,1732006456691,1732006456708,1732006456725,1732006456742,1732006456759,1732006456775,1732006456792,1732006456808,1732006456825,1732006456843,1732006456859,1732006456875,1732006456891,1732006456913,1732006456925,1732006456942,1732006456958,1732006456980,1732006456999,1732006457008,1732006457025,1732006457041,1732006457058,1732006457079,1732006457100,1732006457108,1732006457125,1732006457143,1732006457167,1732006457175,1732006457191,1732006457208,1732006457225,1732006457241,1732006457258,1732006457275,1732006457291,1732006457308,1732006457326,1732006457341,1732006457358,1732006457374,1732006457391,1732006457408,1732006457426,1732006457441,1732006457458,1732006457474,1732006457491,1732006457508,1732006457525,1732006457541,1732006457558,1732006457575,1732006457591,1732006457608,1732006457625,1732006457641,1732006457658,1732006457674,1732006457691,1732006457708,1732006457728,1732006457743,1732006457758,1732006457775,1732006457791,1732006457808,1732006457824,1732006457842,1732006457858,1732006457877,1732006457893,1732006457908,1732006457931,1732006457941,1732006457958,1732006457975,1732006457994,1732006458008,1732006458025,1732006458045,1732006458060,1732006458077,1732006458103,1732006458110,1732006458125,1732006458142,1732006458158,1732006458174,1732006458191,1732006458208,1732006458225,1732006458243,1732006458262,1732006458277,1732006458293,1732006458312,1732006458333,1732006458341,1732006458358,1732006458378,1732006458393,1732006458408,1732006458425,1732006458442,1732006458458,1732006458477,1732006458492,1732006458508,1732006458525,1732006458543,1732006458559,1732006458578,1732006458592,1732006458608,1732006458625,1732006458646,1732006458662,1732006458679,1732006458694,1732006458713,1732006458729,1732006458745,1732006458762,1732006458778,1732006458793,1732006458808,1732006458829,1732006458844,1732006458859,1732006458875,1732006458897,1732006458908,1732006458925,1732006458941,1732006458958,1732006458974,1732006458991,1732006459008,1732006459025,1732006459041,1732006459058,1732006459077,1732006459091,1732006459108,1732006459128,1732006459144,1732006459159,1732006459175,1732006459194,1732006459209,1732006459225,1732006459246,1732006459260,1732006459275,1732006459292,1732006459308,1732006459325,1732006459345,1732006459359,1732006459374,1732006459391,1732006459408,1732006459425,1732006459442,1732006459458,1732006459474,1732006459491,1732006459508,1732006459525,1732006459543,1732006459559,1732006459574,1732006459591,1732006459608,1732006459625,1732006459641,1732006459658,1732006459674,1732006459691,1732006459708,1732006459725,1732006459744,1732006459761,1732006459778,1732006459794,1732006459812,1732006459832,1732006459841,1732006459858,1732006459874,1732006459891,1732006459908,1732006459925,1732006459943,1732006459962,1732006459979,1732006459994,1732006460008,1732006460029,1732006460045,1732006460058,1732006460078,1732006460094,1732006460108,1732006460125,1732006460144,1732006460158,1732006460175,1732006460191,1732006460211,1732006460229,1732006460241,1732006460258,1732006460279,1732006460295,1732006460312,1732006460334,1732006460341,1732006460358]","[[949.8,649.5],[949.8,649.5],[956.3,648.2],[939.9,657.8],[923.5,667.4],[917.4,654.2],[911.3,641],[916.1,634.5],[921,641.4],[927.5,638.7],[929.9,658.4],[936.2,649.3],[946.8,646.2],[964.3,631.4],[970,630.3],[976.1,633.9],[978,632],[978.2,614.7],[978.4,597.4],[961.1,599.4],[943,602.7],[926.5,623.3],[913.8,645.2],[901.6,683.4],[901.2,707.9],[909.6,751.1],[918.1,801.3],[903.7,845.6],[893.1,887.5],[895.1,902.9],[880.8,914.7],[864.2,909.9],[837.6,904.1],[808.9,888],[780.2,871.9],[761.8,837.4],[747.5,801.4],[741.4,762.4],[729.5,724.2],[723,694.3],[743.4,659.3],[764.2,640.1],[786.2,616.6],[805.9,587.4],[818.8,561.6],[813.1,549.6],[807.4,537.6],[777.1,552.7],[777.1,552.7],[745.5,572.9],[725.6,593.3],[690.8,612.5],[681.9,637.5],[658.9,651.5],[636.2,673.8],[665.5,711.4],[694.3,734.9],[710.4,744.3],[768.3,765.1],[768.3,765.1],[836.5,781.6],[836.5,781.6],[878,777.5],[878,777.5],[922.2,778.4],[922.2,778.4],[928.1,779.2],[928.1,779.2],[972.9,780.7],[972.9,780.7],[1008.1,791.5],[978.9,777.1],[978.9,777.1],[963.4,754.6],[920.2,742.3],[920.2,742.3],[927.5,713.2],[953.9,686.3],[995.3,679.8],[995.3,679.8],[1014.1,671.3],[1034.8,642.4],[1035.7,627.8],[1024,611.1],[1031.5,600.9],[1040.5,612.4],[1040.5,612.4],[1088.6,607.9],[1062.2,595.5],[1062.2,595.5],[1009.7,581.7],[962.6,555.2],[962.6,555.2],[940.5,534.3],[941.4,533.3],[931.3,511.5],[944.8,477.1],[934,459.5],[908,428.3],[879,419.3],[862.3,414.1],[844.7,395.9],[834.6,411.1],[851.5,413.8],[817.6,412.9],[817.6,412.9],[798.9,433.4],[783.7,452.3],[792.8,454.4],[805.1,436.4],[822.3,426],[839.5,415.6],[870.8,436.5],[889.2,436.7],[889.2,436.7],[880.6,449.4],[894,454.2],[899.2,444],[899.2,444],[900.9,435.4],[912.2,432.9],[912.7,491.5],[918.1,545.5],[940.9,640],[950.5,716.2],[958.8,767.1],[967.1,818],[972.7,847],[982.3,890.4],[999.8,912.4],[982.8,916.9],[973.4,880.4],[978.3,861.7],[977.2,785.3],[970.7,718.9],[961.7,678.3],[950.1,624.7],[954.4,595],[956.8,565.6],[952.1,570.9],[972.3,587.6],[998.9,596.6],[1005.7,582.5],[993.8,584.4],[987.3,576.3],[984.8,569.9],[988.2,571.7],[991,573.9],[991,573.9],[988.4,578.2],[985,569.2],[984,560.4],[976.6,559.3],[968.8,559.3],[968.3,560.5],[966.8,556.5],[972.6,551.4],[975.1,551.1],[975.1,551.1],[963.1,558.8],[967.2,556.9],[971.3,555],[960.7,547.8],[959.1,550.3],[959.1,550.3],[952.7,542],[947.5,546.3],[935.5,545.1],[930.8,540.9],[917.4,537],[917.2,525],[914.5,540.5],[910.6,540.9],[918.8,541.5],[922.3,532.2],[931.9,540],[940.3,535.2],[965,532.3],[965,532.3],[962.5,532.6],[962.5,532.6],[941.6,549.9],[941.6,549.9],[918.5,550.5],[918.5,550.5],[883.2,546],[883.2,546],[877.2,541.9],[877.2,541.9],[866.2,536.5],[878.1,532.2],[878.1,532.2],[849.6,525.9],[849.6,525.9],[827.5,517.8],[827.5,517.8],[797.3,514.8],[743.7,514.8],[743.7,514.8],[760.8,493.3],[760.8,493.3],[803.9,540.4],[803.9,540.4],[881.9,577.8],[901,592.9],[926,610],[927.2,647.9],[972.1,641.6],[980.9,671.1],[1000.9,707.2],[1045.1,736.1],[1045.1,736.1],[1070.6,746.3],[1077.2,708.6],[1060.5,668.2],[1048.7,652.8],[1044.3,638.7],[1035.7,624.3],[1035.7,624.3],[1022.9,648.7],[1038.4,644.6],[1048.7,624.5],[1070.6,607.3],[1045.2,605.3],[1045.2,605.3],[1014.9,599.3],[976,586.4],[972.1,587.8],[963.8,592.6],[975.8,577.6],[957,552.3],[950.8,524.7],[923.1,511.6],[895.4,498.5],[890.1,493.1],[881.4,477.5],[880,470],[883.4,464.1],[890.9,459.3],[865.7,445.3],[871.3,441.6],[887.1,439.9],[922,435.7],[984.6,429.7],[1049.4,419.3],[1110.8,414.6],[1169.9,403.3],[1183.3,399.7],[1207.4,381.9],[1243.2,364],[1279,346.1],[1290.7,348.3],[1290.7,348.3],[1300.1,355.1],[1279.2,353.8],[1243.6,352.8],[1226.1,362.8],[1223.3,364.7],[1252.3,355],[1261.5,351.3],[1269.8,353.5],[1264.9,359.7],[1262.7,340.6],[1256.8,317.3],[1267.2,305.7],[1285.8,289.6],[1293.1,267],[1291,258.8],[1288.9,250.6],[1280.1,266.7],[1273.7,284.6],[1274.9,293.1],[1276.1,301.6],[1288.1,298.5],[1296.4,291.6],[1309.5,296.4],[1313.5,306],[1286.1,330.5],[1263.2,356.4],[1248.3,364.6],[1225.3,379.2],[1202.2,395.5],[1179.1,411.8],[1134.9,489.7],[1080.7,569.6],[1049.8,649.4],[1028,724.4],[1022.2,774.6],[1009.5,830.7],[964.9,875.8],[928.4,914.5],[885.9,958.6],[855.2,1003.4],[823.6,988.6],[792,973.8],[782.5,968.7],[761.4,948.8],[782.3,883.5],[782.3,883.5],[784.3,823.2],[817.1,763.8],[864.8,712