inst1_resp.keys,inst1_resp.rt,calibrationMouse.x,calibrationMouse.y,calibrationMouse.leftButton,calibrationMouse.midButton,calibrationMouse.rightButton,calibrationClick.x,calibrationClick.y,calibrationClick.leftButton,calibrationClick.midButton,calibrationClick.rightButton,trialsc.thisRepN,trialsc.thisTrialN,trialsc.thisN,trialsc.thisIndex,trialsc.ran,calibration_x,calibration_y,participant,session,date,expName,psychopyVersion,OS,frameRate,calibrationClick.clicked_name,ScreenRes_pixels,Camera_pixels,mouse_2.x,mouse_2.y,mouse_2.leftButton,mouse_2.midButton,mouse_2.rightButton,mouse_2.time,mouse_2.clicked_name,mouse.x,mouse.y,mouse.leftButton,mouse.midButton,mouse.rightButton,mouse.time,mouse.clicked_name,Choice,Trial,TrialDuration,MOUSE_GAZE,ET_GAZE,ET_GAZE_x_T,time,unixTime,ET_GAZE_NF,Loc_Bus_label,Loc_Metro_label,Loc_RH_label,Loc_Cost_label,Loc_Travel_label,Loc_Comfort_label,Loc_Bus_cost,Loc_Metro_cost,Loc_RH_cost,Loc_Bus_travel,Loc_Metro_travel,Loc_RH_travel,Loc_Bus_comfort,Loc_Metro_comfort,Loc_RH_comfort,trials.thisRepN,trials.thisTrialN,trials.thisN,trials.thisIndex,trials.ran,Block,Device,RH_cost,RH_travel_time,RH_Comfort,metro_cost,metro_travel_time,metro_Comfort,Bus_cost,Bus_travel_time,Bus_Comfort
space,5.2238,0.111458333,0.187037037,1,0,0,-0.340625,-0.325925926,1,0,0,0,0,0,5,1,-0.33,-0.33,18,001,2024-11-19_15h57.42.646,Attention_exp_legacy,2023.1.0,Win32,59.52380952,,,,,,,,,,,,,,,,,,,,,,,,,,,,,,,,,,,,,,,,,,,,,,,,,,,,,,,,,
,,,,,,,0.329166667,0.342592593,1,0,0,0,1,1,17,1,0.33,0.33,18,001,2024-11-19_15h57.42.646,Attention_exp_legacy,2023.1.0,Win32,59.52380952,,,,,,,,,,,,,,,,,,,,,,,,,,,,,,,,,,,,,,,,,,,,,,,,,,,,,,,,,
,,,,,,,-0.009375,-0.338888889,1,0,0,0,2,2,10,1,0,-0.33,18,001,2024-11-19_15h57.42.646,Attention_exp_legacy,2023.1.0,Win32,59.52380952,calibration_square,,,,,,,,,,,,,,,,,,,,,,,,,,,,,,,,,,,,,,,,,,,,,,,,,,,,,,,,
,,,,,,,0.317708333,0.661111111,1,0,0,0,3,3,18,1,0.33,0.67,18,001,2024-11-19_15h57.42.646,Attention_exp_legacy,2023.1.0,Win32,59.52380952,,,,,,,,,,,,,,,,,,,,,,,,,,,,,,,,,,,,,,,,,,,,,,,,,,,,,,,,,
,,,,,,,0.673958333,0.67037037,1,0,0,0,4,4,19,1,0.67,0.67,18,001,2024-11-19_15h57.42.646,Attention_exp_legacy,2023.1.0,Win32,59.52380952,calibration_square,,,,,,,,,,,,,,,,,,,,,,,,,,,,,,,,,,,,,,,,,,,,,,,,,,,,,,,,
,,,,,,,-0.677083333,-0.67037037,1,0,0,0,5,5,0,1,-0.67,-0.67,18,001,2024-11-19_15h57.42.646,Attention_exp_legacy,2023.1.0,Win32,59.52380952,calibration_square,,,,,,,,,,,,,,,,,,,,,,,,,,,,,,,,,,,,,,,,,,,,,,,,,,,,,,,,
,,,,,,,0.004166667,0.342592593,1,0,0,0,6,6,12,1,0,0.33,18,001,2024-11-19_15h57.42.646,Attention_exp_legacy,2023.1.0,Win32,59.52380952,,,,,,,,,,,,,,,,,,,,,,,,,,,,,,,,,,,,,,,,,,,,,,,,,,,,,,,,,
,,,,,,,0.323958333,-0.325925926,1,0,0,0,7,7,15,1,0.33,-0.33,18,001,2024-11-19_15h57.42.646,Attention_exp_legacy,2023.1.0,Win32,59.52380952,calibration_square,,,,,,,,,,,,,,,,,,,,,,,,,,,,,,,,,,,,,,,,,,,,,,,,,,,,,,,,
,,,,,,,0.330208333,-0.672222222,1,0,0,0,8,8,14,1,0.33,-0.67,18,001,2024-11-19_15h57.42.646,Attention_exp_legacy,2023.1.0,Win32,59.52380952,calibration_square,,,,,,,,,,,,,,,,,,,,,,,,,,,,,,,,,,,,,,,,,,,,,,,,,,,,,,,,
,,,,,,,-0.016666667,0.668518519,1,0,0,0,9,9,13,1,0,0.67,18,001,2024-11-19_15h57.42.646,Attention_exp_legacy,2023.1.0,Win32,59.52380952,,,,,,,,,,,,,,,,,,,,,,,,,,,,,,,,,,,,,,,,,,,,,,,,,,,,,,,,,
,,,,,,,-0.66875,0.338888889,1,0,0,0,10,10,3,1,-0.67,0.33,18,001,2024-11-19_15h57.42.646,Attention_exp_legacy,2023.1.0,Win32,59.52380952,calibration_square,,,,,,,,,,,,,,,,,,,,,,,,,,,,,,,,,,,,,,,,,,,,,,,,,,,,,,,,
,,,,,,,0.007291667,-0.664814815,1,0,0,0,11,11,9,1,0,-0.67,18,001,2024-11-19_15h57.42.646,Attention_exp_legacy,2023.1.0,Win32,59.52380952,calibration_square,,,,,,,,,,,,,,,,,,,,,,,,,,,,,,,,,,,,,,,,,,,,,,,,,,,,,,,,
,,,,,,,-0.336458333,0.316666667,1,0,0,0,12,12,7,1,-0.33,0.33,18,001,2024-11-19_15h57.42.646,Attention_exp_legacy,2023.1.0,Win32,59.52380952,,,,,,,,,,,,,,,,,,,,,,,,,,,,,,,,,,,,,,,,,,,,,,,,,,,,,,,,,
,,,,,,,0.320833333,0.005555556,1,0,0,0,13,13,16,1,0.33,0,18,001,2024-11-19_15h57.42.646,Attention_exp_legacy,2023.1.0,Win32,59.52380952,calibration_square,,,,,,,,,,,,,,,,,,,,,,,,,,,,,,,,,,,,,,,,,,,,,,,,,,,,,,,,
,,,,,,,-0.676041667,-0.009259259,1,0,0,0,14,14,2,1,-0.67,0,18,001,2024-11-19_15h57.42.646,Attention_exp_legacy,2023.1.0,Win32,59.52380952,calibration_square,,,,,,,,,,,,,,,,,,,,,,,,,,,,,,,,,,,,,,,,,,,,,,,,,,,,,,,,
,,,,,,,-0.326041667,-0.675925926,1,0,0,0,15,15,4,1,-0.33,-0.67,18,001,2024-11-19_15h57.42.646,Attention_exp_legacy,2023.1.0,Win32,59.52380952,calibration_square,,,,,,,,,,,,,,,,,,,,,,,,,,,,,,,,,,,,,,,,,,,,,,,,,,,,,,,,
,,,,,,,0.667708333,-0.677777778,1,0,0,0,16,16,20,1,0.67,-0.67,18,001,2024-11-19_15h57.42.646,Attention_exp_legacy,2023.1.0,Win32,59.52380952,calibration_square,,,,,,,,,,,,,,,,,,,,,,,,,,,,,,,,,,,,,,,,,,,,,,,,,,,,,,,,
,,,,,,,-0.323958333,-0.001851852,1,0,0,0,17,17,6,1,-0.33,0,18,001,2024-11-19_15h57.42.646,Attention_exp_legacy,2023.1.0,Win32,59.52380952,calibration_square,,,,,,,,,,,,,,,,,,,,,,,,,,,,,,,,,,,,,,,,,,,,,,,,,,,,,,,,
,,,,,,,-0.666666667,-0.335185185,1,0,0,0,18,18,1,1,-0.67,-0.33,18,001,2024-11-19_15h57.42.646,Attention_exp_legacy,2023.1.0,Win32,59.52380952,calibration_square,,,,,,,,,,,,,,,,,,,,,,,,,,,,,,,,,,,,,,,,,,,,,,,,,,,,,,,,
,,,,,,,-0.011458333,0.001851852,1,0,0,0,19,19,11,1,0,0,18,001,2024-11-19_15h57.42.646,Attention_exp_legacy,2023.1.0,Win32,59.52380952,,,,,,,,,,,,,,,,,,,,,,,,,,,,,,,,,,,,,,,,,,,,,,,,,,,,,,,,,
,,,,,,,-0.327083333,0.677777778,1,0,0,0,20,20,8,1,-0.33,0.67,18,001,2024-11-19_15h57.42.646,Attention_exp_legacy,2023.1.0,Win32,59.52380952,calibration_square,,,,,,,,,,,,,,,,,,,,,,,,,,,,,,,,,,,,,,,,,,,,,,,,,,,,,,,,
,,,,,,,,,,,,,,,,,,,18,001,2024-11-19_15h57.42.646,Attention_exp_legacy,2023.1.0,Win32,59.52380952,,"[1920,1080]","[640,480]",[-0.05],[-0.5333333333333333],[1],[0],[0],[1.3259000000953662],"[""StartButton""]",[0.16979166666666667],[0.40925925925925927],[1],[0],[0],[4.101499999999994],"[""Metro_label""]",Metro_label,1,5.1108,"[[0.07916666666666666,-0.43703703703703706],[0.07916666666666666,-0.43703703703703706],[0.07916666666666666,-0.43703703703703706],[0.07916666666666666,-0.43703703703703706],[0.07916666666666666,-0.43703703703703706],[0.07916666666666666,-0.43703703703703706],[0.07916666666666666,-0.43703703703703706],[0.07916666666666666,-0.43703703703703706],[0.07916666666666666,-0.43703703703703706],[0.07916666666666666,-0.43703703703703706],[0.07916666666666666,-0.43703703703703706],[0.07916666666666666,-0.43703703703703706],[0.07916666666666666,-0.43703703703703706],[0.07916666666666666,-0.43703703703703706],[0.07916666666666666,-0.43703703703703706],[0.07916666666666666,-0.43703703703703706],[0.07916666666666666,-0.43703703703703706],[0.07916666666666666,-0.43703703703703706],[0.07916666666666666,-0.43703703703703706],[0.07916666666666666,-0.43703703703703706],[0.07916666666666666,-0.43703703703703706],[0.07916666666666666,-0.43703703703703706],[0.07916666666666666,-0.43703703703703706],[0.07916666666666666,-0.43703703703703706],[0.07916666666666666,-0.43703703703703706],[0.07916666666666666,-0.43703703703703706],[0.07916666666666666,-0.43703703703703706],[0.07916666666666666,-0.43703703703703706],[0.07916666666666666,-0.43703703703703706],[0.07916666666666666,-0.43703703703703706],[0.07916666666666666,-0.43703703703703706],[0.07916666666666666,-0.43703703703703706],[0.07916666666666666,-0.43703703703703706],[0.07916666666666666,-0.43703703703703706],[0.07916666666666666,-0.43703703703703706],[0.07916666666666666,-0.43703703703703706],[0.07916666666666666,-0.43703703703703706],[0.07916666666666666,-0.43703703703703706],[0.07916666666666666,-0.43703703703703706],[0.07916666666666666,-0.43703703703703706],[0.07916666666666666,-0.43703703703703706],[0.07916666666666666,-0.43703703703703706],[0.07916666666666666,-0.43703703703703706],[0.07916666666666666,-0.43703703703703706],[0.07916666666666666,-0.43703703703703706],[0.07916666666666666,-0.43703703703703706],[0.07916666666666666,-0.43703703703703706],[0.07916666666666666,-0.43703703703703706],[0.07916666666666666,-0.43703703703703706],[0.07916666666666666,-0.43703703703703706],[0.07916666666666666,-0.43703703703703706],[0.07916666666666666,-0.43703703703703706],[0.07916666666666666,-0.43703703703703706],[0.07916666666666666,-0.43703703703703706],[0.07916666666666666,-0.43703703703703706],[0.07916666666666666,-0.43703703703703706],[0.07916666666666666,-0.43703703703703706],[0.07916666666666666,-0.43703703703703706],[0.07916666666666666,-0.43703703703703706],[0.07916666666666666,-0.43703703703703706],[0.07916666666666666,-0.43703703703703706],[0.07916666666666666,-0.43703703703703706],[0.07916666666666666,-0.43703703703703706],[0.07916666666666666,-0.4351851851851852],[0.07916666666666666,-0.42962962962962964],[0.07916666666666666,-0.42592592592592593],[0.07916666666666666,-0.4148148148148148],[0.08020833333333334,-0.3962962962962963],[0.08229166666666667,-0.387037037037037],[0.08854166666666667,-0.3537037037037037],[0.09166666666666666,-0.3351851851851852],[0.09270833333333334,-0.3111111111111111],[0.09270833333333334,-0.29444444444444445],[0.09270833333333334,-0.2796296296296296],[0.090625,-0.26296296296296295],[0.07916666666666666,-0.2462962962962963],[0.058333333333333334,-0.22592592592592592],[0.026041666666666668,-0.2],[-0.014583333333333334,-0.17777777777777778],[-0.06770833333333333,-0.15],[-0.11145833333333334,-0.1259259259259259],[-0.15729166666666666,-0.10185185185185185],[-0.1875,-0.08333333333333333],[-0.21875,-0.06296296296296296],[-0.24166666666666667,-0.046296296296296294],[-0.25625,-0.03518518518518519],[-0.26875,-0.025925925925925925],[-0.2760416666666667,-0.020370370370370372],[-0.28020833333333334,-0.014814814814814815],[-0.284375,-0.005555555555555556],[-0.28854166666666664,0.007407407407407408],[-0.29270833333333335,0.020370370370370372],[-0.29583333333333334,0.03333333333333333],[-0.3,0.046296296296296294],[-0.30416666666666664,0.05555555555555555],[-0.309375,0.06666666666666667],[-0.31354166666666666,0.07222222222222222],[-0.31979166666666664,0.07962962962962963],[-0.321875,0.08333333333333333],[-0.321875,0.08333333333333333],[-0.321875,0.08518518518518518],[-0.3145833333333333,0.09259259259259259],[-0.296875,0.09814814814814815],[-0.23854166666666668,0.10555555555555556],[-0.20208333333333334,0.10555555555555556],[-0.08854166666666667,0.10555555555555556],[-0.013541666666666667,0.1111111111111111],[0.052083333333333336,0.11851851851851852],[0.103125,0.11851851851851852],[0.13333333333333333,0.12407407407407407],[0.15625,0.12407407407407407],[0.16875,0.12407407407407407],[0.16979166666666667,0.12407407407407407],[0.16979166666666667,0.12407407407407407],[0.16979166666666667,0.12407407407407407],[0.16979166666666667,0.12407407407407407],[0.17083333333333334,0.12407407407407407],[0.17083333333333334,0.12407407407407407],[0.17083333333333334,0.12407407407407407],[0.16979166666666667,0.12222222222222222],[0.16770833333333332,0.11851851851851852],[0.16354166666666667,0.11851851851851852],[0.15625,0.1111111111111111],[0.14583333333333334,0.1037037037037037],[0.13125,0.09259259259259259],[0.11041666666666666,0.07962962962962963],[0.07708333333333334,0.06111111111111111],[0.05,0.05185185185185185],[0.022916666666666665,0.04259259259259259],[-0.0010416666666666667,0.03333333333333333],[-0.020833333333333332,0.024074074074074074],[-0.03125,0.018518518518518517],[-0.041666666666666664,0.011111111111111112],[-0.05,0.005555555555555556],[-0.06041666666666667,0.001851851851851852],[-0.07395833333333333,-0.005555555555555556],[-0.08645833333333333,-0.012962962962962963],[-0.09479166666666666,-0.022222222222222223],[-0.1,-0.03148148148148148],[-0.10520833333333333,-0.04814814814814815],[-0.10729166666666666,-0.053703703703703705],[-0.11979166666666667,-0.07407407407407407],[-0.13333333333333333,-0.08518518518518518],[-0.15208333333333332,-0.09259259259259259],[-0.16770833333333332,-0.09814814814814815],[-0.18125,-0.10740740740740741],[-0.19375,-0.11666666666666667],[-0.20729166666666668,-0.13148148148148148],[-0.21041666666666667,-0.13518518518518519],[-0.2125,-0.1388888888888889],[-0.21458333333333332,-0.14444444444444443],[-0.215625,-0.14814814814814814],[-0.21666666666666667,-0.15],[-0.21666666666666667,-0.1537037037037037],[-0.21770833333333334,-0.15555555555555556],[-0.21875,-0.16111111111111112],[-0.21875,-0.16111111111111112],[-0.21979166666666666,-0.16296296296296298],[-0.21979166666666666,-0.16296296296296298],[-0.21979166666666666,-0.1648148148148148],[-0.21979166666666666,-0.1648148148148148],[-0.22083333333333333,-0.1648148148148148],[-0.22083333333333333,-0.1648148148148148],[-0.22083333333333333,-0.1648148148148148],[-0.22083333333333333,-0.16666666666666666],[-0.22083333333333333,-0.1685185185185185],[-0.22083333333333333,-0.1685185185185185],[-0.22083333333333333,-0.1685185185185185],[-0.22083333333333333,-0.1685185185185185],[-0.22083333333333333,-0.1685185185185185],[-0.22083333333333333,-0.17222222222222222],[-0.22083333333333333,-0.17777777777777778],[-0.221875,-0.18518518518518517],[-0.225,-0.1962962962962963],[-0.22916666666666666,-0.20925925925925926],[-0.23958333333333334,-0.23703703703703705],[-0.24895833333333334,-0.26481481481481484],[-0.25625,-0.3074074074074074],[-0.259375,-0.3333333333333333],[-0.2604166666666667,-0.34814814814814815],[-0.2604166666666667,-0.3611111111111111],[-0.2604166666666667,-0.37037037037037035],[-0.2604166666666667,-0.37407407407407406],[-0.2604166666666667,-0.3814814814814815],[-0.259375,-0.38333333333333336],[-0.259375,-0.3888888888888889],[-0.259375,-0.3962962962962963],[-0.259375,-0.40370370370370373],[-0.259375,-0.4074074074074074],[-0.259375,-0.4111111111111111],[-0.259375,-0.4148148148148148],[-0.259375,-0.4148148148148148],[-0.259375,-0.4148148148148148],[-0.259375,-0.4148148148148148],[-0.259375,-0.4148148148148148],[-0.259375,-0.4148148148148148],[-0.259375,-0.4148148148148148],[-0.259375,-0.4148148148148148],[-0.259375,-0.4148148148148148],[-0.259375,-0.4148148148148148],[-0.259375,-0.4148148148148148],[-0.259375,-0.4148148148148148],[-0.259375,-0.4148148148148148],[-0.259375,-0.4148148148148148],[-0.259375,-0.4148148148148148],[-0.259375,-0.4148148148148148],[-0.259375,-0.4148148148148148],[-0.25729166666666664,-0.4148148148148148],[-0.25416666666666665,-0.4148148148148148],[-0.24375,-0.4148148148148148],[-0.20104166666666667,-0.412962962962963],[-0.134375,-0.387037037037037],[-0.029166666666666667,-0.3333333333333333],[0.065625,-0.2574074074074074],[0.14166666666666666,-0.17037037037037037],[0.21145833333333333,-0.06296296296296296],[0.26875,0.06851851851851852],[0.30833333333333335,0.1925925925925926],[0.328125,0.29444444444444445],[0.3375,0.37777777777777777],[0.340625,0.45555555555555555],[0.3385416666666667,0.5203703703703704],[0.33229166666666665,0.5481481481481482],[0.3302083333333333,0.5574074074074075],[0.3260416666666667,0.5666666666666667],[0.3229166666666667,0.5703703703703704],[0.321875,0.5703703703703704],[0.32083333333333336,0.5722222222222222],[0.3145833333333333,0.5722222222222222],[0.30520833333333336,0.5722222222222222],[0.28854166666666664,0.5722222222222222],[0.26666666666666666,0.5666666666666667],[0.24270833333333333,0.55],[0.21875,0.5296296296296297],[0.2,0.5074074074074074],[0.18645833333333334,0.48148148148148145],[0.17604166666666668,0.45740740740740743],[0.17083333333333334,0.43148148148148147],[0.16979166666666667,0.4185185185185185],[0.16979166666666667,0.4111111111111111],[0.16979166666666667,0.40925925925925927],[0.16979166666666667,0.40925925925925927],[0.16979166666666667,0.40925925925925927],[0.16979166666666667,0.40925925925925927],[0.16979166666666667,0.40925925925925927],[0.16979166666666667,0.40925925925925927],[0.16979166666666667,0.40925925925925927],[0.16979166666666667,0.40925925925925927],[0.16979166666666667,0.40925925925925927],[0.16979166666666667,0.40925925925925927],[0.16979166666666667,0.40925925925925927],[0.16979166666666667,0.40925925925925927],[0.16979166666666667,0.4],[0.18125,0.37037037037037035],[0.196875,0.32592592592592595],[0.21979166666666666,0.2574074074074074],[0.23541666666666666,0.18333333333333332],[0.25416666666666665,0.07592592592592592],[0.25625,0.04814814814814815],[0.25729166666666664,0.016666666666666666],[0.25729166666666664,0.003703703703703704],[0.25416666666666665,0],[0.2520833333333333,0.003703703703703704],[0.2520833333333333,0.011111111111111112],[0.25104166666666666,0.016666666666666666],[0.25104166666666666,0.020370370370370372],[0.25,0.022222222222222223],[0.24895833333333334,0.022222222222222223],[0.24479166666666666,0.022222222222222223],[0.23854166666666668,0.016666666666666666],[0.23333333333333334,0.012962962962962963],[0.22708333333333333,0.007407407407407408],[0.225,0.007407407407407408],[0.22395833333333334,0.007407407407407408],[0.22291666666666668,0.007407407407407408],[0.22291666666666668,0.007407407407407408],[0.22291666666666668,0.007407407407407408],[0.221875,0.007407407407407408],[0.221875,0.007407407407407408],[0.221875,0.007407407407407408],[0.221875,0.007407407407407408],[0.221875,0.009259259259259259],[0.22083333333333333,0.011111111111111112],[0.22083333333333333,0.011111111111111112],[0.21979166666666666,0.012962962962962963],[0.21875,0.014814814814814815],[0.21875,0.014814814814814815],[0.21770833333333334,0.016666666666666666],[0.21770833333333334,0.018518518518518517],[0.21666666666666667,0.018518518518518517],[0.21666666666666667,0.018518518518518517],[0.215625,0.020370370370370372],[0.215625,0.020370370370370372],[0.21458333333333332,0.020370370370370372],[0.21458333333333332,0.022222222222222223],[0.21354166666666666,0.024074074074074074],[0.21354166666666666,0.024074074074074074],[0.21354166666666666,0.025925925925925925],[0.2125,0.025925925925925925],[0.2125,0.025925925925925925],[0.21145833333333333,0.027777777777777776],[0.21145833333333333,0.027777777777777776],[0.21145833333333333,0.027777777777777776],[0.21041666666666667,0.02962962962962963],[0.21041666666666667,0.03148148148148148],[0.21041666666666667,0.03148148148148148]]","[[-0.10104166666666667,-0.05092592592592592],[-0.10104166666666667,-0.05092592592592592],[-0.09947916666666666,-0.03888888888888889],[-0.09249999999999996,-0.03981481481481482],[-0.09270833333333334,-0.03333333333333333],[-0.09291666666666672,-0.026851851851851852],[-0.09291666666666672,-0.026851851851851852],[-0.08552083333333335,-0.024629629629629547],[-0.08552083333333335,-0.024629629629629547],[-0.09343750000000005,-0.01962962962962967],[-0.12312500000000005,-0.03611111111111111],[-0.1532291666666667,-0.04814814814814815],[-0.18333333333333332,-0.06018518518518518],[-0.20895833333333336,-0.05796296296296299],[-0.23489583333333333,-0.05962962962962961],[-0.23489583333333333,-0.05962962962962961],[-0.24833333333333332,-0.07388888888888885],[-0.2759375,-0.08425925925925926],[-0.30354166666666665,-0.09462962962962967],[-0.3147916666666667,-0.10555555555555556],[-0.3107291666666666,-0.11925925925925922],[-0.3107291666666666,-0.11925925925925922],[-0.3015625,-0.12259259259259257],[-0.3094791666666667,-0.1161111111111111],[-0.28968750000000004,-0.11592592592592597],[-0.2594791666666667,-0.11222222222222226],[-0.26531250000000006,-0.10703703703703706],[-0.2603125,-0.09851851851851849],[-0.2373958333333333,-0.10555555555555556],[-0.21447916666666664,-0.11259259259259262],[-0.21447916666666664,-0.11259259259259262],[-0.22427083333333328,-0.12370370370370372],[-0.22427083333333328,-0.12370370370370372],[-0.21875,-0.12981481481481486],[-0.21875,-0.12981481481481486],[-0.20562499999999997,-0.13148148148148148],[-0.20562499999999997,-0.13148148148148148],[-0.159375,-0.1559259259259259],[-0.159375,-0.1559259259259259],[-0.14166666666666666,-0.17074074074074072],[-0.14166666666666666,-0.17074074074074072],[-0.14156249999999998,-0.18203703703703705],[-0.11041666666666666,-0.20055555555555557],[-0.13781249999999995,-0.20425925925925928],[-0.13781249999999995,-0.20425925925925928],[-0.16239583333333332,-0.20055555555555557],[-0.17531249999999995,-0.2235185185185185],[-0.1929166666666667,-0.21092592592592588],[-0.20812499999999995,-0.22833333333333336],[-0.20812499999999995,-0.22833333333333336],[-0.23093750000000005,-0.25018518518518523],[-0.2598958333333333,-0.24000000000000005],[-0.27229166666666665,-0.23703703703703705],[-0.29364583333333333,-0.2485185185185185],[-0.299375,-0.24222222222222226],[-0.3026041666666667,-0.22722222222222221],[-0.30583333333333335,-0.21222222222222226],[-0.3163541666666667,-0.17370370370370372],[-0.31302083333333336,-0.1537037037037037],[-0.29406249999999995,-0.122037037037037],[-0.2751041666666667,-0.09037037037037039],[-0.2265625,-0.08296296296296299],[-0.1929166666666667,-0.060555555555555536],[-0.14427083333333332,-0.03259259259259263],[-0.12322916666666663,0.027037037037037078],[-0.12322916666666663,0.027037037037037078],[-0.07770833333333335,0.04796296296296292],[-0.040625,0.08092592592592601],[-0.040625,0.08092592592592601],[-0.013229166666666714,0.11814814814814806],[0.027083333333333334,0.13277777777777786],[0.03343750000000002,0.1685185185185185],[0.071875,0.1948148148148149],[0.05802083333333338,0.23629629629629634],[0.05635416666666669,0.252962962962963],[0.05635416666666669,0.252962962962963],[0.0390625,0.272037037037037],[0.02687499999999995,0.25],[0.005208333333333333,0.2524074074074073],[-0.02635416666666662,0.24685185185185177],[-0.05260416666666667,0.24018518518518528],[-0.04708333333333338,0.23592592592592587],[-0.07552083333333333,0.22037037037037038],[-0.12552083333333333,0.2183333333333333],[-0.13947916666666665,0.1983333333333334],[-0.1727083333333333,0.19092592592592597],[-0.20593750000000005,0.1757407407407407],[-0.24468749999999997,0.1655555555555555],[-0.2671875,0.1544444444444444],[-0.23604166666666668,0.13962962962962958],[-0.2048958333333334,0.12481481481481477],[-0.21583333333333338,0.0962962962962963],[-0.23822916666666671,0.10851851851851856],[-0.24177083333333335,0.08740740740740749],[-0.26593749999999994,0.057962962962962876],[-0.2838541666666667,0.02962962962962963],[-0.27770833333333333,0.019999999999999917],[-0.26104166666666667,0.01444444444444436],[-0.24833333333333332,0.007592592592592635],[-0.24833333333333332,0.007592592592592635],[-0.23781249999999995,0.003703703703703704],[-0.22729166666666673,-0.0001851851851852273],[-0.2101041666666667,0.03296296296296288],[-0.14708333333333337,0.00592592592592601],[-0.14708333333333337,0.00592592592592601],[-0.14770833333333327,0.02907407407407416],[-0.14770833333333327,0.02907407407407416],[-0.1140625,0.032037037037036954],[-0.08947916666666664,0.04129629629629621],[-0.08947916666666664,0.04129629629629621],[-0.06354166666666666,0.048333333333333374],[-0.06354166666666666,0.048333333333333374],[-0.03187500000000002,0.03148148148148148],[0.03854166666666667,0.06444444444444436],[0.06885416666666658,0.054259259259259174],[0.1009375000000001,0.04666666666666675],[0.1009375000000001,0.04666666666666675],[0.12625000000000006,0.010370370370370412],[0.12625000000000006,0.010370370370370412],[0.14270833333333333,-0.0025925925925925505],[0.18322916666666675,-0.032777777777777864],[0.1872916666666666,-0.03092592592592601],[0.19166666666666668,-0.020370370370370372],[0.1638541666666666,-0.021296296296296296],[0.14260416666666675,-0.009629629629629714],[0.0865624999999999,-0.046481481481481526],[0.058749999999999976,-0.03611111111111111],[0.007291666666666667,-0.024074074074074074],[-0.03875000000000005,0.002407407407407323],[-0.043020833333333286,0.008333333333333333],[-0.03708333333333336,0.01055555555555564],[-0.06270833333333338,-0.007592592592592635],[-0.05572916666666667,-0.018148148148148063],[-0.05572916666666667,-0.018148148148148063],[-0.052083333333333336,-0.03481481481481473],[-0.07218749999999995,-0.05796296296296299],[-0.07218749999999995,-0.05796296296296299],[-0.06802083333333328,-0.06481481481481481],[-0.06937500000000002,-0.10185185185185185],[-0.052083333333333336,-0.13407407407407404],[-0.052083333333333336,-0.13407407407407404],[-0.05531250000000002,-0.1381481481481482],[-0.10625,-0.12666666666666662],[-0.14510416666666662,-0.11722222222222224],[-0.12000000000000005,-0.11148148148148146],[-0.12666666666666668,-0.10481481481481486],[-0.13468749999999996,-0.08537037037037042],[-0.13468749999999996,-0.08537037037037042],[-0.08083333333333335,-0.05796296296296299],[-0.08083333333333335,-0.05796296296296299],[-0.057291666666666664,-0.03722222222222227],[-0.057291666666666664,-0.03722222222222227],[-0.07781250000000005,-0.009814814814814731],[-0.07781250000000005,-0.009814814814814731],[-0.103125,0.0198148148148149],[-0.103125,0.0198148148148149],[-0.09729166666666664,0.017592592592592594],[-0.09729166666666664,0.017592592592592594],[-0.07000000000000005,0.027037037037037078],[-0.07000000000000005,0.027037037037037078],[-0.05666666666666664,0.027037037037037078],[-0.05666666666666664,0.027037037037037078],[-0.07093750000000003,0.05925925925925926],[-0.07093750000000003,0.05925925925925926],[-0.058229166666666644,0.06370370370370367],[-0.058229166666666644,0.06370370370370367],[-0.05458333333333331,0.07759259259259255],[-0.05458333333333331,0.07759259259259255],[-0.07156250000000004,0.09425925925925922],[-0.07156250000000004,0.09425925925925922],[-0.08489583333333334,0.08777777777777773],[-0.08489583333333334,0.08777777777777773],[-0.06645833333333329,0.11944444444444445],[-0.06645833333333329,0.11944444444444445],[-0.05666666666666664,0.1287037037037037],[-0.07208333333333337,0.13259259259259262],[-0.07208333333333337,0.13259259259259262],[-0.07999999999999995,0.15425925925925918],[-0.07999999999999995,0.15425925925925918],[-0.09770833333333329,0.18259259259259264],[-0.11312500000000002,0.19759259259259268],[-0.1453125,0.22388888888888886],[-0.15062500000000004,0.24314814814814806],[-0.16499999999999998,0.25925925925925924],[-0.19885416666666664,0.2814814814814815],[-0.23645833333333333,0.2953703703703704],[-0.25104166666666666,0.31240740740740747],[-0.2404166666666666,0.3435185185185185],[-0.2404166666666666,0.3435185185185185],[-0.2660416666666666,0.3501851851851852],[-0.2677083333333333,0.365925925925926],[-0.26802083333333326,0.3853703703703704],[-0.268125,0.3912962962962962],[-0.2517708333333334,0.3846296296296297],[-0.26510416666666664,0.3896296296296296],[-0.253125,0.3987037037037036],[-0.2352083333333333,0.40259259259259256],[-0.20562499999999997,0.4103703703703704],[-0.20052083333333334,0.42111111111111105],[-0.18260416666666662,0.4398148148148148],[-0.16364583333333335,0.447037037037037],[-0.153125,0.4557407407407408],[-0.14416666666666664,0.47907407407407415],[-0.14791666666666667,0.5088888888888888],[-0.1358333333333333,0.5255555555555554],[-0.13395833333333335,0.5325925925925926],[-0.13864583333333336,0.5222222222222223],[-0.15510416666666665,0.5348148148148147],[-0.15895833333333337,0.5138888888888888],[-0.1492708333333333,0.4727777777777777],[-0.15583333333333335,0.4338888888888888],[-0.15833333333333333,0.41462962962962957],[-0.16031249999999997,0.39222222222222214],[-0.15510416666666665,0.3464814814814815],[-0.15906250000000005,0.3266666666666666],[-0.13468749999999996,0.31296296296296294],[-0.09104166666666665,0.2788888888888889],[-0.06812499999999998,0.24722222222222223],[-0.042708333333333334,0.2390740740740741],[-0.021354166666666667,0.24277777777777781],[0.011874999999999976,0.21370370370370367],[0.07041666666666657,0.1618518518518518],[0.12750000000000009,0.10500000000000008],[0.12750000000000009,0.10500000000000008],[0.18791666666666676,0.08592592592592588],[0.24072916666666658,0.01629629629629621],[0.27145833333333325,-0.04537037037037037],[0.2986458333333334,-0.08259259259259263],[0.2986458333333334,-0.08259259259259263],[0.3240624999999999,-0.16425925925925924],[0.3477083333333333,-0.22629629629629627],[0.3477083333333333,-0.22629629629629627],[0.35614583333333344,-0.2683333333333333],[0.39479166666666665,-0.2846296296296296],[0.3711458333333333,-0.3138888888888889],[0.33312499999999995,-0.3168518518518519],[0.29052083333333345,-0.33259259259259266],[0.2646874999999999,-0.3237037037037037],[0.25791666666666657,-0.3383333333333333],[0.23635416666666675,-0.34814814814814815],[0.22947916666666662,-0.34222222222222226],[0.21489583333333329,-0.34370370370370373],[0.2209374999999999,-0.3822222222222222],[0.2179166666666667,-0.4051851851851852],[0.21458333333333332,-0.4],[0.2256249999999999,-0.42111111111111105],[0.24114583333333334,-0.45759259259259266],[0.25666666666666677,-0.4940740740740741],[0.2538541666666667,-0.5235185185185185],[0.25791666666666657,-0.5461111111111111],[0.25791666666666657,-0.5461111111111111],[0.24968750000000003,-0.5359259259259259],[0.2652083333333332,-0.5485185185185185],[0.27312500000000006,-0.5348148148148149],[0.2509375000000001,-0.5246296296296297],[0.26322916666666674,-0.5614814814814815],[0.2755208333333333,-0.5983333333333334],[0.2755208333333333,-0.5983333333333334],[0.2534374999999999,-0.5907407407407408],[0.2265625,-0.5487037037037037],[0.19947916666666668,-0.49129629629629634],[0.19427083333333334,-0.42537037037037034],[0.1872916666666666,-0.41888888888888887],[0.16479166666666673,-0.3998148148148148],[0.1857291666666666,-0.37518518518518523],[0.1805208333333333,-0.33259259259259266],[0.1492708333333333,-0.2705555555555556],[0.11802083333333328,-0.20851851851851855],[0.1337500000000001,-0.17185185185185187],[0.16124999999999995,-0.15833333333333333],[0.1798958333333334,-0.1896296296296296],[0.1724999999999999,-0.23277777777777775],[0.1724999999999999,-0.23277777777777775],[0.19416666666666677,-0.17888888888888893],[0.18354166666666671,-0.2064814814814815],[0.1352083333333333,-0.24222222222222226],[0.1118750000000001,-0.28185185185185185],[0.1365624999999999,-0.2788888888888889],[0.1584374999999999,-0.26240740740740737],[0.1578125,-0.26240740740740737],[0.1502083333333334,-0.2737037037037037],[0.1502083333333334,-0.2737037037037037],[0.14739583333333334,-0.24388888888888888],[0.14739583333333334,-0.24388888888888888],[0.15354166666666677,-0.20333333333333337],[0.15354166666666677,-0.20333333333333337],[0.14375,-0.22388888888888886],[0.14375,-0.22388888888888886],[0.1571875000000001,-0.17092592592592595],[0.1571875000000001,-0.17092592592592595],[0.15583333333333324,-0.11981481481481479],[0.15583333333333324,-0.11981481481481479],[0.1556250000000001,-0.08277777777777776],[0.1556250000000001,-0.08277777777777776],[0.1502083333333334,-0.09000000000000004],[0.1502083333333334,-0.09000000000000004],[0.13385416666666666,-0.08981481481481482],[0.13385416666666666,-0.08981481481481482],[0.12145833333333324,-0.09222222222222225],[0.12145833333333324,-0.09222222222222225],[0.1087500000000001,-0.07740740740740742],[0.1087500000000001,-0.07740740740740742],[0.13052083333333328,-0.0742592592592593],[0.12687499999999996,-0.08055555555555556],[0.12687499999999996,-0.08055555555555556],[0.10729166666666666,-0.08481481481481483]]","[[-0.10104166666666667,-0.05092592592592592,0.00040000009536100833],[-0.10104166666666667,-0.05092592592592592,0.04840000009536283],[-0.09947916666666666,-0.03888888888888889,0.060800000190731396],[-0.09249999999999996,-0.03981481481481482,0.07910000038146592],[-0.09270833333333334,-0.03333333333333333,0.09590000009536226],[-0.09291666666666672,-0.026851851851851852,0.11220000028610144],[-0.09291666666666672,-0.026851851851851852,0.12740000009536345],[-0.08552083333333335,-0.024629629629629547,0.14420000028609792],[-0.08552083333333335,-0.024629629629629547,0.16080000019073282],[-0.09343750000000005,-0.01962962962962967,0.17749999999999488],[-0.12312500000000005,-0.03611111111111111,0.1941000003814679],[-0.1532291666666667,-0.04814814814814815,0.21080000019072997],[-0.18333333333333332,-0.06018518518518518,0.22810000038146683],[-0.20895833333333336,-0.05796296296296299,0.2443000001907336],[-0.23489583333333333,-0.05962962962962961,0.26560000038146825],[-0.23489583333333333,-0.05962962962962961,0.28360000038146893],[-0.24833333333333332,-0.07388888888888885,0.29530000019072844],[-0.2759375,-0.08425925925925926,0.3108000001907314],[-0.30354166666666665,-0.09462962962962967,0.3274000000953663],[-0.3147916666666667,-0.10555555555555556,0.3441000003814665],[-0.3107291666666666,-0.11925925925925922,0.36080000019072855],[-0.3107291666666666,-0.11925925925925922,0.37740000009536345],[-0.3015625,-0.12259259259259257,0.39410000038146364],[-0.3094791666666667,-0.1161111111111111,0.4108000001907328],[-0.28968750000000004,-0.11592592592592597,0.4276000003814673],[-0.2594791666666667,-0.11222222222222226,0.4441000003814679],[-0.26531250000000006,-0.10703703703703706,0.46260000038146387],[-0.2603125,-0.09851851851851849,0.4774000000953649],[-0.2373958333333333,-0.10555555555555556,0.4944000000953608],[-0.21447916666666664,-0.11259259259259262,0.5107000002861],[-0.21447916666666664,-0.11259259259259262,0.5274999999999963],[-0.22427083333333328,-0.12370370370370372,0.5441000003814693],[-0.22427083333333328,-0.12370370370370372,0.5607000002860971],[-0.21875,-0.12981481481481486,0.5774000000953663],[-0.21875,-0.12981481481481486,0.5942000002861008],[-0.20562499999999997,-0.13148148148148148,0.6108000001907286],[-0.20562499999999997,-0.13148148148148148,0.6274999999999977],[-0.159375,-0.1559259259259259,0.6442000002860979],[-0.159375,-0.1559259259259259,0.6608000001907328],[-0.14166666666666666,-0.17074074074074072,0.6774000000953606],[-0.14166666666666666,-0.17074074074074072,0.6942000002861022],[-0.14156249999999998,-0.18203703703703705,0.71080000019073],[-0.11041666666666666,-0.20055555555555557,0.7274000000953649],[-0.13781249999999995,-0.20425925925925928,0.7441000003814651],[-0.13781249999999995,-0.20425925925925928,0.7608000001907342],[-0.16239583333333332,-0.20055555555555557,0.7774999999999963],[-0.17531249999999995,-0.2235185185185185,0.7941000003814693],[-0.1929166666666667,-0.21092592592592588,0.8108000001907314],[-0.20812499999999995,-0.22833333333333336,0.8274999999999935],[-0.20812499999999995,-0.22833333333333336,0.8441000003814665],[-0.23093750000000005,-0.25018518518518523,0.8609000000953628],[-0.2598958333333333,-0.24000000000000005,0.8774999999999977],[-0.27229166666666665,-0.23703703703703705,0.8942000002860979],[-0.29364583333333333,-0.2485185185185185,0.9109000000953671],[-0.299375,-0.24222222222222226,0.930100000381465],[-0.3026041666666667,-0.22722222222222221,0.9469000000953613],[-0.30583333333333335,-0.21222222222222226,0.9644000000953667],[-0.3163541666666667,-0.17370370370370372,0.9799999999999969],[-0.31302083333333336,-0.1537037037037037,0.9969999999999999],[-0.29406249999999995,-0.122037037037037,1.0126000003814681],[-0.2751041666666667,-0.09037037037037039,1.0274999999999963],[-0.2265625,-0.08296296296296299,1.044400000095365],[-0.1929166666666667,-0.060555555555555536,1.0628000001907338],[-0.14427083333333332,-0.03259259259259263,1.0811000003814684],[-0.12322916666666663,0.027037037037037078,1.1009000000953648],[-0.12322916666666663,0.027037037037037078,1.1109000000953628],[-0.07770833333333335,0.04796296296296292,1.1277000002860973],[-0.040625,0.08092592592592601,1.1502000002860981],[-0.040625,0.08092592592592601,1.160900000095367],[-0.013229166666666714,0.11814814814814806,1.1776000003814673],[0.027083333333333334,0.13277777777777786,1.1942000002861022],[0.03343750000000002,0.1685185185185185,1.2137000002860958],[0.071875,0.1948148148148149,1.2304999999999993],[0.05802083333333338,0.23629629629629634,1.2477000002861018],[0.05635416666666669,0.252962962962963,1.2667000002861002],[0.05635416666666669,0.252962962962963,1.2776000003814687],[0.0390625,0.272037037037037,1.2943000001907308],[0.02687499999999995,0.25,1.3109000000953657],[0.005208333333333333,0.2524074074074073,1.3323000001907346],[-0.02635416666666662,0.24685185185185177,1.3486000003814667],[-0.05260416666666667,0.24018518518518528,1.3668000001907288],[-0.04708333333333338,0.23592592592592587,1.3832000002861022],[-0.07552083333333333,0.22037037037037038,1.398700000286098],[-0.12552083333333333,0.2183333333333333,1.413100000381469],[-0.13947916666666665,0.1983333333333334,1.4281000003814697],[-0.1727083333333333,0.19092592592592597,1.4474000000953637],[-0.20593750000000005,0.1757407407407407,1.4654999999999987],[-0.24468749999999997,0.1655555555555555,1.4809000000953674],[-0.2671875,0.1544444444444444,1.499300000190729],[-0.23604166666666668,0.13962962962962958,1.5134000000953662],[-0.2048958333333334,0.12481481481481477,1.5276000003814687],[-0.21583333333333338,0.0962962962962963,1.5442000002860965],[-0.23822916666666671,0.10851851851851856,1.564300000190734],[-0.24177083333333335,0.08740740740740749,1.5811000003814684],[-0.26593749999999994,0.057962962962962876,1.5977000002860962],[-0.2838541666666667,0.02962962962962963,1.613900000095363],[-0.27770833333333333,0.019999999999999917,1.628300000190734],[-0.26104166666666667,0.01444444444444436,1.6452000002860956],[-0.24833333333333332,0.007592592592592635,1.6682000002860988],[-0.24833333333333332,0.007592592592592635,1.6774999999999949],[-0.23781249999999995,0.003703703703703704,1.6944000000953636],[-0.22729166666666673,-0.0001851851851852273,1.7109000000953642],[-0.2101041666666667,0.03296296296296288,1.7317000002860965],[-0.14708333333333337,0.00592592592592601,1.748900000095361],[-0.14708333333333337,0.00592592592592601,1.7609999999999957],[-0.14770833333333327,0.02907407407407416,1.7821000003814689],[-0.14770833333333327,0.02907407407407416,1.7942000002860965],[-0.1140625,0.032037037037036954,1.8112000002860995],[-0.08947916666666664,0.04129629629629621,1.833200000286098],[-0.08947916666666664,0.04129629629629621,1.8468000001907328],[-0.06354166666666666,0.048333333333333374,1.8612000002860967],[-0.06354166666666666,0.048333333333333374,1.877600000381463],[-0.03187500000000002,0.03148148148148148,1.897200000286098],[0.03854166666666667,0.06444444444444436,1.9109999999999943],[0.06885416666666658,0.054259259259259174,1.9288000001907335],[0.1009375000000001,0.04666666666666675,1.9502000002861024],[0.1009375000000001,0.04666666666666675,1.9639000000953644],[0.12625000000000006,0.010370370370370412,1.9774999999999991],[0.12625000000000006,0.010370370370370412,1.994100000381465],[0.14270833333333333,-0.0025925925925925505,2.0138000001907344],[0.18322916666666675,-0.032777777777777864,2.029600000381464],[0.1872916666666666,-0.03092592592592601,2.0457000002860966],[0.19166666666666668,-0.020370370370370372,2.0646000003814677],[0.1638541666666666,-0.021296296296296296,2.079100000381466],[0.14260416666666675,-0.009629629629629714,2.096600000381464],[0.0865624999999999,-0.046481481481481526,2.115700000286097],[0.058749999999999976,-0.03611111111111111,2.1327000002861],[0.007291666666666667,-0.024074074074074074,2.1482000002860957],[-0.03875000000000005,0.002407407407407323,2.1667000002860988],[-0.043020833333333286,0.008333333333333333,2.1809999999999974],[-0.03708333333333336,0.01055555555555564,2.198900000095364],[-0.06270833333333338,-0.007592592592592635,2.214499999999994],[-0.05572916666666667,-0.018148148148148063,2.2351000003814647],[-0.05572916666666667,-0.018148148148148063,2.2443000001907336],[-0.052083333333333336,-0.03481481481481473,2.2609999999999957],[-0.07218749999999995,-0.05796296296296299,2.279900000095367],[-0.07218749999999995,-0.05796296296296299,2.305900000095363],[-0.06802083333333328,-0.06481481481481481,2.311],[-0.06937500000000002,-0.10185185185185185,2.3296000003814683],[-0.052083333333333336,-0.13407407407407404,2.3512000002860987],[-0.052083333333333336,-0.13407407407407404,2.360900000095363],[-0.05531250000000002,-0.1381481481481482,2.377600000381463],[-0.10625,-0.12666666666666662,2.394300000190732],[-0.14510416666666662,-0.11722222222222224,2.413400000095365],[-0.12000000000000005,-0.11148148148148146,2.4279999999999973],[-0.12666666666666668,-0.10481481481481486,2.4452000002861],[-0.13468749999999996,-0.08537037037037042,2.4661000003814664],[-0.13468749999999996,-0.08537037037037042,2.4818000001907308],[-0.08083333333333335,-0.05796296296296299,2.4994000000953633],[-0.08083333333333335,-0.05796296296296299,2.512600000381468],[-0.057291666666666664,-0.03722222222222227,2.533200000286101],[-0.057291666666666664,-0.03722222222222227,2.544400000095365],[-0.07781250000000005,-0.009814814814814731,2.561],[-0.07781250000000005,-0.009814814814814731,2.580600000381466],[-0.103125,0.0198148148148149,2.594300000190735],[-0.103125,0.0198148148148149,2.610999999999997],[-0.09729166666666664,0.017592592592592594,2.6274999999999977],[-0.09729166666666664,0.017592592592592594,2.650200000286098],[-0.07000000000000005,0.027037037037037078,2.660800000190733],[-0.07000000000000005,0.027037037037037078,2.677499999999995],[-0.05666666666666664,0.027037037037037078,2.694100000381468],[-0.05666666666666664,0.027037037037037078,2.7139999999999986],[-0.07093750000000003,0.05925925925925926,2.727400000095365],[-0.07093750000000003,0.05925925925925926,2.744100000381465],[-0.058229166666666644,0.06370370370370367,2.764800000190732],[-0.058229166666666644,0.06370370370370367,2.777700000286096],[-0.05458333333333331,0.07759259259259255,2.7941000003814693],[-0.05458333333333331,0.07759259259259255,2.8108000001907314],[-0.07156250000000004,0.09425925925925922,2.8274000000953663],[-0.07156250000000004,0.09425925925925922,2.844700000286096],[-0.08489583333333334,0.08777777777777773,2.8649000000953606],[-0.08489583333333334,0.08777777777777773,2.8774999999999977],[-0.06645833333333329,0.11944444444444445,2.894300000190732],[-0.06645833333333329,0.11944444444444445,2.910900000095367],[-0.05666666666666664,0.1287037037037037,2.9302000002860993],[-0.07208333333333337,0.13259259259259262,2.944499999999998],[-0.07208333333333337,0.13259259259259262,2.9609999999999985],[-0.07999999999999995,0.15425925925925918,2.9803000001907307],[-0.07999999999999995,0.15425925925925918,2.994400000095361],[-0.09770833333333329,0.18259259259259264,3.0109000000953614],[-0.11312500000000002,0.19759259259259268,3.0294999999999987],[-0.1453125,0.22388888888888886,3.0443000001907308],[-0.15062500000000004,0.24314814814814806,3.061400000095361],[-0.16499999999999998,0.25925925925925924,3.077600000381466],[-0.19885416666666664,0.2814814814814815,3.096200000286096],[-0.23645833333333333,0.2953703703703704,3.110900000095363],[-0.25104166666666666,0.31240740740740747,3.1274999999999977],[-0.2404166666666666,0.3435185185185185,3.1496000003814686],[-0.2404166666666666,0.3435185185185185,3.1609999999999943],[-0.2660416666666666,0.3501851851851852,3.1776000003814673],[-0.2677083333333333,0.365925925925926,3.197499999999998],[-0.26802083333333326,0.3853703703703704,3.212999999999994],[-0.268125,0.3912962962962962,3.2279999999999944],[-0.2517708333333334,0.3846296296296297,3.2439999999999998],[-0.26510416666666664,0.3896296296296296,3.2632000002860977],[-0.253125,0.3987037037037036,3.277400000095362],[-0.2352083333333333,0.40259259259259256,3.2964999999999947],[-0.20562499999999997,0.4103703703703704,3.3108000001907314],[-0.20052083333333334,0.42111111111111105,3.3274000000953663],[-0.18260416666666662,0.4398148148148148,3.343999999999994],[-0.16364583333333335,0.447037037037037,3.3608000001907286],[-0.153125,0.4557407407407408,3.3774000000953635],[-0.14416666666666664,0.47907407407407415,3.3941000003814636],[-0.14791666666666667,0.5088888888888888,3.4114999999999966],[-0.1358333333333333,0.5255555555555554,3.4291000003814673],[-0.13395833333333335,0.5325925925925926,3.444100000381468],[-0.13864583333333336,0.5222222222222223,3.464200000286098],[-0.15510416666666665,0.5348148148148147,3.4824000000953674],[-0.15895833333333337,0.5138888888888888,3.497499999999995],[-0.1492708333333333,0.4727777777777777,3.512600000381468],[-0.15583333333333335,0.4338888888888888,3.533999999999999],[-0.15833333333333333,0.41462962962962957,3.548800000190731],[-0.16031249999999997,0.39222222222222214,3.5649999999999977],[-0.15510416666666665,0.3464814814814815,3.579900000095364],[-0.15906250000000005,0.3266666666666666,3.5968000001907328],[-0.13468749999999996,0.31296296296296294,3.610900000095363],[-0.09104166666666665,0.2788888888888889,3.6293000001907316],[-0.06812499999999998,0.24722222222222223,3.6474999999999937],[-0.042708333333333334,0.2390740740740741,3.6654000000953673],[-0.021354166666666667,0.24277777777777781,3.680900000095363],[0.011874999999999976,0.21370370370370367,3.6999999999999957],[0.07041666666666657,0.1618518518518518,3.714200000286098],[0.12750000000000009,0.10500000000000008,3.735999999999997],[0.12750000000000009,0.10500000000000008,3.7442000002860993],[0.18791666666666676,0.08592592592592588,3.7649000000953663],[0.24072916666666658,0.01629629629629621,3.7801000003814664],[0.27145833333333325,-0.04537037037037037,3.7967000002861013],[0.2986458333333334,-0.08259259259259263,3.8163000001907292],[0.2986458333333334,-0.08259259259259263,3.8274999999999935],[0.3240624999999999,-0.16425925925925924,3.844300000190735],[0.3477083333333333,-0.22629629629629627,3.867999999999995],[0.3477083333333333,-0.22629629629629627,3.8777000002860973],[0.35614583333333344,-0.2683333333333333,3.894300000190732],[0.39479166666666665,-0.2846296296296296,3.910900000095367],[0.3711458333333333,-0.3138888888888889,3.9299000000953654],[0.33312499999999995,-0.3168518518518519,3.9443000001907293],[0.29052083333333345,-0.33259259259259266,3.961499999999994],[0.2646874999999999,-0.3237037037037037,3.981100000381467],[0.25791666666666657,-0.3383333333333333,3.996300000190729],[0.23635416666666675,-0.34814814814814815,4.010900000095361],[0.22947916666666662,-0.34222222222222226,4.03080000019073],[0.21489583333333329,-0.34370370370370373,4.044600000381465],[0.2209374999999999,-0.3822222222222222,4.0627000002861],[0.2179166666666667,-0.4051851851851852,4.077600000381466],[0.21458333333333332,-0.4,4.095400000095367],[0.2256249999999999,-0.42111111111111105,4.110700000286101],[0.24114583333333334,-0.45759259259259266,4.1274000000953635],[0.25666666666666677,-0.4940740740740741,4.145600000381464],[0.2538541666666667,-0.5235185185185185,4.164499999999997],[0.25791666666666657,-0.5461111111111111,4.185400000095363],[0.25791666666666657,-0.5461111111111111,4.1939999999999955],[0.24968750000000003,-0.5359259259259259,4.210700000286096],[0.2652083333333332,-0.5485185185185185,4.2309999999999945],[0.27312500000000006,-0.5348148148148149,4.245999999999995],[0.2509375000000001,-0.5246296296296297,4.2624000000953615],[0.26322916666666674,-0.5614814814814815,4.277499999999996],[0.2755208333333333,-0.5983333333333334,4.299800000190729],[0.2755208333333333,-0.5983333333333334,4.3142000002861],[0.2534374999999999,-0.5907407407407408,4.327600000381466],[0.2265625,-0.5487037037037037,4.344300000190735],[0.19947916666666668,-0.49129629629629634,4.363100000381465],[0.19427083333333334,-0.42537037037037034,4.377800000190732],[0.1872916666666666,-0.41888888888888887,4.3944000000953665],[0.16479166666666673,-0.3998148148148148,4.410900000095367],[0.1857291666666666,-0.37518518518518523,4.429300000190729],[0.1805208333333333,-0.33259259259259266,4.444200000286102],[0.1492708333333333,-0.2705555555555556,4.461200000286098],[0.11802083333333328,-0.20851851851851855,4.477600000381464],[0.1337500000000001,-0.17185185185185187,4.496200000286102],[0.16124999999999995,-0.15833333333333333,4.510999999999996],[0.1798958333333334,-0.1896296296296296,4.527600000381469],[0.1724999999999999,-0.23277777777777775,4.55160000038147],[0.1724999999999999,-0.23277777777777775,4.560900000095366],[0.19416666666666677,-0.17888888888888893,4.577600000381466],[0.18354166666666671,-0.2064814814814815,4.594400000095362],[0.1352083333333333,-0.24222222222222226,4.610700000286101],[0.1118750000000001,-0.28185185185185185,4.628700000286102],[0.1365624999999999,-0.2788888888888889,4.646900000095364],[0.1584374999999999,-0.26240740740740737,4.6607000002860985],[0.1578125,-0.26240740740740737,4.677400000095361],[0.1502083333333334,-0.2737037037037037,4.694100000381468],[0.1502083333333334,-0.2737037037037037,4.714100000381464],[0.14739583333333334,-0.24388888888888888,4.727800000190733],[0.14739583333333334,-0.24388888888888888,4.744100000381465],[0.15354166666666677,-0.20333333333333337,4.7642000002861025],[0.15354166666666677,-0.20333333333333337,4.777700000286096],[0.14375,-0.22388888888888886,4.793999999999997],[0.14375,-0.22388888888888886,4.810900000095366],[0.1571875000000001,-0.17092592592592595,4.838400000095362],[0.1571875000000001,-0.17092592592592595,4.848700000286101],[0.15583333333333324,-0.11981481481481479,4.8608000001907286],[0.15583333333333324,-0.11981481481481479,4.877600000381463],[0.1556250000000001,-0.08277777777777776,4.894100000381464],[0.1556250000000001,-0.08277777777777776,4.914100000381467],[0.1502083333333334,-0.09000000000000004,4.927600000381467],[0.1502083333333334,-0.09000000000000004,4.944300000190729],[0.13385416666666666,-0.08981481481481482,4.96080000019073],[0.13385416666666666,-0.08981481481481482,4.983100000381469],[0.12145833333333324,-0.09222222222222225,4.994300000190734],[0.12145833333333324,-0.09222222222222225,5.0107000002861],[0.1087500000000001,-0.07740740740740742,5.030700000286096],[0.1087500000000001,-0.07740740740740742,5.044100000381469],[0.13052083333333328,-0.0742592592592593,5.060800000190731],[0.12687499999999996,-0.08055555555555556,5.082600000381468],[0.12687499999999996,-0.08055555555555556,5.094300000190735],[0.10729166666666666,-0.08481481481481483,5.1108000001907286]]","[0.00040000009536100833,0.04840000009536283,0.060800000190731396,0.07910000038146592,0.09590000009536226,0.11220000028610144,0.12740000009536345,0.14420000028609792,0.16080000019073282,0.17749999999999488,0.1941000003814679,0.21080000019072997,0.22810000038146683,0.2443000001907336,0.26560000038146825,0.28360000038146893,0.29530000019072844,0.3108000001907314,0.3274000000953663,0.3441000003814665,0.36080000019072855,0.37740000009536345,0.39410000038146364,0.4108000001907328,0.4276000003814673,0.4441000003814679,0.46260000038146387,0.4774000000953649,0.4944000000953608,0.5107000002861,0.5274999999999963,0.5441000003814693,0.5607000002860971,0.5774000000953663,0.5942000002861008,0.6108000001907286,0.6274999999999977,0.6442000002860979,0.6608000001907328,0.6774000000953606,0.6942000002861022,0.71080000019073,0.7274000000953649,0.7441000003814651,0.7608000001907342,0.7774999999999963,0.7941000003814693,0.8108000001907314,0.8274999999999935,0.8441000003814665,0.8609000000953628,0.8774999999999977,0.8942000002860979,0.9109000000953671,0.930100000381465,0.9469000000953613,0.9644000000953667,0.9799999999999969,0.9969999999999999,1.0126000003814681,1.0274999999999963,1.044400000095365,1.0628000001907338,1.0811000003814684,1.1009000000953648,1.1109000000953628,1.1277000002860973,1.1502000002860981,1.160900000095367,1.1776000003814673,1.1942000002861022,1.2137000002860958,1.2304999999999993,1.2477000002861018,1.2667000002861002,1.2776000003814687,1.2943000001907308,1.3109000000953657,1.3323000001907346,1.3486000003814667,1.3668000001907288,1.3832000002861022,1.398700000286098,1.413100000381469,1.4281000003814697,1.4474000000953637,1.4654999999999987,1.4809000000953674,1.499300000190729,1.5134000000953662,1.5276000003814687,1.5442000002860965,1.564300000190734,1.5811000003814684,1.5977000002860962,1.613900000095363,1.628300000190734,1.6452000002860956,1.6682000002860988,1.6774999999999949,1.6944000000953636,1.7109000000953642,1.7317000002860965,1.748900000095361,1.7609999999999957,1.7821000003814689,1.7942000002860965,1.8112000002860995,1.833200000286098,1.8468000001907328,1.8612000002860967,1.877600000381463,1.897200000286098,1.9109999999999943,1.9288000001907335,1.9502000002861024,1.9639000000953644,1.9774999999999991,1.994100000381465,2.0138000001907344,2.029600000381464,2.0457000002860966,2.0646000003814677,2.079100000381466,2.096600000381464,2.115700000286097,2.1327000002861,2.1482000002860957,2.1667000002860988,2.1809999999999974,2.198900000095364,2.214499999999994,2.2351000003814647,2.2443000001907336,2.2609999999999957,2.279900000095367,2.305900000095363,2.311,2.3296000003814683,2.3512000002860987,2.360900000095363,2.377600000381463,2.394300000190732,2.413400000095365,2.4279999999999973,2.4452000002861,2.4661000003814664,2.4818000001907308,2.4994000000953633,2.512600000381468,2.533200000286101,2.544400000095365,2.561,2.580600000381466,2.594300000190735,2.610999999999997,2.6274999999999977,2.650200000286098,2.660800000190733,2.677499999999995,2.694100000381468,2.7139999999999986,2.727400000095365,2.744100000381465,2.764800000190732,2.777700000286096,2.7941000003814693,2.8108000001907314,2.8274000000953663,2.844700000286096,2.8649000000953606,2.8774999999999977,2.894300000190732,2.910900000095367,2.9302000002860993,2.944499999999998,2.9609999999999985,2.9803000001907307,2.994400000095361,3.0109000000953614,3.0294999999999987,3.0443000001907308,3.061400000095361,3.077600000381466,3.096200000286096,3.110900000095363,3.1274999999999977,3.1496000003814686,3.1609999999999943,3.1776000003814673,3.197499999999998,3.212999999999994,3.2279999999999944,3.2439999999999998,3.2632000002860977,3.277400000095362,3.2964999999999947,3.3108000001907314,3.3274000000953663,3.343999999999994,3.3608000001907286,3.3774000000953635,3.3941000003814636,3.4114999999999966,3.4291000003814673,3.444100000381468,3.464200000286098,3.4824000000953674,3.497499999999995,3.512600000381468,3.533999999999999,3.548800000190731,3.5649999999999977,3.579900000095364,3.5968000001907328,3.610900000095363,3.6293000001907316,3.6474999999999937,3.6654000000953673,3.680900000095363,3.6999999999999957,3.714200000286098,3.735999999999997,3.7442000002860993,3.7649000000953663,3.7801000003814664,3.7967000002861013,3.8163000001907292,3.8274999999999935,3.844300000190735,3.867999999999995,3.8777000002860973,3.894300000190732,3.910900000095367,3.9299000000953654,3.9443000001907293,3.961499999999994,3.981100000381467,3.996300000190729,4.010900000095361,4.03080000019073,4.044600000381465,4.0627000002861,4.077600000381466,4.095400000095367,4.110700000286101,4.1274000000953635,4.145600000381464,4.164499999999997,4.185400000095363,4.1939999999999955,4.210700000286096,4.2309999999999945,4.245999999999995,4.2624000000953615,4.277499999999996,4.299800000190729,4.3142000002861,4.327600000381466,4.344300000190735,4.363100000381465,4.377800000190732,4.3944000000953665,4.410900000095367,4.429300000190729,4.444200000286102,4.461200000286098,4.477600000381464,4.496200000286102,4.510999999999996,4.527600000381469,4.55160000038147,4.560900000095366,4.577600000381466,4.594400000095362,4.610700000286101,4.628700000286102,4.646900000095364,4.6607000002860985,4.677400000095361,4.694100000381468,4.714100000381464,4.727800000190733,4.744100000381465,4.7642000002861025,4.777700000286096,4.793999999999997,4.810900000095366,4.838400000095362,4.848700000286101,4.8608000001907286,4.877600000381463,4.894100000381464,4.914100000381467,4.927600000381467,4.944300000190729,4.96080000019073,4.983100000381469,4.994300000190734,5.0107000002861,5.030700000286096,5.044100000381469,5.060800000190731,5.082600000381468,5.094300000190735,5.1108000001907286]","[1732003106644,1732003106683,1732003106696,1732003106714,1732003106731,1732003106747,1732003106762,1732003106779,1732003106796,1732003106812,1732003106829,1732003106846,1732003106863,1732003106879,1732003106900,1732003106919,1732003106930,1732003106946,1732003106962,1732003106979,1732003106996,1732003107012,1732003107029,1732003107046,1732003107062,1732003107079,1732003107098,1732003107112,1732003107129,1732003107146,1732003107162,1732003107179,1732003107196,1732003107212,1732003107229,1732003107246,1732003107262,1732003107279,1732003107296,1732003107312,1732003107329,1732003107346,1732003107362,1732003107379,1732003107396,1732003107412,1732003107429,1732003107446,1732003107462,1732003107479,1732003107496,1732003107512,1732003107529,1732003107546,1732003107565,1732003107582,1732003107599,1732003107615,1732003107632,1732003107647,1732003107662,1732003107679,1732003107698,1732003107716,1732003107736,1732003107746,1732003107763,1732003107785,1732003107796,1732003107812,1732003107829,1732003107849,1732003107865,1732003107883,1732003107902,1732003107912,1732003107929,1732003107946,1732003107967,1732003107983,1732003108002,1732003108018,1732003108033,1732003108048,1732003108063,1732003108082,1732003108100,1732003108116,1732003108134,1732003108148,1732003108162,1732003108179,1732003108199,1732003108216,1732003108233,1732003108249,1732003108263,1732003108280,1732003108303,1732003108312,1732003108329,1732003108346,1732003108367,1732003108384,1732003108396,1732003108417,1732003108429,1732003108446,1732003108468,1732003108482,1732003108496,1732003108512,1732003108532,1732003108546,1732003108564,1732003108585,1732003108599,1732003108612,1732003108629,1732003108649,1732003108664,1732003108681,1732003108699,1732003108714,1732003108731,1732003108751,1732003108768,1732003108783,1732003108802,1732003108816,1732003108834,1732003108849,1732003108870,1732003108879,1732003108896,1732003108915,1732003108941,1732003108946,1732003108964,1732003108986,1732003108996,1732003109012,1732003109029,1732003109048,1732003109063,1732003109080,1732003109101,1732003109117,1732003109134,1732003109148,1732003109168,1732003109179,1732003109196,1732003109215,1732003109229,1732003109246,1732003109262,1732003109285,1732003109296,1732003109312,1732003109329,1732003109349,1732003109362,1732003109379,1732003109400,1732003109413,1732003109429,1732003109446,1732003109462,1732003109479,1732003109500,1732003109512,1732003109529,1732003109546,1732003109565,1732003109579,1732003109596,1732003109615,1732003109629,1732003109646,1732003109664,1732003109679,1732003109696,1732003109712,1732003109731,1732003109746,1732003109762,1732003109785,1732003109796,1732003109812,1732003109832,1732003109848,1732003109863,1732003109879,1732003109898,1732003109912,1732003109931,1732003109946,1732003109962,1732003109979,1732003109996,1732003110012,1732003110029,1732003110046,1732003110064,1732003110079,1732003110099,1732003110117,1732003110132,1732003110147,1732003110169,1732003110184,1732003110200,1732003110215,1732003110232,1732003110246,1732003110264,1732003110282,1732003110300,1732003110316,1732003110335,1732003110349,1732003110371,1732003110379,1732003110400,1732003110415,1732003110432,1732003110451,1732003110462,1732003110479,1732003110503,1732003110513,1732003110529,1732003110546,1732003110565,1732003110579,1732003110596,1732003110616,1732003110631,1732003110646,1732003110666,1732003110679,1732003110697,1732003110712,1732003110730,1732003110746,1732003110762,1732003110781,1732003110799,1732003110820,1732003110829,1732003110846,1732003110866,1732003110881,1732003110897,1732003110912,1732003110935,1732003110949,1732003110962,1732003110979,1732003110998,1732003111013,1732003111029,1732003111046,1732003111064,1732003111079,1732003111096,1732003111112,1732003111131,1732003111146,1732003111162,1732003111186,1732003111196,1732003111212,1732003111229,1732003111246,1732003111264,1732003111282,1732003111296,1732003111312,1732003111329,1732003111349,1732003111363,1732003111379,1732003111399,1732003111413,1732003111429,1732003111446,1732003111473,1732003111484,1732003111496,1732003111512,1732003111529,1732003111549,1732003111562,1732003111579,1732003111596,1732003111618,1732003111629,1732003111646,1732003111666,1732003111679,1732003111696,1732003111717,1732003111729,1732003111746]","[[863,512.5],[863,512.5],[864.5,519],[871.2,518.5],[871,522],[870.8,525.5],[870.8,525.5],[877.9,526.7],[877.9,526.7],[870.3,529.4],[841.8,520.5],[812.9,514],[784,507.5],[759.4,508.7],[734.5,507.8],[734.5,507.8],[721.6,500.1],[695.1,494.5],[668.6,488.9],[657.8,483],[661.7,475.6],[661.7,475.6],[670.5,473.8],[662.9,477.3],[681.9,477.4],[710.9,479.4],[705.3,482.2],[710.1,486.8],[732.1,483],[754.1,479.2],[754.1,479.2],[744.7,473.2],[744.7,473.2],[750,469.9],[750,469.9],[762.6,469],[762.6,469],[807,455.8],[807,455.8],[824,447.8],[824,447.8],[824.1,441.7],[854,431.7],[827.7,429.7],[827.7,429.7],[804.1,431.7],[791.7,419.3],[774.8,426.1],[760.2,416.7],[760.2,416.7],[738.3,404.9],[710.5,410.4],[698.6,412],[678.1,405.8],[672.6,409.2],[669.5,417.3],[666.4,425.4],[656.3,446.2],[659.5,457],[677.7,474.1],[695.9,491.2],[742.5,495.2],[774.8,507.3],[821.5,522.4],[841.7,554.6],[841.7,554.6],[885.4,565.9],[921,583.7],[921,583.7],[947.3,603.8],[986,611.7],[992.1,631],[1029,645.2],[1015.7,667.6],[1014.1,676.6],[1014.1,676.6],[997.5,686.9],[985.8,675],[965,676.3],[934.7,673.3],[909.5,669.7],[914.8,667.4],[887.5,659],[839.5,657.9],[826.1,647.1],[794.2,643.1],[762.3,634.9],[725.1,629.4],[703.5,623.4],[733.4,615.4],[763.3,607.4],[752.8,592],[731.3,598.6],[727.9,587.2],[704.7,571.3],[687.5,556],[693.4,550.8],[709.4,547.8],[721.6,544.1],[721.6,544.1],[731.7,542],[741.8,539.9],[758.3,557.8],[818.8,543.2],[818.8,543.2],[818.2,555.7],[818.2,555.7],[850.5,557.3],[874.1,562.3],[874.1,562.3],[899,566.1],[899,566.1],[929.4,557],[997,574.8],[1026.1,569.3],[1056.9,565.2],[1056.9,565.2],[1081.2,545.6],[1081.2,545.6],[1097,538.6],[1135.9,522.3],[1139.8,523.3],[1144,529],[1117.3,528.5],[1096.9,534.8],[1043.1,514.9],[1016.4,520.5],[967,527],[922.8,541.3],[918.7,544.5],[924.4,545.7],[899.8,535.9],[906.5,530.2],[906.5,530.2],[910,521.2],[890.7,508.7],[890.7,508.7],[894.7,505],[893.4,485],[910,467.6],[910,467.6],[906.9,465.4],[858,471.6],[820.7,476.7],[844.8,479.8],[838.4,483.4],[830.7,493.9],[830.7,493.9],[882.4,508.7],[882.4,508.7],[905,519.9],[905,519.9],[885.3,534.7],[885.3,534.7],[861,550.7],[861,550.7],[866.6,549.5],[866.6,549.5],[892.8,554.6],[892.8,554.6],[905.6,554.6],[905.6,554.6],[891.9,572],[891.9,572],[904.1,574.4],[904.1,574.4],[907.6,581.9],[907.6,581.9],[891.3,590.9],[891.3,590.9],[878.5,587.4],[878.5,587.4],[896.2,604.5],[896.2,604.5],[905.6,609.5],[890.8,611.6],[890.8,611.6],[883.2,623.3],[883.2,623.3],[866.2,638.6],[851.4,646.7],[820.5,660.9],[815.4,671.3],[801.6,680],[769.1,692],[733,699.5],[719,708.7],[729.2,725.5],[729.2,725.5],[704.6,729.1],[703,737.6],[702.7,748.1],[702.6,751.3],[718.3,747.7],[705.5,750.4],[717,755.3],[734.2,757.4],[762.6,761.6],[767.5,767.4],[784.7,777.5],[802.9,781.4],[813,786.1],[821.6,798.7],[818,814.8],[829.6,823.8],[831.4,827.6],[826.9,822],[811.1,828.8],[807.4,817.5],[816.7,795.3],[810.4,774.3],[808,763.9],[806.1,751.8],[811.1,727.1],[807.3,716.4],[830.7,709],[872.6,690.6],[894.6,673.5],[919,669.1],[939.5,671.1],[971.4,655.4],[1027.6,627.4],[1082.4,596.7],[1082.4,596.7],[1140.4,586.4],[1191.1,548.8],[1220.6,515.5],[1246.7,495.4],[1246.7,495.4],[1271.1,451.3],[1293.8,417.8],[1293.8,417.8],[1301.9,395.1],[1339,386.3],[1316.3,370.5],[1279.8,368.9],[1238.9,360.4],[1214.1,365.2],[1207.6,357.3],[1186.9,352],[1180.3,355.2],[1166.3,354.4],[1172.1,333.6],[1169.2,321.2],[1166,324],[1176.6,312.6],[1191.5,292.9],[1206.4,273.2],[1203.7,257.3],[1207.6,245.1],[1207.6,245.1],[1199.7,250.6],[1214.6,243.8],[1222.2,251.2],[1200.9,256.7],[1212.7,236.8],[1224.5,216.9],[1224.5,216.9],[1203.3,221],[1177.5,243.7],[1151.5,274.7],[1146.5,310.3],[1139.8,313.8],[1118.2,324.1],[1138.3,337.4],[1133.3,360.4],[1103.3,393.9],[1073.3,427.4],[1088.4,447.2],[1114.8,454.5],[1132.7,437.6],[1125.6,414.3],[1125.6,414.3],[1146.4,443.4],[1136.2,428.5],[1089.8,409.2],[1067.4,387.8],[1091.1,389.4],[1112.1,398.3],[1111.5,398.3],[1104.2,392.2],[1104.2,392.2],[1101.5,408.3],[1101.5,408.3],[1107.4,430.2],[1107.4,430.2],[1098,419.1],[1098,419.1],[1110.9,447.7],[1110.9,447.7],[1109.6,475.3],[1109.6,475.3],[1109.4,495.3],[1109.4,495.3],[1104.2,491.4],[1104.2,491.4],[1088.5,491.5],[1088.5,491.5],[1076.6,490.2],[1076.6,490.2],[1064.4,498.2],[1064.4,498.2],[1085.3,499.9],[1081.8,496.5],[1081.8,496.5],[1063,494.2]]","[-0.142,0.42599999999999993]","[0.142,0.42599999999999993]","[0.42599999999999993,0.42599999999999993]","[-0.42599999999999993,0.142]","[-0.42599999999999993,-0.42599999999999993]","[-0.42599999999999993,-0.142]","[-0.142,0.142]","[0.142,0.142]","[0.42599999999999993,0.142]","[-0.142,-0.42599999999999993]","[0.142,-0.42599999999999993]","[0.42599999999999993,-0.42599999999999993]","[-0.142,-0.142]","[0.142,-0.142]","[0.42599999999999993,-0.142]",0,0,0,0,1,3,Laptop,25,40,9,1,50,4,1,60,5
