inst1_resp.keys,inst1_resp.rt,calibrationMouse.x,calibrationMouse.y,calibrationMouse.leftButton,calibrationMouse.midButton,calibrationMouse.rightButton,calibrationClick.x,calibrationClick.y,calibrationClick.leftButton,calibrationClick.midButton,calibrationClick.rightButton,calibrationClick.clicked_name,trialsc.thisRepN,trialsc.thisTrialN,trialsc.thisN,trialsc.thisIndex,trialsc.ran,calibration_x,calibration_y,participant,session,date,expName,psychopyVersion,OS,frameRate,ScreenRes_pixels,Camera_pixels,mouse_2.x,mouse_2.y,mouse_2.leftButton,mouse_2.midButton,mouse_2.rightButton,mouse_2.time,mouse_2.clicked_name,mouse.x,mouse.y,mouse.leftButton,mouse.midButton,mouse.rightButton,mouse.time,mouse.clicked_name,Choice,Trial,TrialDuration,MOUSE_GAZE,ET_GAZE,ET_GAZE_x_T,time,unixTime,ET_GAZE_NF,Loc_Bus_label,Loc_Metro_label,Loc_RH_label,Loc_Cost_label,Loc_Travel_label,Loc_Comfort_label,Loc_Bus_cost,Loc_Metro_cost,Loc_RH_cost,Loc_Bus_travel,Loc_Metro_travel,Loc_RH_travel,Loc_Bus_comfort,Loc_Metro_comfort,Loc_RH_comfort,trials.thisRepN,trials.thisTrialN,trials.thisN,trials.thisIndex,trials.ran,Block,Device,RH_cost,RH_travel_time,RH_Comfort,metro_cost,metro_travel_time,metro_Comfort,Bus_cost,Bus_travel_time,Bus_Comfort
space,4.4415,-0.372916667,-0.353703704,1,0,0,-0.329166667,-0.32037037,1,0,0,calibration_square,0,0,0,5,1,-0.33,-0.33,32,001,2024-11-19_15h11.29.210,Attention_exp_legacy,2023.1.0,Win32,59.88023952,,,,,,,,,,,,,,,,,,,,,,,,,,,,,,,,,,,,,,,,,,,,,,,,,,,,,,,,
,,,,,,,-0.325,0.67037037,1,0,0,calibration_square,0,1,1,8,1,-0.33,0.67,32,001,2024-11-19_15h11.29.210,Attention_exp_legacy,2023.1.0,Win32,59.88023952,,,,,,,,,,,,,,,,,,,,,,,,,,,,,,,,,,,,,,,,,,,,,,,,,,,,,,,,
,,,,,,,-0.676041667,-0.674074074,1,0,0,calibration_square,0,2,2,0,1,-0.67,-0.67,32,001,2024-11-19_15h11.29.210,Attention_exp_legacy,2023.1.0,Win32,59.88023952,,,,,,,,,,,,,,,,,,,,,,,,,,,,,,,,,,,,,,,,,,,,,,,,,,,,,,,,
,,,,,,,-0.672916667,0.331481481,1,0,0,calibration_square,0,3,3,3,1,-0.67,0.33,32,001,2024-11-19_15h11.29.210,Attention_exp_legacy,2023.1.0,Win32,59.88023952,,,,,,,,,,,,,,,,,,,,,,,,,,,,,,,,,,,,,,,,,,,,,,,,,,,,,,,,
,,,,,,,-0.665625,-0.335185185,1,0,0,calibration_square,0,4,4,1,1,-0.67,-0.33,32,001,2024-11-19_15h11.29.210,Attention_exp_legacy,2023.1.0,Win32,59.88023952,,,,,,,,,,,,,,,,,,,,,,,,,,,,,,,,,,,,,,,,,,,,,,,,,,,,,,,,
,,,,,,,-0.669791667,0.005555556,1,0,0,calibration_square,0,5,5,2,1,-0.67,0,32,001,2024-11-19_15h11.29.210,Attention_exp_legacy,2023.1.0,Win32,59.88023952,,,,,,,,,,,,,,,,,,,,,,,,,,,,,,,,,,,,,,,,,,,,,,,,,,,,,,,,
,,,,,,,-0.014583333,0.001851852,1,0,0,,0,6,6,11,1,0,0,32,001,2024-11-19_15h11.29.210,Attention_exp_legacy,2023.1.0,Win32,59.88023952,,,,,,,,,,,,,,,,,,,,,,,,,,,,,,,,,,,,,,,,,,,,,,,,,,,,,,,,
,,,,,,,-0.336458333,0.314814815,1,0,0,,0,7,7,7,1,-0.33,0.33,32,001,2024-11-19_15h11.29.210,Attention_exp_legacy,2023.1.0,Win32,59.88023952,,,,,,,,,,,,,,,,,,,,,,,,,,,,,,,,,,,,,,,,,,,,,,,,,,,,,,,,
,,,,,,,-0.004166667,-0.683333333,1,0,0,,0,8,8,9,1,0,-0.67,32,001,2024-11-19_15h11.29.210,Attention_exp_legacy,2023.1.0,Win32,59.88023952,,,,,,,,,,,,,,,,,,,,,,,,,,,,,,,,,,,,,,,,,,,,,,,,,,,,,,,,
,,,,,,,0.690625,0.666666667,1,0,0,,0,9,9,19,1,0.67,0.67,32,001,2024-11-19_15h11.29.210,Attention_exp_legacy,2023.1.0,Win32,59.88023952,,,,,,,,,,,,,,,,,,,,,,,,,,,,,,,,,,,,,,,,,,,,,,,,,,,,,,,,
,,,,,,,0.323958333,0.67037037,1,0,0,calibration_square,0,10,10,18,1,0.33,0.67,32,001,2024-11-19_15h11.29.210,Attention_exp_legacy,2023.1.0,Win32,59.88023952,,,,,,,,,,,,,,,,,,,,,,,,,,,,,,,,,,,,,,,,,,,,,,,,,,,,,,,,
,,,,,,,-0.020833333,-0.335185185,1,0,0,,0,11,11,10,1,0,-0.33,32,001,2024-11-19_15h11.29.210,Attention_exp_legacy,2023.1.0,Win32,59.88023952,,,,,,,,,,,,,,,,,,,,,,,,,,,,,,,,,,,,,,,,,,,,,,,,,,,,,,,,
,,,,,,,-0.329166667,0.001851852,1,0,0,calibration_square,0,12,12,6,1,-0.33,0,32,001,2024-11-19_15h11.29.210,Attention_exp_legacy,2023.1.0,Win32,59.88023952,,,,,,,,,,,,,,,,,,,,,,,,,,,,,,,,,,,,,,,,,,,,,,,,,,,,,,,,
,,,,,,,0.670833333,-0.677777778,1,0,0,calibration_square,0,13,13,20,1,0.67,-0.67,32,001,2024-11-19_15h11.29.210,Attention_exp_legacy,2023.1.0,Win32,59.88023952,,,,,,,,,,,,,,,,,,,,,,,,,,,,,,,,,,,,,,,,,,,,,,,,,,,,,,,,
,,,,,,,-0.33125,-0.674074074,1,0,0,calibration_square,0,14,14,4,1,-0.33,-0.67,32,001,2024-11-19_15h11.29.210,Attention_exp_legacy,2023.1.0,Win32,59.88023952,,,,,,,,,,,,,,,,,,,,,,,,,,,,,,,,,,,,,,,,,,,,,,,,,,,,,,,,
,,,,,,,0.322916667,0.003703704,1,0,0,calibration_square,0,15,15,16,1,0.33,0,32,001,2024-11-19_15h11.29.210,Attention_exp_legacy,2023.1.0,Win32,59.88023952,,,,,,,,,,,,,,,,,,,,,,,,,,,,,,,,,,,,,,,,,,,,,,,,,,,,,,,,
,,,,,,,0.315625,-0.337037037,1,0,0,,0,16,16,15,1,0.33,-0.33,32,001,2024-11-19_15h11.29.210,Attention_exp_legacy,2023.1.0,Win32,59.88023952,,,,,,,,,,,,,,,,,,,,,,,,,,,,,,,,,,,,,,,,,,,,,,,,,,,,,,,,
,,,,,,,0.001041667,0.685185185,1,0,0,,0,17,17,13,1,0,0.67,32,001,2024-11-19_15h11.29.210,Attention_exp_legacy,2023.1.0,Win32,59.88023952,,,,,,,,,,,,,,,,,,,,,,,,,,,,,,,,,,,,,,,,,,,,,,,,,,,,,,,,
,,,,,,,-0.011458333,0.35,1,0,0,,0,18,18,12,1,0,0.33,32,001,2024-11-19_15h11.29.210,Attention_exp_legacy,2023.1.0,Win32,59.88023952,,,,,,,,,,,,,,,,,,,,,,,,,,,,,,,,,,,,,,,,,,,,,,,,,,,,,,,,
,,,,,,,0.332291667,0.340740741,1,0,0,,0,19,19,17,1,0.33,0.33,32,001,2024-11-19_15h11.29.210,Attention_exp_legacy,2023.1.0,Win32,59.88023952,,,,,,,,,,,,,,,,,,,,,,,,,,,,,,,,,,,,,,,,,,,,,,,,,,,,,,,,
,,,,,,,0.323958333,-0.666666667,1,0,0,calibration_square,0,20,20,14,1,0.33,-0.67,32,001,2024-11-19_15h11.29.210,Attention_exp_legacy,2023.1.0,Win32,59.88023952,,,,,,,,,,,,,,,,,,,,,,,,,,,,,,,,,,,,,,,,,,,,,,,,,,,,,,,,
,,,,,,,,,,,,,,,,,,,,32,001,2024-11-19_15h11.29.210,Attention_exp_legacy,2023.1.0,Win32,59.88023952,"[1920,1080]","[640,480]",[0.010416666666666666],[-0.5148148148148148],[1],[0],[0],[13.83219999980927],"[""StartButton""]","[0.075,0.15416666666666667,-0.04895833333333333]","[0.05740740740740741,0.06111111111111111,0.1574074074074074]","[1,1,1]","[0,0,0]","[0,0,0]","[4.531500000000008,5.114900000095375,15.814900000095363]","[""Bus_label""]",Bus_label,1,16.8406,"[[-0.014583333333333334,-0.2074074074074074],[-0.014583333333333334,-0.2074074074074074],[-0.014583333333333334,-0.2074074074074074],[-0.014583333333333334,-0.2074074074074074],[-0.014583333333333334,-0.2074074074074074],[-0.014583333333333334,-0.2074074074074074],[-0.014583333333333334,-0.2074074074074074],[-0.014583333333333334,-0.2074074074074074],[-0.014583333333333334,-0.2074074074074074],[-0.014583333333333334,-0.2074074074074074],[-0.014583333333333334,-0.2074074074074074],[-0.014583333333333334,-0.2074074074074074],[-0.014583333333333334,-0.2074074074074074],[-0.014583333333333334,-0.2074074074074074],[-0.014583333333333334,-0.2074074074074074],[-0.014583333333333334,-0.2074074074074074],[-0.014583333333333334,-0.2074074074074074],[-0.014583333333333334,-0.2074074074074074],[-0.014583333333333334,-0.2074074074074074],[-0.014583333333333334,-0.2074074074074074],[-0.014583333333333334,-0.2074074074074074],[-0.014583333333333334,-0.2074074074074074],[-0.014583333333333334,-0.2074074074074074],[-0.014583333333333334,-0.2074074074074074],[-0.015625,-0.20925925925925926],[-0.015625,-0.20925925925925926],[-0.015625,-0.20925925925925926],[-0.015625,-0.20925925925925926],[-0.015625,-0.20925925925925926],[-0.015625,-0.20925925925925926],[-0.015625,-0.20925925925925926],[-0.015625,-0.20925925925925926],[-0.015625,-0.20925925925925926],[-0.015625,-0.20925925925925926],[-0.015625,-0.20925925925925926],[-0.015625,-0.20925925925925926],[-0.015625,-0.20925925925925926],[-0.015625,-0.20925925925925926],[-0.015625,-0.20925925925925926],[-0.015625,-0.20925925925925926],[-0.015625,-0.20925925925925926],[-0.015625,-0.20925925925925926],[-0.016666666666666666,-0.20925925925925926],[-0.01875,-0.2],[-0.021875,-0.17222222222222222],[-0.029166666666666667,-0.12407407407407407],[-0.036458333333333336,-0.08888888888888889],[-0.04479166666666667,-0.05555555555555555],[-0.052083333333333336,-0.03148148148148148],[-0.05520833333333333,-0.016666666666666666],[-0.06041666666666667,0],[-0.06979166666666667,0.027777777777777776],[-0.08020833333333334,0.05925925925925926],[-0.08333333333333333,0.06666666666666667],[-0.0875,0.07592592592592592],[-0.096875,0.09814814814814815],[-0.1125,0.12037037037037036],[-0.11770833333333333,0.1259259259259259],[-0.121875,0.12777777777777777],[-0.12291666666666666,0.12777777777777777],[-0.125,0.12777777777777777],[-0.12916666666666668,0.12222222222222222],[-0.13229166666666667,0.11481481481481481],[-0.1375,0.10740740740740741],[-0.14479166666666668,0.09259259259259259],[-0.14791666666666667,0.08333333333333333],[-0.15208333333333332,0.06851851851851852],[-0.15520833333333334,0.053703703703703705],[-0.16041666666666668,0.037037037037037035],[-0.16458333333333333,0.016666666666666666],[-0.16770833333333332,0.007407407407407408],[-0.16875,-0.005555555555555556],[-0.16979166666666667,-0.007407407407407408],[-0.16979166666666667,-0.011111111111111112],[-0.16979166666666667,-0.012962962962962963],[-0.16979166666666667,-0.012962962962962963],[-0.16979166666666667,-0.016666666666666666],[-0.16979166666666667,-0.016666666666666666],[-0.16979166666666667,-0.016666666666666666],[-0.16979166666666667,-0.016666666666666666],[-0.16979166666666667,-0.016666666666666666],[-0.16979166666666667,-0.016666666666666666],[-0.16979166666666667,-0.016666666666666666],[-0.16979166666666667,-0.016666666666666666],[-0.16979166666666667,-0.016666666666666666],[-0.16979166666666667,-0.016666666666666666],[-0.16979166666666667,-0.012962962962962963],[-0.16875,-0.005555555555555556],[-0.165625,0.003703703703703704],[-0.1625,0.012962962962962963],[-0.159375,0.022222222222222223],[-0.15520833333333334,0.03148148148148148],[-0.15416666666666667,0.03518518518518519],[-0.15208333333333332,0.03888888888888889],[-0.15208333333333332,0.04259259259259259],[-0.15104166666666666,0.04259259259259259],[-0.15104166666666666,0.04259259259259259],[-0.15104166666666666,0.04259259259259259],[-0.15104166666666666,0.04259259259259259],[-0.15,0.044444444444444446],[-0.15,0.044444444444444446],[-0.15,0.044444444444444446],[-0.15,0.044444444444444446],[-0.15,0.044444444444444446],[-0.15,0.044444444444444446],[-0.15,0.044444444444444446],[-0.15,0.044444444444444446],[-0.15,0.044444444444444446],[-0.15,0.044444444444444446],[-0.15,0.044444444444444446],[-0.15,0.044444444444444446],[-0.15,0.044444444444444446],[-0.15,0.044444444444444446],[-0.15,0.044444444444444446],[-0.15,0.044444444444444446],[-0.15,0.044444444444444446],[-0.15,0.044444444444444446],[-0.15,0.044444444444444446],[-0.15,0.044444444444444446],[-0.15,0.044444444444444446],[-0.15,0.044444444444444446],[-0.15,0.044444444444444446],[-0.15,0.044444444444444446],[-0.15,0.044444444444444446],[-0.15,0.044444444444444446],[-0.15,0.044444444444444446],[-0.15,0.044444444444444446],[-0.15,0.044444444444444446],[-0.15,0.044444444444444446],[-0.15,0.044444444444444446],[-0.15,0.044444444444444446],[-0.15,0.044444444444444446],[-0.15,0.044444444444444446],[-0.15,0.044444444444444446],[-0.15,0.044444444444444446],[-0.15,0.044444444444444446],[-0.15,0.044444444444444446],[-0.13645833333333332,0.05],[-0.12083333333333333,0.05185185185185185],[-0.10208333333333333,0.05555555555555555],[-0.078125,0.05555555555555555],[-0.040625,0.05555555555555555],[-0.01875,0.05555555555555555],[0.003125,0.05555555555555555],[0.023958333333333335,0.05555555555555555],[0.040625,0.05555555555555555],[0.05625,0.05555555555555555],[0.06458333333333334,0.05555555555555555],[0.071875,0.05555555555555555],[0.07604166666666666,0.05555555555555555],[0.07708333333333334,0.05555555555555555],[0.078125,0.05555555555555555],[0.07916666666666666,0.05555555555555555],[0.07916666666666666,0.05555555555555555],[0.07916666666666666,0.05555555555555555],[0.07916666666666666,0.05555555555555555],[0.07916666666666666,0.05555555555555555],[0.07916666666666666,0.05555555555555555],[0.07916666666666666,0.05555555555555555],[0.07916666666666666,0.05555555555555555],[0.07916666666666666,0.05555555555555555],[0.07916666666666666,0.05555555555555555],[0.07916666666666666,0.05555555555555555],[0.07916666666666666,0.05555555555555555],[0.07916666666666666,0.05555555555555555],[0.07916666666666666,0.05555555555555555],[0.07916666666666666,0.05555555555555555],[0.07916666666666666,0.05185185185185185],[0.075,0.05185185185185185],[0.07083333333333333,0.05],[0.0625,0.046296296296296294],[0.052083333333333336,0.046296296296296294],[0.03333333333333333,0.046296296296296294],[0.025,0.046296296296296294],[0.010416666666666666,0.046296296296296294],[-0.014583333333333334,0.046296296296296294],[-0.021875,0.046296296296296294],[-0.036458333333333336,0.046296296296296294],[-0.04375,0.046296296296296294],[-0.04791666666666667,0.046296296296296294],[-0.053125,0.046296296296296294],[-0.057291666666666664,0.046296296296296294],[-0.059375,0.046296296296296294],[-0.06041666666666667,0.046296296296296294],[-0.06145833333333333,0.046296296296296294],[-0.06145833333333333,0.046296296296296294],[-0.06145833333333333,0.046296296296296294],[-0.06145833333333333,0.046296296296296294],[-0.06145833333333333,0.046296296296296294],[-0.0625,0.046296296296296294],[-0.0625,0.046296296296296294],[-0.0625,0.046296296296296294],[-0.0625,0.046296296296296294],[-0.0625,0.046296296296296294],[-0.0625,0.046296296296296294],[-0.0625,0.046296296296296294],[-0.0625,0.046296296296296294],[-0.0625,0.046296296296296294],[-0.0625,0.046296296296296294],[-0.0625,0.046296296296296294],[-0.0625,0.046296296296296294],[-0.0625,0.046296296296296294],[-0.0625,0.046296296296296294],[-0.0625,0.046296296296296294],[-0.0625,0.046296296296296294],[-0.0625,0.046296296296296294],[-0.0625,0.046296296296296294],[-0.0625,0.046296296296296294],[-0.0625,0.046296296296296294],[-0.0625,0.046296296296296294],[-0.0625,0.046296296296296294],[-0.0625,0.046296296296296294],[-0.0625,0.046296296296296294],[-0.0625,0.046296296296296294],[-0.0625,0.046296296296296294],[-0.0625,0.046296296296296294],[-0.0625,0.046296296296296294],[-0.0625,0.046296296296296294],[-0.0625,0.046296296296296294],[-0.0625,0.046296296296296294],[-0.0625,0.046296296296296294],[-0.0625,0.046296296296296294],[-0.0625,0.046296296296296294],[-0.0625,0.046296296296296294],[-0.0625,0.046296296296296294],[-0.0625,0.046296296296296294],[-0.0625,0.046296296296296294],[-0.0625,0.046296296296296294],[-0.0625,0.046296296296296294],[-0.0625,0.046296296296296294],[-0.0625,0.046296296296296294],[-0.06041666666666667,0.046296296296296294],[-0.057291666666666664,0.05185185185185185],[-0.05416666666666667,0.06481481481481481],[-0.051041666666666666,0.07777777777777778],[-0.04895833333333333,0.09074074074074075],[-0.04895833333333333,0.09444444444444444],[-0.04791666666666667,0.09814814814814815],[-0.04791666666666667,0.1],[-0.04791666666666667,0.1],[-0.04791666666666667,0.1],[-0.04791666666666667,0.1],[-0.04791666666666667,0.1],[-0.04791666666666667,0.1],[-0.04791666666666667,0.1],[-0.04791666666666667,0.1],[-0.04791666666666667,0.1],[-0.04791666666666667,0.09814814814814815],[-0.04791666666666667,0.09074074074074075],[-0.04375,0.07962962962962963],[-0.041666666666666664,0.07407407407407407],[-0.03854166666666667,0.07222222222222222],[-0.03333333333333333,0.07222222222222222],[-0.026041666666666668,0.07222222222222222],[-0.014583333333333334,0.07222222222222222],[-0.010416666666666666,0.07222222222222222],[-0.008333333333333333,0.07222222222222222],[-0.00625,0.07037037037037037],[-0.00625,0.07037037037037037],[-0.00625,0.07037037037037037],[-0.00625,0.07037037037037037],[-0.00625,0.07037037037037037],[-0.00625,0.07037037037037037],[-0.00625,0.07037037037037037],[-0.00625,0.07037037037037037],[0.0010416666666666667,0.07037037037037037],[0.014583333333333334,0.07037037037037037],[0.03854166666666667,0.06666666666666667],[0.05520833333333333,0.06296296296296296],[0.06979166666666667,0.05740740740740741],[0.075,0.05740740740740741],[0.075,0.05740740740740741],[0.075,0.05740740740740741],[0.075,0.05740740740740741],[0.075,0.05740740740740741],[0.075,0.05740740740740741],[0.075,0.05740740740740741],[0.075,0.05740740740740741],[0.075,0.05740740740740741],[0.075,0.05740740740740741],[0.075,0.05740740740740741],[0.07708333333333334,0.05740740740740741],[0.084375,0.05740740740740741],[0.09479166666666666,0.05740740740740741],[0.11145833333333334,0.06111111111111111],[0.13020833333333334,0.06111111111111111],[0.140625,0.06111111111111111],[0.14479166666666668,0.06111111111111111],[0.14895833333333333,0.06111111111111111],[0.15104166666666666,0.06111111111111111],[0.153125,0.06111111111111111],[0.15416666666666667,0.06111111111111111],[0.15416666666666667,0.06111111111111111],[0.15416666666666667,0.06111111111111111],[0.15416666666666667,0.06111111111111111],[0.15416666666666667,0.06111111111111111],[0.15416666666666667,0.06111111111111111],[0.15416666666666667,0.06111111111111111],[0.15416666666666667,0.06111111111111111],[0.15416666666666667,0.06111111111111111],[0.15416666666666667,0.06111111111111111],[0.15416666666666667,0.06111111111111111],[0.15416666666666667,0.06111111111111111],[0.15416666666666667,0.06111111111111111],[0.15416666666666667,0.06111111111111111],[0.15416666666666667,0.06111111111111111],[0.15416666666666667,0.06111111111111111],[0.15416666666666667,0.06111111111111111],[0.15416666666666667,0.06111111111111111],[0.15416666666666667,0.06111111111111111],[0.15416666666666667,0.06111111111111111],[0.15416666666666667,0.06111111111111111],[0.15208333333333332,0.06111111111111111],[0.14479166666666668,0.06111111111111111],[0.13645833333333332,0.06111111111111111],[0.12708333333333333,0.06111111111111111],[0.121875,0.06111111111111111],[0.11875,0.06111111111111111],[0.11666666666666667,0.06111111111111111],[0.115625,0.06296296296296296],[0.115625,0.06296296296296296],[0.1125,0.06296296296296296],[0.11145833333333334,0.06296296296296296],[0.11145833333333334,0.06296296296296296],[0.11145833333333334,0.06296296296296296],[0.11145833333333334,0.06296296296296296],[0.11145833333333334,0.06296296296296296],[0.11145833333333334,0.06296296296296296],[0.11145833333333334,0.06296296296296296],[0.11145833333333334,0.06296296296296296],[0.11145833333333334,0.06296296296296296],[0.11145833333333334,0.06481481481481481],[0.115625,0.06851851851851852],[0.12708333333333333,0.08148148148148149],[0.13541666666666666,0.08888888888888889],[0.14270833333333333,0.09814814814814815],[0.14791666666666667,0.10555555555555556],[0.15416666666666667,0.11296296296296296],[0.15729166666666666,0.11666666666666667],[0.16145833333333334,0.12222222222222222],[0.16458333333333333,0.12407407407407407],[0.16458333333333333,0.12407407407407407],[0.16458333333333333,0.12407407407407407],[0.16458333333333333,0.12407407407407407],[0.16458333333333333,0.12407407407407407],[0.16458333333333333,0.12407407407407407],[0.16458333333333333,0.12407407407407407],[0.16458333333333333,0.1259259259259259],[0.165625,0.12777777777777777],[0.16666666666666666,0.13333333333333333],[0.16770833333333332,0.1388888888888889],[0.16875,0.1388888888888889],[0.16875,0.14074074074074075],[0.16875,0.14074074074074075],[0.16979166666666667,0.1425925925925926],[0.16979166666666667,0.14444444444444443],[0.17083333333333334,0.14629629629629629],[0.17083333333333334,0.15],[0.171875,0.15555555555555556],[0.171875,0.15555555555555556],[0.171875,0.15555555555555556],[0.171875,0.15555555555555556],[0.171875,0.15555555555555556],[0.171875,0.15555555555555556],[0.171875,0.15555555555555556],[0.171875,0.15555555555555556],[0.171875,0.15555555555555556],[0.171875,0.15555555555555556],[0.171875,0.15555555555555556],[0.171875,0.15555555555555556],[0.171875,0.15555555555555556],[0.171875,0.15555555555555556],[0.171875,0.15555555555555556],[0.171875,0.15555555555555556],[0.171875,0.15555555555555556],[0.171875,0.15555555555555556],[0.171875,0.15555555555555556],[0.171875,0.15555555555555556],[0.171875,0.15555555555555556],[0.171875,0.15555555555555556],[0.171875,0.15555555555555556],[0.171875,0.15555555555555556],[0.171875,0.15555555555555556],[0.171875,0.15555555555555556],[0.171875,0.15555555555555556],[0.171875,0.15555555555555556],[0.171875,0.15555555555555556],[0.171875,0.15555555555555556],[0.171875,0.15555555555555556],[0.171875,0.15555555555555556],[0.171875,0.15555555555555556],[0.171875,0.15555555555555556],[0.16770833333333332,0.15555555555555556],[0.1625,0.15555555555555556],[0.15520833333333334,0.15555555555555556],[0.146875,0.15555555555555556],[0.13333333333333333,0.15555555555555556],[0.12083333333333333,0.15555555555555556],[0.10833333333333334,0.15555555555555556],[0.096875,0.15555555555555556],[0.08645833333333333,0.1537037037037037],[0.07604166666666666,0.15],[0.06666666666666667,0.14629629629629629],[0.0625,0.14444444444444443],[0.058333333333333334,0.14444444444444443],[0.052083333333333336,0.14074074074074075],[0.04375,0.13333333333333333],[0.036458333333333336,0.12777777777777777],[0.03229166666666667,0.12222222222222222],[0.027083333333333334,0.11481481481481481],[0.022916666666666665,0.1111111111111111],[0.01875,0.1],[0.017708333333333333,0.09259259259259259],[0.017708333333333333,0.08703703703703704],[0.017708333333333333,0.07777777777777778],[0.017708333333333333,0.06296296296296296],[0.017708333333333333,0.04814814814814815],[0.017708333333333333,0.025925925925925925],[0.020833333333333332,0.016666666666666666],[0.020833333333333332,0.009259259259259259],[0.020833333333333332,0.003703703703703704],[0.020833333333333332,0.001851851851851852],[0.020833333333333332,0],[0.020833333333333332,-0.005555555555555556],[0.019791666666666666,-0.011111111111111112],[0.013541666666666667,-0.020370370370370372],[0.0020833333333333333,-0.03148148148148148],[-0.008333333333333333,-0.037037037037037035],[-0.0125,-0.037037037037037035],[-0.025,-0.040740740740740744],[-0.028125,-0.044444444444444446],[-0.03229166666666667,-0.044444444444444446],[-0.035416666666666666,-0.044444444444444446],[-0.03854166666666667,-0.046296296296296294],[-0.03958333333333333,-0.046296296296296294],[-0.040625,-0.04814814814814815],[-0.041666666666666664,-0.04814814814814815],[-0.041666666666666664,-0.04814814814814815],[-0.041666666666666664,-0.04814814814814815],[-0.041666666666666664,-0.04814814814814815],[-0.041666666666666664,-0.04814814814814815],[-0.041666666666666664,-0.04814814814814815],[-0.041666666666666664,-0.04814814814814815],[-0.041666666666666664,-0.04814814814814815],[-0.041666666666666664,-0.04814814814814815],[-0.041666666666666664,-0.04814814814814815],[-0.041666666666666664,-0.04814814814814815],[-0.041666666666666664,-0.04814814814814815],[-0.041666666666666664,-0.04814814814814815],[-0.041666666666666664,-0.04814814814814815],[-0.041666666666666664,-0.04814814814814815],[-0.041666666666666664,-0.04814814814814815],[-0.041666666666666664,-0.04814814814814815],[-0.041666666666666664,-0.04814814814814815],[-0.041666666666666664,-0.04814814814814815],[-0.041666666666666664,-0.04814814814814815],[-0.041666666666666664,-0.04814814814814815],[-0.041666666666666664,-0.04814814814814815],[-0.041666666666666664,-0.04814814814814815],[-0.041666666666666664,-0.04814814814814815],[-0.041666666666666664,-0.04814814814814815],[-0.041666666666666664,-0.04814814814814815],[-0.041666666666666664,-0.04814814814814815],[-0.041666666666666664,-0.04814814814814815],[-0.041666666666666664,-0.04814814814814815],[-0.041666666666666664,-0.04814814814814815],[-0.041666666666666664,-0.04814814814814815],[-0.041666666666666664,-0.04814814814814815],[-0.041666666666666664,-0.04814814814814815],[-0.041666666666666664,-0.04814814814814815],[-0.041666666666666664,-0.04814814814814815],[-0.041666666666666664,-0.04814814814814815],[-0.041666666666666664,-0.04814814814814815],[-0.041666666666666664,-0.04814814814814815],[-0.041666666666666664,-0.04814814814814815],[-0.041666666666666664,-0.04814814814814815],[-0.041666666666666664,-0.04814814814814815],[-0.041666666666666664,-0.04814814814814815],[-0.041666666666666664,-0.04814814814814815],[-0.041666666666666664,-0.04814814814814815],[-0.041666666666666664,-0.04814814814814815],[-0.041666666666666664,-0.04814814814814815],[-0.041666666666666664,-0.04814814814814815],[-0.041666666666666664,-0.04814814814814815],[-0.04375,-0.04814814814814815],[-0.04479166666666667,-0.04814814814814815],[-0.04583333333333333,-0.046296296296296294],[-0.046875,-0.044444444444444446],[-0.04791666666666667,-0.044444444444444446],[-0.04791666666666667,-0.04259259259259259],[-0.05,-0.03888888888888889],[-0.05,-0.03888888888888889],[-0.051041666666666666,-0.037037037037037035],[-0.051041666666666666,-0.037037037037037035],[-0.051041666666666666,-0.037037037037037035],[-0.051041666666666666,-0.037037037037037035],[-0.051041666666666666,-0.037037037037037035],[-0.051041666666666666,-0.037037037037037035],[-0.051041666666666666,-0.037037037037037035],[-0.051041666666666666,-0.037037037037037035],[-0.052083333333333336,-0.037037037037037035],[-0.052083333333333336,-0.037037037037037035],[-0.052083333333333336,-0.037037037037037035],[-0.052083333333333336,-0.037037037037037035],[-0.052083333333333336,-0.037037037037037035],[-0.052083333333333336,-0.037037037037037035],[-0.052083333333333336,-0.037037037037037035],[-0.052083333333333336,-0.037037037037037035],[-0.053125,-0.03518518518518519],[-0.053125,-0.027777777777777776],[-0.053125,-0.020370370370370372],[-0.053125,-0.014814814814814815],[-0.051041666666666666,-0.003703703703703704],[-0.046875,0.020370370370370372],[-0.041666666666666664,0.03888888888888889],[-0.0375,0.05555555555555555],[-0.035416666666666666,0.06851851851851852],[-0.03333333333333333,0.07777777777777778],[-0.03229166666666667,0.08518518518518518],[-0.03125,0.08888888888888889],[-0.03125,0.09259259259259259],[-0.03125,0.09259259259259259],[-0.03125,0.09259259259259259],[-0.03125,0.09259259259259259],[-0.03125,0.09259259259259259],[-0.03125,0.09259259259259259],[-0.03125,0.09259259259259259],[-0.03125,0.09259259259259259],[-0.03125,0.09259259259259259],[-0.03125,0.09259259259259259],[-0.03125,0.09259259259259259],[-0.03125,0.09259259259259259],[-0.03125,0.09259259259259259],[-0.03125,0.09259259259259259],[-0.03125,0.09259259259259259],[-0.03125,0.09259259259259259],[-0.03125,0.09259259259259259],[-0.03125,0.09259259259259259],[-0.03125,0.09259259259259259],[-0.03229166666666667,0.09259259259259259],[-0.03333333333333333,0.09259259259259259],[-0.035416666666666666,0.09074074074074075],[-0.03958333333333333,0.09074074074074075],[-0.040625,0.08703703703703704],[-0.04479166666666667,0.08518518518518518],[-0.04791666666666667,0.08333333333333333],[-0.05416666666666667,0.07962962962962963],[-0.05625,0.07962962962962963],[-0.06145833333333333,0.07592592592592592],[-0.06666666666666667,0.06666666666666667],[-0.07083333333333333,0.06296296296296296],[-0.07395833333333333,0.05555555555555555],[-0.07708333333333334,0.04259259259259259],[-0.08125,0.027777777777777776],[-0.084375,0.014814814814814815],[-0.0875,-0.003703703703703704],[-0.090625,-0.025925925925925925],[-0.09270833333333334,-0.037037037037037035],[-0.09270833333333334,-0.05],[-0.09375,-0.06296296296296296],[-0.09583333333333334,-0.07592592592592592],[-0.096875,-0.0962962962962963],[-0.09791666666666667,-0.11296296296296296],[-0.09791666666666667,-0.12777777777777777],[-0.09791666666666667,-0.1388888888888889],[-0.09791666666666667,-0.14629629629629629],[-0.09791666666666667,-0.15185185185185185],[-0.09791666666666667,-0.1574074074074074],[-0.09583333333333334,-0.1648148148148148],[-0.09479166666666666,-0.1685185185185185],[-0.09270833333333334,-0.17037037037037037],[-0.09166666666666666,-0.17222222222222222],[-0.08958333333333333,-0.17592592592592593],[-0.08958333333333333,-0.17592592592592593],[-0.08645833333333333,-0.17592592592592593],[-0.084375,-0.17592592592592593],[-0.08020833333333334,-0.17592592592592593],[-0.07708333333333334,-0.17592592592592593],[-0.07291666666666667,-0.17777777777777778],[-0.06979166666666667,-0.17777777777777778],[-0.06666666666666667,-0.17777777777777778],[-0.0625,-0.17777777777777778],[-0.059375,-0.17777777777777778],[-0.057291666666666664,-0.17777777777777778],[-0.05625,-0.17777777777777778],[-0.05416666666666667,-0.17777777777777778],[-0.053125,-0.17777777777777778],[-0.051041666666666666,-0.17777777777777778],[-0.04895833333333333,-0.17777777777777778],[-0.04375,-0.17777777777777778],[-0.03854166666666667,-0.17777777777777778],[-0.03125,-0.17777777777777778],[-0.022916666666666665,-0.17777777777777778],[-0.007291666666666667,-0.17777777777777778],[-0.0010416666666666667,-0.17777777777777778],[0.010416666666666666,-0.17777777777777778],[0.019791666666666666,-0.17777777777777778],[0.027083333333333334,-0.17777777777777778],[0.03229166666666667,-0.17962962962962964],[0.035416666666666666,-0.17962962962962964],[0.0375,-0.17962962962962964],[0.03854166666666667,-0.17962962962962964],[0.03958333333333333,-0.17962962962962964],[0.040625,-0.17962962962962964],[0.041666666666666664,-0.17962962962962964],[0.042708333333333334,-0.17962962962962964],[0.04479166666666667,-0.1814814814814815],[0.04479166666666667,-0.1814814814814815],[0.04479166666666667,-0.1814814814814815],[0.04479166666666667,-0.1814814814814815],[0.04479166666666667,-0.1814814814814815],[0.04479166666666667,-0.1814814814814815],[0.04479166666666667,-0.1814814814814815],[0.04479166666666667,-0.1814814814814815],[0.04479166666666667,-0.1814814814814815],[0.04479166666666667,-0.1814814814814815],[0.04479166666666667,-0.1814814814814815],[0.04479166666666667,-0.1814814814814815],[0.04479166666666667,-0.1814814814814815],[0.04479166666666667,-0.1814814814814815],[0.04479166666666667,-0.1814814814814815],[0.04479166666666667,-0.1814814814814815],[0.04479166666666667,-0.1814814814814815],[0.04479166666666667,-0.1814814814814815],[0.04479166666666667,-0.1814814814814815],[0.04479166666666667,-0.1814814814814815],[0.04479166666666667,-0.1814814814814815],[0.04479166666666667,-0.1814814814814815],[0.04479166666666667,-0.1814814814814815],[0.04479166666666667,-0.1814814814814815],[0.04479166666666667,-0.1814814814814815],[0.04479166666666667,-0.1814814814814815],[0.04479166666666667,-0.1814814814814815],[0.04479166666666667,-0.1814814814814815],[0.04479166666666667,-0.1814814814814815],[0.04479166666666667,-0.1814814814814815],[0.04479166666666667,-0.1814814814814815],[0.04479166666666667,-0.1814814814814815],[0.04479166666666667,-0.1814814814814815],[0.04479166666666667,-0.1814814814814815],[0.04479166666666667,-0.1814814814814815],[0.04479166666666667,-0.1814814814814815],[0.04479166666666667,-0.1814814814814815],[0.04479166666666667,-0.1814814814814815],[0.04479166666666667,-0.1814814814814815],[0.04479166666666667,-0.1814814814814815],[0.04479166666666667,-0.1814814814814815],[0.04479166666666667,-0.1814814814814815],[0.04479166666666667,-0.1814814814814815],[0.04479166666666667,-0.1814814814814815],[0.04479166666666667,-0.1814814814814815],[0.04479166666666667,-0.1814814814814815],[0.04479166666666667,-0.1814814814814815],[0.04479166666666667,-0.1814814814814815],[0.04479166666666667,-0.1814814814814815],[0.04583333333333333,-0.1814814814814815],[0.04791666666666667,-0.1814814814814815],[0.04791666666666667,-0.17962962962962964],[0.04791666666666667,-0.17962962962962964],[0.04791666666666667,-0.17962962962962964],[0.04791666666666667,-0.17777777777777778],[0.04791666666666667,-0.17777777777777778],[0.04791666666666667,-0.17777777777777778],[0.04791666666666667,-0.17777777777777778],[0.04791666666666667,-0.17777777777777778],[0.04791666666666667,-0.17777777777777778],[0.04791666666666667,-0.17777777777777778],[0.04791666666666667,-0.17777777777777778],[0.04791666666666667,-0.17777777777777778],[0.04791666666666667,-0.17777777777777778],[0.04791666666666667,-0.17777777777777778],[0.04791666666666667,-0.17777777777777778],[0.04791666666666667,-0.17777777777777778],[0.04791666666666667,-0.17777777777777778],[0.04791666666666667,-0.17777777777777778],[0.04791666666666667,-0.17777777777777778],[0.04791666666666667,-0.17777777777777778],[0.04895833333333333,-0.17407407407407408],[0.05,-0.17037037037037037],[0.051041666666666666,-0.16111111111111112],[0.051041666666666666,-0.1537037037037037],[0.051041666666666666,-0.14629629629629629],[0.052083333333333336,-0.12777777777777777],[0.05416666666666667,-0.11666666666666667],[0.05416666666666667,-0.1037037037037037],[0.05416666666666667,-0.09074074074074075],[0.05416666666666667,-0.08333333333333333],[0.05416666666666667,-0.07037037037037037],[0.05416666666666667,-0.06111111111111111],[0.05416666666666667,-0.046296296296296294],[0.05416666666666667,-0.03148148148148148],[0.05416666666666667,-0.020370370370370372],[0.05416666666666667,-0.011111111111111112],[0.05416666666666667,-0.003703703703703704],[0.05416666666666667,0.003703703703703704],[0.05416666666666667,0.007407407407407408],[0.05416666666666667,0.009259259259259259],[0.05416666666666667,0.009259259259259259],[0.05416666666666667,0.011111111111111112],[0.05416666666666667,0.011111111111111112],[0.05416666666666667,0.012962962962962963],[0.05416666666666667,0.012962962962962963],[0.05416666666666667,0.014814814814814815],[0.05416666666666667,0.016666666666666666],[0.05416666666666667,0.018518518518518517],[0.05416666666666667,0.022222222222222223],[0.05520833333333333,0.02962962962962963],[0.05520833333333333,0.03333333333333333],[0.05520833333333333,0.037037037037037035],[0.05520833333333333,0.04259259259259259],[0.05520833333333333,0.046296296296296294],[0.05520833333333333,0.04814814814814815],[0.05520833333333333,0.04814814814814815],[0.05520833333333333,0.05185185185185185],[0.05520833333333333,0.05185185185185185],[0.05520833333333333,0.05185185185185185],[0.05520833333333333,0.05185185185185185],[0.05520833333333333,0.05185185185185185],[0.05520833333333333,0.05185185185185185],[0.05520833333333333,0.05185185185185185],[0.05520833333333333,0.05185185185185185],[0.05520833333333333,0.05185185185185185],[0.05520833333333333,0.05185185185185185],[0.05520833333333333,0.05185185185185185],[0.05520833333333333,0.05185185185185185],[0.05520833333333333,0.05185185185185185],[0.05520833333333333,0.05185185185185185],[0.05520833333333333,0.05185185185185185],[0.05520833333333333,0.05185185185185185],[0.05520833333333333,0.05185185185185185],[0.05520833333333333,0.05185185185185185],[0.05520833333333333,0.05185185185185185],[0.05520833333333333,0.05185185185185185],[0.05520833333333333,0.05185185185185185],[0.05520833333333333,0.05185185185185185],[0.05520833333333333,0.05185185185185185],[0.05520833333333333,0.05185185185185185],[0.05520833333333333,0.05185185185185185],[0.05520833333333333,0.05185185185185185],[0.05520833333333333,0.05185185185185185],[0.05520833333333333,0.05185185185185185],[0.05520833333333333,0.05185185185185185],[0.05520833333333333,0.05185185185185185],[0.05520833333333333,0.05185185185185185],[0.05520833333333333,0.05185185185185185],[0.05520833333333333,0.05185185185185185],[0.05520833333333333,0.05185185185185185],[0.05520833333333333,0.05185185185185185],[0.05520833333333333,0.05185185185185185],[0.05520833333333333,0.05185185185185185],[0.05520833333333333,0.05185185185185185],[0.05520833333333333,0.05185185185185185],[0.05520833333333333,0.05185185185185185],[0.05520833333333333,0.05185185185185185],[0.05520833333333333,0.05185185185185185],[0.05520833333333333,0.05185185185185185],[0.05520833333333333,0.05185185185185185],[0.05520833333333333,0.05185185185185185],[0.05520833333333333,0.05185185185185185],[0.05520833333333333,0.05185185185185185],[0.05520833333333333,0.05185185185185185],[0.05520833333333333,0.053703703703703705],[0.05416666666666667,0.05555555555555555],[0.05,0.05555555555555555],[0.04479166666666667,0.05555555555555555],[0.040625,0.05925925925925926],[0.03229166666666667,0.06111111111111111],[0.027083333333333334,0.06111111111111111],[0.019791666666666666,0.06111111111111111],[0.011458333333333333,0.06111111111111111],[0.0010416666666666667,0.06111111111111111],[-0.009375,0.06111111111111111],[-0.020833333333333332,0.06111111111111111],[-0.03125,0.06111111111111111],[-0.04583333333333333,0.06111111111111111],[-0.05520833333333333,0.06111111111111111],[-0.06041666666666667,0.06111111111111111],[-0.06354166666666666,0.06111111111111111],[-0.06979166666666667,0.06111111111111111],[-0.071875,0.06111111111111111],[-0.07604166666666666,0.06111111111111111],[-0.078125,0.06111111111111111],[-0.08125,0.06111111111111111],[-0.084375,0.06111111111111111],[-0.08541666666666667,0.06111111111111111],[-0.08541666666666667,0.06111111111111111],[-0.08645833333333333,0.06111111111111111],[-0.08645833333333333,0.06111111111111111],[-0.08645833333333333,0.06111111111111111],[-0.08645833333333333,0.06111111111111111],[-0.08645833333333333,0.06111111111111111],[-0.08645833333333333,0.06111111111111111],[-0.08645833333333333,0.06111111111111111],[-0.08645833333333333,0.06111111111111111],[-0.08645833333333333,0.06111111111111111],[-0.08645833333333333,0.06111111111111111],[-0.08645833333333333,0.06111111111111111],[-0.08645833333333333,0.06111111111111111],[-0.08645833333333333,0.06111111111111111],[-0.08645833333333333,0.06111111111111111],[-0.08645833333333333,0.06111111111111111],[-0.08645833333333333,0.06111111111111111],[-0.08645833333333333,0.06111111111111111],[-0.08645833333333333,0.06111111111111111],[-0.08645833333333333,0.06111111111111111],[-0.08645833333333333,0.06111111111111111],[-0.08645833333333333,0.06111111111111111],[-0.08645833333333333,0.06111111111111111],[-0.08645833333333333,0.06111111111111111],[-0.08645833333333333,0.06111111111111111],[-0.08645833333333333,0.06111111111111111],[-0.08645833333333333,0.06111111111111111],[-0.08645833333333333,0.06111111111111111],[-0.08645833333333333,0.06111111111111111],[-0.08645833333333333,0.06111111111111111],[-0.08645833333333333,0.06111111111111111],[-0.08645833333333333,0.06111111111111111],[-0.08645833333333333,0.06111111111111111],[-0.08645833333333333,0.06111111111111111],[-0.08645833333333333,0.06111111111111111],[-0.08645833333333333,0.06111111111111111],[-0.08645833333333333,0.06111111111111111],[-0.08645833333333333,0.06111111111111111],[-0.08645833333333333,0.06111111111111111],[-0.08645833333333333,0.06111111111111111],[-0.08645833333333333,0.06111111111111111],[-0.08645833333333333,0.06111111111111111],[-0.08645833333333333,0.06111111111111111],[-0.08645833333333333,0.06111111111111111],[-0.08645833333333333,0.06111111111111111],[-0.08645833333333333,0.06111111111111111],[-0.08645833333333333,0.06111111111111111],[-0.08645833333333333,0.06111111111111111],[-0.08645833333333333,0.06111111111111111],[-0.08645833333333333,0.06111111111111111],[-0.08645833333333333,0.06111111111111111],[-0.08645833333333333,0.06111111111111111],[-0.08645833333333333,0.06111111111111111],[-0.08645833333333333,0.06111111111111111],[-0.08645833333333333,0.06111111111111111],[-0.08645833333333333,0.06111111111111111],[-0.08645833333333333,0.06111111111111111],[-0.08645833333333333,0.06111111111111111],[-0.08645833333333333,0.06111111111111111],[-0.08645833333333333,0.06111111111111111],[-0.084375,0.06296296296296296],[-0.078125,0.06666666666666667],[-0.06979166666666667,0.06666666666666667],[-0.058333333333333334,0.06851851851851852],[-0.04479166666666667,0.06851851851851852],[-0.023958333333333335,0.06851851851851852],[-0.014583333333333334,0.06851851851851852],[-0.005208333333333333,0.06851851851851852],[0.004166666666666667,0.06851851851851852],[0.011458333333333333,0.06851851851851852],[0.021875,0.06666666666666667],[0.03333333333333333,0.06481481481481481],[0.03958333333333333,0.06481481481481481],[0.051041666666666666,0.05925925925925926],[0.05416666666666667,0.05925925925925926],[0.05625,0.05740740740740741],[0.057291666666666664,0.05740740740740741],[0.058333333333333334,0.05740740740740741],[0.058333333333333334,0.05740740740740741],[0.058333333333333334,0.05740740740740741],[0.058333333333333334,0.05740740740740741],[0.058333333333333334,0.05740740740740741],[0.058333333333333334,0.05740740740740741],[0.058333333333333334,0.05740740740740741],[0.058333333333333334,0.05740740740740741],[0.058333333333333334,0.05740740740740741],[0.058333333333333334,0.05740740740740741],[0.058333333333333334,0.05740740740740741],[0.058333333333333334,0.05740740740740741],[0.058333333333333334,0.05740740740740741],[0.058333333333333334,0.05740740740740741],[0.058333333333333334,0.05740740740740741],[0.058333333333333334,0.05740740740740741],[0.058333333333333334,0.05740740740740741],[0.058333333333333334,0.05740740740740741],[0.058333333333333334,0.05740740740740741],[0.058333333333333334,0.05740740740740741],[0.058333333333333334,0.05740740740740741],[0.058333333333333334,0.05740740740740741],[0.058333333333333334,0.05740740740740741],[0.058333333333333334,0.05740740740740741],[0.058333333333333334,0.05740740740740741],[0.058333333333333334,0.05740740740740741],[0.058333333333333334,0.05740740740740741],[0.058333333333333334,0.05740740740740741],[0.058333333333333334,0.05740740740740741],[0.058333333333333334,0.05740740740740741],[0.058333333333333334,0.05740740740740741],[0.058333333333333334,0.05740740740740741],[0.058333333333333334,0.05555555555555555],[0.05520833333333333,0.053703703703703705],[0.05,0.05185185185185185],[0.0375,0.05],[0.015625,0.05],[0,0.05],[-0.015625,0.05],[-0.029166666666666667,0.05],[-0.040625,0.05],[-0.052083333333333336,0.05],[-0.059375,0.05],[-0.065625,0.05],[-0.07083333333333333,0.05],[-0.07395833333333333,0.05],[-0.07604166666666666,0.05],[-0.07604166666666666,0.05],[-0.07604166666666666,0.05],[-0.07604166666666666,0.05],[-0.07604166666666666,0.05],[-0.07604166666666666,0.05],[-0.07604166666666666,0.05],[-0.07604166666666666,0.05],[-0.07604166666666666,0.05],[-0.07604166666666666,0.05],[-0.07604166666666666,0.05],[-0.07604166666666666,0.05],[-0.07604166666666666,0.05],[-0.07604166666666666,0.05],[-0.07604166666666666,0.05],[-0.07604166666666666,0.05],[-0.07604166666666666,0.05],[-0.07604166666666666,0.05],[-0.07604166666666666,0.05],[-0.07604166666666666,0.05],[-0.075,0.06111111111111111],[-0.06979166666666667,0.08518518518518518],[-0.06458333333333334,0.1037037037037037],[-0.057291666666666664,0.13148148148148148],[-0.05625,0.1388888888888889],[-0.05416666666666667,0.14444444444444443],[-0.05416666666666667,0.15],[-0.053125,0.15185185185185185],[-0.053125,0.15185185185185185],[-0.053125,0.15185185185185185],[-0.053125,0.15185185185185185],[-0.053125,0.15185185185185185],[-0.053125,0.15185185185185185],[-0.053125,0.15185185185185185],[-0.052083333333333336,0.15185185185185185],[-0.04895833333333333,0.1574074074074074],[-0.04895833333333333,0.1574074074074074],[-0.04895833333333333,0.1574074074074074],[-0.04895833333333333,0.1574074074074074],[-0.04895833333333333,0.1574074074074074],[-0.04895833333333333,0.1574074074074074],[-0.04895833333333333,0.1574074074074074],[-0.04895833333333333,0.16296296296296298],[-0.04895833333333333,0.17592592592592593],[-0.04895833333333333,0.1925925925925926],[-0.04791666666666667,0.2111111111111111],[-0.046875,0.22777777777777777],[-0.04375,0.24444444444444444],[-0.042708333333333334,0.2537037037037037],[-0.040625,0.26296296296296295],[-0.03854166666666667,0.2759259259259259],[-0.036458333333333336,0.2833333333333333],[-0.03229166666666667,0.29444444444444445],[-0.030208333333333334,0.30185185185185187],[-0.023958333333333335,0.3074074074074074],[-0.015625,0.31296296296296294],[-0.008333333333333333,0.31296296296296294],[-0.003125,0.31296296296296294],[-0.0010416666666666667,0.31296296296296294],[0.0010416666666666667,0.31296296296296294],[0.003125,0.3111111111111111],[0.004166666666666667,0.3074074074074074],[0.004166666666666667,0.3037037037037037],[0.00625,0.30185185185185187],[0.00625,0.3],[0.007291666666666667,0.2962962962962963],[0.009375,0.29259259259259257],[0.011458333333333333,0.28703703703703703],[0.014583333333333334,0.2777777777777778],[0.017708333333333333,0.26666666666666666],[0.021875,0.25555555555555554],[0.022916666666666665,0.2518518518518518],[0.023958333333333335,0.2462962962962963],[0.025,0.2462962962962963],[0.027083333333333334,0.24074074074074073],[0.029166666666666667,0.23703703703703705],[0.03125,0.23148148148148148],[0.035416666666666666,0.22037037037037038],[0.03958333333333333,0.2111111111111111],[0.04375,0.20185185185185187],[0.046875,0.19074074074074074],[0.04895833333333333,0.18888888888888888],[0.04895833333333333,0.18518518518518517],[0.04895833333333333,0.18518518518518517],[0.04895833333333333,0.18518518518518517],[0.04895833333333333,0.18518518518518517],[0.04895833333333333,0.18518518518518517],[0.04895833333333333,0.18518518518518517],[0.04895833333333333,0.18518518518518517],[0.04895833333333333,0.18518518518518517],[0.04895833333333333,0.18518518518518517],[0.04895833333333333,0.18518518518518517],[0.04895833333333333,0.18518518518518517],[0.04895833333333333,0.18518518518518517],[0.04895833333333333,0.18518518518518517],[0.04895833333333333,0.18518518518518517],[0.04895833333333333,0.18518518518518517],[0.04895833333333333,0.18518518518518517],[0.04895833333333333,0.18518518518518517],[0.04895833333333333,0.18518518518518517],[0.04895833333333333,0.18518518518518517],[0.04895833333333333,0.18518518518518517]]","[[-0.0390625,0.01629629629629621],[-0.0390625,0.01629629629629621],[-0.024374999999999977,0.00851851851851856],[-0.009687499999999953,0.0007407407407406986],[0.007395833333333357,-0.0418518518518519],[0.024895833333333308,-0.09500000000000001],[0.02322916666666662,-0.12185185185185188],[0.009583333333333381,-0.1259259259259259],[0.0012500000000000473,-0.125],[-0.0003124999999999526,-0.1559259259259259],[-0.0018749999999999527,-0.1868518518518518],[-0.006562499999999953,-0.1735185185185185],[-0.011249999999999953,-0.18870370370370365],[-0.016666666666666666,-0.21222222222222226],[-0.016666666666666666,-0.21222222222222226],[-0.019479166666666714,-0.22166666666666665],[-0.019479166666666714,-0.22166666666666665],[-0.01739583333333338,-0.19666666666666666],[-0.01260416666666669,-0.20259259259259255],[-0.013229166666666714,-0.20851851851851855],[-0.010208333333333286,-0.23629629629629634],[-0.011874999999999976,-0.24222222222222226],[-0.01895833333333338,-0.24111111111111108],[-0.0125,-0.24833333333333338],[-0.012916666666666642,-0.25037037037037035],[-0.0002083333333333807,-0.22666666666666663],[0.00635416666666669,-0.25018518518518523],[0.0005208333333333333,-0.2381481481481482],[-0.010416666666666666,-0.2227777777777778],[-0.02510416666666669,-0.23499999999999996],[-0.0421875,-0.22629629629629627],[-0.04885416666666664,-0.18777777777777774],[-0.044166666666666646,-0.16074074074074077],[-0.05947916666666669,-0.14296296296296293],[-0.05947916666666669,-0.14296296296296293],[-0.06656249999999998,-0.13444444444444448],[-0.06656249999999998,-0.13444444444444448],[-0.0859375,-0.16203703703703703],[-0.0859375,-0.16203703703703703],[-0.090625,-0.12166666666666665],[-0.090625,-0.12166666666666665],[-0.08791666666666664,-0.12629629629629627],[-0.08791666666666664,-0.12629629629629627],[-0.07999999999999995,-0.08333333333333333],[-0.07999999999999995,-0.08333333333333333],[-0.07124999999999998,-0.01722222222222214],[-0.060000000000000026,0.039629629629629584],[-0.06208333333333336,0.05814814814814811],[-0.08187500000000002,0.06777777777777783],[-0.07854166666666665,0.06740740740740736],[-0.07864583333333333,0.06833333333333329],[-0.0860416666666667,0.11500000000000005],[-0.0860416666666667,0.11500000000000005],[-0.09500000000000004,0.1300000000000001],[-0.09500000000000004,0.1300000000000001],[-0.13177083333333334,0.13740740740740748],[-0.13270833333333332,0.09370370370370375],[-0.1330208333333334,0.05592592592592601],[-0.13270833333333332,0.014629629629629588],[-0.140625,-0.02907407407407416],[-0.13312499999999997,-0.06074074074074076],[-0.13052083333333328,-0.06425925925925924],[-0.1258333333333333,-0.06500000000000004],[-0.11354166666666667,-0.1257407407407407],[-0.11875,-0.15907407407407403],[-0.09208333333333331,-0.19018518518518515],[-0.09208333333333331,-0.19018518518518515],[-0.07468750000000005,-0.22777777777777777],[-0.10666666666666665,-0.22981481481481486],[-0.1430208333333333,-0.21814814814814817],[-0.13322916666666665,-0.2044444444444444],[-0.12729166666666672,-0.1985185185185185],[-0.13708333333333336,-0.23981481481481481],[-0.15812499999999996,-0.22981481481481486],[-0.1829166666666667,-0.17833333333333334],[-0.19697916666666668,-0.12999999999999998],[-0.19416666666666665,-0.1161111111111111],[-0.22749999999999998,-0.08537037037037042],[-0.21458333333333332,-0.09148148148148144],[-0.19479166666666667,-0.09592592592592594],[-0.21000000000000002,-0.09148148148148144],[-0.23385416666666667,-0.08740740740740739],[-0.23854166666666668,-0.0485185185185186],[-0.23718750000000005,-0.048333333333333374],[-0.23250000000000004,-0.056666666666666705],[-0.20874999999999996,-0.05851851851851856],[-0.20604166666666662,-0.05648148148148148],[-0.16906249999999995,-0.05129629629629638],[-0.1313541666666667,-0.03944444444444436],[-0.12302083333333336,-0.024814814814814772],[-0.11677083333333335,-0.020185185185185143],[-0.115625,-0.006666666666666709],[-0.10739583333333336,0.018333333333333292],[-0.09395833333333338,0.030740740740740784],[-0.09395833333333338,0.030740740740740784],[-0.07572916666666671,0.046481481481481526],[-0.07572916666666671,0.01592592592592597],[-0.07604166666666666,0.007592592592592635],[-0.11010416666666671,0.01444444444444436],[-0.13572916666666662,0.010370370370370412],[-0.13666666666666671,-0.002777777777777778],[-0.1373958333333333,-0.04148148148148144],[-0.12104166666666671,-0.05259259259259255],[-0.11010416666666671,-0.05277777777777778],[-0.09916666666666671,-0.052962962962963],[-0.1045833333333333,-0.08074074074074078],[-0.11104166666666669,-0.08203703703703706],[-0.1125,-0.07851851851851847],[-0.08687499999999998,-0.10129629629629627],[-0.07947916666666661,-0.13185185185185183],[-0.07427083333333329,-0.15777777777777777],[-0.04750000000000002,-0.11222222222222226],[-0.02385416666666664,-0.09370370370370375],[-0.026979166666666644,-0.11222222222222226],[-0.030104166666666644,-0.1307407407407408],[-0.02166666666666662,-0.125],[-0.02166666666666662,-0.125],[0.0026041666666666665,-0.11925925925925922],[0.019687499999999976,-0.12462962962962965],[0.022916666666666665,-0.11481481481481481],[0.03166666666666664,-0.12018518518518514],[0.04479166666666667,-0.09703703703703699],[0.0453125,-0.10351851851851848],[0.04041666666666662,-0.10796296296296298],[0.050729166666666714,-0.09740740740740746],[0.06812500000000009,-0.11555555555555551],[0.08552083333333324,-0.13370370370370369],[0.08729166666666661,-0.14592592592592596],[0.09135416666666671,-0.15259259259259256],[0.09375,-0.1727777777777778],[0.10177083333333338,-0.16370370370370366],[0.11583333333333339,-0.1844444444444445],[0.12281250000000009,-0.21148148148148146],[0.13468749999999996,-0.22777777777777777],[0.14395833333333338,-0.2433333333333333],[0.14729166666666677,-0.23944444444444446],[0.1506249999999999,-0.23555555555555555],[0.14708333333333337,-0.23277777777777775],[0.14708333333333337,-0.23277777777777775],[0.12635416666666663,-0.21277777777777773],[0.12302083333333323,-0.18925925925925924],[0.11447916666666676,-0.18351851851851855],[0.10374999999999991,-0.1698148148148148],[0.0865624999999999,-0.1648148148148148],[0.08197916666666671,-0.147037037037037],[0.06270833333333338,-0.14333333333333328],[0.04229166666666669,-0.13037037037037033],[0.02177083333333331,-0.11592592592592597],[0.005937500000000048,-0.0955555555555556],[0.01885416666666669,-0.10111111111111115],[0.010625000000000048,-0.11851851851851852],[0.01229166666666662,-0.12037037037037036],[0.017499999999999953,-0.08777777777777773],[0.02958333333333331,-0.06370370370370367],[0.02958333333333331,-0.06370370370370367],[0.02677083333333338,-0.05462962962962963],[0.02677083333333338,-0.05462962962962963],[0.0046875,-0.04333333333333329],[0.0046875,-0.04333333333333329],[-0.014374999999999952,-0.04129629629629621],[-0.014374999999999952,-0.04129629629629621],[-0.0375,-0.032777777777777864],[-0.0375,-0.032777777777777864],[-0.04833333333333331,-0.050370370370370454],[-0.04833333333333331,-0.050370370370370454],[-0.07729166666666672,-0.06962962962962967],[-0.09812500000000005,-0.0485185185185186],[-0.12052083333333338,-0.05722222222222218],[-0.12052083333333338,-0.05722222222222218],[-0.12062499999999995,-0.09055555555555551],[-0.12854166666666664,-0.10944444444444448],[-0.13843749999999996,-0.13444444444444448],[-0.10718749999999998,-0.10425925925925927],[-0.10718749999999998,-0.10425925925925927],[-0.08177083333333333,-0.10759259259259263],[-0.04822916666666662,-0.11148148148148146],[-0.04822916666666662,-0.11148148148148146],[-0.03229166666666667,-0.08907407407407411],[-0.02374999999999995,-0.08499999999999996],[-0.02374999999999995,-0.08499999999999996],[-0.0328125,-0.0955555555555556],[-0.027708333333333356,-0.06833333333333329],[-0.05770833333333331,-0.05611111111111113],[-0.07250000000000002,-0.05425925925925928],[-0.078125,-0.045740740740740825],[-0.09916666666666671,-0.09111111111111109],[-0.11739583333333338,-0.09370370370370375],[-0.13958333333333334,-0.1037037037037037],[-0.1352083333333333,-0.10333333333333336],[-0.1352083333333333,-0.10333333333333336],[-0.13875000000000004,-0.07814814814814813],[-0.12927083333333336,-0.0668518518518519],[-0.09812500000000005,-0.05555555555555555],[-0.08458333333333339,-0.04092592592592597],[-0.07145833333333336,0.0011111111111111532],[-0.06885416666666669,0.014259259259259343],[-0.05802083333333338,0.03796296296296296],[-0.050520833333333334,0.06222222222222226],[-0.043020833333333286,0.08648148148148156],[-0.050625000000000024,0.09981481481481477],[-0.050625000000000024,0.09981481481481477],[-0.036354166666666646,0.11703703703703712],[-0.010625000000000048,0.11703703703703712],[-0.027499999999999976,0.12370370370370362],[-0.035208333333333286,0.125],[-0.049583333333333354,0.10277777777777777],[-0.02677083333333338,0.10999999999999996],[-0.029895833333333382,0.11092592592592589],[-0.02833333333333338,0.10444444444444441],[-0.026145833333333358,0.09611111111111106],[-0.023958333333333335,0.0794444444444444],[-0.025937499999999978,0.06074074074074066],[-0.025937499999999978,0.06074074074074066],[-0.014687500000000023,0.09592592592592585],[0.0037500000000000237,0.1646296296296296],[0.0037500000000000237,0.1646296296296296],[0.06208333333333336,0.21814814814814806],[0.11427083333333338,0.2766666666666666],[0.12979166666666658,0.3290740740740742],[0.16937499999999991,0.3492592592592593],[0.20562500000000009,0.3937037037037037],[0.22510416666666658,0.43148148148148147],[0.2404166666666666,0.46722222222222215],[0.2556250000000001,0.497037037037037],[0.2509375000000001,0.49314814814814806],[0.24343750000000006,0.44074074074074077],[0.2087500000000001,0.38870370370370366],[0.1727083333333333,0.3461111111111111],[0.15125000000000005,0.29240740740740734],[0.12354166666666658,0.27981481481481485],[0.0978125000000001,0.24981481481481477],[0.08718750000000004,0.23351851851851857],[0.06468750000000002,0.19407407407407398],[0.06083333333333331,0.17185185185185176],[0.044270833333333336,0.12685185185185185],[0.03270833333333331,0.09537037037037037],[0.019583333333333286,0.09129629629629621],[0.013229166666666714,0.08203703703703695],[-0.006979166666666714,0.07185185185185176],[-0.007187499999999976,0.06999999999999991],[-0.007395833333333357,0.06814814814814807],[-0.011354166666666643,0.03129629629629625],[-0.01083333333333331,0.0242592592592593],[-0.02364583333333338,0.027037037037037078],[-0.027083333333333334,0.02962962962962963],[-0.04093749999999995,0.02166666666666675],[-0.05593750000000005,-0.011481481481481566],[-0.05593750000000005,-0.011481481481481566],[-0.06156250000000003,-0.02629629629629638],[-0.06937500000000002,-0.04814814814814815],[-0.07250000000000002,-0.0668518518518519],[-0.06843750000000005,-0.08462962962962961],[-0.059583333333333384,-0.07259259259259257],[-0.04729166666666664,-0.06444444444444447],[-0.04729166666666664,-0.06444444444444447],[-0.04375,-0.08259259259259263],[-0.04375,-0.08259259259259263],[-0.035208333333333286,-0.08111111111111113],[-0.0015625,-0.06925925925925921],[0.013854166666666619,-0.07259259259259257],[0.024791666666666618,-0.08796296296296297],[0.057187499999999974,-0.06222222222222226],[0.0625,-0.06851851851851852],[0.050520833333333334,-0.1],[0.05947916666666669,-0.09907407407407408],[0.07239583333333334,-0.10092592592592593],[0.08197916666666671,-0.09166666666666666],[0.08989583333333329,-0.07907407407407405],[0.07333333333333343,-0.08444444444444449],[0.0546875,-0.09148148148148144],[0.03427083333333331,-0.07574074074074069],[0.016770833333333356,-0.09222222222222225],[0.009791666666666643,-0.09074074074074075],[0.01427083333333338,-0.08314814814814811],[0.01427083333333338,-0.08314814814814811],[-0.0002083333333333807,-0.08870370370370366],[-0.0002083333333333807,-0.08870370370370366],[-0.03083333333333336,-0.13259259259259262],[-0.03083333333333336,-0.13259259259259262],[-0.033958333333333354,-0.1359259259259259],[-0.033958333333333354,-0.1359259259259259],[-0.042916666666666714,-0.17962962962962964],[-0.042916666666666714,-0.17962962962962964],[-0.034062500000000044,-0.17962962962962964],[-0.034062500000000044,-0.17962962962962964],[-0.02791666666666662,-0.1712962962962963],[-0.0026041666666666665,-0.16203703703703703],[-0.01895833333333338,-0.16259259259259262],[-0.00916666666666662,-0.16148148148148145],[-0.012187500000000047,-0.1588888888888889],[-0.018124999999999978,-0.16314814814814818],[-0.005520833333333286,-0.14425925925925923],[0.004166666666666667,-0.13129629629629624],[0.004062499999999977,-0.12259259259259257],[0.009791666666666643,-0.13925925925925925],[0.033645833333333285,-0.10722222222222218],[0.021249999999999977,-0.12462962962962965],[0.05020833333333338,-0.10999999999999996],[0.04697916666666669,-0.11148148148148146],[0.06614583333333333,-0.07962962962962963],[0.06531250000000005,-0.10388888888888893],[0.06531250000000005,-0.10388888888888893],[0.08458333333333339,-0.08296296296296299],[0.07864583333333333,-0.10462962962962963],[0.10041666666666677,-0.06925925925925921],[0.09104166666666676,-0.040370370370370286],[0.075,-0.05592592592592591],[0.08395833333333323,-0.03462962962962971],[0.08322916666666676,-0.03351851851851856],[0.07614583333333323,-0.041666666666666664],[0.08083333333333324,-0.05907407407407403],[0.09916666666666671,-0.031111111111111027],[0.096875,-0.034074074074074034],[0.10989583333333333,-0.0242592592592593],[0.10625,-0.03296296296296288],[0.10968749999999995,-0.055740740740740785],[0.1306250000000001,-0.05925925925925926],[0.13531250000000009,-0.05611111111111113],[0.13468749999999996,-0.045740740740740825],[0.13864583333333325,-0.017407407407407365],[0.11354166666666667,-0.01185185185185181],[0.10895833333333324,0.012962962962962963],[0.10250000000000009,0.038703703703703664],[0.09677083333333343,0.03925925925925934],[0.09166666666666666,0.052962962962963],[0.09052083333333343,0.06814814814814807],[0.08812499999999991,0.08129629629629626],[0.0884375000000001,0.049629629629629544],[0.08302083333333338,0.021851851851851768],[0.08302083333333338,0.021851851851851768],[0.09364583333333343,0.015000000000000043],[0.1040625000000001,0.04388888888888897],[0.09770833333333329,0.006296296296296254],[0.09718749999999995,-0.005370370370370328],[0.09864583333333338,-0.022777777777777692],[0.10374999999999991,-0.030555555555555555],[0.11114583333333337,-0.024814814814814772],[0.1234375,-0.029259259259259176],[0.13125,-0.001851851851851852],[0.13697916666666668,0.00722222222222218],[0.13875000000000004,-0.009444444444444486],[0.15635416666666657,-0.05],[0.18406250000000005,-0.018148148148148063],[0.18197916666666672,-0.06592592592592597],[0.17802083333333343,-0.048333333333333374],[0.18010416666666676,-0.06777777777777783],[0.17927083333333324,-0.08907407407407411],[0.159375,-0.10685185185185184],[0.15812499999999996,-0.12777777777777777],[0.15989583333333332,-0.1427777777777778],[0.15979166666666675,-0.1514814814814815],[0.15979166666666675,-0.1514814814814815],[0.1382291666666667,-0.17074074074074072],[0.12458333333333324,-0.22296296296296292],[0.1318749999999999,-0.18592592592592588],[0.13114583333333343,-0.2222222222222222],[0.12322916666666663,-0.22000000000000003],[0.1273958333333333,-0.2361111111111111],[0.13666666666666671,-0.2574074074074074],[0.13666666666666671,-0.2574074074074074],[0.11916666666666677,-0.2759259259259259],[0.08697916666666666,-0.27925925925925926],[0.05239583333333329,-0.2783333333333334],[0.03343750000000002,-0.252962962962963],[0,-0.22148148148148153],[-0.024791666666666618,-0.2338888888888889],[-0.04604166666666672,-0.2161111111111111],[-0.07625000000000005,-0.22925925925925927],[-0.11385416666666662,-0.23148148148148148],[-0.13895833333333332,-0.2140740740740741],[-0.15395833333333328,-0.19500000000000003],[-0.15885416666666666,-0.1977777777777778],[-0.16375000000000003,-0.20055555555555557],[-0.16895833333333338,-0.20129629629629628],[-0.17416666666666672,-0.20203703703703707],[-0.19197916666666662,-0.20259259259259255],[-0.19197916666666662,-0.20259259259259255],[-0.209375,-0.20999999999999996],[-0.2085416666666667,-0.18981481481481483],[-0.2079166666666667,-0.16814814814814816],[-0.21822916666666667,-0.17074074074074072],[-0.2235416666666667,-0.18574074074074076],[-0.2155208333333333,-0.1714814814814815],[-0.21354166666666666,-0.14740740740740746],[-0.20812499999999995,-0.16500000000000004],[-0.20270833333333335,-0.18259259259259264],[-0.20510416666666664,-0.19296296296296295],[-0.2,-0.19537037037037036],[-0.20270833333333335,-0.2125925925925926],[-0.2015625,-0.21351851851851855],[-0.19812500000000005,-0.1977777777777778],[-0.18937499999999996,-0.19092592592592597],[-0.18781249999999997,-0.19222222222222224],[-0.14906250000000001,-0.21351851851851855],[-0.14906250000000001,-0.21351851851851855],[-0.1248958333333333,-0.1955555555555556],[-0.1248958333333333,-0.1955555555555556],[-0.1125,-0.2044444444444444],[-0.1125,-0.2044444444444444],[-0.09041666666666662,-0.20166666666666663],[-0.09041666666666662,-0.20166666666666663],[-0.06854166666666663,-0.19648148148148153],[-0.04656250000000005,-0.18037037037037032],[-0.04656250000000005,-0.18037037037037032],[-0.01739583333333338,-0.17685185185185184],[-0.01739583333333338,-0.17685185185185184],[0.016770833333333356,-0.18185185185185182],[0.052187500000000026,-0.18333333333333332],[0.08875000000000005,-0.19518518518518516],[0.09375,-0.17166666666666663],[0.0834374999999999,-0.1698148148148148],[0.11072916666666661,-0.12907407407407406],[0.13927083333333337,-0.08574074074074076],[0.13927083333333337,-0.08574074074074076],[0.1430208333333333,-0.07537037037037035],[0.15031249999999996,-0.08148148148148149],[0.1553124999999999,-0.08555555555555554],[0.14479166666666668,-0.07185185185185188],[0.1330208333333334,-0.05259259259259255],[0.10791666666666658,-0.04277777777777782],[0.10791666666666658,-0.04277777777777782],[0.10041666666666677,-0.05425925925925928],[0.12156250000000005,-0.041111111111111195],[0.0818749999999999,-0.06222222222222226],[0.04375,-0.09740740740740746],[0.03968750000000002,-0.1051851851851852],[0.027708333333333356,-0.08277777777777776],[0.021562500000000047,-0.06981481481481479],[0.03145833333333338,-0.07777777777777778],[0.03604166666666669,-0.08592592592592588],[0.026250000000000048,-0.11296296296296296],[0.008333333333333333,-0.12388888888888884],[-0.01552083333333331,-0.14166666666666666],[0.024166666666666715,-0.12814814814814812],[0.06708333333333343,-0.10314814814814813],[0.05697916666666671,-0.08851851851851854],[0.051250000000000046,-0.09092592592592597],[0.06177083333333329,-0.07574074074074069],[0.06677083333333324,-0.04888888888888885],[0.05916666666666662,-0.004074074074074159],[0.07937500000000004,0.06888888888888897],[0.09114583333333333,0.09685185185185177],[0.1140625,0.13851851851851843],[0.09177083333333323,0.14833333333333337],[0.05270833333333336,0.13351851851851856],[0.05270833333333336,0.13351851851851856],[0.07833333333333338,0.14222222222222214],[0.09385416666666657,0.1338888888888888],[0.09385416666666657,0.1338888888888888],[0.08510416666666672,0.1287037037037037],[0.05552083333333328,0.12074074074074083],[0.04520833333333331,0.06740740740740736],[0.04510416666666662,0.03481481481481473],[0.05343749999999995,0.0551851851851851],[0.03781249999999995,0.023333333333333376],[0.03885416666666662,0.014259259259259343],[0.06416666666666669,0.054074074074074156],[0.05593750000000005,0.07111111111111107],[0.03572916666666662,0.12296296296296293],[0.026979166666666644,0.1579629629629629],[0.034062500000000044,0.20166666666666663],[0.03875000000000005,0.23962962962962958],[0.03333333333333333,0.24222222222222214],[0.034895833333333334,0.21425925925925934],[0.04989583333333331,0.21870370370370373],[0.04885416666666664,0.2324074074074074],[0.03937499999999995,0.2111111111111111],[0.03270833333333331,0.18351851851851855],[0.04802083333333336,0.13055555555555556],[0.04125000000000002,0.0794444444444444],[0.0421875,0.018518518518518517],[0.04052083333333331,0.015555555555555513],[0.036249999999999956,0.016851851851851896],[0.009375,0.027962962962963005],[-0.01593749999999995,0.03851851851851843],[-0.02677083333333338,0.040370370370370286],[-0.04520833333333331,0.044444444444444446],[-0.06156250000000003,0.06648148148148143],[-0.06062500000000005,0.08777777777777773],[-0.06583333333333338,0.10907407407407403],[-0.060000000000000026,0.11296296296296296],[-0.05583333333333336,0.09203703703703713],[-0.04562499999999995,0.10277777777777777],[-0.030729166666666665,0.1111111111111111],[-0.01739583333333338,0.11999999999999991],[-0.016875000000000046,0.11888888888888897],[-0.008854166666666666,0.11537037037037029],[-0.000416666666666643,0.10574074074074079],[-0.000416666666666643,0.10574074074074079],[-0.006562499999999953,0.09611111111111106],[0.0067708333333333336,0.05907407407407403],[0.006458333333333381,0.07666666666666662],[0.008333333333333333,0.08481481481481473],[-0.005937500000000048,0.06481481481481481],[-0.018333333333333358,0.04000000000000004],[-0.024374999999999977,0.01962962962962967],[-0.01604166666666664,0.008703703703703788],[-0.0046875,0.018333333333333292],[0.00625,0.034074074074074034],[0.014479166666666644,0.05055555555555547],[0.013750000000000047,0.07296296296296292],[0.008645833333333287,0.08092592592592601],[0.012395833333333309,0.07666666666666662],[0.028750000000000022,0.07925925925925917],[0.0328125,0.09296296296296305],[0.04510416666666662,0.08111111111111102],[0.03937499999999995,0.057962962962962876],[0.030729166666666665,0.01444444444444436],[0.025,-0.002962962962963005],[0.01895833333333338,-0.034999999999999955],[0.011249999999999953,-0.01722222222222214],[0.008124999999999953,-0.03166666666666671],[-0.0046875,-0.02629629629629638],[-0.01260416666666669,0.00592592592592601],[-0.01260416666666669,0.00592592592592601],[-0.010520833333333358,-0.019999999999999917],[-0.010520833333333358,-0.019999999999999917],[-0.024374999999999977,-0.0020370370370370794],[-0.024374999999999977,-0.0020370370370370794],[-0.019166666666666644,0.007777777777777862],[-0.019166666666666644,0.007777777777777862],[-0.0234375,0.018518518518518517],[-0.026979166666666644,-0.010185185185185186],[-0.026979166666666644,-0.010185185185185186],[-0.030624999999999975,-0.01574074074074074],[-0.030624999999999975,-0.01574074074074074],[-0.035416666666666666,-0.04277777777777782],[-0.036354166666666646,-0.0690740740740741],[-0.04697916666666669,-0.08796296296296297],[-0.06427083333333337,-0.12314814814814815],[-0.0655208333333333,-0.11740740740740736],[-0.07177083333333331,-0.13407407407407404],[-0.07906249999999998,-0.13129629629629624],[-0.07437499999999998,-0.12925925925925927],[-0.07291666666666667,-0.11166666666666669],[-0.07625000000000005,-0.11648148148148144],[-0.07708333333333334,-0.1301851851851852],[-0.08458333333333339,-0.12333333333333338],[-0.07916666666666666,-0.11055555555555553],[-0.07916666666666666,-0.11055555555555553],[-0.06687500000000005,-0.11925925925925922],[-0.07729166666666672,-0.1418518518518519],[-0.07437499999999998,-0.1522222222222222],[-0.07645833333333331,-0.15388888888888894],[-0.08104166666666662,-0.1557407407407408],[-0.09197916666666663,-0.17740740740740743],[-0.08718750000000004,-0.16444444444444448],[-0.08718750000000004,-0.16444444444444448],[-0.08416666666666663,-0.14981481481481476],[-0.08416666666666663,-0.14981481481481476],[-0.08083333333333335,-0.14166666666666666],[-0.07687499999999996,-0.15499999999999997],[-0.09406249999999995,-0.1574074074074074],[-0.09739583333333333,-0.1235185185185185],[-0.09093749999999995,-0.12666666666666662],[-0.07114583333333328,-0.09703703703703699],[-0.05135416666666662,-0.06740740740740736],[-0.05135416666666662,-0.06740740740740736],[-0.0328125,-0.03944444444444436],[-0.03583333333333331,-0.022222222222222223],[-0.03937499999999995,-0.014629629629629588],[-0.026979166666666644,-0.019444444444444445],[-0.019791666666666666,-0.014259259259259343],[-0.0005208333333333333,-0.0020370370370370794],[-0.0005208333333333333,-0.0020370370370370794],[0.004479166666666619,0.009629629629629714],[-0.002499999999999976,0.030555555555555555],[-0.006979166666666714,0.03314814814814811],[-0.006979166666666714,0.03314814814814811],[-0.027083333333333334,0.030740740740740784],[-0.0609375,0.034999999999999955],[-0.08374999999999998,0.029259259259259176],[-0.0780208333333333,0.03759259259259251],[-0.0860416666666667,0.05685185185185194],[-0.11041666666666666,0.0824074074074074],[-0.11041666666666666,0.0824074074074074],[-0.10864583333333329,0.08740740740740749],[-0.10958333333333338,0.06722222222222214],[-0.10958333333333338,0.06722222222222214],[-0.10229166666666671,0.07759259259259255],[-0.09635416666666667,0.062407407407407495],[-0.07958333333333331,0.06703703703703712],[-0.05510416666666664,0.08185185185185194],[-0.015625,0.07740740740740733],[-0.009583333333333381,0.07777777777777778],[-0.01083333333333331,0.09240740740740737],[0.01572916666666669,0.07333333333333338],[0.01072916666666662,0.06999999999999991],[0.012916666666666642,0.08592592592592588],[0.016458333333333287,0.08925925925925934],[0.019895833333333356,0.08944444444444435],[0.012187500000000047,0.08425925925925926],[0.03114583333333331,0.08629629629629634],[0.008645833333333287,0.11074074074074065],[0.012812499999999952,0.11518518518518527],[0.004791666666666691,0.11444444444444436],[-0.01427083333333338,0.12481481481481477],[-0.01875,0.12333333333333338],[-0.018020833333333285,0.10870370370370379],[-0.03166666666666664,0.09129629629629621],[-0.052083333333333336,0.08925925925925934],[-0.052083333333333336,0.08925925925925934],[-0.050416666666666644,0.07888888888888893],[-0.050416666666666644,0.07888888888888893],[-0.05479166666666669,0.06759259259259259],[-0.05479166666666669,0.06759259259259259],[-0.042708333333333334,0.09277777777777782],[-0.0375,0.12462962962962955],[-0.012812499999999952,0.14740740740740746],[0.02177083333333331,0.15314814814814823],[0.03989583333333328,0.18037037037037032],[0.06979166666666667,0.19277777777777783],[0.09968750000000005,0.2051851851851851],[0.11041666666666666,0.23203703703703696],[0.11927083333333334,0.2548148148148149],[0.0990624999999999,0.26703703703703713],[0.08541666666666667,0.24166666666666667],[0.05677083333333333,0.22018518518518515],[0.028125,0.19870370370370363],[-0.010625000000000048,0.20962962962962972],[-0.03989583333333328,0.2170370370370371],[-0.07937500000000004,0.24203703703703713],[-0.121875,0.26648148148148143],[-0.14781249999999999,0.26666666666666666],[-0.15458333333333332,0.2492592592592593],[-0.15625,0.20962962962962972],[-0.1420833333333333,0.18185185185185193],[-0.12718750000000004,0.16203703703703703],[-0.11229166666666662,0.14222222222222214],[-0.11458333333333333,0.11999999999999991],[-0.11229166666666662,0.10537037037037032],[-0.11229166666666662,0.10537037037037032],[-0.10656249999999995,0.08888888888888889],[-0.1094791666666667,0.08574074074074066],[-0.1094791666666667,0.08574074074074066],[-0.10354166666666664,0.07833333333333325],[-0.12875000000000003,0.10481481481481486],[-0.12875000000000003,0.10481481481481486],[-0.1390625,0.14370370370370375],[-0.1390625,0.14370370370370375],[-0.15510416666666665,0.17592592592592593],[-0.15510416666666665,0.17592592592592593],[-0.18166666666666664,0.18000000000000008],[-0.18166666666666664,0.18000000000000008],[-0.18531249999999996,0.1844444444444445],[-0.18531249999999996,0.1844444444444445],[-0.17531249999999995,0.2103703703703704],[-0.16749999999999995,0.1985185185185186],[-0.15572916666666667,0.22296296296296292],[-0.1310416666666666,0.24092592592592596],[-0.10625,0.2390740740740741],[-0.09281250000000002,0.26481481481481484],[-0.09281250000000002,0.26481481481481484],[-0.06843750000000005,0.28055555555555556],[-0.06218750000000005,0.2675925925925926],[-0.041979166666666616,0.2814814814814815],[-0.03104166666666662,0.29074074074074074],[-0.01229166666666662,0.3198148148148149],[0.00791666666666669,0.3705555555555556],[0.03343750000000002,0.3479629629629629],[0.059791666666666646,0.31425925925925935],[0.06854166666666663,0.3316666666666667],[0.06854166666666663,0.3316666666666667],[0.09645833333333324,0.3085185185185186],[0.09645833333333324,0.3085185185185186],[0.1078125,0.28962962962962957],[0.1259375000000001,0.27462962962962956],[0.1259375000000001,0.27462962962962956],[0.13833333333333328,0.2388888888888889],[0.16177083333333328,0.2368518518518518],[0.1703125,0.20037037037037045],[0.17677083333333338,0.16407407407407412],[0.16552083333333342,0.17685185185185184],[0.15,0.16999999999999993],[0.14510416666666662,0.1418518518518519],[0.1396874999999999,0.11722222222222214],[0.15166666666666656,0.14944444444444452],[0.1775000000000001,0.1449999999999999],[0.17916666666666667,0.17555555555555546],[0.15354166666666677,0.17592592592592593],[0.13833333333333328,0.1727777777777777],[0.12010416666666662,0.18777777777777774],[0.11302083333333333,0.17814814814814822],[0.10281250000000004,0.1875925925925925],[0.09020833333333324,0.19888888888888884],[0.07322916666666662,0.20407407407407416],[0.06187499999999998,0.17333333333333337],[0.036249999999999956,0.19870370370370363],[0.05020833333333338,0.18592592592592588],[0.06885416666666658,0.19185185185185188],[0.08562500000000005,0.19277777777777783],[0.10729166666666666,0.18055555555555555],[0.11770833333333333,0.17685185185185184],[0.12135416666666667,0.1766666666666666],[0.11604166666666677,0.1603703703703704],[0.11552083333333343,0.14629629629629629],[0.11749999999999995,0.13962962962962958],[0.11572916666666658,0.13037037037037033],[0.10604166666666662,0.13277777777777786],[0.09072916666666657,0.12129629629629629],[0.07354166666666657,0.12925925925925918],[0.05927083333333331,0.11500000000000005],[0.05364583333333333,0.09870370370370361],[0.04593750000000003,0.06425925925925935],[0.05687500000000002,0.07018518518518514],[0.07479166666666662,0.05740740740740741],[0.07447916666666667,0.03851851851851843],[0.07427083333333329,0.03259259259259263],[0.07156250000000004,0.016111111111111194],[0.05,-0.007962962962962878],[0.04770833333333328,-0.03925925925925934],[0.022500000000000023,-0.0735185185185185],[-0.008124999999999953,-0.0992592592592593],[-0.008124999999999953,-0.0992592592592593],[-0.021145833333333287,-0.10185185185185185],[-0.028750000000000022,-0.11351851851851855],[-0.05572916666666667,-0.12333333333333338],[-0.07791666666666662,-0.13499999999999995],[-0.08052083333333329,-0.17888888888888893],[-0.09541666666666669,-0.20055555555555557],[-0.050833333333333286,-0.19814814814814816],[-0.02177083333333331,-0.202962962962963],[-0.01260416666666669,-0.20129629629629628],[0.025729166666666713,-0.2125925925925926],[0.06062500000000005,-0.2270370370370371],[0.07145833333333323,-0.23296296296296298],[0.09468750000000009,-0.222037037037037],[0.1087500000000001,-0.2338888888888889],[0.11197916666666667,-0.2257407407407407],[0.14031250000000003,-0.22092592592592594],[0.12708333333333333,-0.24592592592592594],[0.12666666666666657,-0.22907407407407404],[0.14520833333333344,-0.22611111111111115],[0.15812499999999996,-0.22740740740740742],[0.15364583333333334,-0.22518518518518524],[0.16083333333333344,-0.21777777777777782],[0.1428124999999999,-0.22907407407407404],[0.14395833333333338,-0.15333333333333335],[0.14812500000000003,-0.11592592592592597],[0.14812500000000003,-0.11592592592592597],[0.13229166666666667,-0.07685185185185185],[0.13385416666666666,-0.013518518518518435],[0.12072916666666676,-0.010185185185185186],[0.12666666666666657,0.020740740740740823],[0.09885416666666676,0.0551851851851851],[0.09322916666666667,0.09222222222222214],[0.06572916666666669,0.08555555555555563],[0.0640625,0.09055555555555551],[0.06354166666666666,0.03833333333333342],[0.034062500000000044,0.0001851851851852273],[0.00916666666666662,-0.04000000000000004],[0.003125,-0.06092592592592588],[-0.0010416666666666667,-0.06370370370370367],[-0.011562500000000024,-0.09685185185185187],[-0.011562500000000024,-0.09685185185185187],[-0.01864583333333331,-0.10259259259259255],[-0.01864583333333331,-0.10259259259259255],[-0.028750000000000022,-0.12481481481481477],[-0.028750000000000022,-0.12481481481481477],[-0.0375,-0.13259259259259262],[-0.04812500000000005,-0.13407407407407404],[-0.04812500000000005,-0.13407407407407404],[-0.06822916666666666,-0.14685185185185187],[-0.06822916666666666,-0.14685185185185187],[-0.06427083333333337,-0.11518518518518517],[-0.06427083333333337,-0.11518518518518517],[-0.050937499999999976,-0.10037037037037035],[-0.07270833333333329,-0.12388888888888884],[-0.08541666666666667,-0.13629629629629633],[-0.0765625,-0.12740740740740744],[-0.06802083333333328,-0.13092592592592592],[-0.06802083333333328,-0.13092592592592592],[-0.07250000000000002,-0.12092592592592595],[-0.04624999999999998,-0.12333333333333338],[-0.024479166666666666,-0.1037037037037037],[-0.0109375,-0.09981481481481477],[0.003333333333333381,-0.10129629629629627],[0.003333333333333381,-0.10129629629629627],[0.0010416666666666667,-0.07462962962962966],[0.008854166666666666,-0.0477777777777777],[0.007604166666666619,-0.032037037037036954],[-0.01729166666666669,-0.032407407407407406],[-0.03687499999999998,-0.03166666666666671],[-0.028854166666666715,-0.025185185185185227],[-0.04697916666666669,-0.03888888888888889],[-0.06458333333333334,-0.05962962962962961],[-0.06625000000000002,-0.052037037037037076],[-0.07385416666666664,-0.05703703703703706],[-0.05531250000000002,-0.07851851851851847],[-0.05458333333333331,-0.10388888888888893],[-0.05510416666666664,-0.10648148148148148],[-0.04718749999999995,-0.08388888888888892],[-0.036249999999999956,-0.06407407407407412],[-0.041666666666666664,-0.06462962962962959],[-0.04468749999999998,-0.028518518518518478],[-0.042499999999999954,-0.006666666666666709],[-0.058229166666666644,-0.009629629629629714],[-0.06062500000000005,-0.02814814814814823],[-0.08166666666666664,-0.022222222222222223],[-0.08572916666666662,-0.00851851851851856],[-0.09510416666666661,-0.02444444444444453],[-0.11114583333333337,-0.05333333333333336],[-0.12854166666666664,-0.07018518518518514],[-0.14781249999999999,-0.09277777777777782],[-0.14645833333333336,-0.1366666666666667],[-0.14729166666666665,-0.1633333333333333],[-0.14437500000000003,-0.17166666666666663],[-0.1345833333333334,-0.17037037037037037],[-0.11791666666666671,-0.21148148148148146],[-0.11343749999999998,-0.2542592592592593],[-0.09520833333333331,-0.2809259259259259],[-0.06791666666666671,-0.2766666666666666],[-0.030416666666666713,-0.2616666666666667],[0.01072916666666662,-0.23203703703703707],[0.027083333333333334,-0.2294444444444444],[0.05395833333333329,-0.2337037037037037],[0.07697916666666677,-0.20555555555555555],[0.08989583333333329,-0.19962962962962966],[0.08718750000000004,-0.1603703703703704],[0.09229166666666658,-0.12018518518518514],[0.09020833333333324,-0.08925925925925923],[0.08145833333333338,-0.0977777777777778],[0.06166666666666672,-0.12981481481481486],[0.042499999999999954,-0.14777777777777779],[0.03875000000000005,-0.1287037037037037],[0.034895833333333334,-0.1051851851851852],[0.03197916666666671,-0.11796296296296294],[0.029062499999999977,-0.11814814814814817],[0.03083333333333336,-0.10407407407407405],[0.033854166666666664,-0.09518518518518514],[0.030729166666666665,-0.08925925925925923],[0.06041666666666667,-0.03851851851851843],[0.07614583333333323,0.006851851851851936],[0.09937500000000009,0.041666666666666664],[0.12364583333333339,0.06962962962962967],[0.1328125,0.08481481481481473],[0.14656250000000004,0.10388888888888893],[0.14812500000000003,0.12185185185185177],[0.14802083333333324,0.11999999999999991],[0.15635416666666657,0.11314814814814819],[0.17822916666666658,0.1294444444444444],[0.17177083333333343,0.11870370370370374],[0.19177083333333325,0.10870370370370379],[0.1990624999999999,0.09722222222222222],[0.19895833333333332,0.09388888888888898],[0.19895833333333332,0.09388888888888898],[0.18979166666666672,0.07166666666666675],[0.16135416666666677,0.04518518518518514],[0.1478125000000001,0.028518518518518478],[0.13958333333333334,-0.013703703703703662],[0.11531250000000005,-0.023148148148148147],[0.09343750000000005,-0.04592592592592584],[0.07531249999999995,-0.06962962962962967],[0.03812500000000003,-0.09240740740740737],[0.007500000000000047,-0.10740740740740741],[-0.025312499999999953,-0.1242592592592593],[-0.03145833333333338,-0.147037037037037],[-0.02374999999999995,-0.1427777777777778],[-0.016666666666666666,-0.13296296296296298],[-0.016666666666666666,-0.13296296296296298],[-0.00791666666666669,-0.10611111111111113],[-0.00791666666666669,-0.10611111111111113],[0.01572916666666669,-0.08592592592592588],[0.02958333333333331,-0.07259259259259257],[0.016562499999999977,-0.05092592592592592],[0.01427083333333338,-0.02555555555555547],[0.03854166666666667,0.0011111111111111532],[0.0671875,0.007037037037036953],[0.08375000000000009,0.047037037037036995],[0.09614583333333329,0.05925925925925926],[0.10895833333333324,0.07685185185185185],[0.12052083333333338,0.09074074074074075],[0.12197916666666657,0.08944444444444435],[0.09364583333333343,0.0955555555555556],[0.09364583333333343,0.0955555555555556],[0.10354166666666677,0.0955555555555556],[0.10354166666666677,0.0955555555555556],[0.0728125000000001,0.10999999999999996],[0.0728125000000001,0.10999999999999996],[0.0006250000000000236,0.07481481481481478],[0.0006250000000000236,0.07481481481481478],[-0.06656249999999998,0.05925925925925926],[-0.06656249999999998,0.05925925925925926],[-0.12260416666666671,0.051666666666666625],[-0.12260416666666671,0.051666666666666625],[-0.17072916666666665,0.03759259259259251],[-0.20833333333333334,0.0235185185185186],[-0.25333333333333335,0.020370370370370372],[-0.2952083333333333,-0.006851851851851936],[-0.30375,-0.05259259259259255],[-0.3385416666666667,-0.07685185185185185],[-0.3398958333333333,-0.11537037037037039],[-0.32614583333333336,-0.11370370370370367],[-0.31135416666666665,-0.10555555555555556],[-0.31187499999999996,-0.1190740740740741],[-0.27468750000000003,-0.10129629629629627],[-0.25354166666666667,-0.08981481481481482],[-0.22947916666666662,-0.10981481481481484],[-0.2085416666666667,-0.10574074074074079],[-0.1961458333333333,-0.08944444444444447],[-0.1961458333333333,-0.08944444444444447],[-0.17281249999999998,-0.09222222222222225],[-0.17281249999999998,-0.09222222222222225],[-0.1498958333333333,-0.0883333333333333],[-0.1170833333333333,-0.08037037037037033],[-0.08958333333333333,-0.07907407407407405],[-0.06124999999999995,-0.07166666666666664],[-0.06687500000000005,-0.07759259259259255],[-0.06687500000000005,-0.08722222222222227],[-0.06895833333333339,-0.07629629629629628],[-0.08947916666666664,-0.07814814814814813],[-0.10499999999999995,-0.08111111111111113],[-0.08697916666666666,-0.08222222222222218],[-0.07083333333333333,-0.08518518518518518],[-0.059375,-0.07907407407407405],[-0.050833333333333286,-0.0787037037037037],[-0.029791666666666692,-0.07185185185185188],[-0.02822916666666669,-0.09611111111111106],[-0.03250000000000005,-0.11500000000000005],[-0.022916666666666665,-0.15462962962962962],[0.012812499999999952,-0.1801851851851852],[0.041458333333333285,-0.19444444444444445],[0.040625,-0.2094444444444445],[0.05135416666666662,-0.2140740740740741],[0.050833333333333286,-0.23944444444444446],[0.07197916666666657,-0.24685185185185188],[0.07958333333333342,-0.2601851851851852],[0.10072916666666672,-0.26962962962962966],[0.11302083333333333,-0.277962962962963],[0.11843750000000004,-0.2494444444444444],[0.11437499999999995,-0.23648148148148146],[0.1203125,-0.2198148148148148],[0.1203125,-0.2198148148148148],[0.11166666666666672,-0.20629629629629626],[0.12208333333333338,-0.22481481481481477],[0.1345833333333334,-0.23481481481481484],[0.10260416666666666,-0.2383333333333333],[0.06520833333333335,-0.23499999999999996],[0.042604166666666644,-0.21796296296296294],[0.029062499999999977,-0.2037037037037037],[0.011770833333333286,-0.20481481481481487],[-0.0026041666666666665,-0.19314814814814818],[-0.021249999999999977,-0.18574074074074076],[-0.013229166666666714,-0.17796296296296302],[-0.02958333333333331,-0.15240740740740744],[-0.06166666666666672,-0.13703703703703704],[-0.06458333333333334,-0.13851851851851854],[-0.04885416666666664,-0.13148148148148148],[-0.04572916666666664,-0.11740740740740736],[-0.0546875,-0.11055555555555553],[-0.0546875,-0.11055555555555553],[-0.05541666666666671,-0.10666666666666672],[-0.057083333333333285,-0.09648148148148153],[-0.050833333333333286,-0.09314814814814817],[-0.06281249999999995,-0.08574074074074076],[-0.075,-0.07999999999999997],[-0.08427083333333331,-0.05129629629629638],[-0.09354166666666662,-0.022592592592592678],[-0.10750000000000005,-0.03537037037037041],[-0.11833333333333336,-0.04796296296296292],[-0.11833333333333336,-0.04796296296296292],[-0.1170833333333333,-0.05796296296296299],[-0.1172916666666667,-0.05481481481481486],[-0.11604166666666664,-0.051111111111111156],[-0.11864583333333331,-0.05388888888888893],[-0.12000000000000005,-0.06333333333333331],[-0.13083333333333336,-0.07814814814814813],[-0.11864583333333331,-0.10888888888888891],[-0.10645833333333338,-0.13962962962962958],[-0.09479166666666666,-0.13796296296296295],[-0.08624999999999995,-0.13648148148148145],[-0.0828125,-0.1287037037037037],[-0.08156249999999995,-0.12814814814814812],[-0.06708333333333331,-0.13425925925925927],[-0.059687499999999956,-0.15629629629629627],[-0.06395833333333331,-0.15833333333333333],[-0.058541666666666714,-0.15333333333333335],[-0.05635416666666669,-0.14777777777777779],[-0.05416666666666667,-0.14222222222222225],[-0.04760416666666671,-0.15648148148148147],[-0.051145833333333356,-0.15629629629629627],[-0.030624999999999975,-0.15203703703703708],[-0.030624999999999975,-0.15203703703703708],[-0.03802083333333333,-0.16166666666666668],[-0.04760416666666671,-0.1668518518518519],[-0.049791666666666616,-0.1618518518518518],[-0.04791666666666667,-0.16666666666666666],[-0.04510416666666662,-0.1411111111111111],[-0.036458333333333336,-0.14907407407407408],[-0.0171875,-0.14092592592592595],[-0.00458333333333331,-0.1235185185185185],[-0.0067708333333333336,-0.12259259259259257],[-0.028958333333333287,-0.122037037037037],[-0.004375000000000047,-0.12814814814814812],[-0.004375000000000047,-0.12814814814814812],[-0.005729166666666666,-0.11777777777777781],[-0.005729166666666666,-0.11777777777777781],[-0.022395833333333334,-0.10796296296296298],[-0.004999999999999952,-0.11870370370370374],[-0.004999999999999952,-0.11870370370370374],[0.00927083333333331,-0.1479629629629629],[0.00927083333333331,-0.1479629629629629],[-0.002708333333333357,-0.14629629629629629],[-0.002708333333333357,-0.14629629629629629],[-0.025312499999999953,-0.16074074074074077],[-0.025312499999999953,-0.16074074074074077],[-0.03791666666666664,-0.1787037037037037],[-0.009062500000000048,-0.192037037037037],[-0.009062500000000048,-0.192037037037037],[0.03250000000000005,-0.21666666666666667]]","[[-0.0390625,0.01629629629629621,0.000299999713902821],[-0.0390625,0.01629629629629621,0.050500000000013756],[-0.024374999999999977,0.00851851851851856,0.05750000000000455],[-0.009687499999999953,0.0007407407407406986,0.07429999971390089],[0.007395833333333357,-0.0418518518518519,0.09440000009537641],[0.024895833333333308,-0.09500000000000001,0.11050000000000182],[0.02322916666666662,-0.12185185185185188,0.12679999971390998],[0.009583333333333381,-0.1259259259259259,0.1446999998092764],[0.0012500000000000473,-0.125,0.15940000009537414],[-0.0003124999999999526,-0.1559259259259259,0.17409999990464087],[-0.0018749999999999527,-0.1868518518518518,0.1922999997139101],[-0.006562499999999953,-0.1735185185185185,0.20800000000001262],[-0.011249999999999953,-0.18870370370370365,0.2267999997139043],[-0.016666666666666666,-0.21222222222222226,0.24159999990463632],[-0.016666666666666666,-0.21222222222222226,0.2575000000000074],[-0.019479166666666714,-0.22166666666666665,0.27419999980926946],[-0.019479166666666714,-0.22166666666666665,0.291000000000011],[-0.01739583333333338,-0.19666666666666666,0.30750000000000455],[-0.01260416666666669,-0.20259259259259255,0.32450000000000045],[-0.013229166666666714,-0.20851851851851855,0.3410000000000082],[-0.010208333333333286,-0.23629629629629634,0.3596999998092656],[-0.011874999999999976,-0.24222222222222226,0.3740999999046437],[-0.01895833333333338,-0.24111111111111108,0.3910999999046396],[-0.0125,-0.24833333333333338,0.4074000000953788],[-0.012916666666666642,-0.25037037037037035,0.42859999990463393],[-0.0002083333333333807,-0.22666666666666663,0.4431999998092664],[0.00635416666666669,-0.25018518518518523,0.4601999998092765],[0.0005208333333333333,-0.2381481481481482,0.47619999980926764],[-0.010416666666666666,-0.2227777777777778,0.4949000000953703],[-0.02510416666666669,-0.23499999999999996,0.5115000000000123],[-0.0421875,-0.22629629629629627,0.5286999998092767],[-0.04885416666666664,-0.18777777777777774,0.5451999998092703],[-0.044166666666666646,-0.16074074074074077,0.5605999999046389],[-0.05947916666666669,-0.14296296296296293,0.5787999997139082],[-0.05947916666666669,-0.14296296296296293,0.5907999997139086],[-0.06656249999999998,-0.13444444444444448,0.6075000000000017],[-0.06656249999999998,-0.13444444444444448,0.624199999809278],[-0.0859375,-0.16203703703703703,0.6440999999046397],[-0.0859375,-0.16203703703703703,0.6575000000000131],[-0.090625,-0.12166666666666665,0.6742999997139094],[-0.090625,-0.12166666666666665,0.6909000000953682],[-0.08791666666666664,-0.12629629629629627,0.7075999999046445],[-0.08791666666666664,-0.12629629629629627,0.7277999997139091],[-0.07999999999999995,-0.08333333333333333,0.7409999999999997],[-0.07999999999999995,-0.08333333333333333,0.7575999999046417],[-0.07124999999999998,-0.01722222222222214,0.7777999997139062],[-0.060000000000000026,0.039629629629629584,0.7956999998092726],[-0.06208333333333336,0.05814814814814811,0.8114000000953752],[-0.08187500000000002,0.06777777777777783,0.8295000000000101],[-0.07854166666666665,0.06740740740740736,0.8450000000000131],[-0.07864583333333333,0.06833333333333329,0.8616999998092751],[-0.0860416666666667,0.11500000000000005,0.8839000000953803],[-0.0860416666666667,0.11500000000000005,0.9025999999046377],[-0.09500000000000004,0.1300000000000001,0.9156999998092772],[-0.09500000000000004,0.1300000000000001,0.9242999997139094],[-0.13177083333333334,0.13740740740740748,0.9442999997139054],[-0.13270833333333332,0.09370370370370375,0.960000000000008],[-0.1330208333333334,0.05592592592592601,0.9744000000953719],[-0.13270833333333332,0.014629629629629588,0.9934000000953773],[-0.140625,-0.02907407407407416,1.0080000000000098],[-0.13312499999999997,-0.06074074074074076,1.024400000095369],[-0.13052083333333328,-0.06425925925925924,1.0410999999046453],[-0.1258333333333333,-0.06500000000000004,1.0604000000953704],[-0.11354166666666667,-0.1257407407407407,1.0744000000953804],[-0.11875,-0.15907407407407403,1.0919000000953787],[-0.09208333333333331,-0.19018518518518515,1.1079000000953698],[-0.09208333333333331,-0.19018518518518515,1.1265000000000072],[-0.07468750000000005,-0.22777777777777777,1.1410000000000053],[-0.10666666666666665,-0.22981481481481486,1.1576999998092674],[-0.1430208333333333,-0.21814814814814817,1.177500000000009],[-0.13322916666666665,-0.2044444444444444,1.1940999999046369],[-0.12729166666666672,-0.1985185185185185,1.2099000000953737],[-0.13708333333333336,-0.23981481481481481,1.2281999998092772],[-0.15812499999999996,-0.22981481481481486,1.2414000000953678],[-0.1829166666666667,-0.17833333333333334,1.2575999999046417],[-0.19697916666666668,-0.12999999999999998,1.2740999999046352],[-0.19416666666666665,-0.1161111111111111,1.2952999997139045],[-0.22749999999999998,-0.08537037037037042,1.3094000000953798],[-0.21458333333333332,-0.09148148148148144,1.3242999997139009],[-0.19479166666666667,-0.09592592592592594,1.3407999997139086],[-0.21000000000000002,-0.09148148148148144,1.3574000000953674],[-0.23385416666666667,-0.08740740740740739,1.3740999999046437],[-0.23854166666666668,-0.0485185185185186,1.3910000000000053],[-0.23718750000000005,-0.048333333333333374,1.4074000000953788],[-0.23250000000000004,-0.056666666666666705,1.4240999999046409],[-0.20874999999999996,-0.05851851851851856,1.4409000000953682],[-0.20604166666666662,-0.05648148148148148,1.4597999997139084],[-0.16906249999999995,-0.05129629629629638,1.4742999997139066],[-0.1313541666666667,-0.03944444444444436,1.4916999998092706],[-0.12302083333333336,-0.024814814814814772,1.510299999713908],[-0.11677083333333335,-0.020185185185185143,1.5245999999046376],[-0.115625,-0.006666666666666709,1.541000000000011],[-0.10739583333333336,0.018333333333333292,1.5575999999046388],[-0.09395833333333338,0.030740740740740784,1.5770000000000124],[-0.09395833333333338,0.030740740740740784,1.5911999998092767],[-0.07572916666666671,0.046481481481481526,1.6076999998092703],[-0.07572916666666671,0.01592592592592597,1.6240999999046437],[-0.07604166666666666,0.007592592592592635,1.6407999997139058],[-0.11010416666666671,0.01444444444444436,1.6597999997139112],[-0.13572916666666662,0.010370370370370412,1.6772999997139095],[-0.13666666666666671,-0.002777777777777778,1.693799999713903],[-0.1373958333333333,-0.04148148148148144,1.7099000000953737],[-0.12104166666666671,-0.05259259259259255,1.724799999713909],[-0.11010416666666671,-0.05277777777777778,1.7407999997139],[-0.09916666666666671,-0.052962962962963,1.7579000000953755],[-0.1045833333333333,-0.08074074074074078,1.7740999999046352],[-0.11104166666666669,-0.08203703703703706,1.7930999999046406],[-0.1125,-0.07851851851851847,1.8097999997139027],[-0.08687499999999998,-0.10129629629629627,1.8255999999046395],[-0.07947916666666661,-0.13185185185185183,1.8407999997139086],[-0.07427083333333329,-0.15777777777777777,1.8574000000953674],[-0.04750000000000002,-0.11222222222222226,1.8740999999046437],[-0.02385416666666664,-0.09370370370370375,1.891199999809274],[-0.026979166666666644,-0.11222222222222226,1.907500000000013],[-0.030104166666666644,-0.1307407407407408,1.9240999999046409],[-0.02166666666666662,-0.125,1.9406999998092687],[-0.02166666666666662,-0.125,1.9575000000000102],[0.0026041666666666665,-0.11925925925925922,1.974099999904638],[0.019687499999999976,-0.12462962962962965,1.992199999809273],[0.022916666666666665,-0.11481481481481481,2.0075999999046417],[0.03166666666666664,-0.12018518518518514,2.024099999904635],[0.04479166666666667,-0.09703703703703699,2.040699999809277],[0.0453125,-0.10351851851851848,2.057599999904639],[0.04041666666666662,-0.10796296296296298,2.0745000000000005],[0.050729166666666714,-0.09740740740740746,2.0944000000953764],[0.06812500000000009,-0.11555555555555551,2.1119000000953747],[0.08552083333333324,-0.13370370370370369,2.1289000000953706],[0.08729166666666661,-0.14592592592592596,2.1436999998092716],[0.09135416666666671,-0.15259259259259256,2.1577999997139017],[0.09375,-0.1727777777777778,2.174099999904641],[0.10177083333333338,-0.16370370370370366,2.1930999999046463],[0.11583333333333339,-0.1844444444444445,2.209299999713906],[0.12281250000000009,-0.21148148148148146,2.225500000000011],[0.13468749999999996,-0.22777777777777777,2.241099999904634],[0.14395833333333338,-0.2433333333333333,2.2575000000000074],[0.14729166666666677,-0.23944444444444446,2.274099999904635],[0.1506249999999999,-0.23555555555555555,2.293599999904643],[0.14708333333333337,-0.23277777777777775,2.3134000000953705],[0.14708333333333337,-0.23277777777777775,2.3244000000953804],[0.12635416666666663,-0.21277777777777773,2.340900000095374],[0.12302083333333323,-0.18925925925925924,2.357599999904636],[0.11447916666666676,-0.18351851851851855,2.3766999998092757],[0.10374999999999991,-0.1698148148148148,2.3931999998092692],[0.0865624999999999,-0.1648148148148148,2.4080999999046355],[0.08197916666666671,-0.147037037037037,2.428199999809266],[0.06270833333333338,-0.14333333333333328,2.4435000000000002],[0.04229166666666669,-0.13037037037037033,2.4575999999046445],[0.02177083333333331,-0.11592592592592597,2.4769000000953696],[0.005937500000000048,-0.0955555555555556,2.493599999904646],[0.01885416666666669,-0.10111111111111115,2.5095000000000027],[0.010625000000000048,-0.11851851851851852,2.524400000095369],[0.01229166666666662,-0.12037037037037036,2.5444000000953793],[0.017499999999999953,-0.08777777777777773,2.5582999997139098],[0.02958333333333331,-0.06370370370370367,2.5740999999046323],[0.02958333333333331,-0.06370370370370367,2.5907999997139086],[0.02677083333333338,-0.05462962962962963,2.6075000000000017],[0.02677083333333338,-0.05462962962962963,2.6240999999046437],[0.0046875,-0.04333333333333329,2.6407999997139058],[0.0046875,-0.04333333333333329,2.657500000000013],[-0.014374999999999952,-0.04129629629629621,2.674199999809275],[-0.014374999999999952,-0.04129629629629621,2.6910000000000025],[-0.0375,-0.032777777777777864,2.7075000000000102],[-0.0375,-0.032777777777777864,2.724099999904638],[-0.04833333333333331,-0.050370370370370454,2.7409000000953796],[-0.04833333333333331,-0.050370370370370454,2.7575000000000074],[-0.07729166666666672,-0.06962962962962967,2.774099999904635],[-0.09812500000000005,-0.0485185185185186,2.7945999999046336],[-0.12052083333333338,-0.05722222222222218,2.812900000095368],[-0.12052083333333338,-0.05722222222222218,2.824299999713901],[-0.12062499999999995,-0.09055555555555551,2.841000000000008],[-0.12854166666666664,-0.10944444444444448,2.85790000009537],[-0.13843749999999996,-0.13444444444444448,2.8766999998092757],[-0.10718749999999998,-0.10425925925925927,2.9017999997139015],[-0.10718749999999998,-0.10425925925925927,2.9095000000000084],[-0.08177083333333333,-0.10759259259259263,2.9277999997138977],[-0.04822916666666662,-0.11148148148148146,2.9430999999046463],[-0.04822916666666662,-0.11148148148148146,2.957699999809279],[-0.03229166666666667,-0.08907407407407411,2.977099999904638],[-0.02374999999999995,-0.08499999999999996,2.9952999997139074],[-0.02374999999999995,-0.08499999999999996,3.007699999809276],[-0.0328125,-0.0955555555555556,3.0279000000953715],[-0.027708333333333356,-0.06833333333333329,3.043599999904643],[-0.05770833333333331,-0.05611111111111113,3.061400000095375],[-0.07250000000000002,-0.05425925925925928,3.0790000000000077],[-0.078125,-0.045740740740740825,3.095099999904633],[-0.09916666666666671,-0.09111111111111109,3.1126999998092657],[-0.11739583333333338,-0.09370370370370375,3.127299999713898],[-0.13958333333333334,-0.1037037037037037,3.1415000000000077],[-0.1352083333333333,-0.10333333333333336,3.1599000000953765],[-0.1352083333333333,-0.10333333333333336,3.177400000095375],[-0.13875000000000004,-0.07814814814814813,3.190799999713903],[-0.12927083333333336,-0.0668518518518519,3.207400000095376],[-0.09812500000000005,-0.05555555555555555,3.2242999997139066],[-0.08458333333333339,-0.04092592592592597,3.2407999997139],[-0.07145833333333336,0.0011111111111111532,3.2575000000000074],[-0.06885416666666669,0.014259259259259343,3.274400000095369],[-0.05802083333333338,0.03796296296296296,3.