inst1_resp.keys,inst1_resp.rt,calibrationMouse.x,calibrationMouse.y,calibrationMouse.leftButton,calibrationMouse.midButton,calibrationMouse.rightButton,calibrationClick.x,calibrationClick.y,calibrationClick.leftButton,calibrationClick.midButton,calibrationClick.rightButton,trialsc.thisRepN,trialsc.thisTrialN,trialsc.thisN,trialsc.thisIndex,trialsc.ran,calibration_x,calibration_y,participant,session,date,expName,psychopyVersion,OS,frameRate,calibrationClick.clicked_name,ScreenRes_pixels,mouse_2.x,mouse_2.y,mouse_2.leftButton,mouse_2.midButton,mouse_2.rightButton,mouse_2.time,mouse_2.clicked_name,Camera_pixels,mouse.x,mouse.y,mouse.leftButton,mouse.midButton,mouse.rightButton,mouse.time,mouse.clicked_name,Choice,Trial,TrialDuration,MOUSE_GAZE,ET_GAZE,ET_GAZE_x_T,time,unixTime,ET_GAZE_NF,Loc_Bus_label,Loc_Metro_label,Loc_RH_label,Loc_Cost_label,Loc_Travel_label,Loc_Comfort_label,Loc_Bus_cost,Loc_Metro_cost,Loc_RH_cost,Loc_Bus_travel,Loc_Metro_travel,Loc_RH_travel,Loc_Bus_comfort,Loc_Metro_comfort,Loc_RH_comfort,trials.thisRepN,trials.thisTrialN,trials.thisN,trials.thisIndex,trials.ran,Block,Device,RH_cost,RH_travel_time,RH_Comfort,metro_cost,metro_travel_time,metro_Comfort,Bus_cost,Bus_travel_time,Bus_Comfort
space,2.9675,0.102083333,-0.364814815,1,0,0,-0.352083333,0.001851852,1,0,0,0,0,0,6,1,-0.33,0,42,001,2024-11-20_11h01.55.181,Attention_exp_legacy,2023.1.0,Win32,60.24096386,,,,,,,,,,,,,,,,,,,,,,,,,,,,,,,,,,,,,,,,,,,,,,,,,,,,,,,,,
,,,,,,,-0.332291667,-0.664814815,1,0,0,0,1,1,4,1,-0.33,-0.67,42,001,2024-11-20_11h01.55.181,Attention_exp_legacy,2023.1.0,Win32,60.24096386,calibration_square,,,,,,,,,,,,,,,,,,,,,,,,,,,,,,,,,,,,,,,,,,,,,,,,,,,,,,,,
,,,,,,,-0.339583333,-0.316666667,1,0,0,0,2,2,5,1,-0.33,-0.33,42,001,2024-11-20_11h01.55.181,Attention_exp_legacy,2023.1.0,Win32,60.24096386,,,,,,,,,,,,,,,,,,,,,,,,,,,,,,,,,,,,,,,,,,,,,,,,,,,,,,,,,
,,,,,,,0.329166667,-0.675925926,1,0,0,0,3,3,14,1,0.33,-0.67,42,001,2024-11-20_11h01.55.181,Attention_exp_legacy,2023.1.0,Win32,60.24096386,calibration_square,,,,,,,,,,,,,,,,,,,,,,,,,,,,,,,,,,,,,,,,,,,,,,,,,,,,,,,,
,,,,,,,-0.636458333,0.318518519,1,0,0,0,4,4,3,1,-0.67,0.33,42,001,2024-11-20_11h01.55.181,Attention_exp_legacy,2023.1.0,Win32,60.24096386,,,,,,,,,,,,,,,,,,,,,,,,,,,,,,,,,,,,,,,,,,,,,,,,,,,,,,,,,
,,,,,,,0.011458333,0.014814815,1,0,0,0,5,5,11,1,0,0,42,001,2024-11-20_11h01.55.181,Attention_exp_legacy,2023.1.0,Win32,60.24096386,,,,,,,,,,,,,,,,,,,,,,,,,,,,,,,,,,,,,,,,,,,,,,,,,,,,,,,,,
,,,,,,,-0.319791667,0.664814815,1,0,0,0,6,6,8,1,-0.33,0.67,42,001,2024-11-20_11h01.55.181,Attention_exp_legacy,2023.1.0,Win32,60.24096386,,,,,,,,,,,,,,,,,,,,,,,,,,,,,,,,,,,,,,,,,,,,,,,,,,,,,,,,,
,,,,,,,-0.007291667,0.312962963,1,0,0,0,7,7,12,1,0,0.33,42,001,2024-11-20_11h01.55.181,Attention_exp_legacy,2023.1.0,Win32,60.24096386,,,,,,,,,,,,,,,,,,,,,,,,,,,,,,,,,,,,,,,,,,,,,,,,,,,,,,,,,
,,,,,,,0.313541667,0.666666667,1,0,0,0,8,8,18,1,0.33,0.67,42,001,2024-11-20_11h01.55.181,Attention_exp_legacy,2023.1.0,Win32,60.24096386,,,,,,,,,,,,,,,,,,,,,,,,,,,,,,,,,,,,,,,,,,,,,,,,,,,,,,,,,
,,,,,,,0.316666667,0.02962963,1,0,0,0,9,9,16,1,0.33,0,42,001,2024-11-20_11h01.55.181,Attention_exp_legacy,2023.1.0,Win32,60.24096386,,,,,,,,,,,,,,,,,,,,,,,,,,,,,,,,,,,,,,,,,,,,,,,,,,,,,,,,,
,,,,,,,-0.660416667,-0.688888889,1,0,0,0,10,10,0,1,-0.67,-0.67,42,001,2024-11-20_11h01.55.181,Attention_exp_legacy,2023.1.0,Win32,60.24096386,,,,,,,,,,,,,,,,,,,,,,,,,,,,,,,,,,,,,,,,,,,,,,,,,,,,,,,,,
,,,,,,,0.0125,0.62037037,1,0,0,0,11,11,13,1,0,0.67,42,001,2024-11-20_11h01.55.181,Attention_exp_legacy,2023.1.0,Win32,60.24096386,,,,,,,,,,,,,,,,,,,,,,,,,,,,,,,,,,,,,,,,,,,,,,,,,,,,,,,,,
,,,,,,,-0.339583333,0.32037037,1,0,0,0,12,12,7,1,-0.33,0.33,42,001,2024-11-20_11h01.55.181,Attention_exp_legacy,2023.1.0,Win32,60.24096386,calibration_square,,,,,,,,,,,,,,,,,,,,,,,,,,,,,,,,,,,,,,,,,,,,,,,,,,,,,,,,
,,,,,,,0.661458333,0.707407407,1,0,0,0,13,13,19,1,0.67,0.67,42,001,2024-11-20_11h01.55.181,Attention_exp_legacy,2023.1.0,Win32,60.24096386,,,,,,,,,,,,,,,,,,,,,,,,,,,,,,,,,,,,,,,,,,,,,,,,,,,,,,,,,
,,,,,,,0.667708333,-0.681481481,1,0,0,0,14,14,20,1,0.67,-0.67,42,001,2024-11-20_11h01.55.181,Attention_exp_legacy,2023.1.0,Win32,60.24096386,,,,,,,,,,,,,,,,,,,,,,,,,,,,,,,,,,,,,,,,,,,,,,,,,,,,,,,,,
,,,,,,,0.334375,0.333333333,1,0,0,0,15,15,17,1,0.33,0.33,42,001,2024-11-20_11h01.55.181,Attention_exp_legacy,2023.1.0,Win32,60.24096386,calibration_square,,,,,,,,,,,,,,,,,,,,,,,,,,,,,,,,,,,,,,,,,,,,,,,,,,,,,,,,
,,,,,,,0.0125,-0.311111111,1,0,0,0,16,16,10,1,0,-0.33,42,001,2024-11-20_11h01.55.181,Attention_exp_legacy,2023.1.0,Win32,60.24096386,,,,,,,,,,,,,,,,,,,,,,,,,,,,,,,,,,,,,,,,,,,,,,,,,,,,,,,,,
,,,,,,,-0.682291667,-0.309259259,1,0,0,0,17,17,1,1,-0.67,-0.33,42,001,2024-11-20_11h01.55.181,Attention_exp_legacy,2023.1.0,Win32,60.24096386,,,,,,,,,,,,,,,,,,,,,,,,,,,,,,,,,,,,,,,,,,,,,,,,,,,,,,,,,
,,,,,,,0.004166667,-0.662962963,1,0,0,0,18,18,9,1,0,-0.67,42,001,2024-11-20_11h01.55.181,Attention_exp_legacy,2023.1.0,Win32,60.24096386,calibration_square,,,,,,,,,,,,,,,,,,,,,,,,,,,,,,,,,,,,,,,,,,,,,,,,,,,,,,,,
,,,,,,,-0.667708333,0.02037037,1,0,0,0,19,19,2,1,-0.67,0,42,001,2024-11-20_11h01.55.181,Attention_exp_legacy,2023.1.0,Win32,60.24096386,,,,,,,,,,,,,,,,,,,,,,,,,,,,,,,,,,,,,,,,,,,,,,,,,,,,,,,,,
,,,,,,,0.339583333,-0.338888889,1,0,0,0,20,20,15,1,0.33,-0.33,42,001,2024-11-20_11h01.55.181,Attention_exp_legacy,2023.1.0,Win32,60.24096386,calibration_square,,,,,,,,,,,,,,,,,,,,,,,,,,,,,,,,,,,,,,,,,,,,,,,,,,,,,,,,
,,,,,,,,,,,,,,,,,,,42,001,2024-11-20_11h01.55.181,Attention_exp_legacy,2023.1.0,Win32,60.24096386,,"[1920,1080]",[-0.06875],[-0.5222222222222223],[1],[0],[0],[0.8635000000000019],"[""StartButton""]","[640,480]",[0.14583333333333334],[0.4222222222222222],[1],[0],[0],[3.886900000095366],"[""Metro_label""]",Metro_label,1,4.91,"[[-0.04895833333333333,-0.524074074074074],[-0.04895833333333333,-0.524074074074074],[-0.04895833333333333,-0.524074074074074],[-0.04895833333333333,-0.524074074074074],[-0.04895833333333333,-0.524074074074074],[-0.04895833333333333,-0.524074074074074],[-0.04895833333333333,-0.524074074074074],[-0.04895833333333333,-0.524074074074074],[-0.04895833333333333,-0.524074074074074],[-0.04895833333333333,-0.524074074074074],[-0.04895833333333333,-0.524074074074074],[-0.04895833333333333,-0.524074074074074],[-0.04895833333333333,-0.524074074074074],[-0.04895833333333333,-0.524074074074074],[-0.04895833333333333,-0.524074074074074],[-0.052083333333333336,-0.524074074074074],[-0.052083333333333336,-0.524074074074074],[-0.05520833333333333,-0.5277777777777778],[-0.05520833333333333,-0.5277777777777778],[-0.053125,-0.5296296296296297],[-0.053125,-0.5296296296296297],[-0.053125,-0.5296296296296297],[-0.053125,-0.5296296296296297],[-0.053125,-0.5296296296296297],[-0.053125,-0.5296296296296297],[-0.053125,-0.5296296296296297],[-0.053125,-0.5296296296296297],[-0.053125,-0.5296296296296297],[-0.053125,-0.5296296296296297],[-0.052083333333333336,-0.5351851851851852],[-0.051041666666666666,-0.5370370370370371],[-0.051041666666666666,-0.5407407407407407],[-0.051041666666666666,-0.5407407407407407],[-0.051041666666666666,-0.5407407407407407],[-0.051041666666666666,-0.5407407407407407],[-0.051041666666666666,-0.5407407407407407],[-0.051041666666666666,-0.5407407407407407],[-0.051041666666666666,-0.5407407407407407],[-0.051041666666666666,-0.5407407407407407],[-0.051041666666666666,-0.5407407407407407],[-0.051041666666666666,-0.5407407407407407],[-0.051041666666666666,-0.5407407407407407],[-0.051041666666666666,-0.5407407407407407],[-0.051041666666666666,-0.5407407407407407],[-0.051041666666666666,-0.5407407407407407],[-0.051041666666666666,-0.5407407407407407],[-0.051041666666666666,-0.5407407407407407],[-0.051041666666666666,-0.5407407407407407],[-0.051041666666666666,-0.5407407407407407],[-0.051041666666666666,-0.5407407407407407],[-0.051041666666666666,-0.5407407407407407],[-0.051041666666666666,-0.5407407407407407],[-0.051041666666666666,-0.5407407407407407],[-0.051041666666666666,-0.5407407407407407],[-0.051041666666666666,-0.5407407407407407],[-0.051041666666666666,-0.5407407407407407],[-0.051041666666666666,-0.5407407407407407],[-0.051041666666666666,-0.5407407407407407],[-0.051041666666666666,-0.5407407407407407],[-0.051041666666666666,-0.5407407407407407],[-0.051041666666666666,-0.5407407407407407],[-0.051041666666666666,-0.5407407407407407],[-0.051041666666666666,-0.5407407407407407],[-0.051041666666666666,-0.5407407407407407],[-0.051041666666666666,-0.5407407407407407],[-0.051041666666666666,-0.5407407407407407],[-0.051041666666666666,-0.5407407407407407],[-0.051041666666666666,-0.5407407407407407],[-0.051041666666666666,-0.5370370370370371],[-0.04375,-0.524074074074074],[-0.042708333333333334,-0.5185185185185185],[-0.03958333333333333,-0.5111111111111111],[-0.03854166666666667,-0.5055555555555555],[-0.03854166666666667,-0.5037037037037037],[-0.03854166666666667,-0.5],[-0.03854166666666667,-0.5],[-0.03854166666666667,-0.4962962962962963],[-0.03854166666666667,-0.49444444444444446],[-0.03854166666666667,-0.49074074074074076],[-0.03854166666666667,-0.4888888888888889],[-0.03854166666666667,-0.4888888888888889],[-0.03854166666666667,-0.4888888888888889],[-0.03854166666666667,-0.4888888888888889],[-0.03854166666666667,-0.4888888888888889],[-0.03854166666666667,-0.4888888888888889],[-0.03854166666666667,-0.4888888888888889],[-0.03854166666666667,-0.4888888888888889],[-0.03854166666666667,-0.4888888888888889],[-0.03854166666666667,-0.4888888888888889],[-0.03854166666666667,-0.48333333333333334],[-0.026041666666666668,-0.46296296296296297],[-0.00625,-0.4388888888888889],[0.017708333333333333,-0.412962962962963],[0.040625,-0.37592592592592594],[0.05625,-0.3425925925925926],[0.06770833333333333,-0.30185185185185187],[0.07083333333333333,-0.29074074074074074],[0.07395833333333333,-0.2740740740740741],[0.07604166666666666,-0.26481481481481484],[0.07604166666666666,-0.2574074074074074],[0.07604166666666666,-0.25555555555555554],[0.07604166666666666,-0.25555555555555554],[0.07604166666666666,-0.25555555555555554],[0.07604166666666666,-0.25555555555555554],[0.07604166666666666,-0.25555555555555554],[0.07604166666666666,-0.25555555555555554],[0.07604166666666666,-0.25555555555555554],[0.07604166666666666,-0.25555555555555554],[0.07604166666666666,-0.25555555555555554],[0.07604166666666666,-0.25555555555555554],[0.07604166666666666,-0.25555555555555554],[0.07604166666666666,-0.25555555555555554],[0.07604166666666666,-0.25555555555555554],[0.07604166666666666,-0.25555555555555554],[0.07604166666666666,-0.25555555555555554],[0.07604166666666666,-0.25555555555555554],[0.07604166666666666,-0.25555555555555554],[0.07604166666666666,-0.25555555555555554],[0.07604166666666666,-0.25555555555555554],[0.07604166666666666,-0.25555555555555554],[0.07604166666666666,-0.25555555555555554],[0.07604166666666666,-0.25555555555555554],[0.07604166666666666,-0.25555555555555554],[0.07604166666666666,-0.25555555555555554],[0.07604166666666666,-0.25555555555555554],[0.07604166666666666,-0.25555555555555554],[0.07604166666666666,-0.25555555555555554],[0.07604166666666666,-0.25555555555555554],[0.07604166666666666,-0.25555555555555554],[0.07604166666666666,-0.25555555555555554],[0.07604166666666666,-0.25555555555555554],[0.07604166666666666,-0.25555555555555554],[0.07604166666666666,-0.25],[0.07604166666666666,-0.24444444444444444],[0.07708333333333334,-0.2351851851851852],[0.08333333333333333,-0.2037037037037037],[0.090625,-0.17777777777777778],[0.09583333333333334,-0.15555555555555556],[0.10208333333333333,-0.12962962962962962],[0.10833333333333334,-0.1],[0.11458333333333333,-0.07407407407407407],[0.125,-0.040740740740740744],[0.134375,-0.011111111111111112],[0.14270833333333333,0.016666666666666666],[0.15104166666666666,0.03888888888888889],[0.15729166666666666,0.06481481481481481],[0.1625,0.08703703703703704],[0.165625,0.1],[0.16979166666666667,0.12222222222222222],[0.17395833333333333,0.13333333333333333],[0.175,0.1425925925925926],[0.17604166666666668,0.1537037037037037],[0.17916666666666667,0.1685185185185185],[0.18020833333333333,0.18703703703703703],[0.18020833333333333,0.1925925925925926],[0.18333333333333332,0.2111111111111111],[0.18333333333333332,0.22407407407407406],[0.18333333333333332,0.23148148148148148],[0.184375,0.24814814814814815],[0.18645833333333334,0.26296296296296295],[0.18645833333333334,0.2777777777777778],[0.18645833333333334,0.29259259259259257],[0.1875,0.30185185185185187],[0.1875,0.30925925925925923],[0.1875,0.3148148148148148],[0.1875,0.32037037037037036],[0.1875,0.32037037037037036],[0.1875,0.32407407407407407],[0.1875,0.32407407407407407],[0.1875,0.32407407407407407],[0.18645833333333334,0.32592592592592595],[0.18645833333333334,0.32592592592592595],[0.18645833333333334,0.32592592592592595],[0.18541666666666667,0.32592592592592595],[0.184375,0.32592592592592595],[0.184375,0.32592592592592595],[0.184375,0.32592592592592595],[0.18333333333333332,0.32407407407407407],[0.18333333333333332,0.32222222222222224],[0.18333333333333332,0.32037037037037036],[0.18333333333333332,0.3148148148148148],[0.18333333333333332,0.3148148148148148],[0.18333333333333332,0.3111111111111111],[0.18333333333333332,0.3037037037037037],[0.18125,0.2962962962962963],[0.17604166666666668,0.2814814814814815],[0.171875,0.26296296296296295],[0.171875,0.25555555555555554],[0.171875,0.25555555555555554],[0.171875,0.25555555555555554],[0.171875,0.25555555555555554],[0.171875,0.25555555555555554],[0.171875,0.25555555555555554],[0.171875,0.25555555555555554],[0.171875,0.25555555555555554],[0.171875,0.25555555555555554],[0.171875,0.25555555555555554],[0.171875,0.25555555555555554],[0.171875,0.25555555555555554],[0.171875,0.25555555555555554],[0.171875,0.25555555555555554],[0.171875,0.25555555555555554],[0.171875,0.25555555555555554],[0.171875,0.25555555555555554],[0.171875,0.25555555555555554],[0.171875,0.25555555555555554],[0.171875,0.25555555555555554],[0.171875,0.25555555555555554],[0.171875,0.25555555555555554],[0.171875,0.25555555555555554],[0.171875,0.25555555555555554],[0.171875,0.25555555555555554],[0.171875,0.25555555555555554],[0.171875,0.25555555555555554],[0.171875,0.25555555555555554],[0.171875,0.25555555555555554],[0.171875,0.25555555555555554],[0.17083333333333334,0.26481481481481484],[0.16875,0.2777777777777778],[0.16666666666666666,0.29074074074074074],[0.16354166666666667,0.3055555555555556],[0.15729166666666666,0.3388888888888889],[0.15208333333333332,0.3685185185185185],[0.146875,0.387037037037037],[0.14583333333333334,0.39814814814814814],[0.14583333333333334,0.40370370370370373],[0.14583333333333334,0.4111111111111111],[0.14583333333333334,0.4111111111111111],[0.14583333333333334,0.4166666666666667],[0.14583333333333334,0.4203703703703704],[0.14583333333333334,0.4222222222222222],[0.14583333333333334,0.4222222222222222],[0.14583333333333334,0.4222222222222222],[0.14583333333333334,0.4222222222222222],[0.14583333333333334,0.4222222222222222],[0.14583333333333334,0.4222222222222222],[0.14583333333333334,0.4222222222222222],[0.14583333333333334,0.4222222222222222],[0.14583333333333334,0.4222222222222222],[0.14583333333333334,0.4222222222222222],[0.14583333333333334,0.4222222222222222],[0.14583333333333334,0.4222222222222222],[0.14583333333333334,0.4222222222222222],[0.14583333333333334,0.4222222222222222],[0.14583333333333334,0.4222222222222222],[0.14583333333333334,0.4222222222222222],[0.14583333333333334,0.4222222222222222],[0.14583333333333334,0.4222222222222222],[0.14583333333333334,0.4222222222222222],[0.14583333333333334,0.4222222222222222],[0.14583333333333334,0.4222222222222222],[0.14583333333333334,0.4222222222222222],[0.14583333333333334,0.4222222222222222],[0.14583333333333334,0.4222222222222222],[0.14583333333333334,0.4222222222222222],[0.14583333333333334,0.4222222222222222],[0.14583333333333334,0.4222222222222222],[0.14583333333333334,0.4222222222222222],[0.14583333333333334,0.4222222222222222],[0.14583333333333334,0.4222222222222222],[0.14583333333333334,0.4222222222222222],[0.14583333333333334,0.4222222222222222],[0.14583333333333334,0.4222222222222222],[0.14583333333333334,0.4222222222222222],[0.14583333333333334,0.4222222222222222],[0.14583333333333334,0.4222222222222222],[0.14583333333333334,0.4222222222222222],[0.14583333333333334,0.4222222222222222],[0.14583333333333334,0.4222222222222222],[0.14583333333333334,0.4222222222222222],[0.14583333333333334,0.4222222222222222],[0.14583333333333334,0.4222222222222222],[0.14583333333333334,0.4222222222222222],[0.14583333333333334,0.4222222222222222],[0.14583333333333334,0.4222222222222222],[0.14583333333333334,0.4222222222222222],[0.14583333333333334,0.4222222222222222],[0.14583333333333334,0.4222222222222222],[0.14583333333333334,0.4222222222222222],[0.14583333333333334,0.4222222222222222],[0.14583333333333334,0.4222222222222222],[0.14583333333333334,0.4222222222222222],[0.14583333333333334,0.4222222222222222],[0.14583333333333334,0.4222222222222222],[0.14583333333333334,0.4222222222222222],[0.14583333333333334,0.4222222222222222],[0.14583333333333334,0.4222222222222222],[0.14583333333333334,0.4222222222222222],[0.14583333333333334,0.4222222222222222],[0.14583333333333334,0.4222222222222222],[0.14583333333333334,0.4222222222222222],[0.14583333333333334,0.4222222222222222],[0.14583333333333334,0.4222222222222222]]","[[0.11854166666666661,-0.06611111111111109],[0.11854166666666661,-0.06611111111111109],[0.11854166666666661,-0.06611111111111109],[0.12291666666666666,-0.062037037037037036],[0.12291666666666666,-0.062037037037037036],[0.12270833333333328,-0.024814814814814772],[0.12270833333333328,-0.024814814814814772],[0.11749999999999995,-0.018703703703703747],[0.11749999999999995,-0.018703703703703747],[0.1304166666666667,-0.009259259259259259],[0.1304166666666667,-0.009259259259259259],[0.14270833333333333,0.000925925925925926],[0.14270833333333333,0.000925925925925926],[0.1638541666666666,0.049074074074074076],[0.1638541666666666,0.049074074074074076],[0.15229166666666671,0.027222222222222307],[0.15229166666666671,0.027222222222222307],[0.11916666666666677,0.08925925925925934],[0.11916666666666677,0.08925925925925934],[0.1140625,0.13777777777777775],[0.1140625,0.13777777777777775],[0.0765625,0.13407407407407404],[0.0765625,0.13407407407407404],[0.04135416666666671,0.2012962962962964],[0.04135416666666671,0.2012962962962964],[0.027499999999999976,0.27981481481481485],[0.027499999999999976,0.27981481481481485],[0.012812499999999952,0.3307407407407408],[0.012812499999999952,0.3307407407407408],[-0.05447916666666662,0.4118518518518518],[-0.05447916666666662,0.4118518518518518],[-0.11687500000000005,0.4209259259259258],[-0.11687500000000005,0.4209259259259258],[-0.19760416666666672,0.37666666666666665],[-0.19760416666666672,0.37666666666666665],[-0.2679166666666667,0.3955555555555556],[-0.2865625,0.3677777777777778],[-0.3375,0.31814814814814807],[-0.3241666666666667,0.34222222222222215],[-0.31364583333333335,0.30925925925925923],[-0.3069791666666667,0.31370370370370365],[-0.3069791666666667,0.31370370370370365],[-0.30197916666666663,0.30574074074074076],[-0.2504166666666666,0.27074074074074084],[-0.2504166666666666,0.27074074074074084],[-0.19958333333333336,0.3007407407407407],[-0.13833333333333328,0.3838888888888888],[-0.059583333333333384,0.41203703703703703],[-0.0007291666666667141,0.3707407407407408],[0.058958333333333356,0.3785185185185185],[0.08677083333333328,0.34074074074074073],[0.12270833333333328,0.2772222222222223],[0.1586458333333333,0.21370370370370367],[0.20729166666666668,0.1479629629629629],[0.26364583333333325,0.10925925925925926],[0.3164583333333333,0.07685185185185185],[0.3164583333333333,0.07685185185185185],[0.33864583333333326,-0.01055555555555564],[0.36270833333333335,-0.07796296296296301],[0.36270833333333335,-0.07796296296296301],[0.3765625,-0.11314814814814819],[0.3765625,-0.11314814814814819],[0.36864583333333345,-0.16518518518518516],[0.37770833333333326,-0.18055555555555555],[0.3671875,-0.1940740740740741],[0.34645833333333326,-0.12981481481481486],[0.30583333333333323,-0.044999999999999915],[0.23385416666666667,-0.0003703703703704546],[0.16302083333333334,0.04796296296296292],[0.1328125,0.12722222222222232],[0.1328125,0.12722222222222232],[0.09354166666666662,0.23407407407407405],[0.09354166666666662,0.23407407407407405],[0.04729166666666664,0.32259259259259265],[0.0296875,0.39740740740740743],[-0.005208333333333333,0.45203703703703707],[-0.01864583333333331,0.5170370370370371],[-0.03822916666666672,0.49666666666666676],[-0.016770833333333356,0.43037037037037035],[0.026041666666666668,0.4],[0.04093749999999995,0.35703703703703693],[0.04489583333333336,0.30037037037037045],[0.050729166666666714,0.28166666666666673],[0.06187499999999998,0.29370370370370374],[0.06843750000000005,0.23462962962962972],[0.08166666666666676,0.1714814814814815],[0.07677083333333339,0.08648148148148156],[0.08822916666666672,0.009074074074074031],[0.07333333333333343,-0.0003703703703704546],[0.043229166666666666,-0.009074074074074031],[0.043229166666666666,-0.009074074074074031],[0.0484375,0.030555555555555555],[0.0484375,0.030555555555555555],[0.06208333333333336,0.0485185185185186],[0.059375,0.052407407407407326],[0.03708333333333336,0.0242592592592593],[0.03708333333333336,0.0242592592592593],[0.029270833333333357,0.1014814814814814],[0.015104166666666667,0.16629629629629622],[0.007187499999999976,0.23129629629629625],[0.02177083333333331,0.2920370370370371],[0.030520833333333285,0.3248148148148148],[0.04729166666666664,0.33555555555555566],[0.05552083333333328,0.30685185185185193],[0.036145833333333384,0.3257407407407407],[0.02364583333333338,0.30574074074074076],[0.05239583333333329,0.31240740740740747],[0.07125000000000009,0.28481481481481474],[0.0678124999999999,0.2814814814814815],[0.05437500000000005,0.2566666666666667],[0.0109375,0.25388888888888894],[-0.02333333333333331,0.2581481481481481],[-0.06416666666666669,0.2764814814814814],[-0.09052083333333331,0.31370370370370365],[-0.09291666666666672,0.3727777777777777],[-0.08854166666666667,0.3979629629629629],[-0.10416666666666667,0.4161111111111112],[-0.12593749999999998,0.4618518518518518],[-0.11666666666666667,0.4420370370370371],[-0.10739583333333336,0.5027777777777778],[-0.090625,0.5457407407407409],[-0.090625,0.5457407407407409],[-0.08343750000000003,0.5501851851851852],[-0.08343750000000003,0.5501851851851852],[-0.05770833333333331,0.5537037037037037],[-0.05770833333333331,0.5537037037037037],[-0.07729166666666672,0.5305555555555556],[-0.08989583333333329,0.4587037037037038],[-0.11687500000000005,0.41944444444444445],[-0.15333333333333338,0.36944444444444446],[-0.175,0.2874074074074075],[-0.20541666666666672,0.24666666666666676],[-0.22645833333333332,0.18407407407407403],[-0.22645833333333332,0.18407407407407403],[-0.2195833333333333,0.15129629629629637],[-0.20687500000000003,0.14740740740740746],[-0.22531249999999994,0.13907407407407413],[-0.16281249999999994,0.1925925925925926],[-0.16281249999999994,0.1925925925925926],[-0.11208333333333335,0.247037037037037],[-0.0734375,0.28129629629629627],[-0.011249999999999953,0.32333333333333336],[0.04468749999999998,0.3485185185185186],[0.04468749999999998,0.3485185185185186],[0.10958333333333338,0.3768518518518518],[0.10958333333333338,0.3768518518518518],[0.1443749999999999,0.3757407407407407],[0.1443749999999999,0.3757407407407407],[0.1553124999999999,0.3655555555555555],[0.1553124999999999,0.3655555555555555],[0.16958333333333328,0.3616666666666666],[0.16958333333333328,0.3616666666666666],[0.1935416666666666,0.35240740740740734],[0.18020833333333333,0.280925925925926],[0.18020833333333333,0.280925925925926],[0.16020833333333329,0.22314814814814815],[0.16020833333333329,0.22314814814814815],[0.1599999999999999,0.18351851851851855],[0.15333333333333338,0.11796296296296305],[0.14427083333333332,0.07370370370370362],[0.12645833333333342,0.018518518518518517],[0.14593749999999991,0.04462962962962967],[0.1650000000000001,0.03166666666666671],[0.16291666666666677,-0.013518518518518435],[0.17052083333333337,-0.019444444444444445],[0.1658333333333334,-0.027777777777777776],[0.1678124999999999,-0.04981481481481477],[0.14989583333333342,-0.05814814814814811],[0.1493750000000001,-0.042407407407407366],[0.1493750000000001,-0.042407407407407366],[0.14416666666666675,-0.011666666666666582],[0.14010416666666667,-0.025370370370370456],[0.13135416666666658,-0.09296296296296294],[0.11052083333333323,-0.1368518518518518],[0.07697916666666677,-0.10351851851851848],[0.05625,-0.11018518518518519],[0.0068750000000000235,-0.12462962962962965],[-0.042499999999999954,-0.13907407407407413],[-0.04468749999999998,-0.15870370370370368],[-0.0765625,-0.18851851851851853],[-0.09645833333333335,-0.24000000000000005],[-0.09645833333333335,-0.24000000000000005],[-0.11635416666666672,-0.19296296296296295],[-0.11635416666666672,-0.19296296296296295],[-0.13395833333333335,-0.16796296296296295],[-0.1265625,-0.17703703703703708],[-0.09656250000000005,-0.21129629629629634],[-0.07093750000000003,-0.2522222222222222],[-0.0171875,-0.2748148148148148],[0.02354166666666669,-0.27907407407407403],[0.0003124999999999526,-0.27166666666666667],[0.0010416666666666667,-0.2588888888888889],[0.0010416666666666667,-0.2588888888888889],[-0.009791666666666643,-0.19388888888888886],[-0.015208333333333357,-0.19592592592592595],[0.005520833333333286,-0.19314814814814818],[0.009687499999999953,-0.16166666666666668],[-0.004375000000000047,-0.15870370370370368],[-0.03322916666666664,-0.0514814814814814],[-0.03291666666666669,0.026111111111111154],[-0.07010416666666662,0.0801851851851851],[-0.06614583333333333,0.1359259259259259],[-0.06864583333333331,0.21962962962962967],[-0.06687500000000005,0.2577777777777779],[-0.07000000000000005,0.23944444444444435],[-0.1015625,0.23833333333333342],[-0.1015625,0.23833333333333342],[-0.14958333333333335,0.2294444444444444],[-0.18083333333333335,0.24314814814814806],[-0.2013541666666666,0.23481481481481473],[-0.25104166666666666,0.256111111111111],[-0.21968749999999998,0.2920370370370371],[-0.2046875,0.3520370370370371],[-0.22208333333333338,0.37962962962962965],[-0.23927083333333338,0.4207407407407408],[-0.1938541666666667,0.5124074074074075],[-0.17999999999999997,0.567962962962963],[-0.11749999999999995,0.5937037037037037],[-0.04072916666666669,0.5775925925925925],[0.034062500000000044,0.5044444444444444],[0.0962500000000001,0.42740740740740735],[0.13562500000000005,0.3264814814814814],[0.13562500000000005,0.3264814814814814],[0.17770833333333325,0.16351851851851842],[0.2591666666666666,0.01722222222222214],[0.34270833333333334,-0.1764814814814815],[0.3020833333333333,-0.30333333333333334],[0.3020833333333333,-0.30333333333333334],[0.2930208333333333,-0.3940740740740741],[0.2930208333333333,-0.3940740740740741],[0.2734375,-0.44074074074074077],[0.24500000000000005,-0.4646296296296296],[0.2165625000000001,-0.4885185185185185],[0.1959374999999999,-0.49666666666666665],[0.1678124999999999,-0.49666666666666665],[0.14645833333333325,-0.49129629629629634],[0.11375000000000005,-0.4866666666666667],[0.06031249999999998,-0.4287037037037037],[0.06666666666666667,-0.41092592592592586],[0.09145833333333328,-0.3972222222222222],[0.1015625,-0.3755555555555556],[0.1015625,-0.3755555555555556],[0.09697916666666657,-0.3509259259259259],[0.08125,-0.3244444444444444],[0.08125,-0.3244444444444444],[0.07677083333333339,-0.3496296296296296],[0.08052083333333329,-0.37092592592592594],[0.07354166666666657,-0.3883333333333333],[0.07354166666666657,-0.3883333333333333],[0.06416666666666669,-0.3787037037037037],[0.06812500000000009,-0.3844444444444445],[0.07364583333333338,-0.3801851851851852],[0.07000000000000005,-0.38481481481481483],[0.059375,-0.4038888888888889],[0.051979166666666646,-0.4179629629629629],[0.06708333333333343,-0.4185185185185185],[0.07125000000000009,-0.384074074074074],[0.06958333333333329,-0.3424074074074074],[0.0821875000000001,-0.2846296296296296],[0.0990624999999999,-0.29962962962962963],[0.0990624999999999,-0.29962962962962963],[0.11020833333333328,-0.2772222222222222],[0.11843750000000004,-0.285],[0.11843750000000004,-0.285],[0.121875,-0.31870370370370377],[0.121875,-0.31870370370370377],[0.12145833333333324,-0.30462962962962964],[0.12145833333333324,-0.30462962962962964],[0.12781250000000005,-0.29148148148148145],[0.11885416666666657,-0.3020370370370371],[0.11885416666666657,-0.3020370370370371],[0.1196875000000001,-0.3188888888888889],[0.11895833333333337,-0.33796296296296297],[0.11895833333333337,-0.33796296296296297],[0.11697916666666662,-0.362962962962963],[0.10395833333333329,-0.33259259259259266],[0.10395833333333329,-0.33259259259259266],[0.10427083333333324,-0.35907407407407405],[0.10010416666666658,-0.357962962962963],[0.09427083333333333,-0.33111111111111113],[0.096875,-0.3512962962962963],[0.10864583333333329,-0.37888888888888894],[0.12374999999999996,-0.3972222222222222],[0.12177083333333343,-0.39240740740740737],[0.1349999999999999,-0.4016666666666666],[0.13166666666666677,-0.43944444444444447],[0.1430208333333333,-0.49444444444444446],[0.14510416666666662,-0.5046296296296297],[0.15291666666666662,-0.5222222222222223],[0.16541666666666663,-0.5387037037037037],[0.17000000000000004,-0.5466666666666666],[0.17322916666666663,-0.5314814814814814],[0.16989583333333325,-0.5161111111111111]]","[[0.11854166666666661,-0.06611111111111109,0.00020000028609956644],[0.11854166666666661,-0.06611111111111109,0.057700000286104114],[0.11854166666666661,-0.06611111111111109,0.06020000028610184],[0.12291666666666666,-0.062037037037037036,0.09430000019073503],[0.12291666666666666,-0.062037037037037036,0.10370000028610349],[0.12270833333333328,-0.024814814814814772,0.1303000001907364],[0.12270833333333328,-0.024814814814814772,0.13830000019073196],[0.11749999999999995,-0.018703703703703747,0.16280000019073526],[0.11749999999999995,-0.018703703703703747,0.1709000000953651],[0.1304166666666667,-0.009259259259259259,0.1958000001907365],[0.1304166666666667,-0.009259259259259259,0.20270000028610013],[0.14270833333333333,0.000925925925925926,0.23030000019073782],[0.14270833333333333,0.000925925925925926,0.23940000009536533],[0.1638541666666666,0.049074074074074076,0.2627000002861024],[0.1638541666666666,0.049074074074074076,0.26940000009536647],[0.15229166666666671,0.027222222222222307,0.29920000028610616],[0.15229166666666671,0.027222222222222307,0.30580000019073594],[0.11916666666666677,0.08925925925925934,0.3299999999999983],[0.11916666666666677,0.08925925925925934,0.33810000038147336],[0.1140625,0.13777777777777775,0.36530000019073583],[0.1140625,0.13777777777777775,0.3719000000953656],[0.0765625,0.13407407407407404,0.39720000028610514],[0.0765625,0.13407407407407404,0.4044000000953645],[0.04135416666666671,0.2012962962962964,0.4337000002861018],[0.04135416666666671,0.2012962962962964,0.4468000001907342],[0.027499999999999976,0.27981481481481485,0.4602000002861004],[0.027499999999999976,0.27981481481481485,0.4768000001907353],[0.012812499999999952,0.3307407407407408,0.4934999999999974],[0.012812499999999952,0.3307407407407408,0.5102000002861047],[-0.05447916666666662,0.4118518518518518,0.5339999999999989],[-0.05447916666666662,0.4118518518518518,0.5436000003814669],[-0.11687500000000005,0.4209259259259258,0.5604000000953704],[-0.11687500000000005,0.4209259259259258,0.5768000001907367],[-0.19760416666666672,0.37666666666666665,0.5934000000953645],[-0.19760416666666672,0.37666666666666665,0.6101000003814718],[-0.2679166666666667,0.3955555555555556,0.6268000001907339],[-0.2865625,0.3677777777777778,0.6466000003814685],[-0.3375,0.31814814814814807,0.661999999999999],[-0.3241666666666667,0.34222222222222215,0.6768000001907382],[-0.31364583333333335,0.30925925925925923,0.6941000003814679],[-0.3069791666666667,0.31370370370370365,0.7124000000953714],[-0.3069791666666667,0.31370370370370365,0.7268000001907353],[-0.30197916666666663,0.30574074074074076,0.7434999999999974],[-0.2504166666666666,0.27074074074074084,0.7644999999999982],[-0.2504166666666666,0.27074074074074084,0.7788000001907349],[-0.19958333333333336,0.3007407407407407,0.7934000000953674],[-0.13833333333333328,0.3838888888888888,0.8100000000000023],[-0.059583333333333384,0.41203703703703703,0.8277000002861001],[-0.0007291666666667141,0.3707407407407408,0.8456000003814736],[0.058958333333333356,0.3785185185185185,0.8606000003814671],[0.08677083333333328,0.34074074074074073,0.8767000002860996],[0.12270833333333328,0.2772222222222223,0.8934000000953688],[0.1586458333333333,0.21370370370370367,0.910100000381469],[0.20729166666666668,0.1479629629629629,0.9267000002861039],[0.26364583333333325,0.10925925925925926,0.9469000000953685],[0.3164583333333333,0.07685185185185185,0.9622000002861029],[0.3164583333333333,0.07685185185185185,0.976700000286101],[0.33864583333333326,-0.01055555555555564,0.9934999999999974],[0.36270833333333335,-0.07796296296296301,1.0120000000000005],[0.36270833333333335,-0.07796296296296301,1.0268000001907325],[0.3765625,-0.11314814814814819,1.0442000002861036],[0.3765625,-0.11314814814814819,1.0602000002861018],[0.36864583333333345,-0.16518518518518516,1.0768000001907367],[0.37770833333333326,-0.18055555555555555,1.0972000002861009],[0.3671875,-0.1940740740740741,1.1136000003814672],[0.34645833333333326,-0.12981481481481486,1.1312000002860998],[0.30583333333333323,-0.044999999999999915,1.1463000001907346],[0.23385416666666667,-0.0003703703703704546,1.164200000286101],[0.16302083333333334,0.04796296296296292,1.1820000000000022],[0.1328125,0.12722222222222232,1.2058000001907345],[0.1328125,0.12722222222222232,1.213400000095369],[0.09354166666666662,0.23407407407407405,1.2271000003814692],[0.09354166666666662,0.23407407407407405,1.245900000095368],[0.04729166666666664,0.32259259259259265,1.2603000001907319],[0.0296875,0.39740740740740743,1.2769000000953667],[-0.005208333333333333,0.45203703703703707,1.2934000000953674],[-0.01864583333333331,0.5170370370370371,1.3122000002861043],[-0.03822916666666672,0.49666666666666676,1.3279000000953687],[-0.016770833333333356,0.43037037037037035,1.346499999999999],[0.026041666666666668,0.4,1.3634000000953677],[0.04093749999999995,0.35703703703703693,1.3791000003814702],[0.04489583333333336,0.30037037037037045,1.3948000001907346],[0.050729166666666714,0.28166666666666673,1.4100000000000037],[0.06187499999999998,0.29370370370370374,1.4293000001907359],[0.06843750000000005,0.23462962962962972,1.4477000002861047],[0.08166666666666676,0.1714814814814815,1.4633000001907348],[0.07677083333333339,0.08648148148148156,1.478500000000004],[0.08822916666666672,0.009074074074074031,1.4941000003814722],[0.07333333333333343,-0.0003703703703704546,1.5101000003814704],[0.043229166666666666,-0.009074074074074031,1.5345000000000013],[0.043229166666666666,-0.009074074074074031,1.543600000381467],[0.0484375,0.030555555555555555,1.5603000001907361],[0.0484375,0.030555555555555555,1.576900000095371],[0.06208333333333336,0.0485185185185186,1.5982000002861056],[0.059375,0.052407407407407326,1.6144000000953653],[0.03708333333333336,0.0242592592592593,1.6318000001907365],[0.03708333333333336,0.0242592592592593,1.6550000000000011],[0.029270833333333357,0.1014814814814814,1.6604000000953647],[0.015104166666666667,0.16629629629629622,1.6769999999999996],[0.007187499999999976,0.23129629629629625,1.6972000002861023],[0.02177083333333331,0.2920370370370371,1.7129000000953667],[0.030520833333333285,0.3248148148148148,1.729300000190733],[0.04729166666666664,0.33555555555555566,1.74660000038147],[0.05552083333333328,0.30685185185185193,1.7625000000000028],[0.036145833333333384,0.3257407407407407,1.778500000000001],[0.02364583333333338,0.30574074074074076,1.7937000002861012],[0.05239583333333329,0.31240740740740747,1.8101000003814676],[0.07125000000000009,0.28481481481481474,1.8299000000953711],[0.0678124999999999,0.2814814814814815,1.8473000001907351],[0.05437500000000005,0.2566666666666667,1.8639999999999972],[0.0109375,0.25388888888888894,1.879800000190734],[-0.02333333333333331,0.2581481481481481,1.8984000000953714],[-0.06416666666666669,0.2764814814814814,1.9146000003814692],[-0.09052083333333331,0.31370370370370365,1.9314000000953655],[-0.09291666666666672,0.3727777777777777,1.947499999999998],[-0.08854166666666667,0.3979629629629629,1.9627000002861053],[-0.10416666666666667,0.4161111111111112,1.9771000003814692],[-0.12593749999999998,0.4618518518518518,1.994800000190736],[-0.11666666666666667,0.4420370370370371,2.0101000003814704],[-0.10739583333333336,0.5027777777777778,2.0267000002861053],[-0.090625,0.5457407407407409,2.0486000003814695],[-0.090625,0.5457407407407409,2.06210000038147],[-0.08343750000000003,0.5501851851851852,2.0768000001907367],[-0.08343750000000003,0.5501851851851852,2.093499999999999],[-0.05770833333333331,0.5537037037037037,2.110100000381472],[-0.05770833333333331,0.5537037037037037,2.1267000002860996],[-0.07729166666666672,0.5305555555555556,2.143500000000003],[-0.08989583333333329,0.4587037037037038,2.1622000002861057],[-0.11687500000000005,0.41944444444444445,2.1798000001907383],[-0.15333333333333338,0.36944444444444446,2.194800000190739],[-0.175,0.2874074074074075,2.2102000002861004],[-0.20541666666666672,0.24666666666666676,2.229300000190733],[-0.22645833333333332,0.18407407407407403,2.2520000000000024],[-0.22645833333333332,0.18407407407407403,2.260400000095366],[-0.2195833333333333,0.15129629629629637,2.2771000003814734],[-0.20687500000000003,0.14740740740740746,2.2953000001907355],[-0.22531249999999994,0.13907407407407413,2.3141000003814725],[-0.16281249999999994,0.1925925925925926,2.3344999999999985],[-0.16281249999999994,0.1925925925925926,2.343499999999999],[-0.11208333333333335,0.247037037037037,2.3604000000953675],[-0.0734375,0.28129629629629627,2.379800000190734],[-0.011249999999999953,0.32333333333333336,2.396000000000001],[0.04468749999999998,0.3485185185185186,2.4117000002861033],[0.04468749999999998,0.3485185185185186,2.427100000381472],[0.10958333333333338,0.3768518518518518,2.447499999999998],[0.10958333333333338,0.3768518518518518,2.4603000001907347],[0.1443749999999999,0.3757407407407407,2.4769000000953696],[0.1443749999999999,0.3757407407407407,2.49360000038147],[0.1553124999999999,0.3655555555555555,2.513600000381473],[0.1553124999999999,0.3655555555555555,2.527000000000001],[0.16958333333333328,0.3616666666666666,2.543700000286101],[0.16958333333333328,0.3616666666666666,2.5604000000953704],[0.1935416666666666,0.35240740740740734,2.5807000002861002],[0.18020833333333333,0.280925925925926,2.6004000000953695],[0.18020833333333333,0.280925925925926,2.610200000286106],[0.16020833333333329,0.22314814814814815,2.6402000002861],[0.16020833333333329,0.22314814814814815,2.6488000001907324],[0.1599999999999999,0.18351851851851855,2.6603000001907375],[0.15333333333333338,0.11796296296296305,2.6769000000953653],[0.14427083333333332,0.07370370370370362,2.695999999999998],[0.12645833333333342,0.018518518518518517,2.7103000001907347],[0.14593749999999991,0.04462962962962967,2.727000000000004],[0.1650000000000001,0.03166666666666671,2.7473000001907337],[0.16291666666666677,-0.013518518518518435,2.762500000000003],[0.17052083333333337,-0.019444444444444445,2.7776000003814687],[0.1658333333333334,-0.027777777777777776,2.793600000381467],[0.1678124999999999,-0.04981481481481477,2.8101000003814676],[0.14989583333333342,-0.05814814814814811,2.8305000000000007],[0.1493750000000001,-0.042407407407407366,2.8467000002861056],[0.1493750000000001,-0.042407407407407366,2.8599999999999994],[0.14416666666666675,-0.011666666666666582,2.8793000001907387],[0.14010416666666667,-0.025370370370370456,2.893400000095369],[0.13135416666666658,-0.09296296296296294,2.9106000003814714],[0.11052083333333323,-0.1368518518518518,2.93110000038147],[0.07697916666666677,-0.10351851851851848,2.947100000381468],[0.05625,-0.11018518518518519,2.9647000002861006],[0.0068750000000000235,-0.12462962962962965,2.9787000002861035],[-0.042499999999999954,-0.13907407407407413,2.995200000286104],[-0.04468749999999998,-0.15870370370370368,3.010300000190732],[-0.0765625,-0.18851851851851853,3.0269000000953667],[-0.09645833333333335,-0.24000000000000005,3.05140000009537],[-0.09645833333333335,-0.24000000000000005,3.06060000038147],[-0.11635416666666672,-0.19296296296296295,3.0771000003814706],[-0.11635416666666672,-0.19296296296296295,3.0937000002861055],[-0.13395833333333335,-0.16796296296296295,3.1133000001907334],[-0.1265625,-0.17703703703703708,3.1299000000953683],[-0.09656250000000005,-0.21129629629629634,3.144200000286105],[-0.07093750000000003,-0.2522222222222222,3.1602000002861033],[-0.0171875,-0.2748148148148148,3.176700000286104],[0.02354166666666669,-0.27907407407407403,3.1962000002861046],[0.0003124999999999526,-0.27166666666666667,3.2101000003814733],[0.0010416666666666667,-0.2588888888888889,3.226700000286101],[0.0010416666666666667,-0.2588888888888889,3.24340000009537],[-0.009791666666666643,-0.19388888888888886,3.2601000003814704],[-0.015208333333333357,-0.19592592592592595,3.277000000000001],[0.005520833333333286,-0.19314814814814818,3.2934000000953674],[0.009687499999999953,-0.16166666666666668,3.3100000000000023],[-0.004375000000000047,-0.15870370370370368,3.327200000286105],[-0.03322916666666664,-0.0514814814814814,3.3467000002861056],[-0.03291666666666669,0.026111111111111154,3.3603000001907333],[-0.07010416666666662,0.0801851851851851,3.3767000002860996],[-0.06614583333333333,0.1359259259259259,3.396100000381473],[-0.06864583333333331,0.21962962962962967,3.4100000000000037],[-0.06687500000000005,0.2577777777777779,3.426800000190738],[-0.07000000000000005,0.23944444444444435,3.4469000000953685],[-0.1015625,0.23833333333333342,3.4605000000000032],[-0.1015625,0.23833333333333342,3.478100000381467],[-0.14958333333333335,0.2294444444444444,3.4934999999999974],[-0.18083333333333335,0.24314814814814806,3.5101000003814704],[-0.2013541666666666,0.23481481481481473,3.5267000002861053],[-0.25104166666666666,0.256111111111111,3.54540000009537],[-0.21968749999999998,0.2920370370370371,3.560200000286102],[-0.2046875,0.3520370370370371,3.580600000381473],[-0.22208333333333338,0.37962962962962965,3.5975000000000037],[-0.23927083333333338,0.4207407407407408,3.613200000286106],[-0.1938541666666667,0.5124074074074075,3.6311000003814726],[-0.17999999999999997,0.567962962962963,3.647200000286105],[-0.11749999999999995,0.5937037037037037,3.663900000095367],[-0.04072916666666669,0.5775925925925925,3.6792000002861016],[0.034062500000000044,0.5044444444444444,3.6952000002861],[0.0962500000000001,0.42740740740740735,3.7103000001907347],[0.13562500000000005,0.3264814814814814,3.7317000002861036],[0.13562500000000005,0.3264814814814814,3.7434999999999974],[0.17770833333333325,0.16351851851851842,3.760300000190732],[0.2591666666666666,0.01722222222222214,3.7768000001907325],[0.34270833333333334,-0.1764814814814815,3.797300000190738],[0.3020833333333333,-0.30333333333333334,3.815400000095366],[0.3020833333333333,-0.30333333333333334,3.8267000002861025],[0.2930208333333333,-0.3940740740740741,3.8478000001907375],[0.2930208333333333,-0.3940740740740741,3.860200000286106],[0.2734375,-0.44074074074074077,3.876900000095368],[0.24500000000000005,-0.4646296296296296,3.896500000000003],[0.2165625000000001,-0.4885185185185185,3.9126000003814667],[0.1959374999999999,-0.49666666666666665,3.9276000003814673],[0.1678124999999999,-0.49666666666666665,3.9450000000000003],[0.14645833333333325,-0.49129629629629634,3.961900000095369],[0.11375000000000005,-0.4866666666666667,3.976700000286101],[0.06031249999999998,-0.4287037037037037,3.9979000000953704],[0.06666666666666667,-0.41092592592592586,4.0120000000000005],[0.09145833333333328,-0.3972222222222222,4.027400000095369],[0.1015625,-0.3755555555555556,4.0464000000953675],[0.1015625,-0.3755555555555556,4.060200000286102],[0.09697916666666657,-0.3509259259259259,4.076900000095371],[0.08125,-0.3244444444444444,4.097500000000004],[0.08125,-0.3244444444444444,4.110100000381472],[0.07677083333333339,-0.3496296296296296,4.126800000190734],[0.08052083333333329,-0.37092592592592594,4.147500000000001],[0.07354166666666657,-0.3883333333333333,4.1677000002861035],[0.07354166666666657,-0.3883333333333333,4.177],[0.06416666666666669,-0.3787037037037037,4.193400000095366],[0.06812500000000009,-0.3844444444444445,4.210000000000001],[0.07364583333333338,-0.3801851851851852,4.229300000190733],[0.07000000000000005,-0.38481481481481483,4.247400000095368],[0.059375,-0.4038888888888889,4.263400000095366],[0.051979166666666646,-0.4179629629629629,4.2794000000953645],[0.06708333333333343,-0.4185185185185185,4.2953000001907355],[0.07125000000000009,-0.384074074074074,4.31040000009537],[0.06958333333333329,-0.3424074074074074,4.326800000190737],[0.0821875000000001,-0.2846296296296296,4.346100000381469],[0.0990624999999999,-0.29962962962962963,4.3637000002861015],[0.0990624999999999,-0.29962962962962963,4.378400000095368],[0.11020833333333328,-0.2772222222222222,4.393400000095369],[0.11843750000000004,-0.285,4.410000000000004],[0.11843750000000004,-0.285,4.426700000286104],[0.121875,-0.31870370370370377,4.443400000095366],[0.121875,-0.31870370370370377,4.460000000000001],[0.12145833333333324,-0.30462962962962964,4.476700000286101],[0.12145833333333324,-0.30462962962962964,4.493499999999997],[0.12781250000000005,-0.29148148148148145,4.510200000286105],[0.11885416666666657,-0.3020370370370371,4.536100000381474],[0.11885416666666657,-0.3020370370370371,4.544100000381469],[0.1196875000000001,-0.3188888888888889,4.560000000000002],[0.11895833333333337,-0.33796296296296297,4.580900000095369],[0.11895833333333337,-0.33796296296296297,4.593800000190733],[0.11697916666666662,-0.362962962962963,4.610100000381472],[0.10395833333333329,-0.33259259259259266,4.63210000038147],[0.10395833333333329,-0.33259259259259266,4.643400000095369],[0.10427083333333324,-0.35907407407407405,4.660200000286103],[0.10010416666666658,-0.357962962962963,4.677100000381472],[0.09427083333333333,-0.33111111111111113,4.694400000095371],[0.096875,-0.3512962962962963,4.7102000002861],[0.10864583333333329,-0.37888888888888894,4.726700000286101],[0.12374999999999996,-0.3972222222222222,4.747500000000002],[0.12177083333333343,-0.39240740740740737,4.761900000095366],[0.1349999999999999,-0.4016666666666666,4.776700000286105],[0.13166666666666677,-0.43944444444444447,4.793400000095367],[0.1430208333333333,-0.49444444444444446,4.811700000286102],[0.14510416666666662,-0.5046296296296297,4.826999999999998],[0.15291666666666662,-0.5222222222222223,4.843800000190733],[0.16541666666666663,-0.5387037037037037,4.859999999999999],[0.17000000000000004,-0.5466666666666666,4.8767000002861],[0.17322916666666663,-0.5314814814814814,4.894100000381471],[0.16989583333333325,-0.5161111111111111,4.910000000000004]]","[0.00020000028609956644,0.057700000286104114,0.06020000028610184,0.09430000019073503,0.10370000028610349,0.1303000001907364,0.13830000019073196,0.16280000019073526,0.1709000000953651,0.1958000001907365,0.20270000028610013,0.23030000019073782,0.23940000009536533,0.2627000002861024,0.26940000009536647,0.29920000028610616,0.30580000019073594,0.3299999999999983,0.33810000038147336,0.36530000019073583,0.3719000000953656,0.39720000028610514,0.4044000000953645,0.4337000002861018,0.4468000001907342,0.4602000002861004,0.4768000001907353,0.4934999999999974,0.5102000002861047,0.5339999999999989,0.5436000003814669,0.5604000000953704,0.5768000001907367,0.5934000000953645,0.6101000003814718,0.6268000001907339,0.6466000003814685,0.661999999999999,0.6768000001907382,0.6941000003814679,0.7124000000953714,0.7268000001907353,0.7434999999999974,0.7644999999999982,0.7788000001907349,0.7934000000953674,0.8100000000000023,0.8277000002861001,0.8456000003814736,0.8606000003814671,0.8767000002860996,0.8934000000953688,0.910100000381469,0.9267000002861039,0.9469000000953685,0.9622000002861029,0.976700000286101,0.9934999999999974,1.0120000000000005,1.0268000001907325,1.0442000002861036,1.0602000002861018,1.0768000001907367,1.0972000002861009,1.1136000003814672,1.1312000002860998,1.1463000001907346,1.164200000286101,1.1820000000000022,1.2058000001907345,1.213400000095369,1.2271000003814692,1.245900000095368,1.2603000001907319,1.2769000000953667,1.2934000000953674,1.3122000002861043,1.3279000000953687,1.346499999999999,1.3634000000953677,1.3791000003814702,1.3948000001907346,1.4100000000000037,1.4293000001907359,1.4477000002861047,1.4633000001907348,1.478500000000004,1.4941000003814722,1.5101000003814704,1.5345000000000013,1.543600000381467,1.5603000001907361,1.576900000095371,1.5982000002861056,1.6144000000953653,1.6318000001907365,1.6550000000000011,1.6604000000953647,1.6769999999999996,1.6972000002861023,1.7129000000953667,1.729300000190733,1.74660000038147,1.7625000000000028,1.778500000000001,1.7937000002861012,1.8101000003814676,1.8299000000953711,1.8473000001907351,1.8639999999999972,1.879800000190734,1.8984000000953714,1.9146000003814692,1.9314000000953655,1.947499999999998,1.9627000002861053,1.9771000003814692,1.994800000190736,2.0101000003814704,2.0267000002861053,2.0486000003814695,2.06210000038147,2.0768000001907367,2.093499999999999,2.110100000381472,2.1267000002860996,2.143500000000003,2.1622000002861057,2.1798000001907383,2.194800000190739,2.2102000002861004,2.229300000190733,2.2520000000000024,2.260400000095366,2.2771000003814734,2.2953000001907355,2.3141000003814725,2.3344999999999985,2.343499999999999,2.3604000000953675,2.379800000190734,2.396000000000001,2.4117000002861033,2.427100000381472,2.447499999999998,2.4603000001907347,2.4769000000953696,2.49360000038147,2.513600000381473,2.527000000000001,2.543700000286101,2.5604000000953704,2.5807000002861002,2.6004000000953695,2.610200000286106,2.6402000002861,2.6488000001907324,2.6603000001907375,2.6769000000953653,2.695999999999998,2.7103000001907347,2.727000000000004,2.7473000001907337,2.762500000000003,2.7776000003814687,2.793600000381467,2.8101000003814676,2.8305000000000007,2.8467000002861056,2.8599999999999994,2.8793000001907387,2.893400000095369,2.9106000003814714,2.93110000038147,2.947100000381468,2.9647000002861006,2.9787000002861035,2.995200000286104,3.010300000190732,3.0269000000953667,3.05140000009537,3.06060000038147,3.0771000003814706,3.0937000002861055,3.1133000001907334,3.1299000000953683,3.144200000286105,3.1602000002861033,3.176700000286104,3.1962000002861046,3.2101000003814733,3.226700000286101,3.24340000009537,3.2601000003814704,3.277000000000001,3.2934000000953674,3.3100000000000023,3.327200000286105,3.3467000002861056,3.3603000001907333,3.3767000002860996,3.396100000381473,3.4100000000000037,3.426800000190738,3.4469000000953685,3.4605000000000032,3.478100000381467,3.4934999999999974,3.5101000003814704,3.5267000002861053,3.54540000009537,3.560200000286102,3.580600000381473,3.5975000000000037,3.613200000286106,3.6311000003814726,3.647200000286105,3.663900000095367,3.6792000002861016,3.6952000002861,3.7103000001907347,3.7317000002861036,3.7434999999999974,3.760300000190732,3.7768000001907325,3.797300000190738,3.815400000095366,3.8267000002861025,3.8478000001907375,3.860200000286106,3.876900000095368,3.896500000000003,3.9126000003814667,3.9276000003814673,3.9450000000000003,3.961900000095369,3.976700000286101,3.9979000000953704,4.0120000000000005,4.027400000095369,4.0464000000953675,4.060200000286102,4.076900000095371,4.097500000000004,4.110100000381472,4.126800000190734,4.147500000000001,4.1677000002861035,4.177,4.193400000095366,4.210000000000001,4.229300000190733,4.247400000095368,4.263400000095366,4.2794000000953645,4.2953000001907355,4.31040000009537,4.326800000190737,4.346100000381469,4.3637000002861015,4.378400000095368,4.393400000095369,4.410000000000004,4.426700000286104,4.443400000095366,4.460000000000001,4.476700000286101,4.493499999999997,4.510200000286105,4.536100000381474,4.544100000381469,4.560000000000002,4.580900000095369,4.593800000190733,4.610100000381472,4.63210000038147,4.643400000095369,4.660200000286103,4.677100000381472,4.694400000095371,4.7102000002861,4.726700000286101,4.747500000000002,4.761900000095366,4.776700000286105,4.793400000095367,4.811700000286102,4.826999999999998,4.843800000190733,4.859999999999999,4.8767000002861,4.894100000381471,4.910000000000004]","[1732071752813,1732071752861,1732071752864,1732071752898,1732071752907,1732071752934,1732071752942,1732071752966,1732071752974,1732071752999,1732071753006,1732071753034,1732071753043,1732071753066,1732071753073,1732071753103,1732071753109,1732071753133,1732071753142,1732071753169,1732071753175,1732071753201,1732071753208,1732071753237,1732071753250,1732071753264,1732071753280,1732071753297,1732071753314,1732071753337,1732071753347,1732071753364,1732071753380,1732071753397,1732071753414,1732071753430,1732071753450,1732071753465,1732071753480,1732071753497,1732071753516,1732071753530,1732071753547,1732071753568,1732071753582,1732071753597,1732071753614,1732071753631,1732071753649,1732071753664,1732071753680,1732071753697,1732071753714,1732071753730,1732071753750,1732071753766,1732071753780,1732071753797,1732071753815,1732071753830,1732071753848,1732071753864,1732071753880,1732071753901,1732071753917,1732071753935,1732071753950,1732071753968,1732071753985,1732071754009,1732071754017,1732071754031,1732071754049,1732071754064,1732071754080,1732071754097,1732071754116,1732071754131,1732071754150,1732071754167,1732071754182,1732071754198,1732071754213,1732071754233,1732071754251,1732071754267,1732071754282,1732071754298,1732071754314,1732071754338,1732071754347,1732071754364,1732071754380,1732071754402,1732071754418,1732071754435,1732071754458,1732071754464,1732071754480,1732071754501,1732071754516,1732071754533,1732071754550,1732071754566,1732071754582,1732071754597,1732071754614,1732071754633,1732071754651,1732071754667,1732071754683,1732071754702,1732071754718,1732071754735,1732071754751,1732071754766,1732071754781,1732071754798,1732071754814,1732071754830,1732071754852,1732071754866,1732071754880,1732071754897,1732071754913,1732071754930,1732071754947,1732071754966,1732071754983,1732071754998,1732071755014,1732071755033,1732071755055,1732071755064,1732071755080,1732071755099,1732071755118,1732071755138,1732071755147,1732071755164,1732071755183,1732071755199,1732071755215,1732071755231,1732071755251,1732071755264,1732071755280,1732071755297,1732071755317,1732071755330,1732071755347,1732071755364,1732071755384,1732071755404,1732071755414,1732071755444,1732071755452,1732071755464,1732071755480,1732071755499,1732071755514,1732071755530,1732071755551,1732071755566,1732071755581,1732071755597,1732071755613,1732071755634,1732071755650,1732071755663,1732071755683,1732071755697,1732071755714,1732071755735,1732071755750,1732071755768,1732071755782,1732071755799,1732071755814,1732071755830,1732071755855,1732071755864,1732071755881,1732071755897,1732071755917,1732071755933,1732071755948,1732071755964,1732071755980,1732071756000,1732071756013,1732071756030,1732071756047,1732071756064,1732071756080,1732071756097,1732071756113,1732071756131,1732071756150,1732071756164,1732071756180,1732071756200,1732071756213,1732071756230,1732071756250,1732071756264,1732071756282,1732071756297,1732071756313,1732071756330,1732071756349,1732071756364,1732071756384,1732071756401,1732071756417,1732071756435,1732071756451,1732071756467,1732071756483,1732071756499,1732071756514,1732071756535,1732071756547,1732071756564,1732071756580,1732071756601,1732071756619,1732071756630,1732071756651,1732071756664,1732071756680,1732071756700,1732071756716,1732071756731,1732071756749,1732071756765,1732071756780,1732071756801,1732071756815,1732071756831,1732071756850,1732071756864,1732071756880,1732071756901,1732071756914,1732071756930,1732071756951,1732071756971,1732071756980,1732071756997,1732071757013,1732071757033,1732071757051,1732071757067,1732071757083,1732071757099,1732071757114,1732071757130,1732071757150,1732071757167,1732071757182,1732071757197,1732071757213,1732071757230,1732071757247,1732071757263,1732071757280,1732071757297,1732071757314,1732071757340,1732071757348,1732071757364,1732071757384,1732071757397,1732071757414,1732071757436,1732071757447,1732071757464,1732071757481,1732071757498,1732071757514,1732071757530,1732071757551,1732071757565,1732071757580,1732071757597,1732071757615,1732071757630,1732071757647,1732071757663,1732071757680,1732071757698,1732071757713]","[[1073.8,504.3],[1073.8,504.3],[1073.8,504.3],[1078,506.5],[1078,506.5],[1077.8,526.6],[1077.8,526.6],[1072.8,529.9],[1072.8,529.9],[1085.2,535],[1085.2,535],[1097,540.5],[1097,540.5],[1117.3,566.5],[1117.3,566.5],[1106.2,554.7],[1106.2,554.7],[1074.4,588.2],[1074.4,588.2],[1069.5,614.4],[1069.5,614.4],[1033.5,612.4],[1033.5,612.4],[999.7,648.7],[999.7,648.7],[986.4,691.1],[986.4,691.1],[972.3,718.6],[972.3,718.6],[907.7,762.4],[907.7,762.4],[847.8,767.3],[847.8,767.3],[770.3,743.4],[770.3,743.4],[702.8,753.6],[684.9,738.6],[636,711.8],[648.8,724.8],[658.9,707],[665.3,709.4],[665.3,709.4],[670.1,705.1],[719.6,686.2],[719.6,686.2],[768.4,702.4],[827.2,747.3],[902.8,762.5],[959.3,740.2],[1016.6,744.4],[1043.3,724],[1077.8,689.7],[1112.3,655.4],[1159,619.9],[1213.1,599],[1263.8,581.5],[1263.8,581.5],[1285.1,534.3],[1308.2,497.9],[1308.2,497.9],[1321.5,478.9],[1321.5,478.9],[1313.9,450.8],[1322.6,442.5],[1312.5,435.2],[1292.6,469.9],[1253.6,515.7],[1184.5,539.8],[1116.5,565.9],[1087.5,608.7],[1087.5,608.7],[1049.8,666.4],[1049.8,666.4],[1005.4,714.2],[988.5,754.6],[955,784.1],[942.1,819.2],[923.3,808.2],[943.9,772.4],[985,756],[999.3,732.8],[1003.1,702.2],[1008.7,692.1],[1019.4,698.6],[1025.7,666.7],[1038.4,632.6],[1033.7,586.7],[1044.7,544.9],[1030.4,539.8],[1001.5,535.1],[1001.5,535.1],[1006.5,556.5],[1006.5,556.5],[1019.6,566.2],[1017,568.3],[995.6,553.1],[995.6,553.1],[988.1,594.8],[974.5,629.8],[966.9,664.9],[980.9,697.7],[989.3,715.4],[1005.4,721.2],[1013.3,705.7],[994.7,715.9],[982.7,705.1],[1010.3,708.7],[1028.4,693.8],[1025.1,692],[1012.2,678.6],[970.5,677.1],[937.6,679.4],[898.4,689.3],[873.1,709.4],[870.8,741.3],[875,754.9],[860,764.7],[839.1,789.4],[848,778.7],[856.9,811.5],[873,834.7],[873,834.7],[879.9,837.1],[879.9,837.1],[904.6,839],[904.6,839],[885.8,826.5],[873.7,787.7],[847.8,766.5],[812.8,739.5],[792,695.2],[762.8,673.2],[742.6,639.4],[742.6,639.4],[749.2,621.7],[761.4,619.6],[743.7,615.1],[803.7,644],[803.7,644],[852.4,673.4],[889.5,691.9],[949.2,714.6],[1002.9,728.2],[1002.9,728.2],[1065.2,743.5],[1065.2,743.5],[1098.6,742.9],[1098.6,742.9],[1109.1,737.4],[1109.1,737.4],[1122.8,735.3],[1122.8,735.3],[1145.8,730.3],[1133,691.7],[1133,691.7],[1113.8,660.5],[1113.8,660.5],[1113.6,639.1],[1107.2,603.7],[1098.5,579.8],[1081.4,550],[1100.1,564.1],[1118.4,557.1],[1116.4,532.7],[1123.7,529.5],[1119.2,525],[1121.1,513.1],[1103.9,508.6],[1103.4,517.1],[1103.4,517.1],[1098.4,533.7],[1094.5,526.3],[1086.1,489.8],[1066.1,466.1],[1033.9,484.1],[1014,480.5],[966.6,472.7],[919.2,464.9],[917.1,454.3],[886.5,438.2],[867.4,410.4],[867.4,410.4],[848.3,435.8],[848.3,435.8],[831.4,449.3],[838.5,444.4],[867.3,425.9],[891.9,403.8],[943.5,391.6],[982.6,389.3],[960.3,393.3],[961,400.2],[961,400.2],[950.6,435.3],[945.4,434.2],[965.3,435.7],[969.3,452.7],[955.8,454.3],[928.1,512.2],[928.4,554.1],[892.7,583.3],[896.5,613.4],[894.1,658.6],[895.8,679.2],[892.8,669.3],[862.5,668.7],[862.5,668.7],[816.4,663.9],[786.4,671.3],[766.7,666.8],[719,678.3],[749.1,697.7],[763.5,730.1],[746.8,745],[730.3,767.2],[773.9,816.7],[787.2,846.7],[847.2,860.6],[920.9,851.9],[992.7,812.4],[1052.4,770.8],[1090.2,716.3],[1090.2,716.3],[1130.6,628.3],[1208.8,549.3],[1289,444.7],[1250,376.2],[1250,376.2],[1241.3,327.2],[1241.3,327.2],[1222.5,302],[1195.2,289.1],[1167.9,276.2],[1148.1,271.8],[1121.1,271.8],[1100.6,274.7],[1069.2,277.2],[1017.9,308.5],[1024,318.1],[1047.8,325.5],[1057.5,337.2],[1057.5,337.2],[1053.1,350.5],[1038,364.8],[1038,364.8],[1033.7,351.2],[1037.3,339.7],[1030.6,330.3],[1030.6,330.3],[1021.6,335.5],[1025.4,332.4],[1030.7,334.7],[1027.2,332.2],[1017,321.9],[1009.9,314.3],[1024.4,314],[1028.4,332.6],[1026.8,355.1],[1038.9,386.3],[1055.1,378.2],[1055.1,378.2],[1065.8,390.3],[1073.7,386.1],[1073.7,386.1],[1077,367.9],[1077,367.9],[1076.6,375.5],[1076.6,375.5],[1082.7,382.6],[1074.1,376.9],[1074.1,376.9],[1074.9,367.8],[1074.2,357.5],[1074.2,357.5],[1072.3,344],[1059.8,360.4],[1059.8,360.4],[1060.1,346.1],[1056.1,346.7],[1050.5,361.2],[1053,350.3],[1064.3,335.4],[1078.8,325.5],[1076.9,328.1],[1089.6,323.1],[1086.4,302.7],[1097.3,273],[1099.3,267.5],[1106.8,258],[1118.8,249.1],[1123.2,244.8],[1126.3,253],[1123.1,261.3]]","[-0.142,0.42599999999999993]","[0.142,0.42599999999999993]","[0.42599999999999993,0.42599999999999993]","[-0.42599999999999993,0.142]","[-0.42599999999999993,-0.142]","[-0.42599999999999993,-0.42599999999999993]","[-0.142,0.142]","[0.142,0.142]","[0.42599999999999993,0.142]","[-0.142,-0.142]","[0.142,-0.142]","[0.42599999999999993,-0.142]","[-0.142,-0.42599999999999993]","[0.142,-0.42599999999999993]","[0.42599999999999993,-0.42599999999999993]",0,0,0,0,1,4,Laptop,25,20,8,1,60,4,1,60,3
