inst1_resp.keys,inst1_resp.rt,calibrationMouse.x,calibrationMouse.y,calibrationMouse.leftButton,calibrationMouse.midButton,calibrationMouse.rightButton,calibrationClick.x,calibrationClick.y,calibrationClick.leftButton,calibrationClick.midButton,calibrationClick.rightButton,trialsc.thisRepN,trialsc.thisTrialN,trialsc.thisN,trialsc.thisIndex,trialsc.ran,calibration_x,calibration_y,participant,session,date,expName,psychopyVersion,OS,frameRate,calibrationClick.clicked_name,ScreenRes_pixels,Camera_pixels,mouse_2.x,mouse_2.y,mouse_2.leftButton,mouse_2.midButton,mouse_2.rightButton,mouse_2.time,mouse_2.clicked_name,mouse.x,mouse.y,mouse.leftButton,mouse.midButton,mouse.rightButton,mouse.time,mouse.clicked_name,Choice,Trial,TrialDuration,MOUSE_GAZE,ET_GAZE,ET_GAZE_x_T,time,unixTime,ET_GAZE_NF,Loc_Bus_label,Loc_Metro_label,Loc_RH_label,Loc_Cost_label,Loc_Travel_label,Loc_Comfort_label,Loc_Bus_cost,Loc_Metro_cost,Loc_RH_cost,Loc_Bus_travel,Loc_Metro_travel,Loc_RH_travel,Loc_Bus_comfort,Loc_Metro_comfort,Loc_RH_comfort,trials.thisRepN,trials.thisTrialN,trials.thisN,trials.thisIndex,trials.ran,Block,Device,RH_cost,RH_travel_time,RH_Comfort,metro_cost,metro_travel_time,metro_Comfort,Bus_cost,Bus_travel_time,Bus_Comfort
space,2.715,-0.141666667,-0.314814815,1,0,0,-0.660416667,-0.303703704,1,0,0,0,0,0,1,1,-0.67,-0.33,22,001,2024-11-19_15h29.31.795,Attention_exp_legacy,2023.1.0,Win32,59.88023952,,,,,,,,,,,,,,,,,,,,,,,,,,,,,,,,,,,,,,,,,,,,,,,,,,,,,,,,,
,,,,,,,-0.009375,0.333333333,1,0,0,0,1,1,12,1,0,0.33,22,001,2024-11-19_15h29.31.795,Attention_exp_legacy,2023.1.0,Win32,59.88023952,calibration_square,,,,,,,,,,,,,,,,,,,,,,,,,,,,,,,,,,,,,,,,,,,,,,,,,,,,,,,,
,,,,,,,0.669791667,0.67037037,1,0,0,0,2,2,19,1,0.67,0.67,22,001,2024-11-19_15h29.31.795,Attention_exp_legacy,2023.1.0,Win32,59.88023952,calibration_square,,,,,,,,,,,,,,,,,,,,,,,,,,,,,,,,,,,,,,,,,,,,,,,,,,,,,,,,
,,,,,,,-0.002083333,0.677777778,1,0,0,0,3,3,13,1,0,0.67,22,001,2024-11-19_15h29.31.795,Attention_exp_legacy,2023.1.0,Win32,59.88023952,calibration_square,,,,,,,,,,,,,,,,,,,,,,,,,,,,,,,,,,,,,,,,,,,,,,,,,,,,,,,,
,,,,,,,-0.325,0.683333333,1,0,0,0,4,4,8,1,-0.33,0.67,22,001,2024-11-19_15h29.31.795,Attention_exp_legacy,2023.1.0,Win32,59.88023952,,,,,,,,,,,,,,,,,,,,,,,,,,,,,,,,,,,,,,,,,,,,,,,,,,,,,,,,,
,,,,,,,-0.333333333,0.35,1,0,0,0,5,5,7,1,-0.33,0.33,22,001,2024-11-19_15h29.31.795,Attention_exp_legacy,2023.1.0,Win32,59.88023952,,,,,,,,,,,,,,,,,,,,,,,,,,,,,,,,,,,,,,,,,,,,,,,,,,,,,,,,,
,,,,,,,0.313541667,0.327777778,1,0,0,0,6,6,17,1,0.33,0.33,22,001,2024-11-19_15h29.31.795,Attention_exp_legacy,2023.1.0,Win32,59.88023952,,,,,,,,,,,,,,,,,,,,,,,,,,,,,,,,,,,,,,,,,,,,,,,,,,,,,,,,,
,,,,,,,-0.0125,-0.007407407,1,0,0,0,7,7,11,1,0,0,22,001,2024-11-19_15h29.31.795,Attention_exp_legacy,2023.1.0,Win32,59.88023952,,,,,,,,,,,,,,,,,,,,,,,,,,,,,,,,,,,,,,,,,,,,,,,,,,,,,,,,,
,,,,,,,-0.654166667,0.340740741,1,0,0,0,8,8,3,1,-0.67,0.33,22,001,2024-11-19_15h29.31.795,Attention_exp_legacy,2023.1.0,Win32,59.88023952,,,,,,,,,,,,,,,,,,,,,,,,,,,,,,,,,,,,,,,,,,,,,,,,,,,,,,,,,
,,,,,,,-0.327083333,-0.314814815,1,0,0,0,9,9,5,1,-0.33,-0.33,22,001,2024-11-19_15h29.31.795,Attention_exp_legacy,2023.1.0,Win32,59.88023952,,,,,,,,,,,,,,,,,,,,,,,,,,,,,,,,,,,,,,,,,,,,,,,,,,,,,,,,,
,,,,,,,0.676041667,-0.674074074,1,0,0,0,10,10,20,1,0.67,-0.67,22,001,2024-11-19_15h29.31.795,Attention_exp_legacy,2023.1.0,Win32,59.88023952,calibration_square,,,,,,,,,,,,,,,,,,,,,,,,,,,,,,,,,,,,,,,,,,,,,,,,,,,,,,,,
,,,,,,,-0.310416667,-0.02037037,1,0,0,0,11,11,6,1,-0.33,0,22,001,2024-11-19_15h29.31.795,Attention_exp_legacy,2023.1.0,Win32,59.88023952,,,,,,,,,,,,,,,,,,,,,,,,,,,,,,,,,,,,,,,,,,,,,,,,,,,,,,,,,
,,,,,,,-0.661458333,-0.653703704,1,0,0,0,12,12,0,1,-0.67,-0.67,22,001,2024-11-19_15h29.31.795,Attention_exp_legacy,2023.1.0,Win32,59.88023952,,,,,,,,,,,,,,,,,,,,,,,,,,,,,,,,,,,,,,,,,,,,,,,,,,,,,,,,,
,,,,,,,0.326041667,-0.003703704,1,0,0,0,13,13,16,1,0.33,0,22,001,2024-11-19_15h29.31.795,Attention_exp_legacy,2023.1.0,Win32,59.88023952,calibration_square,,,,,,,,,,,,,,,,,,,,,,,,,,,,,,,,,,,,,,,,,,,,,,,,,,,,,,,,
,,,,,,,0.334375,0.696296296,1,0,0,0,14,14,18,1,0.33,0.67,22,001,2024-11-19_15h29.31.795,Attention_exp_legacy,2023.1.0,Win32,59.88023952,,,,,,,,,,,,,,,,,,,,,,,,,,,,,,,,,,,,,,,,,,,,,,,,,,,,,,,,,
,,,,,,,-0.3375,-0.657407407,1,0,0,0,15,15,4,1,-0.33,-0.67,22,001,2024-11-19_15h29.31.795,Attention_exp_legacy,2023.1.0,Win32,59.88023952,,,,,,,,,,,,,,,,,,,,,,,,,,,,,,,,,,,,,,,,,,,,,,,,,,,,,,,,,
,,,,,,,-0.666666667,-0.001851852,1,0,0,0,16,16,2,1,-0.67,0,22,001,2024-11-19_15h29.31.795,Attention_exp_legacy,2023.1.0,Win32,59.88023952,calibration_square,,,,,,,,,,,,,,,,,,,,,,,,,,,,,,,,,,,,,,,,,,,,,,,,,,,,,,,,
,,,,,,,0.320833333,-0.653703704,1,0,0,0,17,17,14,1,0.33,-0.67,22,001,2024-11-19_15h29.31.795,Attention_exp_legacy,2023.1.0,Win32,59.88023952,,,,,,,,,,,,,,,,,,,,,,,,,,,,,,,,,,,,,,,,,,,,,,,,,,,,,,,,,
,,,,,,,0.013541667,-0.324074074,1,0,0,0,18,18,10,1,0,-0.33,22,001,2024-11-19_15h29.31.795,Attention_exp_legacy,2023.1.0,Win32,59.88023952,,,,,,,,,,,,,,,,,,,,,,,,,,,,,,,,,,,,,,,,,,,,,,,,,,,,,,,,,
,,,,,,,0.002083333,-0.653703704,1,0,0,0,19,19,9,1,0,-0.67,22,001,2024-11-19_15h29.31.795,Attention_exp_legacy,2023.1.0,Win32,59.88023952,,,,,,,,,,,,,,,,,,,,,,,,,,,,,,,,,,,,,,,,,,,,,,,,,,,,,,,,,
,,,,,,,0.325,-0.338888889,1,0,0,0,20,20,15,1,0.33,-0.33,22,001,2024-11-19_15h29.31.795,Attention_exp_legacy,2023.1.0,Win32,59.88023952,calibration_square,,,,,,,,,,,,,,,,,,,,,,,,,,,,,,,,,,,,,,,,,,,,,,,,,,,,,,,,
,,,,,,,,,,,,,,,,,,,22,001,2024-11-19_15h29.31.795,Attention_exp_legacy,2023.1.0,Win32,59.88023952,,"[1920,1080]","[640,480]",[-0.027083333333333334],[-0.48703703703703705],[1],[0],[0],[3.4140999999046286],"[""StartButton""]",[0.16875],[0.3888888888888889],[1],[0],[0],[4.436500000000002],"[""Metro_label""]",Metro_label,1,5.4484,"[[0.38958333333333334,0.5981481481481481],[0.38958333333333334,0.5981481481481481],[0.38958333333333334,0.5981481481481481],[0.38958333333333334,0.5981481481481481],[0.38958333333333334,0.5981481481481481],[0.38958333333333334,0.5981481481481481],[0.38958333333333334,0.5981481481481481],[0.38958333333333334,0.5981481481481481],[0.38958333333333334,0.5981481481481481],[0.38958333333333334,0.5981481481481481],[0.38958333333333334,0.5981481481481481],[0.38958333333333334,0.5981481481481481],[0.38958333333333334,0.5981481481481481],[0.38958333333333334,0.5981481481481481],[0.38958333333333334,0.5981481481481481],[0.38958333333333334,0.5981481481481481],[0.38958333333333334,0.5981481481481481],[0.38958333333333334,0.5981481481481481],[0.38958333333333334,0.5981481481481481],[0.38958333333333334,0.5981481481481481],[0.38958333333333334,0.5981481481481481],[0.38958333333333334,0.5981481481481481],[0.38958333333333334,0.5981481481481481],[0.38958333333333334,0.5981481481481481],[0.38958333333333334,0.5981481481481481],[0.38958333333333334,0.5981481481481481],[0.38958333333333334,0.5981481481481481],[0.38958333333333334,0.5981481481481481],[0.38958333333333334,0.5981481481481481],[0.38958333333333334,0.5981481481481481],[0.38958333333333334,0.5981481481481481],[0.38958333333333334,0.5981481481481481],[0.38958333333333334,0.5981481481481481],[0.38958333333333334,0.5981481481481481],[0.38958333333333334,0.5981481481481481],[0.38958333333333334,0.5981481481481481],[0.38958333333333334,0.5981481481481481],[0.38958333333333334,0.5981481481481481],[0.38958333333333334,0.5981481481481481],[0.38958333333333334,0.5981481481481481],[0.38958333333333334,0.5981481481481481],[0.38958333333333334,0.5981481481481481],[0.38958333333333334,0.5981481481481481],[0.38958333333333334,0.5981481481481481],[0.38958333333333334,0.5981481481481481],[0.38958333333333334,0.5981481481481481],[0.38958333333333334,0.5981481481481481],[0.38958333333333334,0.5981481481481481],[0.38958333333333334,0.5981481481481481],[0.38958333333333334,0.5981481481481481],[0.38958333333333334,0.5981481481481481],[0.38958333333333334,0.5981481481481481],[0.38958333333333334,0.5981481481481481],[0.38958333333333334,0.5981481481481481],[0.38958333333333334,0.5981481481481481],[0.38958333333333334,0.5981481481481481],[0.38958333333333334,0.5981481481481481],[0.38958333333333334,0.5981481481481481],[0.38958333333333334,0.5981481481481481],[0.38958333333333334,0.5981481481481481],[0.38958333333333334,0.5981481481481481],[0.38958333333333334,0.5981481481481481],[0.38958333333333334,0.5981481481481481],[0.38958333333333334,0.5981481481481481],[0.38958333333333334,0.5981481481481481],[0.38958333333333334,0.5981481481481481],[0.38958333333333334,0.5981481481481481],[0.38958333333333334,0.5981481481481481],[0.38958333333333334,0.5981481481481481],[0.38958333333333334,0.5981481481481481],[0.38958333333333334,0.5981481481481481],[0.38958333333333334,0.5981481481481481],[0.38958333333333334,0.5981481481481481],[0.38958333333333334,0.5981481481481481],[0.38958333333333334,0.5981481481481481],[0.38958333333333334,0.5981481481481481],[0.38958333333333334,0.5981481481481481],[0.38958333333333334,0.5981481481481481],[0.38958333333333334,0.5981481481481481],[0.38958333333333334,0.5981481481481481],[0.38958333333333334,0.5981481481481481],[0.38958333333333334,0.5981481481481481],[0.38958333333333334,0.5981481481481481],[0.38958333333333334,0.5981481481481481],[0.38958333333333334,0.5981481481481481],[0.38958333333333334,0.5981481481481481],[0.38958333333333334,0.5981481481481481],[0.38958333333333334,0.5981481481481481],[0.38958333333333334,0.5981481481481481],[0.38958333333333334,0.5981481481481481],[0.38958333333333334,0.5981481481481481],[0.38958333333333334,0.5981481481481481],[0.38958333333333334,0.5981481481481481],[0.38958333333333334,0.5981481481481481],[0.38958333333333334,0.5981481481481481],[0.38958333333333334,0.5981481481481481],[0.38958333333333334,0.5981481481481481],[0.38958333333333334,0.5981481481481481],[0.38958333333333334,0.5981481481481481],[0.38958333333333334,0.5981481481481481],[0.38958333333333334,0.5981481481481481],[0.38958333333333334,0.5981481481481481],[0.38958333333333334,0.5981481481481481],[0.38958333333333334,0.5981481481481481],[0.38958333333333334,0.5981481481481481],[0.38958333333333334,0.5981481481481481],[0.38958333333333334,0.5981481481481481],[0.38958333333333334,0.5981481481481481],[0.38958333333333334,0.5981481481481481],[0.38958333333333334,0.5981481481481481],[0.38958333333333334,0.5981481481481481],[0.38958333333333334,0.5981481481481481],[0.38958333333333334,0.5981481481481481],[0.38958333333333334,0.5981481481481481],[0.38958333333333334,0.5981481481481481],[0.38958333333333334,0.5981481481481481],[0.38958333333333334,0.5981481481481481],[0.38958333333333334,0.5981481481481481],[0.38958333333333334,0.5981481481481481],[0.38958333333333334,0.5981481481481481],[0.38958333333333334,0.5981481481481481],[0.38958333333333334,0.5981481481481481],[0.38958333333333334,0.5981481481481481],[0.38958333333333334,0.5981481481481481],[0.38958333333333334,0.5981481481481481],[0.38958333333333334,0.5981481481481481],[0.38958333333333334,0.5981481481481481],[0.38958333333333334,0.5981481481481481],[0.38958333333333334,0.5981481481481481],[0.38958333333333334,0.5981481481481481],[0.38958333333333334,0.5981481481481481],[0.38958333333333334,0.5981481481481481],[0.3875,0.5981481481481481],[0.37604166666666666,0.5925925925925926],[0.35833333333333334,0.5796296296296296],[0.34270833333333334,0.5666666666666667],[0.3104166666666667,0.5425925925925926],[0.290625,0.5259259259259259],[0.26979166666666665,0.5092592592592593],[0.25625,0.5],[0.24270833333333333,0.49074074074074076],[0.22916666666666666,0.48148148148148145],[0.21770833333333334,0.4722222222222222],[0.20416666666666666,0.46296296296296297],[0.19583333333333333,0.45555555555555555],[0.19166666666666668,0.45185185185185184],[0.18958333333333333,0.45],[0.18958333333333333,0.44814814814814813],[0.18854166666666666,0.4444444444444444],[0.18645833333333334,0.4425925925925926],[0.18645833333333334,0.4388888888888889],[0.18645833333333334,0.4388888888888889],[0.18645833333333334,0.4388888888888889],[0.18645833333333334,0.4388888888888889],[0.18645833333333334,0.4388888888888889],[0.184375,0.43703703703703706],[0.18020833333333333,0.42962962962962964],[0.17604166666666668,0.4166666666666667],[0.17291666666666666,0.40555555555555556],[0.17083333333333334,0.3962962962962963],[0.16875,0.3907407407407407],[0.16875,0.3907407407407407],[0.16875,0.3888888888888889],[0.16875,0.3888888888888889],[0.16875,0.3888888888888889],[0.16875,0.3888888888888889],[0.16875,0.3888888888888889],[0.16875,0.3888888888888889],[0.16875,0.3888888888888889],[0.16875,0.3888888888888889],[0.16875,0.3888888888888889],[0.16875,0.3888888888888889],[0.16875,0.3888888888888889],[0.16875,0.3888888888888889],[0.16875,0.3888888888888889],[0.16875,0.3888888888888889],[0.16875,0.3888888888888889],[0.16875,0.3888888888888889],[0.16875,0.3888888888888889],[0.16875,0.3888888888888889],[0.16875,0.3888888888888889],[0.16875,0.3888888888888889],[0.16875,0.3888888888888889],[0.16875,0.3888888888888889],[0.16875,0.3888888888888889],[0.16875,0.3888888888888889],[0.16875,0.3888888888888889],[0.16875,0.3888888888888889],[0.16875,0.3888888888888889],[0.16875,0.3888888888888889],[0.16875,0.3888888888888889],[0.16875,0.3888888888888889],[0.16875,0.3888888888888889],[0.16875,0.3888888888888889],[0.16875,0.3888888888888889],[0.16875,0.3888888888888889],[0.16875,0.3888888888888889],[0.16875,0.3888888888888889],[0.16875,0.3888888888888889],[0.16875,0.3888888888888889],[0.16875,0.3888888888888889],[0.16875,0.3888888888888889],[0.16875,0.3888888888888889],[0.16875,0.3888888888888889],[0.16875,0.3888888888888889],[0.16875,0.3888888888888889],[0.16875,0.3888888888888889],[0.16875,0.3888888888888889],[0.16875,0.3888888888888889],[0.16875,0.3888888888888889],[0.16875,0.3888888888888889],[0.16875,0.3888888888888889],[0.16875,0.3888888888888889],[0.16875,0.3888888888888889],[0.16875,0.3888888888888889],[0.16875,0.3888888888888889],[0.16875,0.3888888888888889],[0.16875,0.3888888888888889],[0.16875,0.3888888888888889],[0.16875,0.3888888888888889],[0.16875,0.3888888888888889],[0.16875,0.3888888888888889],[0.16875,0.3888888888888889],[0.16875,0.3888888888888889],[0.16875,0.3888888888888889],[0.16875,0.3888888888888889],[0.16875,0.3888888888888889],[0.16875,0.3888888888888889],[0.16875,0.3888888888888889],[0.16875,0.3888888888888889],[0.16875,0.3888888888888889],[0.16875,0.3888888888888889],[0.16875,0.3888888888888889],[0.16875,0.3888888888888889],[0.16875,0.3888888888888889],[0.16875,0.3888888888888889],[0.16875,0.3888888888888889],[0.16875,0.3888888888888889],[0.16875,0.3888888888888889],[0.16875,0.3888888888888889],[0.16875,0.3888888888888889],[0.16875,0.3888888888888889],[0.16875,0.3888888888888889],[0.16875,0.3888888888888889],[0.16875,0.3888888888888889],[0.16875,0.3888888888888889],[0.16875,0.3888888888888889],[0.16875,0.3888888888888889],[0.16875,0.3888888888888889],[0.16875,0.3888888888888889],[0.16875,0.3888888888888889],[0.16875,0.3888888888888889],[0.16875,0.3888888888888889],[0.16875,0.3888888888888889],[0.16875,0.3888888888888889],[0.16875,0.3888888888888889],[0.16875,0.3888888888888889],[0.16875,0.3888888888888889],[0.16875,0.3888888888888889],[0.16875,0.3888888888888889],[0.16875,0.3888888888888889],[0.16875,0.3888888888888889],[0.16875,0.3888888888888889],[0.16875,0.3888888888888889],[0.16875,0.3888888888888889],[0.16875,0.3888888888888889],[0.16875,0.3888888888888889],[0.16875,0.3888888888888889],[0.16875,0.3888888888888889],[0.16875,0.3888888888888889],[0.16875,0.3888888888888889],[0.16875,0.3888888888888889],[0.16875,0.3888888888888889],[0.16875,0.3888888888888889],[0.16875,0.3888888888888889],[0.16875,0.3888888888888889],[0.16875,0.3888888888888889],[0.16875,0.3888888888888889],[0.16875,0.3888888888888889],[0.16875,0.3888888888888889],[0.16875,0.3888888888888889],[0.16875,0.3888888888888889],[0.16875,0.3888888888888889],[0.16875,0.3888888888888889],[0.16875,0.3888888888888889],[0.16875,0.3888888888888889],[0.16875,0.3888888888888889],[0.16875,0.3888888888888889],[0.16875,0.3888888888888889],[0.16875,0.3888888888888889],[0.16875,0.3888888888888889],[0.16875,0.3888888888888889],[0.16875,0.3888888888888889],[0.16875,0.3888888888888889],[0.16875,0.3888888888888889],[0.16875,0.3888888888888889],[0.16875,0.3888888888888889],[0.16875,0.3888888888888889],[0.16875,0.3888888888888889],[0.16875,0.3888888888888889],[0.16875,0.3888888888888889],[0.16875,0.3888888888888889],[0.16875,0.3888888888888889],[0.16875,0.3888888888888889],[0.16875,0.3888888888888889],[0.16875,0.3888888888888889],[0.16875,0.3888888888888889],[0.16875,0.3888888888888889],[0.16875,0.3888888888888889],[0.16875,0.3888888888888889],[0.16875,0.3888888888888889],[0.16875,0.3888888888888889],[0.16875,0.3888888888888889],[0.16875,0.3888888888888889],[0.16875,0.3888888888888889],[0.16875,0.3888888888888889],[0.16875,0.3888888888888889],[0.16875,0.3888888888888889],[0.16875,0.3888888888888889],[0.16875,0.3888888888888889],[0.16875,0.3888888888888889],[0.16875,0.3888888888888889],[0.16875,0.3888888888888889],[0.16875,0.3888888888888889],[0.16875,0.3888888888888889]]","[[-0.34729166666666667,0.6125925925925925],[-0.34729166666666667,0.6125925925925925],[-0.31375000000000003,0.5592592592592592],[-0.33135416666666667,0.5462962962962963],[-0.3538541666666667,0.5675925925925925],[-0.35187499999999994,0.5433333333333333],[-0.33791666666666664,0.547037037037037],[-0.31760416666666663,0.515925925925926],[-0.32156250000000003,0.5014814814814814],[-0.32156250000000003,0.5014814814814814],[-0.3182291666666667,0.49962962962962953],[-0.32145833333333335,0.5177777777777778],[-0.3204166666666667,0.57],[-0.3204166666666667,0.57],[-0.365,0.6005555555555555],[-0.365,0.6005555555555555],[-0.37166666666666665,0.6329629629629628],[-0.37166666666666665,0.6329629629629628],[-0.3715625000000001,0.6148148148148148],[-0.365,0.6227777777777777],[-0.365,0.6227777777777777],[-0.3741666666666667,0.6253703703703705],[-0.3741666666666667,0.6253703703703705],[-0.3902083333333334,0.6777777777777778],[-0.3835416666666667,0.7490740740740741],[-0.39656250000000004,0.7485185185185186],[-0.41468750000000004,0.7949999999999999],[-0.44562499999999994,0.7972222222222223],[-0.45739583333333333,0.8368518518518518],[-0.47604166666666664,0.8233333333333334],[-0.49125,0.8368518518518518],[-0.5059375,0.8305555555555556],[-0.5236458333333334,0.8322222222222222],[-0.5227083333333333,0.8083333333333333],[-0.5601041666666667,0.7764814814814814],[-0.5635416666666667,0.7894444444444444],[-0.564375,0.7553703703703704],[-0.53125,0.74],[-0.5264583333333334,0.7109259259259259],[-0.5264583333333334,0.7109259259259259],[-0.5217708333333333,0.7218518518518517],[-0.5227083333333333,0.7366666666666666],[-0.5184375,0.7701851851851852],[-0.5184375,0.7701851851851852],[-0.49770833333333336,0.7770370370370371],[-0.4903125,0.7842592592592592],[-0.4430208333333333,0.7487037037037036],[-0.4033333333333334,0.7372222222222222],[-0.35822916666666665,0.727037037037037],[-0.3142708333333334,0.7081481481481481],[-0.28718750000000004,0.7298148148148148],[-0.24656250000000005,0.7116666666666666],[-0.1898958333333333,0.6668518518518519],[-0.1414583333333333,0.6255555555555554],[-0.11760416666666665,0.6024074074074073],[-0.08541666666666667,0.5785185185185184],[-0.05010416666666669,0.5527777777777778],[-0.043437500000000046,0.49722222222222223],[-0.030104166666666644,0.45129629629629636],[-0.036354166666666646,0.4772222222222223],[-0.017916666666666713,0.4794444444444444],[-0.004375000000000047,0.5094444444444445],[0.012187500000000047,0.5248148148148147],[0.027291666666666714,0.5268518518518519],[0.04489583333333336,0.5675925925925925],[0.057604166666666616,0.5888888888888889],[0.017499999999999953,0.6300000000000001],[0.017499999999999953,0.6300000000000001],[0.04072916666666669,0.7172222222222221],[0.06031249999999998,0.7661111111111112],[0.08947916666666676,0.7520370370370371],[0.09916666666666671,0.7174074074074074],[0.10791666666666658,0.6851851851851852],[0.07645833333333343,0.6787037037037037],[0.043437500000000046,0.672037037037037],[0.01906249999999995,0.6272222222222223],[-0.028541666666666642,0.640925925925926],[-0.016979166666666618,0.6348148148148147],[-0.03885416666666662,0.6131481481481482],[-0.07124999999999998,0.6181481481481481],[-0.07124999999999998,0.6181481481481481],[-0.13614583333333338,0.6318518518518519],[-0.13614583333333338,0.6318518518518519],[-0.17593749999999997,0.6481481481481481],[-0.17593749999999997,0.6481481481481481],[-0.2107291666666666,0.6824074074074075],[-0.2107291666666666,0.6824074074074075],[-0.2439583333333334,0.687037037037037],[-0.2439583333333334,0.687037037037037],[-0.2660416666666666,0.6829629629629629],[-0.2679166666666667,0.68],[-0.2453125,0.649074074074074],[-0.2453125,0.649074074074074],[-0.2421875,0.6692592592592592],[-0.2421875,0.6692592592592592],[-0.2546875,0.669074074074074],[-0.2419791666666666,0.6975925925925927],[-0.2015625,0.7281481481481482],[-0.17468750000000005,0.7640740740740741],[-0.17468750000000005,0.7640740740740741],[-0.15583333333333335,0.7748148148148147],[-0.15583333333333335,0.7748148148148147],[-0.09656250000000005,0.8525925925925926],[-0.04125000000000002,0.9387037037037038],[-0.009791666666666643,1.0137037037037038],[-0.009791666666666643,1.0137037037037038],[0.03927083333333338,1.0624074074074075],[0.0900000000000001,1.095],[0.1430208333333333,1.1335185185185184],[0.16020833333333329,1.1812962962962965],[0.1929166666666667,1.2042592592592591],[0.17020833333333343,1.2235185185185187],[0.1648958333333333,1.2253703703703704],[0.1490624999999999,1.1914814814814816],[0.11708333333333343,1.1688888888888889],[0.09947916666666666,1.1262962962962964],[0.05802083333333338,1.1040740740740742],[0.012187500000000047,1.1151851851851853],[-0.04593750000000003,1.0924074074074075],[-0.06302083333333333,1.0468518518518517],[-0.10739583333333336,1.0162962962962963],[-0.09083333333333338,0.9418518518518517],[-0.08864583333333335,0.8920370370370371],[-0.10072916666666672,0.8437037037037037],[-0.12135416666666667,0.8018518518518518],[-0.12999999999999995,0.8125925925925925],[-0.15416666666666667,0.7961111111111111],[-0.15072916666666672,0.7833333333333333],[-0.12760416666666666,0.7675925925925926],[-0.12906249999999997,0.735],[-0.11145833333333334,0.7098148148148147],[-0.09791666666666667,0.7364814814814815],[-0.08333333333333333,0.7320370370370369],[-0.08333333333333333,0.7320370370370369],[-0.05291666666666662,0.6775925925925925],[0.015416666666666618,0.5927777777777778],[0.0515625,0.5088888888888888],[0.1125,0.39574074074074084],[0.1486458333333334,0.24944444444444452],[0.171875,0.08833333333333342],[0.2022916666666667,-0.029814814814814856],[0.2022916666666667,-0.029814814814814856],[0.2256249999999999,-0.11981481481481479],[0.2256249999999999,-0.11981481481481479],[0.24718749999999995,-0.22925925925925927],[0.26062500000000005,-0.32703703703703707],[0.2582291666666668,-0.37481481481481477],[0.2404166666666666,-0.4022222222222222],[0.2361458333333334,-0.4474074074074075],[0.23447916666666657,-0.45],[0.22489583333333343,-0.4233333333333334],[0.23270833333333343,-0.4044444444444444],[0.22020833333333342,-0.3901851851851852],[0.20822916666666677,-0.4331481481481481],[0.2007291666666667,-0.42166666666666663],[0.1915625000000001,-0.39000000000000007],[0.18624999999999994,-0.3896296296296296],[0.18218750000000009,-0.38555555555555554],[0.17000000000000004,-0.3931481481481482],[0.17374999999999996,-0.3787037037037037],[0.18458333333333338,-0.37518518518518523],[0.18458333333333338,-0.37518518518518523],[0.18447916666666658,-0.3483333333333334],[0.18635416666666677,-0.3314814814814815],[0.20083333333333328,-0.28277777777777774],[0.20083333333333328,-0.28277777777777774],[0.20177083333333337,-0.28574074074074074],[0.24406249999999996,-0.27166666666666667],[0.2585416666666667,-0.22666666666666663],[0.31906249999999997,-0.17833333333333334],[0.3489583333333333,-0.13333333333333333],[0.3489583333333333,-0.13333333333333333],[0.38083333333333325,-0.1051851851851852],[0.39385416666666656,-0.08981481481481482],[0.41124999999999995,-0.10351851851851848],[0.4570833333333333,-0.11666666666666667],[0.4716666666666666,-0.1007407407407407],[0.4890625,-0.06333333333333331],[0.42520833333333335,-0.020370370370370372],[0.3549999999999999,0.005370370370370328],[0.23968749999999991,0.01629629629629621],[0.17354166666666657,0.010185185185185186],[0.0875,0.007592592592592635],[-0.01072916666666662,0.04814814814814815],[-0.08343750000000003,0.11129629629629634],[-0.18947916666666664,0.15703703703703695],[-0.2755208333333333,0.15703703703703695],[-0.37124999999999997,0.21592592592592597],[-0.4114583333333333,0.24833333333333338],[-0.40354166666666663,0.20055555555555546],[-0.4069791666666667,0.2],[-0.4044791666666666,0.16574074074074074],[-0.41916666666666663,0.17592592592592593],[-0.4126041666666667,0.17462962962962955],[-0.4157291666666667,0.1725925925925927],[-0.41854166666666665,0.1875925925925925],[-0.4352083333333333,0.18259259259259264],[-0.42302083333333335,0.12537037037037047],[-0.4275,0.07444444444444454],[-0.44979166666666665,0.12129629629629629],[-0.44979166666666665,0.12129629629629629],[-0.4438541666666667,0.09425925925925922],[-0.43031250000000004,0.13722222222222227],[-0.43031250000000004,0.13722222222222227],[-0.41031249999999997,0.12907407407407415],[-0.41031249999999997,0.12907407407407415],[-0.3564583333333334,0.07666666666666662],[-0.3564583333333334,0.07666666666666662],[-0.3311458333333333,0.056296296296296254],[-0.3311458333333333,0.056296296296296254],[-0.3042708333333334,0.03685185185185181],[-0.2469791666666667,0.0338888888888888],[-0.2469791666666667,0.0338888888888888],[-0.20083333333333328,0.019444444444444445],[-0.20083333333333328,0.019444444444444445],[-0.1486458333333334,0.024629629629629547],[-0.0984375,0.03592592592592588],[-0.05249999999999998,-0.0005555555555554713],[-0.05249999999999998,-0.0005555555555554713],[-0.03458333333333338,-0.047037037037036995],[-0.0125,-0.06703703703703702],[-0.013645833333333357,-0.07999999999999997],[-0.0020833333333333333,-0.07185185185185188],[0.024687500000000046,-0.02444444444444453],[0.01854166666666662,0.044999999999999915],[0.023958333333333335,0.07314814814814814],[0.02635416666666662,0.12037037037037036],[0.04020833333333336,0.1479629629629629],[0.034791666666666644,0.27018518518518514],[0.025520833333333333,0.40333333333333327],[0.029895833333333382,0.5533333333333332],[0.029895833333333382,0.5533333333333332],[0.013854166666666619,0.668148148148148],[0.03229166666666667,0.7468518518518518],[0.0546875,0.7535185185185185],[0.07249999999999991,0.7992592592592593],[0.08770833333333337,0.8714814814814815],[0.10750000000000005,0.9087037037037038],[0.08791666666666677,0.9718518518518517],[0.11416666666666657,1.007037037037037],[0.14739583333333334,1.0335185185185183],[0.16156249999999991,0.9853703703703702],[0.22604166666666667,0.9772222222222223],[0.23333333333333334,0.9968518518518518],[0.24833333333333343,1.0322222222222224],[0.2673958333333334,1.0409259259259258],[0.26510416666666664,1.049074074074074],[0.27447916666666666,1.049814814814815],[0.33395833333333325,1.0296296296296297],[0.36697916666666663,0.9859259259259261],[0.3540625000000001,0.9987037037037036],[0.37479166666666663,1.0035185185185187],[0.365625,1.0035185185185187],[0.365625,1.0035185185185187],[0.35989583333333336,0.9777777777777777],[0.3466666666666666,0.943888888888889],[0.34135416666666674,0.8957407407407408],[0.3576041666666666,0.8768518518518519],[0.36437499999999995,0.8585185185185186],[0.36437499999999995,0.8585185185185186],[0.3304166666666667,0.8587037037037037],[0.3304166666666667,0.8587037037037037],[0.30499999999999994,0.8953703703703704],[0.3015625,0.8618518518518518],[0.29270833333333335,0.884074074074074],[0.2919791666666666,0.8622222222222222],[0.3089583333333332,0.8633333333333334],[0.2926041666666668,0.86],[0.27791666666666665,0.8398148148148148],[0.24947916666666667,0.7903703703703703],[0.21875,0.7529629629629631],[0.2085416666666667,0.7055555555555556],[0.16239583333333343,0.6588888888888889],[0.13708333333333325,0.6237037037037036],[0.13708333333333325,0.6237037037037036],[0.12312500000000005,0.51],[0.10333333333333337,0.43629629629629635],[0.07729166666666672,0.3581481481481481],[0.08510416666666672,0.25925925925925924],[0.10031249999999996,0.18629629629629635],[0.10895833333333324,0.12629629629629638],[0.12156250000000005,0.01648148148148144],[0.1384375000000001,-0.0301851851851851],[0.1384375000000001,-0.0301851851851851],[0.16072916666666662,-0.0868518518518518],[0.16072916666666662,-0.0868518518518518],[0.1915625000000001,-0.16648148148148145],[0.18822916666666673,-0.16740740740740737],[0.18260416666666662,-0.16425925925925924],[0.1859375,-0.17259259259259258],[0.18520833333333328,-0.15629629629629627],[0.17541666666666675,-0.14907407407407408],[0.17958333333333343,-0.1398148148148148],[0.1943749999999999,-0.10481481481481486],[0.18447916666666658,-0.10481481481481486],[0.20041666666666677,-0.1161111111111111],[0.2015625,-0.10407407407407405],[0.21510416666666668,-0.1294444444444444],[0.22177083333333342,-0.11129629629629634],[0.2265625,-0.1242592592592593],[0.24666666666666662,-0.14388888888888887],[0.2630208333333333,-0.14500000000000002],[0.2765625,-0.14574074074074073],[0.2570833333333333,-0.1022222222222222],[0.2712500000000001,-0.10666666666666672],[0.2608333333333334,-0.09500000000000001],[0.25062499999999993,-0.0824074074074074],[0.2381249999999999,-0.025925925925925925],[0.23250000000000004,-0.012962962962962963],[0.23875000000000005,-0.03351851851851856],[0.23468749999999997,-0.0016666666666666245],[0.22520833333333337,-0.025925925925925925],[0.21260416666666657,-0.06314814814814819],[0.22291666666666668,-0.1081481481481481],[0.22000000000000006,-0.13333333333333333],[0.22000000000000006,-0.13333333333333333],[0.22510416666666658,-0.15925925925925927],[0.23364583333333327,-0.2168518518518519],[0.24635416666666668,-0.25851851851851854],[0.2529166666666666,-0.33666666666666667],[0.2529166666666666,-0.33666666666666667],[0.25666666666666677,-0.347037037037037],[0.25666666666666677,-0.347037037037037],[0.24489583333333323,-0.37462962962962965],[0.24874999999999994,-0.3774074074074074]]","[[-0.34729166666666667,0.6125925925925925,0.0003000001907338401],[-0.34729166666666667,0.6125925925925925,0.050300000190731],[-0.31375000000000003,0.5592592592592592,0.060499999999997556],[-0.33135416666666667,0.5462962962962963,0.07990000009536402],[-0.3538541666666667,0.5675925925925925,0.0953000001907327],[-0.35187499999999994,0.5433333333333333,0.11320000028609911],[-0.33791666666666664,0.547037037037037,0.1277000002860973],[-0.31760416666666663,0.515925925925926,0.14849999999999852],[-0.32156250000000003,0.5014814814814814,0.16540000009536726],[-0.32156250000000003,0.5014814814814814,0.17720000028609917],[-0.3182291666666667,0.49962962962962953,0.19390000009536834],[-0.32145833333333335,0.5177777777777778,0.21349999999999625],[-0.3204166666666667,0.57,0.23070000028609883],[-0.3204166666666667,0.57,0.2439000000953655],[-0.365,0.6005555555555555,0.2605000000000004],[-0.365,0.6005555555555555,0.27730000019073486],[-0.37166666666666665,0.6329629629629628,0.29399999999999693],[-0.37166666666666665,0.6329629629629628,0.31060000038146995],[-0.3715625000000001,0.6148148148148148,0.32720000028609775],[-0.365,0.6227777777777777,0.3444999999999965],[-0.365,0.6227777777777777,0.3605000000000018],[-0.3741666666666667,0.6253703703703705,0.3773000001907363],[-0.3741666666666667,0.6253703703703705,0.3939000000953641],[-0.3902083333333334,0.6777777777777778,0.4106000003814714],[-0.3835416666666667,0.7490740740740741,0.42720000028609917],[-0.39656250000000004,0.7485185185185186,0.44390000009536834],[-0.41468750000000004,0.7949999999999999,0.46060000038146853],[-0.44562499999999994,0.7972222222222223,0.4799000000953626],[-0.45739583333333333,0.8368518518518518,0.49449999999999505],[-0.47604166666666664,0.8233333333333334,0.5105000000000004],[-0.49125,0.8368518518518518,0.5312000002860984],[-0.5059375,0.8305555555555556,0.5473000001907309],[-0.5236458333333334,0.8322222222222222,0.5604999999999976],[-0.5227083333333333,0.8083333333333333,0.5802000002860979],[-0.5601041666666667,0.7764814814814814,0.5939000000953669],[-0.5635416666666667,0.7894444444444444,0.6105000000000018],[-0.564375,0.7553703703703704,0.6273000001907363],[-0.53125,0.74,0.6466000003814685],[-0.5264583333333334,0.7109259259259259,0.660499999999999],[-0.5264583333333334,0.7109259259259259,0.6772000002860992],[-0.5217708333333333,0.7218518518518517,0.6938000001907341],[-0.5227083333333333,0.7366666666666666,0.711900000095369],[-0.5184375,0.7701851851851852,0.7349999999999994],[-0.5184375,0.7701851851851852,0.7439000000953655],[-0.49770833333333336,0.7770370370370371,0.7605000000000004],[-0.4903125,0.7842592592592592,0.7788000001907349],[-0.4430208333333333,0.7487037037037036,0.7938000001907355],[-0.4033333333333334,0.7372222222222222,0.8104999999999976],[-0.35822916666666665,0.727037037037037,0.8274000000953663],[-0.3142708333333334,0.7081481481481481,0.8438000001907326],[-0.28718750000000004,0.7298148148148148,0.8605000000000018],[-0.24656250000000005,0.7116666666666666,0.8801000003814679],[-0.1898958333333333,0.6668518518518519,0.8956000003814708],[-0.1414583333333333,0.6255555555555554,0.9121000003814714],[-0.11760416666666665,0.6024074074074073,0.9272000002860992],[-0.08541666666666667,0.5785185185185184,0.9465000000000003],[-0.05010416666666669,0.5527777777777778,0.9632000002861005],[-0.043437500000000046,0.49722222222222223,0.9799999999999969],[-0.030104166666666644,0.45129629629629636,0.9966000003814699],[-0.036354166666666646,0.4772222222222223,1.013300000190732],[-0.017916666666666713,0.4794444444444444,1.0272000002861006],[-0.004375000000000047,0.5094444444444445,1.0452000002861013],[0.012187500000000047,0.5248148148148147,1.0604999999999976],[0.027291666666666714,0.5268518518518519,1.0798000001907369],[0.04489583333333336,0.5675925925925925,1.0946000003814689],[0.057604166666666616,0.5888888888888889,1.1107000002861014],[0.017499999999999953,0.6300000000000001,1.1271000003814677],[0.017499999999999953,0.6300000000000001,1.143900000095364],[0.04072916666666669,0.7172222222222221,1.160499999999999],[0.06031249999999998,0.7661111111111112,1.1802000002860993],[0.08947916666666676,0.7520370370370371,1.1942000002861022],[0.09916666666666671,0.7174074074074074,1.2104999999999961],[0.10791666666666658,0.6851851851851852,1.2271000003814692],[0.07645833333333343,0.6787037037037037,1.2439999999999998],[0.043437500000000046,0.672037037037037,1.2605000000000004],[0.01906249999999995,0.6272222222222223,1.2798000001907326],[-0.028541666666666642,0.640925925925926,1.2968000001907356],[-0.016979166666666618,0.6348148148148147,1.3111000003814652],[-0.03885416666666662,0.6131481481481482,1.3271000003814706],[-0.07124999999999998,0.6181481481481481,1.343900000095367],[-0.07124999999999998,0.6181481481481481,1.3605000000000018],[-0.13614583333333338,0.6318518518518519,1.3773000001907363],[-0.13614583333333338,0.6318518518518519,1.3939999999999984],[-0.17593749999999997,0.6481481481481481,1.410499999999999],[-0.17593749999999997,0.6481481481481481,1.4272000002860992],[-0.2107291666666666,0.6824074074074075,1.443800000190734],[-0.2107291666666666,0.6824074074074075,1.4606000003814685],[-0.2439583333333334,0.687037037037037,1.4772000002861034],[-0.2439583333333334,0.687037037037037,1.4938000001907312],[-0.2660416666666666,0.6829629629629629,1.5105000000000004],[-0.2679166666666667,0.68,1.5313000001907326],[-0.2453125,0.649074074074074,1.5489999999999995],[-0.2453125,0.649074074074074,1.5604999999999976],[-0.2421875,0.6692592592592592,1.5772000002860977],[-0.2421875,0.6692592592592592,1.5938000001907326],[-0.2546875,0.669074074074074,1.6105000000000018],[-0.2419791666666666,0.6975925925925927,1.6286000003814678],[-0.2015625,0.7281481481481482,1.646499999999996],[-0.17468750000000005,0.7640740740740741,1.6606000003814714],[-0.17468750000000005,0.7640740740740741,1.6914999999999978],[-0.15583333333333335,0.7748148148148147,1.7044000000953687],[-0.15583333333333335,0.7748148148148147,1.7139999999999986],[-0.09656250000000005,0.8525925925925926,1.7272000002861034],[-0.04125000000000002,0.9387037037037038,1.7454000000953656],[-0.009791666666666643,1.0137037037037038,1.7605000000000004],[-0.009791666666666643,1.0137037037037038,1.7772000002861006],[0.03927083333333338,1.0624074074074075,1.7938000001907355],[0.0900000000000001,1.095,1.8104000000953633],[0.1430208333333333,1.1335185185185184,1.8272000002860977],[0.16020833333333329,1.1812962962962965,1.8441000003814665],[0.1929166666666667,1.2042592592592591,1.8605000000000018],[0.17020833333333343,1.2235185185185187,1.8789999999999978],[0.1648958333333333,1.2253703703703704,1.8941000003814707],[0.1490624999999999,1.1914814814814816,1.9104000000953647],[0.11708333333333343,1.1688888888888889,1.9272000002860992],[0.09947916666666666,1.1262962962962964,1.943800000190734],[0.05802083333333338,1.1040740740740742,1.960400000095369],[0.012187500000000047,1.1151851851851853,1.9773000001907306],[-0.04593750000000003,1.0924074074074075,1.9938000001907312],[-0.06302083333333333,1.0468518518518517,2.0105000000000004],[-0.10739583333333336,1.0162962962962963,2.0271000003814663],[-0.09083333333333338,0.9418518518518517,2.0438000001907355],[-0.08864583333333335,0.8920370370370371,2.0604000000953633],[-0.10072916666666672,0.8437037037037037,2.077300000190732],[-0.12135416666666667,0.8018518518518518,2.0938000001907326],[-0.12999999999999995,0.8125925925925925,2.110900000095363],[-0.15416666666666667,0.7961111111111111,2.127200000286102],[-0.15072916666666672,0.7833333333333333,2.143900000095364],[-0.12760416666666666,0.7675925925925926,2.160499999999999],[-0.12906249999999997,0.735,2.1777000002861016],[-0.11145833333333334,0.7098148148148147,2.193800000190734],[-0.09791666666666667,0.7364814814814815,2.210499999999996],[-0.08333333333333333,0.7320370370370369,2.237400000095363],[-0.08333333333333333,0.7320370370370369,2.2443000001907336],[-0.05291666666666662,0.6775925925925925,2.2607000002861],[0.015416666666666618,0.5927777777777778,2.280600000381469],[0.0515625,0.5088888888888888,2.2968000001907356],[0.1125,0.39574074074074084,2.3116000003814676],[0.1486458333333334,0.24944444444444452,2.327300000190732],[0.171875,0.08833333333333342,2.348300000190733],[0.2022916666666667,-0.029814814814814856,2.3659000000953654],[0.2022916666666667,-0.029814814814814856,2.3774999999999977],[0.2256249999999999,-0.11981481481481479,2.397200000286098],[0.2256249999999999,-0.11981481481481479,2.410800000190733],[0.24718749999999995,-0.22925925925925927,2.4273000001907334],[0.26062500000000005,-0.32703703703703707,2.4439999999999955],[0.2582291666666668,-0.37481481481481477,2.462700000286098],[0.2404166666666666,-0.4022222222222222,2.479700000286101],[0.2361458333333334,-0.4474074074074075,2.494100000381465],[0.23447916666666657,-0.45,2.515800000190737],[0.22489583333333343,-0.4233333333333334,2.5294999999999987],[0.23270833333333343,-0.4044444444444444,2.5438000001907355],[0.22020833333333342,-0.3901851851851852,2.5604000000953633],[0.20822916666666677,-0.4331481481481481,2.5775000000000006],[0.2007291666666667,-0.42166666666666663,2.5938000001907326],[0.1915625000000001,-0.39000000000000007,2.6129000000953653],[0.18624999999999994,-0.3896296296296296,2.627200000286102],[0.18218750000000009,-0.38555555555555554,2.643900000095364],[0.17000000000000004,-0.3931481481481482,2.6641000003814668],[0.17374999999999996,-0.3787037037037037,2.680900000095363],[0.18458333333333338,-0.37518518518518523,2.703700000286098],[0.18458333333333338,-0.37518518518518523,2.711200000286098],[0.18447916666666658,-0.3483333333333334,2.7304999999999993],[0.18635416666666677,-0.3314814814814815,2.747800000190736],[0.20083333333333328,-0.28277777777777774,2.7635000000000005],[0.20083333333333328,-0.28277777777777774,2.777300000190735],[0.20177083333333337,-0.28574074074074074,2.7939000000953627],[0.24406249999999996,-0.27166666666666667,2.8134000000953634],[0.2585416666666667,-0.22666666666666663,2.8304000000953664],[0.31906249999999997,-0.17833333333333334,2.847999999999999],[0.3489583333333333,-0.13333333333333333,2.864700000286099],[0.3489583333333333,-0.13333333333333333,2.877200000286102],[0.38083333333333325,-0.1051851851851852,2.893800000190737],[0.39385416666666656,-0.08981481481481482,2.910499999999999],[0.41124999999999995,-0.10351851851851848,2.927800000190736],[0.4570833333333333,-0.11666666666666667,2.9439999999999955],[0.4716666666666666,-0.1007407407407407,2.9613000001907324],[0.4890625,-0.06333333333333331,2.9802000002861035],[0.42520833333333335,-0.020370370370370372,2.9972000002860995],[0.3549999999999999,0.005370370370370328,3.0134000000953662],[0.23968749999999991,0.01629629629629621,3.0297000002860983],[0.17354166666666657,0.010185185185185186,3.0467000002861013],[0.0875,0.007592592592592635,3.0604999999999976],[-0.01072916666666662,0.04814814814814815,3.0794000000953687],[-0.08343750000000003,0.11129629629629634,3.0944999999999965],[-0.18947916666666664,0.15703703703703695,3.112700000286104],[-0.2755208333333333,0.15703703703703695,3.1274999999999977],[-0.37124999999999997,0.21592592592592597,3.146499999999996],[-0.4114583333333333,0.24833333333333338,3.1604000000953647],[-0.40354166666666663,0.20055555555555546,3.1777000002861016],[-0.4069791666666667,0.2,3.194100000381468],[-0.4044791666666666,0.16574074074074074,3.2149999999999963],[-0.41916666666666663,0.17592592592592593,3.2309000000953674],[-0.4126041666666667,0.17462962962962955,3.247700000286102],[-0.4157291666666667,0.1725925925925927,3.261900000095366],[-0.41854166666666665,0.1875925925925925,3.280000000000001],[-0.4352083333333333,0.18259259259259264,3.2939000000953627],[-0.42302083333333335,0.12537037037037047,3.3104000000953633],[-0.4275,0.07444444444444454,3.329900000095364],[-0.44979166666666665,0.12129629629629629,3.3489999999999966],[-0.44979166666666665,0.12129629629629629,3.360600000381467],[-0.4438541666666667,0.09425925925925922,3.377200000286102],[-0.43031250000000004,0.13722222222222227,3.4014000000953644],[-0.43031250000000004,0.13722222222222227,3.4122000002860986],[-0.41031249999999997,0.12907407407407415,3.427200000286099],[-0.41031249999999997,0.12907407407407415,3.443800000190734],[-0.3564583333333334,0.07666666666666662,3.4606000003814685],[-0.3564583333333334,0.07666666666666662,3.4773000001907306],[-0.3311458333333333,0.056296296296296254,3.4939000000953655],[-0.3311458333333333,0.056296296296296254,3.5105000000000004],[-0.3042708333333334,0.03685185185185181,3.5272000002861006],[-0.2469791666666667,0.0338888888888888,3.5483000001907357],[-0.2469791666666667,0.0338888888888888,3.5604999999999976],[-0.20083333333333328,0.019444444444444445,3.577300000190732],[-0.20083333333333328,0.019444444444444445,3.593900000095367],[-0.1486458333333334,0.024629629629629547,3.610500000000002],[-0.0984375,0.03592592592592588,3.627900000095366],[-0.05249999999999998,-0.0005555555555554713,3.645400000095364],[-0.05249999999999998,-0.0005555555555554713,3.6604000000953647],[-0.03458333333333338,-0.047037037037036995,3.6773000001907334],[-0.0125,-0.06703703703703702,3.696400000095366],[-0.013645833333333357,-0.07999999999999997,3.713700000286103],[-0.0020833333333333333,-0.07185185185185188,3.7287000002861035],[0.024687500000000046,-0.02444444444444453,3.7439000000953655],[0.01854166666666662,0.044999999999999915,3.7609000000953685],[0.023958333333333335,0.07314814814814814,3.777300000190735],[0.02635416666666662,0.12037037037037036,3.7938000001907355],[0.04020833333333336,0.1479629629629629,3.8104999999999976],[0.034791666666666644,0.27018518518518514,3.8271000003814706],[0.025520833333333333,0.40333333333333327,3.8438000001907326],[0.029895833333333382,0.5533333333333332,3.860999999999997],[0.029895833333333382,0.5533333333333332,3.877200000286102],[0.013854166666666619,0.668148148148148,3.893900000095364],[0.03229166666666667,0.7468518518518518,3.912400000095367],[0.0546875,0.7535185185185185,3.9294999999999973],[0.07249999999999991,0.7992592592592593,3.9451000003814656],[0.08770833333333337,0.8714814814814815,3.96080000019073],[0.10750000000000005,0.9087037037037038,3.978999999999999],[0.08791666666666677,0.9718518518518517,3.9938000001907312],[0.11416666666666657,1.007037037037037,4.013400000095366],[0.14739583333333334,1.0335185185185183,4.030200000286101],[0.16156249999999991,0.9853703703703702,4.046700000286101],[0.22604166666666667,0.9772222222222223,4.060400000095363],[0.23333333333333334,0.9968518518518518,4.079700000286103],[0.24833333333333343,1.0322222222222224,4.095200000286098],[0.2673958333333334,1.0409259259259258,4.111900000095368],[0.26510416666666664,1.049074074074074,4.1296000003814655],[0.27447916666666666,1.049814814814815,4.143800000190737],[0.33395833333333325,1.0296296296296297,4.1618000001907305],[0.36697916666666663,0.9859259259259261,4.179900000095365],[0.3540625000000001,0.9987037037037036,4.1965],[0.37479166666666663,1.0035185185185187,4.213700000286103],[0.365625,1.0035185185185187,4.239700000286099],[0.365625,1.0035185185185187,4.246700000286104],[0.35989583333333336,0.9777777777777777,4.2605],[0.3466666666666666,0.943888888888889,4.2816000003814665],[0.34135416666666674,0.8957407407407408,4.298000000000002],[0.3576041666666666,0.8768518518518519,4.314600000381468],[0.36437499999999995,0.8585185185185186,4.331400000095364],[0.36437499999999995,0.8585185185185186,4.343900000095367],[0.3304166666666667,0.8587037037037037,4.360700000286101],[0.3304166666666667,0.8587037037037037,4.377300000190736],[0.30499999999999994,0.8953703703703704,4.393900000095364],[0.3015625,0.8618518518518518,4.413900000095367],[0.29270833333333335,0.884074074074074,4.43],[0.2919791666666666,0.8622222222222222,4.4465],[0.3089583333333332,0.8633333333333334,4.463400000095369],[0.2926041666666668,0.86,4.479900000095363],[0.27791666666666665,0.8398148148148148,4.495200000286104],[0.24947916666666667,0.7903703703703703,4.510600000381466],[0.21875,0.7529629629629631,4.528600000381466],[0.2085416666666667,0.7055555555555556,4.545600000381469],[0.16239583333333343,0.6588888888888889,4.560400000095363],[0.13708333333333325,0.6237037037037036,4.582000000000001],[0.13708333333333325,0.6237037037037036,4.593800000190733],[0.12312500000000005,0.51,4.610500000000002],[0.10333333333333337,0.43629629629629635,4.6274000000953635],[0.07729166666666672,0.3581481481481481,4.646900000095364],[0.08510416666666672,0.25925925925925924,4.660900000095367],[0.10031249999999996,0.18629629629629635,4.678700000286099],[0.10895833333333324,0.12629629629629638,4.696400000095366],[0.12156250000000005,0.01648148148148144,4.710499999999996],[0.1384375000000001,-0.0301851851851851,4.727100000381469],[0.1384375000000001,-0.0301851851851851,4.743800000190731],[0.16072916666666662,-0.0868518518518518,4.760400000095366],[0.16072916666666662,-0.0868518518518518,4.777300000190735],[0.1915625000000001,-0.16648148148148145,4.7938000001907355],[0.18822916666666673,-0.16740740740740737,4.810700000286104],[0.18260416666666662,-0.16425925925925924,4.827100000381471],[0.1859375,-0.17259259259259258,4.843800000190733],[0.18520833333333328,-0.15629629629629627,4.860500000000002],[0.17541666666666675,-0.14907407407407408,4.8789000000953635],[0.17958333333333343,-0.1398148148148148,4.893700000286103],[0.1943749999999999,-0.10481481481481486,4.910400000095365],[0.18447916666666658,-0.10481481481481486,4.927100000381465],[0.20041666666666677,-0.1161111111111111,4.943800000190734],[0.2015625,-0.10407407407407405,4.960499999999996],[0.21510416666666668,-0.1294444444444444,4.9787000002861035],[0.22177083333333342,-0.11129629629629634,4.993700000286104],[0.2265625,-0.1242592592592593,5.013900000095369],[0.24666666666666662,-0.14388888888888887,5.028600000381466],[0.2630208333333333,-0.14500000000000002,5.045900000095365],[0.2765625,-0.14574074074074073,5.06060000038147],[0.2570833333333333,-0.1022222222222222,5.080500000000001],[0.2712500000000001,-0.10666666666666672,5.096600000381471],[0.2608333333333334,-0.09500000000000001,5.110999999999997],[0.25062499999999993,-0.0824074074074074,5.127100000381468],[0.2381249999999999,-0.025925925925925925,5.143800000190737],[0.23250000000000004,-0.012962962962962963,5.160499999999999],[0.23875000000000005,-0.03351851851851856,5.178600000381465],[0.23468749999999997,-0.0016666666666666245,5.1937000002861],[0.22520833333333337,-0.025925925925925925,5.210499999999996],[0.21260416666666657,-0.06314814814814819,5.230800000190733],[0.22291666666666668,-0.1081481481481481,5.246400000095363],[0.22000000000000006,-0.13333333333333333,5.260800000190734],[0.22000000000000006,-0.13333333333333333,5.277100000381466],[0.22510416666666658,-0.15925925925925927,5.2938000001907355],[0.23364583333333327,-0.2168518518518519,5.313100000381468],[0.24635416666666668,-0.25851851851851854,5.329900000095364],[0.2529166666666666,-0.33666666666666667,5.3614999999999995],[0.2529166666666666,-0.33666666666666667,5.383900000095366],[0.25666666666666677,-0.347037037037037,5.393800000190737],[0.25666666666666677,-0.347037037037037,5.410600000381471],[0.24489583333333323,-0.37462962962962965,5.427200000286099],[0.24874999999999994,-0.3774074074074074,5.4484000000953685]]","[0.0003000001907338401,0.050300000190731,0.060499999999997556,0.07990000009536402,0.0953000001907327,0.11320000028609911,0.1277000002860973,0.14849999999999852,0.16540000009536726,0.17720000028609917,0.19390000009536834,0.21349999999999625,0.23070000028609883,0.2439000000953655,0.2605000000000004,0.27730000019073486,0.29399999999999693,0.31060000038146995,0.32720000028609775,0.3444999999999965,0.3605000000000018,0.3773000001907363,0.3939000000953641,0.4106000003814714,0.42720000028609917,0.44390000009536834,0.46060000038146853,0.4799000000953626,0.49449999999999505,0.5105000000000004,0.5312000002860984,0.5473000001907309,0.5604999999999976,0.5802000002860979,0.5939000000953669,0.6105000000000018,0.6273000001907363,0.6466000003814685,0.660499999999999,0.6772000002860992,0.6938000001907341,0.711900000095369,0.7349999999999994,0.7439000000953655,0.7605000000000004,0.7788000001907349,0.7938000001907355,0.8104999999999976,0.8274000000953663,0.8438000001907326,0.8605000000000018,0.8801000003814679,0.8956000003814708,0.9121000003814714,0.9272000002860992,0.9465000000000003,0.9632000002861005,0.9799999999999969,0.9966000003814699,1.013300000190732,1.0272000002861006,1.0452000002861013,1.0604999999999976,1.0798000001907369,1.0946000003814689,1.1107000002861014,1.1271000003814677,1.143900000095364,1.160499999999999,1.1802000002860993,1.1942000002861022,1.2104999999999961,1.2271000003814692,1.2439999999999998,1.2605000000000004,1.2798000001907326,1.2968000001907356,1.3111000003814652,1.3271000003814706,1.343900000095367,1.3605000000000018,1.3773000001907363,1.3939999999999984,1.410499999999999,1.4272000002860992,1.443800000190734,1.4606000003814685,1.4772000002861034,1.4938000001907312,1.5105000000000004,1.5313000001907326,1.5489999999999995,1.5604999999999976,1.5772000002860977,1.5938000001907326,1.6105000000000018,1.6286000003814678,1.646499999999996,1.6606000003814714,1.6914999999999978,1.7044000000953687,1.7139999999999986,1.7272000002861034,1.7454000000953656,1.7605000000000004,1.7772000002861006,1.7938000001907355,1.8104000000953633,1.8272000002860977,1.8441000003814665,1.8605000000000018,1.8789999999999978,1.8941000003814707,1.9104000000953647,1.9272000002860992,1.943800000190734,1.960400000095369,1.9773000001907306,1.9938000001907312,2.0105000000000004,2.0271000003814663,2.0438000001907355,2.0604000000953633,2.077300000190732,2.0938000001907326,2.110900000095363,2.127200000286102,2.143900000095364,2.160499999999999,2.1777000002861016,2.193800000190734,2.210499999999996,2.237400000095363,2.2443000001907336,2.2607000002861,2.280600000381469,2.2968000001907356,2.3116000003814676,2.327300000190732,2.348300000190733,2.3659000000953654,2.3774999999999977,2.397200000286098,2.410800000190733,2.4273000001907334,2.4439999999999955,2.462700000286098,2.479700000286101,2.494100000381465,2.515800000190737,2.5294999999999987,2.5438000001907355,2.5604000000953633,2.5775000000000006,2.5938000001907326,2.6129000000953653,2.627200000286102,2.643900000095364,2.6641000003814668,2.680900000095363,2.703700000286098,2.711200000286098,2.7304999999999993,2.747800000190736,2.7635000000000005,2.777300000190735,2.7939000000953627,2.8134000000953634,2.8304000000953664,2.847999999999999,2.864700000286099,2.877200000286102,2.893800000190737,2.910499999999999,2.927800000190736,2.9439999999999955,2.9613000001907324,2.9802000002861035,2.9972000002860995,3.0134000000953662,3.0297000002860983,3.0467000002861013,3.0604999999999976,3.0794000000953687,3.0944999999999965,3.112700000286104,3.1274999999999977,3.146499999999996,3.1604000000953647,3.1777000002861016,3.194100000381468,3.2149999999999963,3.2309000000953674,3.247700000286102,3.261900000095366,3.280000000000001,3.2939000000953627,3.3104000000953633,3.329900000095364,3.3489999999999966,3.360600000381467,3.377200000286102,3.4014000000953644,3.4122000002860986,3.427200000286099,3.443800000190734,3.4606000003814685,3.4773000001907306,3.4939000000953655,3.5105000000000004,3.5272000002861006,3.5483000001907357,3.5604999999999976,3.577300000190732,3.593900000095367,3.610500000000002,3.627900000095366,3.645400000095364,3.6604000000953647,3.6773000001907334,3.696400000095366,3.713700000286103,3.7287000002861035,3.7439000000953655,3.7609000000953685,3.777300000190735,3.7938000001907355,3.8104999999999976,3.8271000003814706,3.8438000001907326,3.860999999999997,3.877200000286102,3.893900000095364,3.912400000095367,3.9294999999999973,3.9451000003814656,3.96080000019073,3.978999999999999,3.9938000001907312,4.013400000095366,4.030200000286101,4.046700000286101,4.060400000095363,4.079700000286103,4.095200000286098,4.111900000095368,4.1296000003814655,4.143800000190737,4.1618000001907305,4.179900000095365,4.1965,4.213700000286103,4.239700000286099,4.246700000286104,4.2605,4.2816000003814665,4.298000000000002,4.314600000381468,4.331400000095364,4.343900000095367,4.360700000286101,4.377300000190736,4.393900000095364,4.413900000095367,4.43,4.4465,4.463400000095369,4.479900000095363,4.495200000286104,4.510600000381466,4.528600000381466,4.545600000381469,4.560400000095363,4.582000000000001,4.593800000190733,4.610500000000002,4.6274000000953635,4.646900000095364,4.660900000095367,4.678700000286099,4.696400000095366,4.710499999999996,4.727100000381469,4.743800000190731,4.760400000095366,4.777300000190735,4.7938000001907355,4.810700000286104,4.827100000381471,4.843800000190733,4.860500000000002,4.8789000000953635,4.893700000286103,4.910400000095365,4.927100000381465,4.943800000190734,4.960499999999996,4.9787000002861035,4.993700000286104,5.013900000095369,5.028600000381466,5.045900000095365,5.06060000038147,5.080500000000001,5.096600000381471,5.110999999999997,5.127100000381468,5.143800000190737,5.160499999999999,5.178600000381465,5.1937000002861,5.210499999999996,5.230800000190733,5.246400000095363,5.260800000190734,5.277100000381466,5.2938000001907355,5.313100000381468,5.329900000095364,5.3614999999999995,5.383900000095366,5.393800000190737,5.410600000381471,5.427200000286099,5.4484000000953685]","[1732001412494,1732001412534,1732001412544,1732001412563,1732001412579,1732001412597,1732001412611,1732001412632,1732001412649,1732001412661,1732001412677,1732001412697,1732001412714,1732001412727,1732001412744,1732001412761,1732001412777,1732001412794,1732001412811,1732001412828,1732001412844,1732001412861,1732001412877,1732001412894,1732001412911,1732001412927,1732001412944,1732001412963,1732001412978,1732001412994,1732001413015,1732001413031,1732001413044,1732001413064,1732001413077,1732001413094,1732001413111,1732001413130,1732001413144,1732001413161,1732001413177,1732001413195,1732001413219,1732001413227,1732001413244,1732001413262,1732001413277,1732001413294,1732001413311,1732001413327,1732001413344,1732001413364,1732001413379,1732001413396,1732001413411,1732001413430,1732001413447,1732001413463,1732001413480,1732001413497,1732001413511,1732001413529,1732001413544,1732001413563,1732001413578,1732001413594,1732001413611,1732001413627,1732001413644,1732001413664,1732001413678,1732001413694,1732001413711,1732001413727,1732001413744,1732001413763,1732001413780,1732001413795,1732001413811,1732001413827,1732001413844,1732001413861,1732001413877,1732001413894,1732001413911,1732001413927,1732001413944,1732001413961,1732001413977,1732001413994,1732001414015,1732001414032,1732001414044,1732001414061,1732001414077,1732001414094,1732001414112,1732001414130,1732001414144,1732001414175,1732001414188,1732001414197,1732001414211,1732001414229,1732001414244,1732001414261,1732001414277,1732001414294,1732001414311,1732001414327,1732001414344,1732001414363,1732001414378,1732001414394,1732001414411,1732001414427,1732001414444,1732001414461,1732001414477,1732001414494,1732001414511,1732001414527,1732001414544,1732001414561,1732001414577,1732001414594,1732001414611,1732001414627,1732001414644,1732001414661,1732001414677,1732001414694,1732001414721,1732001414728,1732001414744,1732001414764,1732001414780,1732001414795,1732001414811,1732001414832,1732001414849,1732001414861,1732001414881,1732001414894,1732001414911,1732001414927,1732001414946,1732001414963,1732001414978,1732001414999,1732001415013,1732001415027,1732001415044,1732001415061,1732001415077,1732001415096,1732001415111,1732001415127,1732001415148,1732001415164,1732001415187,1732001415195,1732001415214,1732001415231,1732001415247,1732001415261,1732001415277,1732001415297,1732001415314,1732001415331,1732001415348,1732001415361,1732001415377,1732001415394,1732001415411,1732001415427,1732001415445,1732001415464,1732001415481,1732001415497,1732001415513,1732001415530,1732001415544,1732001415563,1732001415578,1732001415596,1732001415611,1732001415630,1732001415644,1732001415661,1732001415678,1732001415698,1732001415714,1732001415731,1732001415745,1732001415763,1732001415777,1732001415794,1732001415813,1732001415833,1732001415844,1732001415861,1732001415885,1732001415896,1732001415911,1732001415927,1732001415944,1732001415961,1732001415977,1732001415994,1732001416011,1732001416032,1732001416044,1732001416061,1732001416077,1732001416094,1732001416111,1732001416129,1732001416144,1732001416161,1732001416181,1732001416198,1732001416213,1732001416228,1732001416245,1732001416262,1732001416278,1732001416295,1732001416311,1732001416328,1732001416345,1732001416362,1732001416378,1732001416397,1732001416414,1732001416429,1732001416445,1732001416463,1732001416478,1732001416498,1732001416515,1732001416531,1732001416545,1732001416564,1732001416580,1732001416596,1732001416614,1732001416628,1732001416646,1732001416664,1732001416681,1732001416698,1732001416724,1732001416731,1732001416745,1732001416766,1732001416782,1732001416799,1732001416816,1732001416828,1732001416845,1732001416862,1732001416878,1732001416898,1732001416914,1732001416931,1732001416948,1732001416964,1732001416980,1732001416995,1732001417013,1732001417030,1732001417045,1732001417066,1732001417078,1732001417095,1732001417112,1732001417131,1732001417145,1732001417163,1732001417181,1732001417195,1732001417211,1732001417228,1732001417245,1732001417262,1732001417278,1732001417295,1732001417311,1732001417328,1732001417345,1732001417363,1732001417378,1732001417395,1732001417411,1732001417428,1732001417445,1732001417463,1732001417478,1732001417498,1732001417513,1732001417530,1732001417545,1732001417565,1732001417581,1732001417595,1732001417611,1732001417628,1732001417645,1732001417663,1732001417678,1732001417695,1732001417715,1732001417731,1732001417745,1732001417761,1732001417778,1732001417797,1732001417814,1732001417846,1732001417868,1732001417878,1732001417895,1732001417912,1732001417933]","[[626.6,870.8],[626.6,870.8],[658.8,842],[641.9,835],[620.3,846.5],[622.2,833.4],[635.6,835.4],[655.1,818.6],[651.3,810.8],[651.3,810.8],[654.5,809.8],[651.4,819.6],[652.4,847.8],[652.4,847.8],[609.6,864.3],[609.6,864.3],[603.2,881.8],[603.2,881.8],[603.3,872],[609.6,876.3],[609.6,876.3],[600.8,877.7],[600.8,877.7],[585.4,906],[591.8,944.5],[579.3,944.2],[561.9,969.3],[532.2,970.5],[520.9,991.9],[503,984.6],[488.4,991.9],[474.3,988.5],[457.3,989.4],[458.2,976.5],[422.3,959.3],[419,966.3],[418.2,947.9],[450,939.6],[454.6,923.9],[454.6,923.9],[459.1,929.8],[458.2,937.8],[462.3,955.9],[462.3,955.9],[482.2,959.6],[489.3,963.5],[534.7,944.3],[572.8,938.1],[616.1,932.6],[658.3,922.4],[684.3,934.1],[723.3,924.3],[777.7,900.1],[824.2,877.8],[847.1,865.3],[878,852.4],[911.9,838.5],[918.3,808.5],[931.1,783.7],[925.1,797.7],[942.8,798.9],[955.8,815.1],[971.7,823.4],[986.2,824.5],[1003.1,846.5],[1015.3,858],[976.8,880.2],[976.8,880.2],[999.1,927.3],[1017.9,953.7],[1045.9,946.1],[1055.2,927.4],[1063.6,910],[1033.4,906.5],[1001.7,902.9],[978.3,878.7],[932.6,886.1],[943.7,882.8],[922.7,871.1],[891.6,873.8],[891.6,873.8],[829.3,881.2],[829.3,881.2],[791.1,890],[791.1,890],[757.7,908.5],[757.7,908.5],[725.8,911],[725.8,911],[704.6,908.8],[702.8,907.2],[724.5,890.5],[724.5,890.5],[727.5,901.4],[727.5,901.4],[715.5,901.3],[727.7,916.7],[766.5,933.2],[792.3,952.6],[792.3,952.6],[810.4,958.4],[810.4,958.4],[867.3,1000.4],[920.4,1046.9],[950.6,1087.4],[950.6,1087.4],[997.7,1113.7],[1046.4,1131.3],[1097.3,1152.1],[1113.8,1177.9],[1145.2,1190.3],[1123.4,1200.7],[1118.3,1201.7],[1103.1,1183.4],[1072.4,1171.2],[1055.5,1148.2],[1015.7,1136.2],[971.7,1142.2],[915.9,1129.9],[899.5,1105.3],[856.9,1088.8],[872.8,1048.6],[874.9,1021.7],[863.3,995.6],[843.5,973],[835.2,978.8],[812,969.9],[815.3,963],[837.5,954.5],[836.1,936.9],[853,923.3],[866,937.7],[880,935.3],[880,935.3],[909.2,905.9],[974.8,860.1],[1009.5,814.8],[1068,753.7],[1102.7,674.7],[1125,587.7],[1154.2,523.9],[1154.2,523.9],[1176.6,475.3],[1176.6,475.3],[1197.3,416.2],[1210.2,363.4],[1207.9,337.6],[1190.8,322.8],[1186.7,298.4],[1185.1,297],[1175.9,311.4],[1183.4,321.6],[1171.4,329.3],[1159.9,306.1],[1152.7,312.3],[1143.9,329.4],[1138.8,329.6],[1134.9,331.8],[1123.2,327.7],[1126.8,335.5],[1137.2,337.4],[1137.2,337.4],[1137.1,351.9],[1138.9,361],[1152.8,387.3],[1152.8,387.3],[1153.7,385.7],[1194.3,393.3],[1208.2,417.6],[1266.3,443.7],[1295,468],[1295,468],[1325.6,483.2],[1338.1,491.5],[1354.8,484.1],[1398.8,477],[1412.8,485.6],[1429.5,505.8],[1368.2,529],[1300.8,542.9],[1190.1,548.8],[1126.6,545.5],[1044,544.1],[949.7,566],[879.9,600.1],[778.1,624.8],[695.5,624.8],[603.6,656.6],[565,674.1],[572.6,648.3],[569.3,648],[571.7,629.5],[557.6,635],[563.9,634.3],[560.9,633.2],[558.2,641.3],[542.2,638.6],[553.9,607.7],[549.6,580.2],[528.2,605.5],[528.2,605.5],[533.9,590.9],[546.9,614.1],[546.9,614.1],[566.1,609.7],[566.1,609.7],[617.8,581.4],[617.8,581.4],[642.1,570.4],[642.1,570.4],[667.9,559.9],[722.9,558.3],[722.9,558.3],[767.2,550.5],[767.2,550.5],[817.3,553.3],[865.5,559.4],[909.6,539.7],[909.6,539.7],[926.8,514.6],[948,503.8],[946.9,496.8],[958,501.2],[983.7,526.8],[977.8,564.3],[983,579.5],[985.3,605],[998.6,619.9],[993.4,685.9],[984.5,757.8],[988.7,838.8],[988.7,838.8],[973.3,900.8],[991,943.3],[1012.5,946.9],[1029.6,971.6],[1044.2,1010.6],[1063.2,1030.7],[1044.4,1064.8],[1069.6,1083.8],[1101.5,1098.1],[1115.1,1072.1],[1177,1067.7],[1184,1078.3],[1198.4,1097.4],[1216.7,1102.1],[1214.5,1106.5],[1223.5,1106.9],[1280.6,1096],[1312.3,1072.4],[1299.9,1079.3],[1319.8,1081.9],[1311,1081.9],[1311,1081.9],[1305.5,1068],[1292.8,1049.7],[1287.7,1023.7],[1303.3,1013.5],[1309.8,1003.6],[1309.8,1003.6],[1277.2,1003.7],[1277.2,1003.7],[1252.8,1023.5],[1249.5,1005.4],[1241,1017.4],[1240.3,1005.6],[1256.6,1006.2],[1240.9,1004.4],[1226.8,993.5],[1199.5,966.8],[1170,946.6],[1160.2,921],[1115.9,895.8],[1091.6,876.8],[1091.6,876.8],[1078.2,815.4],[1059.2,775.6],[1034.2,733.4],[1041.7,680],[1056.3,640.6],[1064.6,608.2],[1076.7,548.9],[1092.9,523.7],[1092.9,523.7],[1114.3,493.1],[1114.3,493.1],[1143.9,450.1],[1140.7,449.6],[1135.3,451.3],[1138.5,446.8],[1137.8,455.6],[1128.4,459.5],[1132.4,464.5],[1146.6,483.4],[1137.1,483.4],[1152.4,477.3],[1153.5,483.8],[1166.5,470.1],[1172.9,479.9],[1177.5,472.9],[1196.8,462.3],[1212.5,461.7],[1225.5,461.3],[1206.8,484.8],[1220.4,482.4],[1210.4,488.7],[1200.6,495.5],[1188.6,526],[1183.2,533],[1189.2,521.9],[1185.3,539.1],[1176.2,526],[1164.1,505.9],[1174,481.6],[1171.2,468],[1171.2,468],[1176.1,454],[1184.3,422.9],[1196.5,400.4],[1202.8,358.2],[1202.8,358.2],[1206.4,352.6],[1206.4,352.6],[1195.1,337.7],[1198.8,336.2]]","[-0.132282,0.39684600000000003]","[0.132282,0.39684600000000003]","[0.39684600000000003,0.39684600000000003]","[-0.39684600000000003,-0.132282]","[-0.39684600000000003,0.132282]","[-0.39684600000000003,-0.39684600000000003]","[-0.132282,-0.132282]","[0.132282,-0.132282]","[0.39684600000000003,-0.132282]","[-0.132282,0.132282]","[0.132282,0.132282]","[0.39684600000000003,0.132282]","[-0.132282,-0.39684600000000003]","[0.132282,-0.39684600000000003]","[0.39684600000000003,-0.39684600000000003]",0,0,0,0,1,4,Tablet,25,20,8,1,60,4,1,60,3
