inst1_resp.keys,inst1_resp.rt,calibrationMouse.x,calibrationMouse.y,calibrationMouse.leftButton,calibrationMouse.midButton,calibrationMouse.rightButton,calibrationClick.x,calibrationClick.y,calibrationClick.leftButton,calibrationClick.midButton,calibrationClick.rightButton,calibrationClick.clicked_name,trialsc.thisRepN,trialsc.thisTrialN,trialsc.thisN,trialsc.thisIndex,trialsc.ran,calibration_x,calibration_y,participant,session,date,expName,psychopyVersion,OS,frameRate,ScreenRes_pixels,Camera_pixels,mouse_2.x,mouse_2.y,mouse_2.leftButton,mouse_2.midButton,mouse_2.rightButton,mouse_2.time,mouse_2.clicked_name,mouse.x,mouse.y,mouse.leftButton,mouse.midButton,mouse.rightButton,mouse.time,mouse.clicked_name,Choice,Trial,TrialDuration,MOUSE_GAZE,ET_GAZE,ET_GAZE_x_T,time,unixTime,ET_GAZE_NF,Loc_Bus_label,Loc_Metro_label,Loc_RH_label,Loc_Cost_label,Loc_Travel_label,Loc_Comfort_label,Loc_Bus_cost,Loc_Metro_cost,Loc_RH_cost,Loc_Bus_travel,Loc_Metro_travel,Loc_RH_travel,Loc_Bus_comfort,Loc_Metro_comfort,Loc_RH_comfort,trials.thisRepN,trials.thisTrialN,trials.thisN,trials.thisIndex,trials.ran,Block,Device,RH_cost,RH_travel_time,RH_Comfort,metro_cost,metro_travel_time,metro_Comfort,Bus_cost,Bus_travel_time,Bus_Comfort
space,3.2012,0.242708333,0.312962963,1,0,0,0.336458333,-0.003703704,1,0,0,calibration_square,0,0,0,16,1,0.33,0,24,001,2024-11-19_17h20.56.340,Attention_exp_legacy,2023.1.0,Win32,59.88023952,,,,,,,,,,,,,,,,,,,,,,,,,,,,,,,,,,,,,,,,,,,,,,,,,,,,,,,,
,,,,,,,0.325,-0.331481481,1,0,0,calibration_square,0,1,1,15,1,0.33,-0.33,24,001,2024-11-19_17h20.56.340,Attention_exp_legacy,2023.1.0,Win32,59.88023952,,,,,,,,,,,,,,,,,,,,,,,,,,,,,,,,,,,,,,,,,,,,,,,,,,,,,,,,
,,,,,,,0.661458333,-0.661111111,1,0,0,calibration_square,0,2,2,20,1,0.67,-0.67,24,001,2024-11-19_17h20.56.340,Attention_exp_legacy,2023.1.0,Win32,59.88023952,,,,,,,,,,,,,,,,,,,,,,,,,,,,,,,,,,,,,,,,,,,,,,,,,,,,,,,,
,,,,,,,-0.33125,0.337037037,1,0,0,calibration_square,0,3,3,7,1,-0.33,0.33,24,001,2024-11-19_17h20.56.340,Attention_exp_legacy,2023.1.0,Win32,59.88023952,,,,,,,,,,,,,,,,,,,,,,,,,,,,,,,,,,,,,,,,,,,,,,,,,,,,,,,,
,,,,,,,0.325,0.338888889,1,0,0,calibration_square,0,4,4,17,1,0.33,0.33,24,001,2024-11-19_17h20.56.340,Attention_exp_legacy,2023.1.0,Win32,59.88023952,,,,,,,,,,,,,,,,,,,,,,,,,,,,,,,,,,,,,,,,,,,,,,,,,,,,,,,,
,,,,,,,-0.672916667,-0.32962963,1,0,0,calibration_square,0,5,5,1,1,-0.67,-0.33,24,001,2024-11-19_17h20.56.340,Attention_exp_legacy,2023.1.0,Win32,59.88023952,,,,,,,,,,,,,,,,,,,,,,,,,,,,,,,,,,,,,,,,,,,,,,,,,,,,,,,,
,,,,,,,-0.669791667,0.337037037,1,0,0,calibration_square,0,6,6,3,1,-0.67,0.33,24,001,2024-11-19_17h20.56.340,Attention_exp_legacy,2023.1.0,Win32,59.88023952,,,,,,,,,,,,,,,,,,,,,,,,,,,,,,,,,,,,,,,,,,,,,,,,,,,,,,,,
,,,,,,,0.675,0.668518519,1,0,0,calibration_square,0,7,7,19,1,0.67,0.67,24,001,2024-11-19_17h20.56.340,Attention_exp_legacy,2023.1.0,Win32,59.88023952,,,,,,,,,,,,,,,,,,,,,,,,,,,,,,,,,,,,,,,,,,,,,,,,,,,,,,,,
,,,,,,,-0.339583333,0.001851852,1,0,0,calibration_square,0,8,8,6,1,-0.33,0,24,001,2024-11-19_17h20.56.340,Attention_exp_legacy,2023.1.0,Win32,59.88023952,,,,,,,,,,,,,,,,,,,,,,,,,,,,,,,,,,,,,,,,,,,,,,,,,,,,,,,,
,,,,,,,0.008333333,0.333333333,1,0,0,calibration_square,0,9,9,12,1,0,0.33,24,001,2024-11-19_17h20.56.340,Attention_exp_legacy,2023.1.0,Win32,59.88023952,,,,,,,,,,,,,,,,,,,,,,,,,,,,,,,,,,,,,,,,,,,,,,,,,,,,,,,,
,,,,,,,-0.334375,-0.662962963,1,0,0,calibration_square,0,10,10,4,1,-0.33,-0.67,24,001,2024-11-19_17h20.56.340,Attention_exp_legacy,2023.1.0,Win32,59.88023952,,,,,,,,,,,,,,,,,,,,,,,,,,,,,,,,,,,,,,,,,,,,,,,,,,,,,,,,
,,,,,,,0.328125,0.67962963,1,0,0,calibration_square,0,11,11,18,1,0.33,0.67,24,001,2024-11-19_17h20.56.340,Attention_exp_legacy,2023.1.0,Win32,59.88023952,,,,,,,,,,,,,,,,,,,,,,,,,,,,,,,,,,,,,,,,,,,,,,,,,,,,,,,,
,,,,,,,-0.31875,0.677777778,1,0,0,,0,12,12,8,1,-0.33,0.67,24,001,2024-11-19_17h20.56.340,Attention_exp_legacy,2023.1.0,Win32,59.88023952,,,,,,,,,,,,,,,,,,,,,,,,,,,,,,,,,,,,,,,,,,,,,,,,,,,,,,,,
,,,,,,,-0.007291667,-0.672222222,1,0,0,calibration_square,0,13,13,9,1,0,-0.67,24,001,2024-11-19_17h20.56.340,Attention_exp_legacy,2023.1.0,Win32,59.88023952,,,,,,,,,,,,,,,,,,,,,,,,,,,,,,,,,,,,,,,,,,,,,,,,,,,,,,,,
,,,,,,,0.33125,-0.668518519,1,0,0,calibration_square,0,14,14,14,1,0.33,-0.67,24,001,2024-11-19_17h20.56.340,Attention_exp_legacy,2023.1.0,Win32,59.88023952,,,,,,,,,,,,,,,,,,,,,,,,,,,,,,,,,,,,,,,,,,,,,,,,,,,,,,,,
,,,,,,,-0.333333333,-0.322222222,1,0,0,calibration_square,0,15,15,5,1,-0.33,-0.33,24,001,2024-11-19_17h20.56.340,Attention_exp_legacy,2023.1.0,Win32,59.88023952,,,,,,,,,,,,,,,,,,,,,,,,,,,,,,,,,,,,,,,,,,,,,,,,,,,,,,,,
,,,,,,,-0.005208333,-0.338888889,1,0,0,calibration_square,0,16,16,10,1,0,-0.33,24,001,2024-11-19_17h20.56.340,Attention_exp_legacy,2023.1.0,Win32,59.88023952,,,,,,,,,,,,,,,,,,,,,,,,,,,,,,,,,,,,,,,,,,,,,,,,,,,,,,,,
,,,,,,,-0.6625,-0.657407407,1,0,0,,0,17,17,0,1,-0.67,-0.67,24,001,2024-11-19_17h20.56.340,Attention_exp_legacy,2023.1.0,Win32,59.88023952,,,,,,,,,,,,,,,,,,,,,,,,,,,,,,,,,,,,,,,,,,,,,,,,,,,,,,,,
,,,,,,,0.011458333,0.674074074,1,0,0,,0,18,18,13,1,0,0.67,24,001,2024-11-19_17h20.56.340,Attention_exp_legacy,2023.1.0,Win32,59.88023952,,,,,,,,,,,,,,,,,,,,,,,,,,,,,,,,,,,,,,,,,,,,,,,,,,,,,,,,
,,,,,,,-0.678125,-0.001851852,1,0,0,calibration_square,0,19,19,2,1,-0.67,0,24,001,2024-11-19_17h20.56.340,Attention_exp_legacy,2023.1.0,Win32,59.88023952,,,,,,,,,,,,,,,,,,,,,,,,,,,,,,,,,,,,,,,,,,,,,,,,,,,,,,,,
,,,,,,,0,0.001851852,1,0,0,calibration_square,0,20,20,11,1,0,0,24,001,2024-11-19_17h20.56.340,Attention_exp_legacy,2023.1.0,Win32,59.88023952,,,,,,,,,,,,,,,,,,,,,,,,,,,,,,,,,,,,,,,,,,,,,,,,,,,,,,,,
,,,,,,,,,,,,,,,,,,,,24,001,2024-11-19_17h20.56.340,Attention_exp_legacy,2023.1.0,Win32,59.88023952,"[1920,1080]","[640,480]",[0.04895833333333333],[-0.5222222222222223],[1],[0],[0],[3.564700000286102],"[""StartButton""]",[0.16354166666666667],[0.37222222222222223],[1],[0],[0],[3.653500000000001],"[""Metro_label""]",Metro_label,1,4.6638,"[[0.04895833333333333,-0.524074074074074],[0.04895833333333333,-0.524074074074074],[0.04895833333333333,-0.524074074074074],[0.04895833333333333,-0.524074074074074],[0.04895833333333333,-0.524074074074074],[0.04895833333333333,-0.524074074074074],[0.04895833333333333,-0.524074074074074],[0.04895833333333333,-0.524074074074074],[0.04895833333333333,-0.524074074074074],[0.04895833333333333,-0.524074074074074],[0.04895833333333333,-0.524074074074074],[0.04895833333333333,-0.524074074074074],[0.04895833333333333,-0.524074074074074],[0.04895833333333333,-0.524074074074074],[0.04895833333333333,-0.524074074074074],[0.04895833333333333,-0.524074074074074],[0.04895833333333333,-0.524074074074074],[0.04895833333333333,-0.524074074074074],[0.04895833333333333,-0.524074074074074],[0.04895833333333333,-0.524074074074074],[0.04895833333333333,-0.524074074074074],[0.04895833333333333,-0.524074074074074],[0.04895833333333333,-0.524074074074074],[0.04895833333333333,-0.524074074074074],[0.04895833333333333,-0.524074074074074],[0.04895833333333333,-0.524074074074074],[0.04895833333333333,-0.524074074074074],[0.04895833333333333,-0.524074074074074],[0.04895833333333333,-0.524074074074074],[0.04895833333333333,-0.524074074074074],[0.04895833333333333,-0.524074074074074],[0.04895833333333333,-0.524074074074074],[0.04895833333333333,-0.524074074074074],[0.04895833333333333,-0.524074074074074],[0.04895833333333333,-0.524074074074074],[0.04895833333333333,-0.524074074074074],[0.04895833333333333,-0.524074074074074],[0.04895833333333333,-0.524074074074074],[0.04895833333333333,-0.524074074074074],[0.04895833333333333,-0.524074074074074],[0.04895833333333333,-0.524074074074074],[0.04895833333333333,-0.524074074074074],[0.04895833333333333,-0.524074074074074],[0.04895833333333333,-0.524074074074074],[0.04895833333333333,-0.524074074074074],[0.04895833333333333,-0.524074074074074],[0.04895833333333333,-0.524074074074074],[0.04895833333333333,-0.524074074074074],[0.04895833333333333,-0.524074074074074],[0.04895833333333333,-0.524074074074074],[0.04895833333333333,-0.524074074074074],[0.04895833333333333,-0.524074074074074],[0.04895833333333333,-0.524074074074074],[0.04895833333333333,-0.524074074074074],[0.04895833333333333,-0.524074074074074],[0.04895833333333333,-0.524074074074074],[0.04895833333333333,-0.524074074074074],[0.04895833333333333,-0.524074074074074],[0.04895833333333333,-0.524074074074074],[0.04895833333333333,-0.524074074074074],[0.04895833333333333,-0.524074074074074],[0.04895833333333333,-0.524074074074074],[0.04895833333333333,-0.524074074074074],[0.04895833333333333,-0.524074074074074],[0.04895833333333333,-0.524074074074074],[0.04895833333333333,-0.524074074074074],[0.04895833333333333,-0.524074074074074],[0.04895833333333333,-0.524074074074074],[0.04895833333333333,-0.524074074074074],[0.04895833333333333,-0.524074074074074],[0.04895833333333333,-0.524074074074074],[0.04895833333333333,-0.524074074074074],[0.04895833333333333,-0.524074074074074],[0.04895833333333333,-0.524074074074074],[0.04895833333333333,-0.524074074074074],[0.04895833333333333,-0.524074074074074],[0.04895833333333333,-0.524074074074074],[0.04895833333333333,-0.524074074074074],[0.04895833333333333,-0.524074074074074],[0.04895833333333333,-0.524074074074074],[0.04895833333333333,-0.524074074074074],[0.04895833333333333,-0.524074074074074],[0.04895833333333333,-0.524074074074074],[0.04895833333333333,-0.524074074074074],[0.04895833333333333,-0.524074074074074],[0.04895833333333333,-0.524074074074074],[0.04895833333333333,-0.524074074074074],[0.04895833333333333,-0.524074074074074],[0.04895833333333333,-0.524074074074074],[0.04895833333333333,-0.524074074074074],[0.04895833333333333,-0.524074074074074],[0.04895833333333333,-0.524074074074074],[0.04895833333333333,-0.524074074074074],[0.04895833333333333,-0.524074074074074],[0.04895833333333333,-0.524074074074074],[0.04895833333333333,-0.524074074074074],[0.04895833333333333,-0.524074074074074],[0.04895833333333333,-0.524074074074074],[0.04895833333333333,-0.524074074074074],[0.04895833333333333,-0.524074074074074],[0.04895833333333333,-0.524074074074074],[0.04895833333333333,-0.524074074074074],[0.04895833333333333,-0.524074074074074],[0.04895833333333333,-0.524074074074074],[0.04895833333333333,-0.524074074074074],[0.04895833333333333,-0.524074074074074],[0.04895833333333333,-0.524074074074074],[0.04895833333333333,-0.524074074074074],[0.04895833333333333,-0.524074074074074],[0.04895833333333333,-0.524074074074074],[0.04895833333333333,-0.524074074074074],[0.04895833333333333,-0.524074074074074],[0.04895833333333333,-0.524074074074074],[0.04895833333333333,-0.524074074074074],[0.04895833333333333,-0.524074074074074],[0.04895833333333333,-0.524074074074074],[0.04895833333333333,-0.524074074074074],[0.04895833333333333,-0.524074074074074],[0.04895833333333333,-0.524074074074074],[0.04895833333333333,-0.524074074074074],[0.04895833333333333,-0.524074074074074],[0.04895833333333333,-0.524074074074074],[0.04895833333333333,-0.524074074074074],[0.04895833333333333,-0.524074074074074],[0.04895833333333333,-0.524074074074074],[0.04895833333333333,-0.524074074074074],[0.04895833333333333,-0.524074074074074],[0.04895833333333333,-0.524074074074074],[0.04895833333333333,-0.524074074074074],[0.04895833333333333,-0.524074074074074],[0.04895833333333333,-0.524074074074074],[0.04895833333333333,-0.524074074074074],[0.04895833333333333,-0.524074074074074],[0.04895833333333333,-0.524074074074074],[0.04895833333333333,-0.524074074074074],[0.04895833333333333,-0.524074074074074],[0.04895833333333333,-0.524074074074074],[0.04895833333333333,-0.524074074074074],[0.04895833333333333,-0.524074074074074],[0.04895833333333333,-0.524074074074074],[0.04895833333333333,-0.524074074074074],[0.04895833333333333,-0.524074074074074],[0.04895833333333333,-0.524074074074074],[0.04895833333333333,-0.524074074074074],[0.04895833333333333,-0.524074074074074],[0.04895833333333333,-0.524074074074074],[0.04895833333333333,-0.524074074074074],[0.04895833333333333,-0.524074074074074],[0.04895833333333333,-0.524074074074074],[0.052083333333333336,-0.5074074074074074],[0.0625,-0.4759259259259259],[0.06979166666666667,-0.4537037037037037],[0.07604166666666666,-0.43703703703703706],[0.08333333333333333,-0.412962962962963],[0.08541666666666667,-0.40370370370370373],[0.09270833333333334,-0.3814814814814815],[0.10104166666666667,-0.34074074074074073],[0.10833333333333334,-0.3111111111111111],[0.11458333333333333,-0.2796296296296296],[0.121875,-0.24074074074074073],[0.13229166666666667,-0.19814814814814816],[0.13958333333333334,-0.14444444444444443],[0.146875,-0.09074074074074075],[0.15208333333333332,-0.03518518518518519],[0.15625,0.014814814814814815],[0.1625,0.05740740740740741],[0.16666666666666666,0.09444444444444444],[0.16875,0.13333333333333333],[0.171875,0.15185185185185185],[0.17395833333333333,0.16296296296296298],[0.17604166666666668,0.17222222222222222],[0.17708333333333334,0.17962962962962964],[0.17708333333333334,0.18518518518518517],[0.18020833333333333,0.19444444444444445],[0.18125,0.20555555555555555],[0.18333333333333332,0.22037037037037038],[0.18541666666666667,0.22962962962962963],[0.18541666666666667,0.2351851851851852],[0.1875,0.24444444444444444],[0.1875,0.24814814814814815],[0.18958333333333333,0.2611111111111111],[0.18958333333333333,0.2722222222222222],[0.190625,0.2796296296296296],[0.190625,0.2833333333333333],[0.190625,0.28703703703703703],[0.190625,0.28888888888888886],[0.190625,0.29259259259259257],[0.190625,0.2962962962962963],[0.190625,0.3037037037037037],[0.190625,0.3055555555555556],[0.190625,0.3074074074074074],[0.190625,0.30925925925925923],[0.190625,0.30925925925925923],[0.190625,0.31296296296296294],[0.18854166666666666,0.32037037037037036],[0.1875,0.32407407407407407],[0.184375,0.3333333333333333],[0.18125,0.3388888888888889],[0.17916666666666667,0.3425925925925926],[0.178125,0.3425925925925926],[0.17708333333333334,0.34629629629629627],[0.17291666666666666,0.35185185185185186],[0.16770833333333332,0.3648148148148148],[0.165625,0.3685185185185185],[0.16354166666666667,0.37222222222222223],[0.16354166666666667,0.37222222222222223],[0.16354166666666667,0.37222222222222223],[0.16354166666666667,0.37222222222222223],[0.16354166666666667,0.37222222222222223],[0.16354166666666667,0.37222222222222223],[0.16354166666666667,0.37222222222222223],[0.16354166666666667,0.37222222222222223],[0.16354166666666667,0.37222222222222223],[0.16354166666666667,0.37222222222222223],[0.16354166666666667,0.37222222222222223],[0.16354166666666667,0.37222222222222223],[0.16354166666666667,0.37222222222222223],[0.16354166666666667,0.37222222222222223],[0.16354166666666667,0.37222222222222223],[0.16354166666666667,0.37222222222222223],[0.16354166666666667,0.37222222222222223],[0.16354166666666667,0.37222222222222223],[0.16354166666666667,0.37222222222222223],[0.16354166666666667,0.37222222222222223],[0.16354166666666667,0.37222222222222223],[0.16354166666666667,0.37222222222222223],[0.16354166666666667,0.37222222222222223],[0.16354166666666667,0.37222222222222223],[0.16354166666666667,0.37222222222222223],[0.16354166666666667,0.37222222222222223],[0.16354166666666667,0.37222222222222223],[0.16354166666666667,0.37222222222222223],[0.16354166666666667,0.37222222222222223],[0.16354166666666667,0.37222222222222223],[0.16354166666666667,0.37222222222222223],[0.16354166666666667,0.37222222222222223],[0.16354166666666667,0.37222222222222223],[0.16354166666666667,0.37222222222222223],[0.16354166666666667,0.37222222222222223],[0.16354166666666667,0.37222222222222223],[0.16354166666666667,0.37222222222222223],[0.16354166666666667,0.37222222222222223],[0.16354166666666667,0.37222222222222223],[0.16354166666666667,0.37222222222222223],[0.16354166666666667,0.37222222222222223],[0.16354166666666667,0.37222222222222223],[0.16354166666666667,0.37222222222222223],[0.16354166666666667,0.37222222222222223],[0.16354166666666667,0.37222222222222223],[0.16354166666666667,0.37222222222222223],[0.16354166666666667,0.37222222222222223],[0.16354166666666667,0.37222222222222223],[0.16354166666666667,0.37222222222222223],[0.16354166666666667,0.37222222222222223],[0.16354166666666667,0.37222222222222223],[0.16354166666666667,0.37222222222222223],[0.16354166666666667,0.37222222222222223],[0.16354166666666667,0.37222222222222223],[0.16354166666666667,0.37222222222222223],[0.16354166666666667,0.37222222222222223],[0.16354166666666667,0.37222222222222223],[0.16354166666666667,0.37222222222222223],[0.16354166666666667,0.37222222222222223],[0.16354166666666667,0.37222222222222223],[0.16354166666666667,0.37222222222222223],[0.16354166666666667,0.37222222222222223],[0.16354166666666667,0.37222222222222223],[0.16354166666666667,0.37222222222222223],[0.16354166666666667,0.37222222222222223],[0.16354166666666667,0.37222222222222223],[0.16354166666666667,0.37222222222222223],[0.16354166666666667,0.37222222222222223],[0.16354166666666667,0.37222222222222223],[0.16354166666666667,0.37222222222222223],[0.16354166666666667,0.37222222222222223],[0.16354166666666667,0.37222222222222223],[0.16354166666666667,0.37222222222222223],[0.16354166666666667,0.37222222222222223],[0.16354166666666667,0.37222222222222223]]","[[0.16114583333333338,0.02296296296296292],[0.16114583333333338,0.02296296296296292],[0.15437500000000004,0.028888888888888933],[0.14197916666666663,0.0011111111111111532],[0.12552083333333333,-0.012037037037037037],[0.11489583333333328,-0.018148148148148063],[0.10270833333333323,-0.021851851851851768],[0.07479166666666662,-0.01185185185185181],[0.06604166666666664,-0.0025925925925925505],[0.04812500000000005,-0.031111111111111027],[0.044166666666666646,-0.044444444444444446],[0.03583333333333331,-0.03222222222222218],[0.019375000000000024,-0.02555555555555547],[0.003333333333333381,-0.02759259259259255],[0.003333333333333381,-0.02759259259259255],[-0.013750000000000047,-0.04203703703703712],[-0.009791666666666643,-0.05407407407407405],[0.00625,-0.04592592592592584],[0.022291666666666644,-0.03777777777777774],[0.022291666666666644,-0.03777777777777774],[0.034687499999999954,-0.03796296296296296],[0.034687499999999954,-0.03796296296296296],[0.04375,-0.0507407407407407],[0.051979166666666646,-0.032037037037036954],[0.06020833333333329,-0.013333333333333417],[0.07937500000000004,-0.010185185185185186],[0.06895833333333339,-0.02629629629629638],[0.058541666666666714,-0.042407407407407366],[0.016250000000000025,-0.04351851851851852],[-0.0203125,-0.0514814814814814],[-0.06604166666666664,-0.057777777777777754],[-0.115625,-0.05740740740740741],[-0.1570833333333333,-0.03851851851851843],[-0.20145833333333332,-0.04148148148148144],[-0.23770833333333338,-0.052222222222222205],[-0.27395833333333336,-0.06296296296296296],[-0.2990625,-0.0007407407407406986],[-0.2990625,-0.0007407407407406986],[-0.3288541666666667,0.02111111111111107],[-0.3384375,0.06129629629629634],[-0.3640625,0.08462962962962971],[-0.3754166666666666,0.11777777777777781],[-0.3867708333333333,0.15092592592592594],[-0.39395833333333335,0.17907407407407416],[-0.40114583333333337,0.20722222222222217],[-0.4217708333333333,0.24000000000000005],[-0.4423958333333334,0.2727777777777777],[-0.44510416666666663,0.2551851851851851],[-0.443125,0.277962962962963],[-0.4505208333333333,0.26500000000000007],[-0.43802083333333336,0.2735185185185186],[-0.4335416666666667,0.24370370370370376],[-0.43156249999999996,0.22148148148148153],[-0.43854166666666666,0.1983333333333334],[-0.4405208333333333,0.17444444444444454],[-0.43718750000000006,0.1537037037037037],[-0.4340625000000001,0.1346296296296297],[-0.43083333333333335,0.12092592592592584],[-0.42562500000000003,0.10629629629629625],[-0.4204166666666667,0.09166666666666666],[-0.4279166666666666,0.07185185185185176],[-0.43250000000000005,0.07888888888888893],[-0.39375,0.04870370370370362],[-0.35,0.032037037037036954],[-0.28458333333333335,0.002777777777777778],[-0.22666666666666668,-0.020555555555555598],[-0.17437499999999997,-0.055185185185185205],[-0.11375000000000005,-0.05870370370370368],[-0.05020833333333338,-0.10018518518518522],[0.003541666666666643,-0.11074074074074076],[0.06614583333333333,-0.12074074074074072],[0.1243750000000001,-0.13185185185185183],[0.14177083333333323,-0.11333333333333331],[0.15416666666666667,-0.10833333333333334],[0.13406250000000006,-0.09851851851851849],[0.11927083333333334,-0.08203703703703706],[0.11854166666666661,-0.04351851851851852],[0.10552083333333329,-0.003888888888888931],[0.10552083333333329,-0.003888888888888931],[0.0834374999999999,0.06777777777777783],[0.0834374999999999,0.06777777777777783],[0.06427083333333337,0.07296296296296292],[0.06427083333333337,0.07296296296296292],[0.059583333333333384,0.07925925925925917],[0.059583333333333384,0.07925925925925917],[0.04812500000000005,0.08907407407407411],[0.04812500000000005,0.08907407407407411],[0.04541666666666669,0.12111111111111107],[0.05437500000000005,0.13740740740740748],[0.06916666666666677,0.16222222222222227],[0.09479166666666666,0.1625925925925925],[0.09375,0.15759259259259265],[0.09666666666666662,0.12037037037037036],[0.11041666666666666,0.0992592592592593],[0.1310416666666666,0.11370370370370367],[0.1421875,0.11611111111111119],[0.16447916666666676,0.11611111111111119],[0.17802083333333343,0.09388888888888898],[0.171875,0.09444444444444444],[0.16572916666666657,0.09499999999999992],[0.15427083333333325,0.11148148148148157],[0.16124999999999995,0.12092592592592584],[0.16124999999999995,0.12092592592592584],[0.17520833333333338,0.10666666666666672],[0.17520833333333338,0.10666666666666672],[0.16677083333333323,0.09240740740740737],[0.16677083333333323,0.09240740740740737],[0.12208333333333338,0.11999999999999991],[0.12208333333333338,0.11999999999999991],[0.07906250000000009,0.1398148148148148],[0.07906250000000009,0.1398148148148148],[0.016354166666666715,0.19129629629629621],[0.016354166666666715,0.19129629629629621],[-0.04916666666666671,0.23203703703703696],[-0.10093749999999997,0.2614814814814816],[-0.15416666666666667,0.2766666666666666],[-0.2107291666666666,0.28777777777777774],[-0.26843750000000005,0.2983333333333334],[-0.26843750000000005,0.2983333333333334],[-0.31760416666666663,0.3435185185185185],[-0.3614583333333333,0.36629629629629623],[-0.36906249999999996,0.3472222222222222],[-0.37822916666666667,0.34574074074074085],[-0.36218750000000005,0.3229629629629629],[-0.34093749999999995,0.27314814814814814],[-0.32541666666666663,0.22759259259259254],[-0.3111458333333334,0.21574074074074073],[-0.296875,0.20388888888888893],[-0.29270833333333335,0.19222222222222213],[-0.30406249999999996,0.16962962962962966],[-0.29562499999999997,0.1638888888888889],[-0.29562499999999997,0.15425925925925918],[-0.26541666666666663,0.15203703703703708],[-0.2482291666666666,0.13425925925925927],[-0.19270833333333334,0.1368518518518518],[-0.128125,0.13722222222222227],[-0.08968750000000002,0.09185185185185189],[-0.041770833333333354,0.03888888888888889],[0.0140625,-0.020555555555555598],[0.0818749999999999,-0.07111111111111107],[0.0818749999999999,-0.07111111111111107],[0.13541666666666666,-0.12333333333333338],[0.19229166666666658,-0.15962962962962962],[0.209375,-0.19703703703703698],[0.23395833333333324,-0.22925925925925927],[0.2178124999999999,-0.24407407407407408],[0.20770833333333344,-0.2655555555555555],[0.22645833333333343,-0.2607407407407408],[0.23302083333333337,-0.2455555555555556],[0.24739583333333334,-0.21888888888888886],[0.24739583333333334,-0.21888888888888886],[0.23562500000000006,-0.17629629629629628],[0.24489583333333323,-0.1272222222222222],[0.2271874999999999,-0.07148148148148152],[0.21885416666666657,-0.046296296296296294],[0.20322916666666657,-0.011111111111111112],[0.20322916666666657,-0.011111111111111112],[0.20760416666666662,0.03777777777777774],[0.19406249999999994,0.09574074074074082],[0.17156250000000003,0.1388888888888889],[0.16989583333333325,0.18870370370370365],[0.1578125,0.22351851851851862],[0.16375000000000003,0.2551851851851851],[0.1515625,0.25037037037037047],[0.17145833333333324,0.22685185185185186],[0.17645833333333344,0.24222222222222214],[0.19635416666666666,0.21500000000000005],[0.20187499999999994,0.1725925925925927],[0.21020833333333327,0.1300000000000001],[0.2275000000000001,0.10222222222222231],[0.21927083333333333,0.11777777777777781],[0.2169791666666666,0.14370370370370375],[0.20281250000000003,0.12314814814814815],[0.196875,0.0955555555555556],[0.18645833333333334,0.10629629629629625],[0.18604166666666658,0.10351851851851848],[0.17781250000000004,0.14296296296296304],[0.16281249999999994,0.1725925925925927],[0.1508333333333333,0.2101851851851852],[0.1388541666666666,0.24777777777777768],[0.12010416666666662,0.22962962962962963],[0.12010416666666662,0.22962962962962963],[0.11197916666666667,0.17925925925925917],[0.1118750000000001,0.1537037037037037],[0.10625,0.16814814814814807],[0.10947916666666657,0.1381481481481482],[0.11270833333333338,0.1081481481481481],[0.1087500000000001,0.07407407407407407],[0.12052083333333338,0.040740740740740744],[0.125,-0.02555555555555547],[0.13802083333333334,-0.09222222222222225],[0.14447916666666671,-0.09907407407407408],[0.15739583333333323,-0.1270370370370371],[0.1703125,-0.15499999999999997],[0.17687499999999995,-0.18111111111111114],[0.1790625000000001,-0.20111111111111116],[0.17802083333333343,-0.22833333333333336],[0.184375,-0.2611111111111111],[0.17041666666666658,-0.2759259259259259],[0.17041666666666658,-0.2759259259259259],[0.16989583333333325,-0.2727777777777778],[0.16885416666666658,-0.24962962962962965],[0.15812499999999996,-0.25870370370370366],[0.1515625,-0.2609259259259259],[0.1515625,-0.2609259259259259],[0.15166666666666656,-0.23203703703703707],[0.14791666666666667,-0.225],[0.14791666666666667,-0.225],[0.15510416666666677,-0.20759259259259263],[0.15552083333333327,-0.19814814814814816],[0.15552083333333327,-0.19814814814814816],[0.15593750000000003,-0.18870370370370365],[0.16020833333333329,-0.24648148148148152],[0.14249999999999996,-0.22444444444444442],[0.11812500000000009,-0.26796296296296296],[0.16177083333333328,-0.31500000000000006],[0.18416666666666662,-0.31555555555555553],[0.19989583333333344,-0.3472222222222222],[0.21302083333333333,-0.3396296296296296],[0.21520833333333325,-0.3424074074074074],[0.2335416666666667,-0.33925925925925926],[0.25187499999999996,-0.33611111111111114],[0.25187499999999996,-0.33611111111111114],[0.26239583333333344,-0.262037037037037],[0.26239583333333344,-0.262037037037037],[0.26229166666666665,-0.28185185185185185],[0.26229166666666665,-0.28185185185185185],[0.24322916666666666,-0.25018518518518523],[0.24322916666666666,-0.25018518518518523],[0.19812500000000005,-0.2512962962962963],[0.19812500000000005,-0.2512962962962963],[0.14208333333333342,-0.227962962962963],[0.06124999999999995,-0.17814814814814814],[0.06124999999999995,-0.17814814814814814],[-0.011354166666666643,-0.15333333333333335],[-0.084375,-0.15851851851851856],[-0.16354166666666667,-0.1544444444444444],[-0.16354166666666667,-0.1544444444444444],[-0.2538541666666667,-0.12037037037037036],[-0.30572916666666666,-0.11981481481481479],[-0.3494791666666667,-0.0735185185185185],[-0.3759375,-0.03222222222222218],[-0.4161458333333333,0.004259259259259175],[-0.4161458333333333,0.004259259259259175],[-0.4454166666666667,0.01629629629629621],[-0.42593749999999997,-0.01703703703703712],[-0.3664583333333333,-0.05018518518518523],[-0.30656249999999996,-0.05333333333333336],[-0.2335416666666667,-0.06351851851851854],[-0.14937499999999998,-0.1037037037037037],[-0.1014583333333333,-0.08444444444444449],[-0.03822916666666672,-0.08981481481481482],[0.03145833333333338,-0.13259259259259262],[0.10333333333333337,-0.1588888888888889],[0.16958333333333328,-0.1551851851851852],[0.2118750000000001,-0.13259259259259262],[0.23322916666666677,-0.11814814814814817],[0.2352083333333333,-0.08259259259259263],[0.2337500000000001,-0.05944444444444449],[0.22208333333333338,-0.04222222222222214],[0.23385416666666667,-0.0544444444444444],[0.23385416666666667,-0.0544444444444444],[0.2431250000000001,-0.06333333333333331],[0.2428124999999999,-0.041111111111111195],[0.2428124999999999,-0.041111111111111195],[0.2493750000000001,-0.009999999999999959],[0.26020833333333326,-0.016851851851851896],[0.26447916666666677,-0.012962962962962963],[0.24427083333333333,-0.0035185185185184764],[0.24343750000000006,-0.01518518518518527],[0.24375,-0.06351851851851854],[0.2542708333333332,-0.10592592592592591],[0.2384375000000001,-0.1455555555555556],[0.22510416666666658,-0.18851851851851853],[0.22427083333333328,-0.2383333333333333],[0.2040625000000001,-0.28777777777777774],[0.2040625000000001,-0.28777777777777774],[0.19604166666666673,-0.3101851851851852],[0.16822916666666668,-0.3479629629629629]]","[[0.16114583333333338,0.02296296296296292,0.00040000009536100833],[0.16114583333333338,0.02296296296296292,0.050200000286096724],[0.15437500000000004,0.028888888888888933,0.06090000009536567],[0.14197916666666663,0.0011111111111111532,0.07770000028610013],[0.12552083333333333,-0.012037037037037037,0.09420000028610076],[0.11489583333333328,-0.018148148148148063,0.11090000009536283],[0.10270833333333323,-0.021851851851851768,0.12809999990462728],[0.07479166666666662,-0.01185185185185181,0.1443000001907322],[0.06604166666666664,-0.0025925925925925505,0.1609000000953671],[0.04812500000000005,-0.031111111111111027,0.17770000028610156],[0.044166666666666646,-0.044444444444444446,0.19420000028610218],[0.03583333333333331,-0.03222222222222218,0.21080000019072997],[0.019375000000000024,-0.02555555555555547,0.23149999999999693],[0.003333333333333381,-0.02759259259259255,0.24790000009536328],[0.003333333333333381,-0.02759259259259255,0.2609999999999957],[-0.013750000000000047,-0.04203703703703712,0.2774999999999963],[-0.009791666666666643,-0.05407407407407405,0.29570000028609655],[0.00625,-0.04592592592592584,0.3119999999999976],[0.022291666666666644,-0.03777777777777774,0.33190000009536647],[0.022291666666666644,-0.03777777777777774,0.34420000028610076],[0.034687499999999954,-0.03796296296296296,0.3609000000953628],[0.034687499999999954,-0.03796296296296296,0.377599999904632],[0.04375,-0.0507407407407407,0.3942000002860979],[0.051979166666666646,-0.032037037037036954,0.4109000000953671],[0.06020833333333329,-0.013333333333333417,0.42849999999999966],[0.07937500000000004,-0.010185185185185186,0.4442000002861022],[0.06895833333333339,-0.02629629629629638,0.46080000019073],[0.058541666666666714,-0.042407407407407366,0.47749999999999915],[0.016250000000000025,-0.04351851851851852,0.49420000028609934],[-0.0203125,-0.0514814814814814,0.5108000001907342],[-0.06604166666666664,-0.057777777777777754,0.5298000001907326],[-0.115625,-0.05740740740740741,0.5444999999999993],[-0.1570833333333333,-0.03851851851851843,0.5608000001907314],[-0.20145833333333332,-0.04148148148148144,0.5774999999999935],[-0.23770833333333338,-0.052222222222222205,0.5965999999046261],[-0.27395833333333336,-0.06296296296296296,0.6109000000953628],[-0.2990625,-0.0007407407407406986,0.6427000002860979],[-0.2990625,-0.0007407407407406986,0.6532000002860983],[-0.3288541666666667,0.02111111111111107,0.6650999999046263],[-0.3384375,0.06129629629629634,0.6787000002860992],[-0.3640625,0.08462962962962971,0.6973000001907295],[-0.3754166666666666,0.11777777777777781,0.7129000000953667],[-0.3867708333333333,0.15092592592592594,0.7287000002860964],[-0.39395833333333335,0.17907407407407416,0.7442000002860993],[-0.40114583333333337,0.20722222222222217,0.7608000001907342],[-0.4217708333333333,0.24000000000000005,0.7774999999999963],[-0.4423958333333334,0.2727777777777777,0.7940999999046312],[-0.44510416666666663,0.2551851851851851,0.8109000000953657],[-0.443125,0.277962962962963,0.8275999999046277],[-0.4505208333333333,0.26500000000000007,0.8442000002861008],[-0.43802083333333336,0.2735185185185186,0.8608000001907286],[-0.4335416666666667,0.24370370370370376,0.8774999999999977],[-0.43156249999999996,0.22148148148148153,0.8940999999046326],[-0.43854166666666666,0.1983333333333334,0.9108000001907328],[-0.4405208333333333,0.17444444444444454,0.9294999999999973],[-0.43718750000000006,0.1537037037037037,0.9442000002861022],[-0.4340625000000001,0.1346296296296297,0.9609000000953642],[-0.43083333333333335,0.12092592592592584,0.9774999999999991],[-0.42562500000000003,0.10629629629629625,0.994499999999995],[-0.4204166666666667,0.09166666666666666,1.0108000001907342],[-0.4279166666666666,0.07185185185185176,1.0304999999999964],[-0.43250000000000005,0.07888888888888893,1.0442000002860965],[-0.39375,0.04870370370370362,1.0608000001907314],[-0.35,0.032037037037036954,1.0774999999999935],[-0.28458333333333335,0.002777777777777778,1.0942000002861008],[-0.22666666666666668,-0.020555555555555598,1.1108000001907286],[-0.17437499999999997,-0.055185185185185205,1.1282000002860997],[-0.11375000000000005,-0.05870370370370368,1.1444000000953665],[-0.05020833333333338,-0.10018518518518522,1.1608000001907328],[0.003541666666666643,-0.11074074074074076,1.1774999999999949],[0.06614583333333333,-0.12074074074074072,1.1940999999046298],[0.1243750000000001,-0.13185185185185183,1.21080000019073],[0.14177083333333323,-0.11333333333333331,1.2274999999999991],[0.15416666666666667,-0.10833333333333334,1.2442000002860993],[0.13406250000000006,-0.09851851851851849,1.2608000001907342],[0.11927083333333334,-0.08203703703703706,1.2774999999999963],[0.11854166666666661,-0.04351851851851852,1.2964999999999947],[0.10552083333333329,-0.003888888888888931,1.3112000002860995],[0.10552083333333329,-0.003888888888888931,1.3274999999999935],[0.0834374999999999,0.06777777777777783,1.344300000190735],[0.0834374999999999,0.06777777777777783,1.3609000000953628],[0.06427083333333337,0.07296296296296292,1.377599999904632],[0.06427083333333337,0.07296296296296292,1.3943000001907322],[0.059583333333333384,0.07925925925925917,1.410900000095367],[0.059583333333333384,0.07925925925925917,1.4290999999046292],[0.04812500000000005,0.08907407407407411,1.4440999999046298],[0.04812500000000005,0.08907407407407411,1.46080000019073],[0.04541666666666669,0.12111111111111107,1.4775999999046263],[0.05437500000000005,0.13740740740740748,1.494099999904627],[0.06916666666666677,0.16222222222222227,1.5108000001907342],[0.09479166666666666,0.1625925925925925,1.5274999999999963],[0.09375,0.15759259259259265,1.5440999999046312],[0.09666666666666662,0.12037037037037036,1.5608000001907314],[0.11041666666666666,0.0992592592592593,1.5783000001907297],[0.1310416666666666,0.11370370370370367,1.5940999999046284],[0.1421875,0.11611111111111119,1.6108000001907286],[0.16447916666666676,0.11611111111111119,1.6284999999999954],[0.17802083333333343,0.09388888888888898,1.6440999999046326],[0.171875,0.09444444444444444,1.6608000001907328],[0.16572916666666657,0.09499999999999992,1.6774000000953677],[0.15427083333333325,0.11148148148148157,1.6950999999046275],[0.16124999999999995,0.12092592592592584,1.7107000002860957],[0.16124999999999995,0.12092592592592584,1.7274000000953649],[0.17520833333333338,0.10666666666666672,1.7442000002860993],[0.17520833333333338,0.10666666666666672,1.7608000001907342],[0.16677083333333323,0.09240740740740737,1.7775999999046306],[0.16677083333333323,0.09240740740740737,1.7942000002860965],[0.12208333333333338,0.11999999999999991,1.8108000001907314],[0.12208333333333338,0.11999999999999991,1.8275999999046277],[0.07906250000000009,0.1398148148148148,1.8440999999046284],[0.07906250000000009,0.1398148148148148,1.8608000001907286],[0.016354166666666715,0.19129629629629621,1.8774999999999977],[0.016354166666666715,0.19129629629629621,1.894200000286098],[-0.04916666666666671,0.23203703703703696,1.9108000001907328],[-0.10093749999999997,0.2614814814814816,1.932700000286097],[-0.15416666666666667,0.2766666666666666,1.9479999999999933],[-0.2107291666666666,0.28777777777777774,1.9639999999999986],[-0.26843750000000005,0.2983333333333334,1.9784000000953625],[-0.26843750000000005,0.2983333333333334,1.994099999904627],[-0.31760416666666663,0.3435185185185185,2.0109000000953614],[-0.3614583333333333,0.36629629629629623,2.0305999999046307],[-0.36906249999999996,0.3472222222222222,2.0445999999046265],[-0.37822916666666667,0.34574074074074085,2.0608000001907314],[-0.36218750000000005,0.3229629629629629,2.0774999999999935],[-0.34093749999999995,0.27314814814814814,2.095400000095367],[-0.32541666666666663,0.22759259259259254,2.113599999904629],[-0.3111458333333334,0.21574074074074073,2.1308000001907317],[-0.296875,0.20388888888888893,2.14830000019073],[-0.29270833333333335,0.19222222222222213,2.163800000190733],[-0.30406249999999996,0.16962962962962966,2.1780999999046315],[-0.29562499999999997,0.1638888888888889,2.194200000286102],[-0.29562499999999997,0.15425925925925918,2.211599999904628],[-0.26541666666666663,0.15203703703703708,2.2287000002860964],[-0.2482291666666666,0.13425925925925927,2.244499999999995],[-0.19270833333333334,0.1368518518518518,2.2608000001907342],[-0.128125,0.13722222222222227,2.277400000095362],[-0.08968750000000002,0.09185185185185189,2.294099999904631],[-0.041770833333333354,0.03888888888888889,2.3108000001907314],[0.0140625,-0.020555555555555598,2.32809999990463],[0.0818749999999999,-0.07111111111111107,2.3482000002860985],[0.0818749999999999,-0.07111111111111107,2.360900000095363],[0.13541666666666666,-0.12333333333333338,2.377599999904632],[0.19229166666666658,-0.15962962962962962,2.396900000095364],[0.209375,-0.19703703703703698,2.4118000001907305],[0.23395833333333324,-0.22925925925925927,2.4284999999999997],[0.2178124999999999,-0.24407407407407408,2.44409999990463],[0.20770833333333344,-0.2655555555555555,2.4614000000953666],[0.22645833333333343,-0.2607407407407408,2.477400000095365],[0.23302083333333337,-0.2455555555555556,2.4942000002860993],[0.24739583333333334,-0.21888888888888886,2.5142000002861025],[0.24739583333333334,-0.21888888888888886,2.5275999999046306],[0.23562500000000006,-0.17629629629629628,2.544400000095365],[0.24489583333333323,-0.1272222222222222,2.565099999904632],[0.2271874999999999,-0.07148148148148152,2.5799999999999983],[0.21885416666666657,-0.046296296296296294,2.594400000095362],[0.20322916666666657,-0.011111111111111112,2.610999999999997],[0.20322916666666657,-0.011111111111111112,2.6308000001907317],[0.20760416666666662,0.03777777777777774,2.644300000190732],[0.19406249999999994,0.09574074074074082,2.6609999999999943],[0.17156250000000003,0.1388888888888889,2.6799999999999997],[0.16989583333333325,0.18870370370370365,2.6969000000953613],[0.1578125,0.22351851851851862,2.7118000001907347],[0.16375000000000003,0.2551851851851851,2.731900000095365],[0.1515625,0.25037037037037047,2.746300000190729],[0.17145833333333324,0.22685185185185186,2.761499999999998],[0.17645833333333344,0.24222222222222214,2.7782000002860983],[0.19635416666666666,0.21500000000000005,2.797400000095365],[0.20187499999999994,0.1725925925925927,2.8114999999999952],[0.21020833333333327,0.1300000000000001,2.8297000002861026],[0.2275000000000001,0.10222222222222231,2.846999999999994],[0.21927083333333333,0.11777777777777781,2.861400000095365],[0.2169791666666666,0.14370370370370375,2.88159999990463],[0.20281250000000003,0.12314814814814815,2.8999000000953643],[0.196875,0.0955555555555556,2.9147000002860963],[0.18645833333333334,0.10629629629629625,2.9309999999999974],[0.18604166666666658,0.10351851851851848,2.9454000000953613],[0.17781250000000004,0.14296296296296304,2.9647000002861006],[0.16281249999999994,0.1725925925925927,2.9792000002860988],[0.1508333333333333,0.2101851851851852,2.9964000000953632],[0.1388541666666666,0.24777777777777768,3.0112000002861024],[0.12010416666666662,0.22962962962962963,3.0330999999046284],[0.12010416666666662,0.22962962962962963,3.0443000001907308],[0.11197916666666667,0.17925925925925917,3.061099999904627],[0.1118750000000001,0.1537037037037037,3.0775999999046277],[0.10625,0.16814814814814807,3.0985999999046285],[0.10947916666666657,0.1381481481481482,3.113599999904629],[0.11270833333333338,0.1081481481481481,3.1304000000953636],[0.1087500000000001,0.07407407407407407,3.148599999904633],[0.12052083333333338,0.040740740740740744,3.164900000095365],[0.125,-0.02555555555555547,3.1799000000953654],[0.13802083333333334,-0.09222222222222225,3.194599999904632],[0.14447916666666671,-0.09907407407407408,3.2139000000953644],[0.15739583333333323,-0.1270370370370371,3.2305999999046264],[0.1703125,-0.15499999999999997,3.2450999999046317],[0.17687499999999995,-0.18111111111111114,3.2609999999999957],[0.1790625000000001,-0.20111111111111116,3.2808000001907303],[0.17802083333333343,-0.22833333333333336,3.296300000190733],[0.184375,-0.2611111111111111,3.3119999999999976],[0.17041666666666658,-0.2759259259259259,3.3342000002860956],[0.17041666666666658,-0.2759259259259259,3.344400000095362],[0.16989583333333325,-0.2727777777777778,3.3610999999046314],[0.16885416666666658,-0.24962962962962965,3.378400000095361],[0.15812499999999996,-0.25870370370370366,3.3992000002861005],[0.1515625,-0.2609259259259259,3.4148000001907306],[0.1515625,-0.2609259259259259,3.4277000002861016],[0.15166666666666656,-0.23203703703703707,3.44409999990463],[0.14791666666666667,-0.225,3.4632000002861005],[0.14791666666666667,-0.225,3.477400000095365],[0.15510416666666677,-0.20759259259259263,3.4942000002860993],[0.15552083333333327,-0.19814814814814816,3.515499999999996],[0.15552083333333327,-0.19814814814814816,3.5275999999046306],[0.15593750000000003,-0.18870370370370365,3.544099999904631],[0.16020833333333329,-0.24648148148148152,3.563900000095366],[0.14249999999999996,-0.22444444444444442,3.5777000002861],[0.11812500000000009,-0.26796296296296296,3.5940999999046284],[0.16177083333333328,-0.31500000000000006,3.6107000002861014],[0.18416666666666662,-0.31555555555555553,3.6274000000953635],[0.19989583333333344,-0.3472222222222222,3.644200000286098],[0.21302083333333333,-0.3396296296296296,3.6633000001907305],[0.21520833333333325,-0.3424074074074074,3.6779999999999973],[0.2335416666666667,-0.33925925925925926,3.69409999990463],[0.25187499999999996,-0.33611111111111114,3.71080000019073],[0.25187499999999996,-0.33611111111111114,3.727499999999999],[0.26239583333333344,-0.262037037037037,3.7442000002860993],[0.26239583333333344,-0.262037037037037,3.7608000001907342],[0.26229166666666665,-0.28185185185185185,3.7774999999999963],[0.26229166666666665,-0.28185185185185185,3.7957000002860966],[0.24322916666666666,-0.25018518518518523,3.810700000286097],[0.24322916666666666,-0.25018518518518523,3.8274999999999935],[0.19812500000000005,-0.2512962962962963,3.8440999999046284],[0.19812500000000005,-0.2512962962962963,3.8608000001907286],[0.14208333333333342,-0.227962962962963,3.8774999999999977],[0.06124999999999995,-0.17814814814814814,3.899499999999996],[0.06124999999999995,-0.17814814814814814,3.912800000190728],[-0.011354166666666643,-0.15333333333333335,3.927499999999995],[-0.084375,-0.15851851851851856,3.94409999990463],[-0.16354166666666667,-0.1544444444444444,3.96080000019073],[-0.16354166666666667,-0.1544444444444444,3.977499999999999],[-0.2538541666666667,-0.12037037037037036,3.994099999904627],[-0.30572916666666666,-0.11981481481481479,4.010800000190734],[-0.3494791666666667,-0.0735185185185185,4.029700000286098],[-0.3759375,-0.03222222222222218,4.044099999904631],[-0.4161458333333333,0.004259259259259175,4.064499999999995],[-0.4161458333333333,0.004259259259259175,4.080900000095362],[-0.4454166666666667,0.01629629629629621,4.096200000286096],[-0.42593749999999997,-0.01703703703703712,4.1108000001907286],[-0.3664583333333333,-0.05018518518518523,4.128400000095361],[-0.30656249999999996,-0.05333333333333336,4.144099999904633],[-0.2335416666666667,-0.06351851851851854,4.164099999904629],[-0.14937499999999998,-0.1037037037037037,4.177700000286102],[-0.1014583333333333,-0.08444444444444449,4.1965999999046275],[-0.03822916666666672,-0.08981481481481482,4.210700000286096],[0.03145833333333338,-0.13259259259259262,4.228300000190728],[0.10333333333333337,-0.1588888888888889,4.244800000190729],[0.16958333333333328,-0.1551851851851852,4.260800000190734],[0.2118750000000001,-0.13259259259259262,4.277400000095362],[0.23322916666666677,-0.11814814814814817,4.294099999904631],[0.2352083333333333,-0.08259259259259263,4.310700000286097],[0.2337500000000001,-0.05944444444444449,4.3274999999999935],[0.22208333333333338,-0.04222222222222214,4.344200000286101],[0.23385416666666667,-0.0544444444444444,4.360900000095363],[0.23385416666666667,-0.0544444444444444,4.377499999999998],[0.2431250000000001,-0.06333333333333331,4.394200000286098],[0.2428124999999999,-0.041111111111111195,4.4107000002860985],[0.2428124999999999,-0.041111111111111195,4.427499999999995],[0.2493750000000001,-0.009999999999999959,4.444300000190729],[0.26020833333333326,-0.016851851851851896,4.460700000286096],[0.26447916666666677,-0.012962962962962963,4.477400000095365],[0.24427083333333333,-0.0035185185185184764,4.494099999904627],[0.24343750000000006,-0.01518518518518527,4.510800000190734],[0.24375,-0.06351851851851854,4.529700000286098],[0.2542708333333332,-0.10592592592592591,4.5442000002860965],[0.2384375000000001,-0.1455555555555556,4.560800000190731],[0.22510416666666658,-0.18851851851851853,4.577400000095366],[0.22427083333333328,-0.2383333333333333,4.594099999904628],[0.2040625000000001,-0.28777777777777774,4.6108000001907286],[0.2040625000000001,-0.28777777777777774,4.627499999999998],[0.19604166666666673,-0.3101851851851852,4.644099999904633],[0.16822916666666668,-0.3479629629629629,4.663800000190733]]","[0.00040000009536100833,0.050200000286096724,0.06090000009536567,0.07770000028610013,0.09420000028610076,0.11090000009536283,0.12809999990462728,0.1443000001907322,0.1609000000953671,0.17770000028610156,0.19420000028610218,0.21080000019072997,0.23149999999999693,0.24790000009536328,0.2609999999999957,0.2774999999999963,0.29570000028609655,0.3119999999999976,0.33190000009536647,0.34420000028610076,0.3609000000953628,0.377599999904632,0.3942000002860979,0.4109000000953671,0.42849999999999966,0.4442000002861022,0.46080000019073,0.47749999999999915,0.49420000028609934,0.5108000001907342,0.5298000001907326,0.5444999999999993,0.5608000001907314,0.5774999999999935,0.5965999999046261,0.6109000000953628,0.6427000002860979,0.6532000002860983,0.6650999999046263,0.6787000002860992,0.6973000001907295,0.7129000000953667,0.7287000002860964,0.7442000002860993,0.7608000001907342,0.7774999999999963,0.7940999999046312,0.8109000000953657,0.8275999999046277,0.8442000002861008,0.8608000001907286,0.8774999999999977,0.8940999999046326,0.9108000001907328,0.9294999999999973,0.9442000002861022,0.9609000000953642,0.9774999999999991,0.994499999999995,1.0108000001907342,1.0304999999999964,1.0442000002860965,1.0608000001907314,1.0774999999999935,1.0942000002861008,1.1108000001907286,1.1282000002860997,1.1444000000953665,1.1608000001907328,1.1774999999999949,1.1940999999046298,1.21080000019073,1.2274999999999991,1.2442000002860993,1.2608000001907342,1.2774999999999963,1.2964999999999947,1.3112000002860995,1.3274999999999935,1.344300000190735,1.3609000000953628,1.377599999904632,1.3943000001907322,1.410900000095367,1.4290999999046292,1.4440999999046298,1.46080000019073,1.4775999999046263,1.494099999904627,1.5108000001907342,1.5274999999999963,1.5440999999046312,1.5608000001907314,1.5783000001907297,1.5940999999046284,1.6108000001907286,1.6284999999999954,1.6440999999046326,1.6608000001907328,1.6774000000953677,1.6950999999046275,1.7107000002860957,1.7274000000953649,1.7442000002860993,1.7608000001907342,1.7775999999046306,1.7942000002860965,1.8108000001907314,1.8275999999046277,1.8440999999046284,1.8608000001907286,1.8774999999999977,1.894200000286098,1.9108000001907328,1.932700000286097,1.9479999999999933,1.9639999999999986,1.9784000000953625,1.994099999904627,2.0109000000953614,2.0305999999046307,2.0445999999046265,2.0608000001907314,2.0774999999999935,2.095400000095367,2.113599999904629,2.1308000001907317,2.14830000019073,2.163800000190733,2.1780999999046315,2.194200000286102,2.211599999904628,2.2287000002860964,2.244499999999995,2.2608000001907342,2.277400000095362,2.294099999904631,2.3108000001907314,2.32809999990463,2.3482000002860985,2.360900000095363,2.377599999904632,2.396900000095364,2.4118000001907305,2.4284999999999997,2.44409999990463,2.4614000000953666,2.477400000095365,2.4942000002860993,2.5142000002861025,2.5275999999046306,2.544400000095365,2.565099999904632,2.5799999999999983,2.594400000095362,2.610999999999997,2.6308000001907317,2.644300000190732,2.6609999999999943,2.6799999999999997,2.6969000000953613,2.7118000001907347,2.731900000095365,2.746300000190729,2.761499999999998,2.7782000002860983,2.797400000095365,2.8114999999999952,2.8297000002861026,2.846999999999994,2.861400000095365,2.88159999990463,2.8999000000953643,2.9147000002860963,2.9309999999999974,2.9454000000953613,2.9647000002861006,2.9792000002860988,2.9964000000953632,3.0112000002861024,3.0330999999046284,3.0443000001907308,3.061099999904627,3.0775999999046277,3.0985999999046285,3.113599999904629,3.1304000000953636,3.148599999904633,3.164900000095365,3.1799000000953654,3.194599999904632,3.2139000000953644,3.2305999999046264,3.2450999999046317,3.2609999999999957,3.2808000001907303,3.296300000190733,3.3119999999999976,3.3342000002860956,3.344400000095362,3.3610999999046314,3.378400000095361,3.3992000002861005,3.4148000001907306,3.4277000002861016,3.44409999990463,3.4632000002861005,3.477400000095365,3.4942000002860993,3.515499999999996,3.5275999999046306,3.544099999904631,3.563900000095366,3.5777000002861,3.5940999999046284,3.6107000002861014,3.6274000000953635,3.644200000286098,3.6633000001907305,3.6779999999999973,3.69409999990463,3.71080000019073,3.727499999999999,3.7442000002860993,3.7608000001907342,3.7774999999999963,3.7957000002860966,3.810700000286097,3.8274999999999935,3.8440999999046284,3.8608000001907286,3.8774999999999977,3.899499999999996,3.912800000190728,3.927499999999995,3.94409999990463,3.96080000019073,3.977499999999999,3.994099999904627,4.010800000190734,4.029700000286098,4.044099999904631,4.064499999999995,4.080900000095362,4.096200000286096,4.1108000001907286,4.128400000095361,4.144099999904633,4.164099999904629,4.177700000286102,4.1965999999046275,4.210700000286096,4.228300000190728,4.244800000190729,4.260800000190734,4.277400000095362,4.294099999904631,4.310700000286097,4.3274999999999935,4.344200000286101,4.360900000095363,4.377499999999998,4.394200000286098,4.4107000002860985,4.427499999999995,4.444300000190729,4.460700000286096,4.477400000095365,4.494099999904627,4.510800000190734,4.529700000286098,4.5442000002860965,4.560800000190731,4.577400000095366,4.594099999904628,4.6108000001907286,4.627499999999998,4.644099999904633,4.663800000190733]","[1732008104638,1732008104678,1732008104689,1732008104706,1732008104722,1732008104739,1732008104756,1732008104772,1732008104789,1732008104806,1732008104822,1732008104839,1732008104860,1732008104876,1732008104889,1732008104906,1732008104924,1732008104940,1732008104960,1732008104973,1732008104989,1732008105006,1732008105022,1732008105039,1732008105057,1732008105072,1732008105089,1732008105106,1732008105122,1732008105139,1732008105158,1732008105173,1732008105189,1732008105206,1732008105225,1732008105239,1732008105271,1732008105281,1732008105293,1732008105307,1732008105325,1732008105341,1732008105357,1732008105372,1732008105389,1732008105406,1732008105422,1732008105439,1732008105456,1732008105472,1732008105489,1732008105506,1732008105522,1732008105539,1732008105558,1732008105572,1732008105589,1732008105606,1732008105623,1732008105639,1732008105659,1732008105672,1732008105689,1732008105706,1732008105722,1732008105739,1732008105756,1732008105773,1732008105789,1732008105806,1732008105822,1732008105839,1732008105856,1732008105872,1732008105889,1732008105906,1732008105925,1732008105939,1732008105956,1732008105973,1732008105989,1732008106006,1732008106022,1732008106039,1732008106057,1732008106072,1732008106089,1732008106106,1732008106122,1732008106139,1732008106156,1732008106172,1732008106189,1732008106207,1732008106222,1732008106239,1732008106257,1732008106272,1732008106289,1732008106306,1732008106323,1732008106339,1732008106356,1732008106372,1732008106389,1732008106406,1732008106422,1732008106439,1732008106456,1732008106472,1732008106489,1732008106506,1732008106522,1732008106539,1732008106561,1732008106576,1732008106592,1732008106607,1732008106622,1732008106639,1732008106659,1732008106673,1732008106689,1732008106706,1732008106724,1732008106742,1732008106759,1732008106777,1732008106792,1732008106806,1732008106822,1732008106840,1732008106857,1732008106873,1732008106889,1732008106906,1732008106922,1732008106939,1732008106956,1732008106976,1732008106989,1732008107006,1732008107025,1732008107040,1732008107057,1732008107072,1732008107090,1732008107106,1732008107122,1732008107142,1732008107156,1732008107173,1732008107193,1732008107208,1732008107223,1732008107239,1732008107259,1732008107273,1732008107289,1732008107308,1732008107325,1732008107340,1732008107360,1732008107375,1732008107390,1732008107406,1732008107426,1732008107440,1732008107458,1732008107475,1732008107490,1732008107510,1732008107528,1732008107543,1732008107559,1732008107574,1732008107593,1732008107607,1732008107625,1732008107639,1732008107661,1732008107672,1732008107689,1732008107706,1732008107727,1732008107742,1732008107759,1732008107777,1732008107793,1732008107808,1732008107823,1732008107842,1732008107859,1732008107873,1732008107889,1732008107909,1732008107925,1732008107940,1732008107962,1732008107973,1732008107989,1732008108007,1732008108028,1732008108043,1732008108056,1732008108072,1732008108091,1732008108106,1732008108122,1732008108144,1732008108156,1732008108172,1732008108192,1732008108206,1732008108222,1732008108239,1732008108256,1732008108272,1732008108292,1732008108306,1732008108322,1732008108339,1732008108356,1732008108372,1732008108389,1732008108406,1732008108424,1732008108439,1732008108456,1732008108472,1732008108489,1732008108506,1732008108528,1732008108541,1732008108556,1732008108572,1732008108589,1732008108606,1732008108622,1732008108639,1732008108658,1732008108672,1732008108693,1732008108709,1732008108724,1732008108739,1732008108757,1732008108772,1732008108792,1732008108806,1732008108825,1732008108839,1732008108857,1732008108873,1732008108889,1732008108906,1732008108922,1732008108939,1732008108956,1732008108972,1732008108989,1732008109006,1732008109022,1732008109039,1732008109056,1732008109073,1732008109089,1732008109106,1732008109122,1732008109139,1732008109158,1732008109172,1732008109189,1732008109206,1732008109222,1732008109239,1732008109256,1732008109272,1732008109292]","[[1114.7,552.4],[1114.7,552.4],[1108.2,555.6],[1096.3,540.6],[1080.5,533.5],[1070.3,530.2],[1058.6,528.2],[1031.8,533.6],[1023.4,538.6],[1006.2,523.2],[1002.4,516],[994.4,522.6],[978.6,526.2],[963.2,525.1],[963.2,525.1],[946.8,517.3],[950.6,510.8],[966,515.2],[981.4,519.6],[981.4,519.6],[993.3,519.5],[993.3,519.5],[1002,512.6],[1009.9,522.7],[1017.8,532.8],[1036.2,534.5],[1026.2,525.8],[1016.2,517.1],[975.6,516.5],[940.5,512.2],[896.6,508.8],[849,509],[809.2,519.2],[766.6,517.6],[731.8,511.8],[697,506],[672.9,539.6],[672.9,539.6],[644.3,551.4],[635.1,573.1],[610.5,585.7],[599.6,603.6],[588.7,621.5],[581.8,636.7],[574.9,651.9],[555.1,669.6],[535.3,687.3],[532.7,677.8],[534.6,690.1],[527.5,683.1],[539.5,687.7],[543.8,671.6],[545.7,659.6],[539,647.1],[537.1,634.2],[540.3,623],[543.3,612.7],[546.4,605.3],[551.4,597.4],[556.4,589.5],[549.2,578.8],[544.8,582.6],[582,566.3],[624,557.3],[686.8,541.5],[742.4,528.9],[792.6,510.2],[850.8,508.3],[911.8,485.9],[963.4,480.2],[1023.5,474.8],[1079.4,468.8],[1096.1,478.8],[1108,481.5],[1088.7,486.8],[1074.5,495.7],[1073.8,516.5],[1061.3,537.9],[1061.3,537.9],[1040.1,576.6],[1040.1,576.6],[1021.7,579.4],[1021.7,579.4],[1017.2,582.8],[1017.2,582.8],[1006.2,588.1],[1006.2,588.1],[1003.6,605.4],[1012.2,614.2],[1026.4,627.6],[1051,627.8],[1050,625.1],[1052.8,605],[1066,593.6],[1085.8,601.4],[1096.5,602.7],[1117.9,602.7],[1130.9,590.7],[1125,591],[1119.1,591.3],[1108.1,600.2],[1114.8,605.3],[1114.8,605.3],[1128.2,597.6],[1128.2,597.6],[1120.1,589.9],[1120.1,589.9],[1077.2,604.8],[1077.2,604.8],[1035.9,615.5],[1035.9,615.5],[975.7,643.3],[975.7,643.3],[912.8,665.3],[863.1,681.2],[812,689.4],[757.7,695.4],[702.3,701.1],[702.3,701.1],[655.1,725.5],[613,737.8],[605.7,727.5],[596.9,726.7],[612.3,714.4],[632.7,687.5],[647.6,662.9],[661.3,656.5],[675,650.1],[679,643.8],[668.1,631.6],[676.2,628.5],[676.2,623.3],[705.2,622.1],[721.7,612.5],[775,613.9],[837,614.1],[873.9,589.6],[919.9,561],[973.5,528.9],[1038.6,501.6],[1038.6,501.6],[1090,473.4],[1144.6,453.8],[1161,433.6],[1184.6,416.2],[1169.1,408.2],[1159.4,396.6],[1177.4,399.2],[1183.7,407.4],[1197.5,421.8],[1197.5,421.8],[1186.2,444.8],[1195.1,471.3],[1178.1,501.4],[1170.1,515],[1155.1,534],[1155.1,534],[1159.3,560.4],[1146.3,591.7],[1124.7,615],[1123.1,641.9],[1111.5,660.7],[1117.2,677.8],[1105.5,675.2],[1124.6,662.5],[1129.4,670.8],[1148.5,656.1],[1153.8,633.2],[1161.8,610.2],[1178.4,595.2],[1170.5,603.6],[1168.3,617.6],[1154.7,606.5],[1149,591.6],[1139,597.4],[1138.6,595.9],[1130.7,617.2],[1116.3,633.2],[1104.8,653.5],[1093.3,673.8],[1075.3,664],[1075.3,664],[1067.5,636.8],[1067.4,623],[1062,630.8],[1065.1,614.6],[1068.2,598.4],[1064.4,580],[1075.7,562],[1080,526.2],[1092.5,490.2],[1098.7,486.5],[1111.1,471.4],[1123.5,456.3],[1129.8,442.2],[1131.9,431.4],[1130.9,416.7],[1137,399],[1123.6,391],[1123.6,391],[1123.1,392.7],[1122.1,405.2],[1111.8,400.3],[1105.5,399.1],[1105.5,399.1],[1105.6,414.7],[1102,418.5],[1102,418.5],[1108.9,427.9],[1109.3,433],[1109.3,433],[1109.7,438.1],[1113.8,406.9],[1096.8,418.8],[1073.4,395.3],[1115.3,369.9],[1136.8,369.6],[1151.9,352.5],[1164.5,356.6],[1166.6,355.1],[1184.2,356.8],[1201.8,358.5],[1201.8,358.5],[1211.9,398.5],[1211.9,398.5],[1211.8,387.8],[1211.8,387.8],[1193.5,404.9],[1193.5,404.9],[1150.2,404.3],[1150.2,404.3],[1096.4,416.9],[1018.8,443.8],[1018.8,443.8],[949.1,457.2],[879,454.4],[803,456.6],[803,456.6],[716.3,475],[666.5,475.3],[624.5,500.3],[599.1,522.6],[560.5,542.3],[560.5,542.3],[532.4,548.8],[551.1,530.8],[608.2,512.9],[665.7,511.2],[735.8,505.7],[816.6,484],[862.6,494.4],[923.3,491.5],[990.2,468.4],[1059.2,454.2],[1122.8,456.2],[1163.4,468.4],[1183.9,476.2],[1185.8,495.4],[1184.4,507.9],[1173.2,517.2],[1184.5,510.6],[1184.5,510.6],[1193.4,505.8],[1193.1,517.8],[1193.1,517.8],[1199.4,534.6],[1209.8,530.9],[1213.9,533],[1194.5,538.1],[1193.7,531.8],[1194,505.7],[1204.1,482.8],[1188.9,461.4],[1176.1,438.2],[1175.3,411.3],[1155.9,384.6],[1155.9,384.6],[1148.2,372.5],[1121.5,352.1]]","[-0.132282,0.39684600000000003]","[0.132282,0.39684600000000003]","[0.39684600000000003,0.39684600000000003]","[-0.39684600000000003,0.132282]","[-0.39684600000000003,-0.132282]","[-0.39684600000000003,-0.39684600000000003]","[-0.132282,0.132282]","[0.132282,0.132282]","[0.39684600000000003,0.132282]","[-0.132282,-0.132282]","[0.132282,-0.132282]","[0.39684600000000003,-0.132282]","[-0.132282,-0.39684600000000003]","[0.132282,-0.39684600000000003]","[0.39684600000000003,-0.39684600000000003]",0,0,0,0,1,4,Tablet,25,20,8,1,60,4,1,60,3
