inst1_resp.keys,inst1_resp.rt,calibrationMouse.x,calibrationMouse.y,calibrationMouse.leftButton,calibrationMouse.midButton,calibrationMouse.rightButton,calibrationClick.x,calibrationClick.y,calibrationClick.leftButton,calibrationClick.midButton,calibrationClick.rightButton,trialsc.thisRepN,trialsc.thisTrialN,trialsc.thisN,trialsc.thisIndex,trialsc.ran,calibration_x,calibration_y,participant,session,date,expName,psychopyVersion,OS,frameRate,calibrationClick.clicked_name,ScreenRes_pixels,Camera_pixels,mouse_2.x,mouse_2.y,mouse_2.leftButton,mouse_2.midButton,mouse_2.rightButton,mouse_2.time,mouse_2.clicked_name,mouse.x,mouse.y,mouse.leftButton,mouse.midButton,mouse.rightButton,mouse.time,mouse.clicked_name,Choice,Trial,TrialDuration,MOUSE_GAZE,ET_GAZE,ET_GAZE_x_T,time,unixTime,ET_GAZE_NF,Loc_Bus_label,Loc_Metro_label,Loc_RH_label,Loc_Cost_label,Loc_Travel_label,Loc_Comfort_label,Loc_Bus_cost,Loc_Metro_cost,Loc_RH_cost,Loc_Bus_travel,Loc_Metro_travel,Loc_RH_travel,Loc_Bus_comfort,Loc_Metro_comfort,Loc_RH_comfort,trials.thisRepN,trials.thisTrialN,trials.thisN,trials.thisIndex,trials.ran,Block,Device,RH_cost,RH_travel_time,RH_Comfort,metro_cost,metro_travel_time,metro_Comfort,Bus_cost,Bus_travel_time,Bus_Comfort
space,5.6963,-0.005208333,-0.325925926,1,0,0,0.327083333,0.683333333,1,0,0,0,0,0,18,1,0.33,0.67,07,001,2024-11-19_17h00.03.208,Attention_exp_legacy,2023.1.0,Win32,59.88023952,,,,,,,,,,,,,,,,,,,,,,,,,,,,,,,,,,,,,,,,,,,,,,,,,,,,,,,,,
,,,,,,,0.660416667,0.688888889,1,0,0,0,1,1,19,1,0.67,0.67,07,001,2024-11-19_17h00.03.208,Attention_exp_legacy,2023.1.0,Win32,59.88023952,,,,,,,,,,,,,,,,,,,,,,,,,,,,,,,,,,,,,,,,,,,,,,,,,,,,,,,,,
,,,,,,,-0.005208333,0.677777778,1,0,0,0,2,2,13,1,0,0.67,07,001,2024-11-19_17h00.03.208,Attention_exp_legacy,2023.1.0,Win32,59.88023952,calibration_square,,,,,,,,,,,,,,,,,,,,,,,,,,,,,,,,,,,,,,,,,,,,,,,,,,,,,,,,
,,,,,,,0.335416667,-0.683333333,1,0,0,0,3,3,14,1,0.33,-0.67,07,001,2024-11-19_17h00.03.208,Attention_exp_legacy,2023.1.0,Win32,59.88023952,,,,,,,,,,,,,,,,,,,,,,,,,,,,,,,,,,,,,,,,,,,,,,,,,,,,,,,,,
,,,,,,,0.327083333,0.338888889,1,0,0,0,4,4,17,1,0.33,0.33,07,001,2024-11-19_17h00.03.208,Attention_exp_legacy,2023.1.0,Win32,59.88023952,calibration_square,,,,,,,,,,,,,,,,,,,,,,,,,,,,,,,,,,,,,,,,,,,,,,,,,,,,,,,,
,,,,,,,0.672916667,-0.672222222,1,0,0,0,5,5,20,1,0.67,-0.67,07,001,2024-11-19_17h00.03.208,Attention_exp_legacy,2023.1.0,Win32,59.88023952,calibration_square,,,,,,,,,,,,,,,,,,,,,,,,,,,,,,,,,,,,,,,,,,,,,,,,,,,,,,,,
,,,,,,,-0.334375,0.675925926,1,0,0,0,6,6,8,1,-0.33,0.67,07,001,2024-11-19_17h00.03.208,Attention_exp_legacy,2023.1.0,Win32,59.88023952,calibration_square,,,,,,,,,,,,,,,,,,,,,,,,,,,,,,,,,,,,,,,,,,,,,,,,,,,,,,,,
,,,,,,,0.320833333,0.009259259,1,0,0,0,7,7,16,1,0.33,0,07,001,2024-11-19_17h00.03.208,Attention_exp_legacy,2023.1.0,Win32,59.88023952,calibration_square,,,,,,,,,,,,,,,,,,,,,,,,,,,,,,,,,,,,,,,,,,,,,,,,,,,,,,,,
,,,,,,,-0.321875,-0.32962963,1,0,0,0,8,8,5,1,-0.33,-0.33,07,001,2024-11-19_17h00.03.208,Attention_exp_legacy,2023.1.0,Win32,59.88023952,calibration_square,,,,,,,,,,,,,,,,,,,,,,,,,,,,,,,,,,,,,,,,,,,,,,,,,,,,,,,,
,,,,,,,0.007291667,-0.668518519,1,0,0,0,9,9,9,1,0,-0.67,07,001,2024-11-19_17h00.03.208,Attention_exp_legacy,2023.1.0,Win32,59.88023952,calibration_square,,,,,,,,,,,,,,,,,,,,,,,,,,,,,,,,,,,,,,,,,,,,,,,,,,,,,,,,
,,,,,,,0.001041667,-0.005555556,1,0,0,0,10,10,11,1,0,0,07,001,2024-11-19_17h00.03.208,Attention_exp_legacy,2023.1.0,Win32,59.88023952,calibration_square,,,,,,,,,,,,,,,,,,,,,,,,,,,,,,,,,,,,,,,,,,,,,,,,,,,,,,,,
,,,,,,,0.336458333,-0.331481481,1,0,0,0,11,11,15,1,0.33,-0.33,07,001,2024-11-19_17h00.03.208,Attention_exp_legacy,2023.1.0,Win32,59.88023952,calibration_square,,,,,,,,,,,,,,,,,,,,,,,,,,,,,,,,,,,,,,,,,,,,,,,,,,,,,,,,
,,,,,,,-0.672916667,-0.677777778,1,0,0,0,12,12,0,1,-0.67,-0.67,07,001,2024-11-19_17h00.03.208,Attention_exp_legacy,2023.1.0,Win32,59.88023952,calibration_square,,,,,,,,,,,,,,,,,,,,,,,,,,,,,,,,,,,,,,,,,,,,,,,,,,,,,,,,
,,,,,,,-0.004166667,0.342592593,1,0,0,0,13,13,12,1,0,0.33,07,001,2024-11-19_17h00.03.208,Attention_exp_legacy,2023.1.0,Win32,59.88023952,,,,,,,,,,,,,,,,,,,,,,,,,,,,,,,,,,,,,,,,,,,,,,,,,,,,,,,,,
,,,,,,,-0.021875,-0.322222222,1,0,0,0,14,14,10,1,0,-0.33,07,001,2024-11-19_17h00.03.208,Attention_exp_legacy,2023.1.0,Win32,59.88023952,,,,,,,,,,,,,,,,,,,,,,,,,,,,,,,,,,,,,,,,,,,,,,,,,,,,,,,,,
,,,,,,,-0.670833333,0.003703704,1,0,0,0,15,15,2,1,-0.67,0,07,001,2024-11-19_17h00.03.208,Attention_exp_legacy,2023.1.0,Win32,59.88023952,calibration_square,,,,,,,,,,,,,,,,,,,,,,,,,,,,,,,,,,,,,,,,,,,,,,,,,,,,,,,,
,,,,,,,-0.333333333,-0.653703704,1,0,0,0,16,16,4,1,-0.33,-0.67,07,001,2024-11-19_17h00.03.208,Attention_exp_legacy,2023.1.0,Win32,59.88023952,,,,,,,,,,,,,,,,,,,,,,,,,,,,,,,,,,,,,,,,,,,,,,,,,,,,,,,,,
,,,,,,,-0.320833333,0.333333333,1,0,0,0,17,17,7,1,-0.33,0.33,07,001,2024-11-19_17h00.03.208,Attention_exp_legacy,2023.1.0,Win32,59.88023952,calibration_square,,,,,,,,,,,,,,,,,,,,,,,,,,,,,,,,,,,,,,,,,,,,,,,,,,,,,,,,
,,,,,,,-0.663541667,0.340740741,1,0,0,0,18,18,3,1,-0.67,0.33,07,001,2024-11-19_17h00.03.208,Attention_exp_legacy,2023.1.0,Win32,59.88023952,,,,,,,,,,,,,,,,,,,,,,,,,,,,,,,,,,,,,,,,,,,,,,,,,,,,,,,,,
,,,,,,,-0.325,-0.003703704,1,0,0,0,19,19,6,1,-0.33,0,07,001,2024-11-19_17h00.03.208,Attention_exp_legacy,2023.1.0,Win32,59.88023952,calibration_square,,,,,,,,,,,,,,,,,,,,,,,,,,,,,,,,,,,,,,,,,,,,,,,,,,,,,,,,
,,,,,,,-0.667708333,-0.325925926,1,0,0,0,20,20,1,1,-0.67,-0.33,07,001,2024-11-19_17h00.03.208,Attention_exp_legacy,2023.1.0,Win32,59.88023952,calibration_square,,,,,,,,,,,,,,,,,,,,,,,,,,,,,,,,,,,,,,,,,,,,,,,,,,,,,,,,
,,,,,,,,,,,,,,,,,,,07,001,2024-11-19_17h00.03.208,Attention_exp_legacy,2023.1.0,Win32,59.88023952,,"[1920,1080]","[640,480]",[0.008333333333333333],[-0.524074074074074],[1],[0],[0],[1.3401999998092649],"[""StartButton""]",[0.05520833333333333],[0.17592592592592593],[1],[0],[0],[4.600900000095365],"[""Metro_label""]",Metro_label,1,5.6264,"[[0.04479166666666667,-0.3592592592592593],[0.04479166666666667,-0.3592592592592593],[0.04479166666666667,-0.3592592592592593],[0.04479166666666667,-0.3592592592592593],[0.04479166666666667,-0.3592592592592593],[0.04479166666666667,-0.3592592592592593],[0.04479166666666667,-0.3592592592592593],[0.04479166666666667,-0.3592592592592593],[0.04479166666666667,-0.3592592592592593],[0.04479166666666667,-0.3592592592592593],[0.04479166666666667,-0.3592592592592593],[0.04479166666666667,-0.3592592592592593],[0.04479166666666667,-0.3592592592592593],[0.04479166666666667,-0.3592592592592593],[0.04479166666666667,-0.3592592592592593],[0.04479166666666667,-0.3592592592592593],[0.04479166666666667,-0.3592592592592593],[0.04479166666666667,-0.3592592592592593],[0.04479166666666667,-0.3592592592592593],[0.04479166666666667,-0.3592592592592593],[0.04479166666666667,-0.3592592592592593],[0.04479166666666667,-0.3592592592592593],[0.04479166666666667,-0.3592592592592593],[0.04479166666666667,-0.3592592592592593],[0.04479166666666667,-0.3592592592592593],[0.04479166666666667,-0.3592592592592593],[0.04479166666666667,-0.3592592592592593],[0.04479166666666667,-0.3592592592592593],[0.04479166666666667,-0.3592592592592593],[0.04479166666666667,-0.3592592592592593],[0.04479166666666667,-0.3592592592592593],[0.04479166666666667,-0.3592592592592593],[0.04479166666666667,-0.3592592592592593],[0.04479166666666667,-0.3592592592592593],[0.04479166666666667,-0.3592592592592593],[0.04479166666666667,-0.3592592592592593],[0.04479166666666667,-0.3592592592592593],[0.04479166666666667,-0.3592592592592593],[0.04479166666666667,-0.3592592592592593],[0.04479166666666667,-0.3592592592592593],[0.04479166666666667,-0.3592592592592593],[0.04479166666666667,-0.3592592592592593],[0.04479166666666667,-0.3592592592592593],[0.04479166666666667,-0.3592592592592593],[0.04479166666666667,-0.3592592592592593],[0.04479166666666667,-0.3592592592592593],[0.04479166666666667,-0.3592592592592593],[0.04479166666666667,-0.3592592592592593],[0.04479166666666667,-0.3592592592592593],[0.04479166666666667,-0.3592592592592593],[0.04479166666666667,-0.3592592592592593],[0.04479166666666667,-0.3592592592592593],[0.04479166666666667,-0.3592592592592593],[0.04479166666666667,-0.3592592592592593],[0.04479166666666667,-0.3592592592592593],[0.04479166666666667,-0.3592592592592593],[0.04479166666666667,-0.3592592592592593],[0.04479166666666667,-0.3592592592592593],[0.04479166666666667,-0.3592592592592593],[0.04479166666666667,-0.3592592592592593],[0.04479166666666667,-0.3592592592592593],[0.04479166666666667,-0.3592592592592593],[0.04479166666666667,-0.3592592592592593],[0.04479166666666667,-0.3592592592592593],[0.04479166666666667,-0.3592592592592593],[0.04479166666666667,-0.3592592592592593],[0.04479166666666667,-0.3592592592592593],[0.04479166666666667,-0.3592592592592593],[0.04479166666666667,-0.3592592592592593],[0.04479166666666667,-0.3592592592592593],[0.04479166666666667,-0.3592592592592593],[0.04479166666666667,-0.3592592592592593],[0.04479166666666667,-0.3592592592592593],[0.04479166666666667,-0.3592592592592593],[0.04479166666666667,-0.3592592592592593],[0.04479166666666667,-0.3592592592592593],[0.04479166666666667,-0.3592592592592593],[0.04479166666666667,-0.3592592592592593],[0.04479166666666667,-0.3592592592592593],[0.04479166666666667,-0.3592592592592593],[0.04479166666666667,-0.3592592592592593],[0.04479166666666667,-0.3592592592592593],[0.04479166666666667,-0.3592592592592593],[0.04479166666666667,-0.3592592592592593],[0.04479166666666667,-0.3592592592592593],[0.04479166666666667,-0.3592592592592593],[0.04479166666666667,-0.3592592592592593],[0.04479166666666667,-0.3592592592592593],[0.04479166666666667,-0.3592592592592593],[0.04479166666666667,-0.3592592592592593],[0.04479166666666667,-0.3592592592592593],[0.04479166666666667,-0.3592592592592593],[0.04479166666666667,-0.3592592592592593],[0.04479166666666667,-0.3592592592592593],[0.04479166666666667,-0.3592592592592593],[0.04479166666666667,-0.3592592592592593],[0.04479166666666667,-0.3592592592592593],[0.04479166666666667,-0.3592592592592593],[0.04479166666666667,-0.3592592592592593],[0.04479166666666667,-0.3592592592592593],[0.04479166666666667,-0.3592592592592593],[0.04479166666666667,-0.3592592592592593],[0.04479166666666667,-0.3592592592592593],[0.04479166666666667,-0.3592592592592593],[0.04479166666666667,-0.3592592592592593],[0.04479166666666667,-0.3592592592592593],[0.04479166666666667,-0.3592592592592593],[0.04479166666666667,-0.3592592592592593],[0.04479166666666667,-0.3592592592592593],[0.04479166666666667,-0.3592592592592593],[0.04479166666666667,-0.3592592592592593],[0.04479166666666667,-0.3592592592592593],[0.04479166666666667,-0.3592592592592593],[0.04479166666666667,-0.3592592592592593],[0.04479166666666667,-0.3592592592592593],[0.04479166666666667,-0.3592592592592593],[0.04479166666666667,-0.3592592592592593],[0.04479166666666667,-0.3592592592592593],[0.04479166666666667,-0.3592592592592593],[0.04479166666666667,-0.3592592592592593],[0.04479166666666667,-0.3592592592592593],[0.04479166666666667,-0.3592592592592593],[0.04479166666666667,-0.3592592592592593],[0.04479166666666667,-0.3592592592592593],[0.04479166666666667,-0.3592592592592593],[0.04479166666666667,-0.3592592592592593],[0.04479166666666667,-0.3592592592592593],[0.04479166666666667,-0.3592592592592593],[0.04479166666666667,-0.3592592592592593],[0.04479166666666667,-0.3592592592592593],[0.04479166666666667,-0.3592592592592593],[0.04479166666666667,-0.3592592592592593],[0.04479166666666667,-0.3592592592592593],[0.04479166666666667,-0.3592592592592593],[0.04479166666666667,-0.3592592592592593],[0.04479166666666667,-0.3592592592592593],[0.04479166666666667,-0.3592592592592593],[0.04479166666666667,-0.3592592592592593],[0.04479166666666667,-0.3592592592592593],[0.04479166666666667,-0.3592592592592593],[0.04479166666666667,-0.3592592592592593],[0.04479166666666667,-0.3592592592592593],[0.04479166666666667,-0.3592592592592593],[0.04479166666666667,-0.3592592592592593],[0.04479166666666667,-0.3592592592592593],[0.04479166666666667,-0.3592592592592593],[0.04479166666666667,-0.3592592592592593],[0.04479166666666667,-0.3592592592592593],[0.04479166666666667,-0.3592592592592593],[0.04479166666666667,-0.3592592592592593],[0.04479166666666667,-0.3592592592592593],[0.04479166666666667,-0.3592592592592593],[0.04479166666666667,-0.3592592592592593],[0.04479166666666667,-0.3592592592592593],[0.04479166666666667,-0.3592592592592593],[0.04479166666666667,-0.3592592592592593],[0.04479166666666667,-0.3592592592592593],[0.04479166666666667,-0.3592592592592593],[0.04479166666666667,-0.3592592592592593],[0.04479166666666667,-0.3592592592592593],[0.04479166666666667,-0.3592592592592593],[0.04479166666666667,-0.3592592592592593],[0.04479166666666667,-0.3592592592592593],[0.04479166666666667,-0.3592592592592593],[0.04479166666666667,-0.3592592592592593],[0.04479166666666667,-0.3592592592592593],[0.04479166666666667,-0.3592592592592593],[0.04479166666666667,-0.3592592592592593],[0.04479166666666667,-0.3592592592592593],[0.04479166666666667,-0.3592592592592593],[0.04479166666666667,-0.3592592592592593],[0.04479166666666667,-0.3592592592592593],[0.04479166666666667,-0.3592592592592593],[0.04479166666666667,-0.3592592592592593],[0.04479166666666667,-0.3592592592592593],[0.04479166666666667,-0.3592592592592593],[0.04479166666666667,-0.3592592592592593],[0.04479166666666667,-0.3592592592592593],[0.04479166666666667,-0.3592592592592593],[0.04583333333333333,-0.3574074074074074],[0.04583333333333333,-0.3574074074074074],[0.04583333333333333,-0.3574074074074074],[0.05,-0.34629629629629627],[0.05416666666666667,-0.3333333333333333],[0.06458333333333334,-0.30185185185185187],[0.07916666666666666,-0.24259259259259258],[0.090625,-0.1814814814814815],[0.09270833333333334,-0.11851851851851852],[0.09270833333333334,-0.07962962962962963],[0.09270833333333334,-0.053703703703703705],[0.09270833333333334,-0.025925925925925925],[0.09270833333333334,-0.012962962962962963],[0.09270833333333334,-0.003703703703703704],[0.09270833333333334,0.001851851851851852],[0.09270833333333334,0.007407407407407408],[0.09270833333333334,0.011111111111111112],[0.09270833333333334,0.020370370370370372],[0.09166666666666666,0.025925925925925925],[0.09166666666666666,0.03333333333333333],[0.08958333333333333,0.04259259259259259],[0.08854166666666667,0.04814814814814815],[0.08645833333333333,0.06296296296296296],[0.08541666666666667,0.06666666666666667],[0.08333333333333333,0.07037037037037037],[0.08333333333333333,0.07962962962962963],[0.08333333333333333,0.08148148148148149],[0.08229166666666667,0.08518518518518518],[0.08125,0.09074074074074075],[0.08125,0.09074074074074075],[0.08125,0.09074074074074075],[0.08020833333333334,0.09259259259259259],[0.08020833333333334,0.09259259259259259],[0.08020833333333334,0.09259259259259259],[0.08020833333333334,0.09259259259259259],[0.08020833333333334,0.09259259259259259],[0.08020833333333334,0.09444444444444444],[0.08020833333333334,0.0962962962962963],[0.08020833333333334,0.0962962962962963],[0.08020833333333334,0.09814814814814815],[0.08020833333333334,0.09814814814814815],[0.08020833333333334,0.10185185185185185],[0.08020833333333334,0.10185185185185185],[0.08020833333333334,0.1037037037037037],[0.08020833333333334,0.1037037037037037],[0.08020833333333334,0.1037037037037037],[0.08020833333333334,0.1037037037037037],[0.08020833333333334,0.1037037037037037],[0.08020833333333334,0.1037037037037037],[0.08020833333333334,0.1037037037037037],[0.08020833333333334,0.1037037037037037],[0.08020833333333334,0.1037037037037037],[0.08020833333333334,0.1037037037037037],[0.08020833333333334,0.1037037037037037],[0.08020833333333334,0.1037037037037037],[0.08020833333333334,0.1037037037037037],[0.08020833333333334,0.1037037037037037],[0.08020833333333334,0.1037037037037037],[0.08020833333333334,0.1037037037037037],[0.08020833333333334,0.1037037037037037],[0.08020833333333334,0.1037037037037037],[0.08020833333333334,0.1037037037037037],[0.08020833333333334,0.1037037037037037],[0.08020833333333334,0.1037037037037037],[0.08020833333333334,0.1037037037037037],[0.08020833333333334,0.1037037037037037],[0.08020833333333334,0.10740740740740741],[0.07708333333333334,0.11666666666666667],[0.07604166666666666,0.12222222222222222],[0.075,0.1259259259259259],[0.07395833333333333,0.13333333333333333],[0.07291666666666667,0.13518518518518519],[0.07291666666666667,0.13518518518518519],[0.07291666666666667,0.13703703703703704],[0.07083333333333333,0.14074074074074075],[0.06979166666666667,0.14444444444444443],[0.06770833333333333,0.15],[0.06458333333333334,0.1574074074074074],[0.06354166666666666,0.16111111111111112],[0.06145833333333333,0.16666666666666666],[0.059375,0.17222222222222222],[0.057291666666666664,0.17407407407407408],[0.05625,0.17407407407407408],[0.05625,0.17592592592592593],[0.05520833333333333,0.17592592592592593],[0.05520833333333333,0.17592592592592593],[0.05520833333333333,0.17592592592592593],[0.05520833333333333,0.17592592592592593],[0.05520833333333333,0.17592592592592593],[0.05520833333333333,0.17592592592592593],[0.05520833333333333,0.17592592592592593],[0.05520833333333333,0.17592592592592593],[0.05520833333333333,0.17592592592592593],[0.05520833333333333,0.17592592592592593],[0.05520833333333333,0.17592592592592593],[0.05520833333333333,0.17592592592592593],[0.05520833333333333,0.17592592592592593],[0.05520833333333333,0.17592592592592593],[0.05520833333333333,0.17592592592592593],[0.05520833333333333,0.17592592592592593],[0.05520833333333333,0.17592592592592593],[0.05520833333333333,0.17592592592592593],[0.05520833333333333,0.17592592592592593],[0.05520833333333333,0.17592592592592593],[0.05520833333333333,0.17592592592592593],[0.05520833333333333,0.17592592592592593],[0.05520833333333333,0.17592592592592593],[0.05520833333333333,0.17592592592592593],[0.05520833333333333,0.17592592592592593],[0.05520833333333333,0.17592592592592593],[0.05520833333333333,0.17592592592592593],[0.05520833333333333,0.17592592592592593],[0.05520833333333333,0.17592592592592593],[0.05520833333333333,0.17592592592592593],[0.05520833333333333,0.17592592592592593],[0.05520833333333333,0.17592592592592593],[0.05520833333333333,0.17592592592592593],[0.05520833333333333,0.17592592592592593],[0.05520833333333333,0.17592592592592593],[0.05520833333333333,0.17592592592592593],[0.05520833333333333,0.17592592592592593],[0.05520833333333333,0.17592592592592593],[0.05520833333333333,0.17592592592592593],[0.05520833333333333,0.17592592592592593],[0.05520833333333333,0.17592592592592593],[0.05520833333333333,0.17592592592592593],[0.05520833333333333,0.17592592592592593],[0.05520833333333333,0.17592592592592593],[0.05520833333333333,0.17592592592592593],[0.05520833333333333,0.17592592592592593],[0.05520833333333333,0.17592592592592593],[0.05520833333333333,0.17592592592592593],[0.05520833333333333,0.17592592592592593],[0.05520833333333333,0.17592592592592593],[0.05520833333333333,0.17592592592592593],[0.05520833333333333,0.17592592592592593],[0.05520833333333333,0.17592592592592593],[0.05520833333333333,0.17592592592592593],[0.05520833333333333,0.17592592592592593],[0.05520833333333333,0.17592592592592593],[0.05520833333333333,0.17592592592592593],[0.05520833333333333,0.17592592592592593],[0.05520833333333333,0.17592592592592593],[0.05520833333333333,0.17592592592592593],[0.05520833333333333,0.17592592592592593],[0.05520833333333333,0.17592592592592593],[0.05520833333333333,0.17592592592592593],[0.05520833333333333,0.17592592592592593],[0.05520833333333333,0.17592592592592593],[0.05625,0.17592592592592593],[0.059375,0.17222222222222222],[0.06041666666666667,0.17222222222222222],[0.06145833333333333,0.17037037037037037],[0.06145833333333333,0.17037037037037037],[0.06145833333333333,0.17037037037037037],[0.06145833333333333,0.17037037037037037],[0.06145833333333333,0.17037037037037037],[0.06145833333333333,0.17037037037037037]]","[[0.03604166666666669,-0.7338888888888889],[0.03604166666666669,-0.7338888888888889],[0.035104166666666714,-0.7337037037037036],[0.035104166666666714,-0.7337037037037036],[0.03322916666666664,-0.7235185185185184],[0.022708333333333285,-0.6883333333333334],[0.013541666666666667,-0.665],[0.013541666666666667,-0.665],[-0.00302083333333331,-0.64],[-0.012395833333333309,-0.6231481481481481],[-0.02354166666666669,-0.602962962962963],[-0.029062499999999977,-0.5818518518518518],[-0.03458333333333338,-0.5607407407407408],[-0.027083333333333334,-0.5112962962962964],[-0.029895833333333382,-0.46148148148148144],[-0.016979166666666618,-0.42462962962962963],[-0.002499999999999976,-0.4112962962962963],[-0.010104166666666714,-0.347037037037037],[-0.011249999999999953,-0.27999999999999997],[-0.017812500000000023,-0.21648148148148144],[-0.014687500000000023,-0.2],[-0.009062500000000048,-0.18555555555555553],[0.005416666666666714,-0.1346296296296296],[0.002916666666666619,-0.10981481481481484],[0.00302083333333331,-0.07537037037037035],[-0.0046875,-0.032777777777777864],[-0.012395833333333309,0.009814814814814731],[-0.011458333333333333,0.019259259259259216],[-0.010520833333333358,0.028703703703703703],[-0.018333333333333358,0.02962962962962963],[-0.03583333333333331,0.07759259259259255],[-0.04791666666666667,0.0712962962962963],[-0.06885416666666669,0.028518518518518478],[-0.0875,-0.03777777777777774],[-0.10895833333333335,-0.1007407407407407],[-0.12364583333333339,-0.14685185185185187],[-0.13833333333333328,-0.19296296296296295],[-0.12145833333333336,-0.25018518518518523],[-0.10447916666666662,-0.28944444444444445],[-0.06593749999999995,-0.32592592592592595],[-0.013645833333333357,-0.33666666666666667],[0.011666666666666714,-0.2594444444444445],[0.011666666666666714,-0.2594444444444445],[0.0546875,-0.18370370370370367],[0.0546875,-0.18370370370370367],[0.04739583333333333,-0.1727777777777778],[0.052187500000000026,-0.12074074074074072],[0.05020833333333338,-0.08555555555555554],[0.04572916666666664,-0.02388888888888885],[0.02312500000000005,0.009074074074074031],[0.000416666666666643,0.024074074074074074],[-0.017499999999999953,0.05259259259259255],[-0.04916666666666671,0.05537037037037033],[-0.06281249999999995,0.01962962962962967],[-0.09416666666666665,-0.014629629629629588],[-0.0703125,0.049629629629629544],[-0.058333333333333334,0.05981481481481473],[-0.06364583333333336,0.051111111111111156],[-0.06645833333333329,0.01592592592592597],[-0.06489583333333329,0.010740740740740657],[-0.06333333333333328,0.005555555555555556],[-0.07895833333333328,0.02092592592592584],[-0.09458333333333328,0.03629629629629634],[-0.09458333333333328,0.03629629629629634],[-0.09833333333333331,0.042407407407407366],[-0.09833333333333331,0.042407407407407366],[-0.11083333333333331,0.0551851851851851],[-0.11083333333333331,0.0551851851851851],[-0.13562500000000005,0.03370370370370379],[-0.13562500000000005,0.03370370370370379],[-0.1626041666666667,0.05648148148148148],[-0.1626041666666667,0.05648148148148148],[-0.17114583333333327,0.07925925925925917],[-0.17114583333333327,0.07925925925925917],[-0.1686458333333333,0.0955555555555556],[-0.16843750000000005,0.06518518518518526],[-0.16843750000000005,0.06518518518518526],[-0.16822916666666668,0.03481481481481473],[-0.16822916666666668,0.03481481481481473],[-0.16666666666666666,0.028703703703703703],[-0.16666666666666666,0.028703703703703703],[-0.14677083333333332,0.01518518518518527],[-0.14677083333333332,0.01518518518518527],[-0.14854166666666668,0.014259259259259343],[-0.14854166666666668,0.014259259259259343],[-0.13114583333333332,-0.0035185185185184764],[-0.10864583333333329,-0.012777777777777735],[-0.07947916666666661,-0.09425925925925922],[-0.07531249999999995,-0.12111111111111107],[-0.06625000000000002,-0.19129629629629633],[-0.05927083333333331,-0.2227777777777778],[-0.043124999999999976,-0.2381481481481482],[-0.019687499999999976,-0.31055555555555553],[-0.013854166666666619,-0.3581481481481481],[0.0021875000000000236,-0.4116666666666667],[0.01270833333333338,-0.3774074074074074],[0.02041666666666669,-0.40370370370370373],[0.02385416666666664,-0.3977777777777778],[0.043229166666666666,-0.4124074074074074],[0.036249999999999956,-0.3772222222222222],[0.029270833333333357,-0.34203703703703703],[0.034791666666666644,-0.28944444444444445],[0.022187499999999954,-0.23018518518518521],[0.022187499999999954,-0.23018518518518521],[0.016562499999999977,-0.1581481481481481],[0.024166666666666715,-0.07925925925925928],[0.024166666666666715,-0.07925925925925928],[0.02312500000000005,-0.08222222222222218],[0.019791666666666666,0.0031481481481482323],[0.019791666666666666,0.0031481481481482323],[0.019270833333333334,0.045740740740740825],[0.042916666666666714,0.09259259259259259],[0.06114583333333338,0.12240740740740745],[0.11614583333333334,0.13240740740740742],[0.13114583333333343,0.03814814814814819],[0.15958333333333338,0.007777777777777862],[0.20187499999999994,-0.04314814814814806],[0.22645833333333343,-0.0764814814814815],[0.23781249999999995,-0.12240740740740745],[0.2618750000000001,-0.15],[0.2897916666666667,-0.10666666666666672],[0.2626041666666666,-0.09888888888888885],[0.2648958333333333,-0.07759259259259255],[0.2648958333333333,-0.07759259259259255],[0.23041666666666671,-0.036481481481481566],[0.1944791666666667,0.06074074074074066],[0.17833333333333337,0.11574074074074074],[0.13927083333333337,0.13518518518518519],[0.09739583333333333,0.14666666666666675],[0.08208333333333329,0.17703703703703708],[0.050729166666666714,0.18222222222222217],[0.013750000000000047,0.1625925925925925],[0.026041666666666668,0.1448148148148149],[0.008437500000000023,0.13629629629629633],[0.008437500000000023,0.13629629629629633],[0.004375000000000047,0.1346296296296297],[0.0171875,0.16351851851851842],[0.009895833333333333,0.17537037037037045],[0.0003124999999999526,0.20925925925925926],[0.01260416666666669,0.20185185185185187],[-0.004791666666666691,0.24388888888888896],[-0.01260416666666669,0.2581481481481481],[-0.021354166666666667,0.2737037037037036],[-0.03343750000000002,0.29907407407407405],[-0.028125,0.32944444444444443],[-0.036354166666666646,0.352962962962963],[-0.03927083333333338,0.3485185185185186],[-0.035416666666666666,0.33907407407407414],[-0.02791666666666662,0.33351851851851855],[-0.049270833333333285,0.38074074074074077],[-0.050520833333333334,0.3764814814814814],[-0.05020833333333338,0.3925925925925926],[-0.05020833333333338,0.3998148148148148],[-0.041979166666666616,0.3787037037037037],[-0.05020833333333338,0.3896296296296296],[-0.051979166666666646,0.36925925925925923],[-0.07979166666666669,0.39000000000000007],[-0.09520833333333331,0.38555555555555565],[-0.11062500000000004,0.381111111111111],[-0.0967708333333333,0.3435185185185185],[-0.08937499999999995,0.319074074074074],[-0.07927083333333336,0.28777777777777774],[-0.06916666666666664,0.2564814814814815],[-0.07124999999999998,0.24814814814814815],[-0.07124999999999998,0.24814814814814815],[-0.07854166666666665,0.20888888888888882],[-0.08447916666666669,0.19018518518518526],[-0.07770833333333335,0.18370370370370379],[-0.09520833333333331,0.21296296296296297],[-0.0953125,0.20907407407407402],[-0.11687500000000005,0.24592592592592585],[-0.11458333333333333,0.23666666666666658],[-0.11770833333333333,0.23629629629629634],[-0.13687499999999997,0.22833333333333325],[-0.15916666666666662,0.2301851851851851],[-0.15229166666666671,0.2198148148148149],[-0.1532291666666667,0.22018518518518515],[-0.13447916666666668,0.17444444444444454],[-0.10791666666666669,0.12370370370370362],[-0.10645833333333338,0.11777777777777781],[-0.08989583333333329,0.1014814814814814],[-0.09333333333333335,0.1294444444444444],[-0.0967708333333333,0.1574074074074074],[-0.08541666666666667,0.18592592592592588],[-0.07406250000000002,0.21444444444444435],[-0.06375000000000004,0.2455555555555556],[-0.03937499999999995,0.28481481481481474],[-0.03937499999999995,0.28481481481481474],[-0.02374999999999995,0.32888888888888895],[0.0032291666666666905,0.3446296296296297],[0.029791666666666692,0.3255555555555555],[0.050833333333333286,0.2887037037037037],[0.050833333333333286,0.2887037037037037],[0.059791666666666646,0.26425925925925936],[0.059791666666666646,0.26425925925925936],[0.06812500000000009,0.25833333333333336],[0.08583333333333343,0.222037037037037],[0.08583333333333343,0.222037037037037],[0.09989583333333343,0.22148148148148153],[0.09989583333333343,0.22148148148148153],[0.10854166666666672,0.1977777777777777],[0.09645833333333324,0.2064814814814815],[0.09645833333333324,0.2064814814814815],[0.08010416666666677,0.18407407407407403],[0.05239583333333329,0.19000000000000003],[0.05239583333333329,0.19000000000000003],[0.05510416666666664,0.25759259259259265],[0.035520833333333356,0.28833333333333344],[0.03833333333333329,0.2818518518518519],[0.041770833333333354,0.25685185185185194],[0.041770833333333354,0.25685185185185194],[0.04052083333333331,0.24870370370370362],[0.0265625,0.24870370370370362],[0.016979166666666618,0.2803703703703703],[0.021041666666666715,0.21907407407407398],[0.029375000000000047,0.18888888888888888],[0.029375000000000047,0.18888888888888888],[0.050625000000000024,0.13962962962962958],[0.036458333333333336,0.07666666666666662],[0.04458333333333329,0.05055555555555547],[0.04500000000000005,0.03796296296296296],[0.04500000000000005,0.03796296296296296],[0.05593750000000005,0.004444444444444402],[0.05593750000000005,0.004444444444444402],[0.0390625,0.020185185185185143],[0.04906250000000002,-0.021481481481481525],[0.04906250000000002,-0.021481481481481525],[0.05249999999999998,-0.07388888888888885],[0.05166666666666669,-0.04129629629629621],[0.05166666666666669,-0.04129629629629621],[0.050729166666666714,-0.0294444444444444],[0.03572916666666662,-0.0011111111111111532],[0.033854166666666664,0.002407407407407323],[0.024479166666666666,0.00851851851851856],[0.015104166666666667,0.014629629629629588],[-0.002291666666666714,0.022777777777777692],[0.07843749999999995,-0.11481481481481481],[0.1486458333333334,-0.2388888888888889],[0.23125,-0.36129629629629634],[0.3111458333333334,-0.5162962962962964],[0.3458333333333333,-0.5498148148148148],[0.38166666666666677,-0.5807407407407408],[0.4196875000000001,-0.5511111111111111],[0.4652083333333332,-0.524074074074074],[0.5107291666666666,-0.497037037037037],[0.5107291666666666,-0.497037037037037],[0.5160416666666667,-0.4666666666666667],[0.4521874999999999,-0.3290740740740741],[0.40166666666666656,-0.20925925925925926],[0.40166666666666656,-0.20925925925925926],[0.3255208333333333,-0.11055555555555553],[0.23635416666666675,-0.007037037037036953],[0.2021874999999999,-0.009629629629629714],[0.2021874999999999,-0.009629629629629714],[0.18083333333333323,-0.018703703703703747],[0.1423958333333334,-0.062037037037037036],[0.10135416666666662,-0.11388888888888889],[0.10135416666666662,-0.11388888888888889],[0.05135416666666662,-0.1425925925925926],[0.051874999999999956,-0.1307407407407408],[0.05802083333333338,-0.17555555555555558],[0.05802083333333338,-0.17555555555555558],[0.03697916666666667,-0.1581481481481481],[0.024166666666666715,-0.10666666666666672],[0.035416666666666666,-0.08388888888888892],[0.041666666666666664,-0.06370370370370367],[0.03958333333333333,-0.03425925925925926],[0.05239583333333329,-0.031111111111111027],[0.0678124999999999,-0.019444444444444445],[0.08572916666666662,-0.0235185185185186],[0.08572916666666662,-0.0235185185185186],[0.09083333333333338,-0.05259259259259255],[0.09135416666666671,-0.01703703703703712],[0.09697916666666657,-0.014814814814814815],[0.11833333333333323,-0.04592592592592584],[0.1265625,-0.03814814814814819],[0.1265625,-0.03814814814814819],[0.12854166666666675,-0.020185185185185143],[0.13916666666666658,0.005555555555555556],[0.12708333333333333,0.03851851851851843],[0.12708333333333333,0.03851851851851843],[0.13020833333333334,0.0492592592592593],[0.13385416666666666,0.04537037037037037],[0.14177083333333323,0.046296296296296294],[0.14177083333333323,0.046296296296296294],[0.13312499999999997,0.08092592592592601],[0.13312499999999997,0.08092592592592601],[0.15875000000000009,0.06759259259259259],[0.15968749999999995,0.10759259259259263],[0.16270833333333337,0.13259259259259262],[0.16697916666666662,0.1596296296296297],[0.1662499999999999,0.1425925925925926],[0.1662499999999999,0.1425925925925926],[0.18822916666666673,0.11833333333333329],[0.1892708333333334,0.13499999999999995],[0.19812500000000005,0.1449999999999999],[0.19781250000000009,0.1625925925925925],[0.23114583333333344,0.13537037037037042],[0.24604166666666671,0.1479629629629629],[0.2445833333333333,0.13444444444444448],[0.22822916666666657,0.13185185185185194],[0.22822916666666657,0.13185185185185194],[0.21833333333333324,0.08981481481481482],[0.18406250000000005,0.12296296296296293],[0.15989583333333332,0.11129629629629634],[0.14052083333333343,0.11574074074074074],[0.11052083333333323,0.12074074074074083],[0.11052083333333323,0.12074074074074083],[0.08541666666666667,0.11333333333333341],[0.052083333333333336,0.12314814814814815],[0.052083333333333336,0.12314814814814815],[-0.0026041666666666665,0.12518518518518523],[-0.013854166666666619,0.12296296296296293],[-0.007500000000000047,0.10833333333333334],[-0.007500000000000047,0.10833333333333334],[-0.003125,0.13222222222222219],[-0.003125,0.13222222222222219],[0.017499999999999953,0.11444444444444436],[0.017499999999999953,0.11444444444444436],[0.02166666666666662,0.1337037037037038],[0.02166666666666662,0.1337037037037038],[0.016250000000000025,0.13351851851851856],[0.020729166666666642,0.10685185185185193],[0.020729166666666642,0.10685185185185193],[0.03197916666666671,0.09962962962962954],[0.03197916666666671,0.09962962962962954],[0.03166666666666664,0.10500000000000008],[0.03177083333333333,0.08703703703703704],[0.01875,0.06481481481481481],[0.01875,0.06481481481481481],[0.02020833333333331,0.044444444444444446],[0.04645833333333336,0.03425925925925926],[0.04645833333333336,0.03425925925925926],[0.03322916666666664,0.04129629629629621],[0.02052083333333338,0.07518518518518523],[0.018333333333333358,0.09370370370370375],[-0.02385416666666664,0.12611111111111115]]","[[0.03604166666666669,-0.7338888888888889,0.00029999971389571556],[0.03604166666666669,-0.7338888888888889,0.05489999961852732],[0.035104166666666714,-0.7337037037037036,0.06259999990463427],[0.035104166666666714,-0.7337037037037036,0.07669999980926434],[0.03322916666666664,-0.7235185185185184,0.09339999961852641],[0.022708333333333285,-0.6883333333333334,0.1135999999046291],[0.013541666666666667,-0.665,0.13039999961853255],[0.013541666666666667,-0.665,0.1432999997138964],[-0.00302083333333331,-0.64,0.1598999996185313],[-0.012395833333333309,-0.6231481481481481,0.1765999999046315],[-0.02354166666666669,-0.602962962962963,0.19400000000000261],[-0.029062499999999977,-0.5818518518518518,0.20979999971389418],[-0.03458333333333338,-0.5607407407407408,0.22659999990462865],[-0.027083333333333334,-0.5112962962962964,0.24319999980926355],[-0.029895833333333382,-0.46148148148148144,0.2598999996185327],[-0.016979166666666618,-0.42462962962962963,0.27649999999999864],[-0.002499999999999976,-0.4112962962962963,0.2931999998092678],[-0.010104166666666714,-0.347037037037037,0.3098999996185299],[-0.011249999999999953,-0.27999999999999997,0.3265000000000029],[-0.017812500000000023,-0.21648148148148144,0.34319999980926497],[-0.014687500000000023,-0.2,0.35999999999999943],[-0.009062500000000048,-0.18555555555555553,0.37650000000000006],[0.005416666666666714,-0.1346296296296296,0.3931999998092621],[0.002916666666666619,-0.10981481481481484,0.4099999999999966],[0.00302083333333331,-0.07537037037037035,0.42889999961852965],[-0.0046875,-0.032777777777777864,0.4440000000000026],[-0.012395833333333309,0.009814814814814731,0.45989999961852845],[-0.011458333333333333,0.019259259259259216,0.4765000000000015],[-0.010520833333333358,0.028703703703703703,0.4937999997139002],[-0.018333333333333358,0.02962962962962963,0.5097999997138984],[-0.03583333333333331,0.07759259259259255,0.5275999999046306],[-0.04791666666666667,0.0712962962962963,0.5461999998092679],[-0.06885416666666669,0.028518518518518478,0.5630999999046296],[-0.0875,-0.03777777777777774,0.5772999997138939],[-0.10895833333333335,-0.1007407407407407,0.5940000000000012],[-0.12364583333333339,-0.14685185185185187,0.6100999999046337],[-0.13833333333333328,-0.19296296296296295,0.6265000000000001],[-0.12145833333333336,-0.25018518518518523,0.643099999904635],[-0.10447916666666662,-0.28944444444444445,0.659799999713897],[-0.06593749999999995,-0.32592592592592595,0.6764999999999972],[-0.013645833333333357,-0.33666666666666667,0.6930999999046321],[0.011666666666666714,-0.2594444444444445,0.7098999996185285],[0.011666666666666714,-0.2594444444444445,0.7267999997138972],[0.0546875,-0.18370370370370367,0.7433999996185321],[0.0546875,-0.18370370370370367,0.7598999996185327],[0.04739583333333333,-0.1727777777777778,0.7765999999046329],[0.052187500000000026,-0.12074074074074072,0.7931999998092678],[0.05020833333333338,-0.08555555555555554,0.8098999996185299],[0.04572916666666664,-0.02388888888888885,0.8265000000000029],[0.02312500000000005,0.009074074074074031,0.843199999809265],[0.000416666666666643,0.024074074074074074,0.859899999618527],[-0.017499999999999953,0.05259259259259255,0.8765000000000001],[-0.04916666666666671,0.05537037037037033,0.893099999904635],[-0.06281249999999995,0.01962962962962967,0.9099999999999966],[-0.09416666666666665,-0.014629629629629588,0.9265999999046315],[-0.0703125,0.049629629629629544,0.9442999997138983],[-0.058333333333333334,0.05981481481481473,0.9625999999046329],[-0.06364583333333336,0.051111111111111156,0.9789999999999992],[-0.06645833333333329,0.01592592592592597,0.9958999996185298],[-0.06489583333333329,0.010740740740740657,1.0097999997138984],[-0.06333333333333328,0.005555555555555556,1.0264999999999986],[-0.07895833333333328,0.02092592592592584,1.0435000000000016],[-0.09458333333333328,0.03629629629629634,1.066599999904632],[-0.09458333333333328,0.03629629629629634,1.07659999990463],[-0.09833333333333331,0.042407407407407366,1.093199999809265],[-0.09833333333333331,0.042407407407407366,1.109899999618527],[-0.11083333333333331,0.0551851851851851,1.1265999999046343],[-0.11083333333333331,0.0551851851851851,1.1431999998092621],[-0.13562500000000005,0.03370370370370379,1.159799999713897],[-0.13562500000000005,0.03370370370370379,1.1764999999999972],[-0.1626041666666667,0.05648148148148148,1.1931999998092664],[-0.1626041666666667,0.05648148148148148,1.2098999996185285],[-0.17114583333333327,0.07925925925925917,1.2265000000000015],[-0.17114583333333327,0.07925925925925917,1.2431999998092635],[-0.1686458333333333,0.0955555555555556,1.2598999996185327],[-0.16843750000000005,0.06518518518518526,1.283699999809265],[-0.16843750000000005,0.06518518518518526,1.2931999998092678],[-0.16822916666666668,0.03481481481481473,1.3097999997138956],[-0.16822916666666668,0.03481481481481473,1.326500000000003],[-0.16666666666666666,0.028703703703703703,1.3432999997138992],[-0.16666666666666666,0.028703703703703703,1.3597999997138999],[-0.14677083333333332,0.01518518518518527,1.3765999999046343],[-0.14677083333333332,0.01518518518518527,1.3931999998092621],[-0.14854166666666668,0.014259259259259343,1.409799999713897],[-0.14854166666666668,0.014259259259259343,1.4264999999999972],[-0.13114583333333332,-0.0035185185185184764,1.4432999997139007],[-0.10864583333333329,-0.012777777777777735,1.4628999996185286],[-0.07947916666666661,-0.09425925925925922,1.4771999998092653],[-0.07531249999999995,-0.12111111111111107,1.4931999998092635],[-0.06625000000000002,-0.19129629629629633,1.5097999997138984],[-0.05927083333333331,-0.2227777777777778,1.5266999998092672],[-0.043124999999999976,-0.2381481481481482,1.5433999996185293],[-0.019687499999999976,-0.31055555555555553,1.5600999999046294],[-0.013854166666666619,-0.3581481481481481,1.576500000000003],[0.0021875000000000236,-0.4116666666666667,1.5962999997138994],[0.01270833333333338,-0.3774074074074074,1.6105000000000018],[0.02041666666666669,-0.40370370370370373,1.6265],[0.02385416666666664,-0.3977777777777778,1.643099999904635],[0.043229166666666666,-0.4124074074074074,1.6599999999999966],[0.036249999999999956,-0.3772222222222222,1.6764999999999972],[0.029270833333333357,-0.34203703703703703,1.6935999999046345],[0.034791666666666644,-0.28944444444444445,1.7097999997138942],[0.022187499999999954,-0.23018518518518521,1.7267999997138972],[0.022187499999999954,-0.23018518518518521,1.7432999997138978],[0.016562499999999977,-0.1581481481481481,1.7598999996185327],[0.024166666666666715,-0.07925925925925928,1.7800999999046354],[0.024166666666666715,-0.07925925925925928,1.7933999996185293],[0.02312500000000005,-0.08222222222222218,1.8097999997138956],[0.019791666666666666,0.0031481481481482323,1.8290000000000006],[0.019791666666666666,0.0031481481481482323,1.8432999997138992],[0.019270833333333334,0.045740740740740825,1.8597999997138999],[0.042916666666666714,0.09259259259259259,1.8765],[0.06114583333333338,0.12240740740740745,1.8931999998092621],[0.11614583333333334,0.13240740740740742,1.9098999996185313],[0.13114583333333343,0.03814814814814819,1.9272999997138953],[0.15958333333333338,0.007777777777777862,1.9470000000000027],[0.20187499999999994,-0.04314814814814806,1.9636999998092648],[0.22645833333333343,-0.0764814814814815,1.979299999713895],[0.23781249999999995,-0.12240740740740745,1.9956999998092613],[0.2618750000000001,-0.15,2.009999999999998],[0.2897916666666667,-0.10666666666666672,2.0264999999999986],[0.2626041666666666,-0.09888888888888885,2.0459999999999994],[0.2648958333333333,-0.07759259259259255,2.0652999997139005],[0.2648958333333333,-0.07759259259259255,2.0808999996185307],[0.23041666666666671,-0.036481481481481566,2.0936999998092674],[0.1944791666666667,0.06074074074074066,2.1097999997139],[0.17833333333333337,0.11574074074074074,2.12689999961853],[0.13927083333333337,0.13518518518518519,2.1432999997138964],[0.09739583333333333,0.14666666666666675,2.1598999996185313],[0.08208333333333329,0.17703703703703708,2.176499999999997],[0.050729166666666714,0.18222222222222217,2.1932999997139007],[0.013750000000000047,0.1625925925925925,2.209799999713894],[0.026041666666666668,0.1448148148148149,2.2265000000000015],[0.008437500000000023,0.13629629629629633,2.2431999998092635],[0.008437500000000023,0.13629629629629633,2.2597999997138984],[0.004375000000000047,0.1346296296296297,2.2764999999999986],[0.0171875,0.16351851851851842,2.293199999809268],[0.009895833333333333,0.17537037037037045,2.3097999997138956],[0.0003124999999999526,0.20925925925925926,2.32659999990463],[0.01260416666666669,0.20185185185185187,2.343199999809265],[-0.004791666666666691,0.24388888888888896,2.3599999999999994],[-0.01260416666666669,0.2581481481481481,2.3765],[-0.021354166666666667,0.2737037037037036,2.3936999998092645],[-0.03343750000000002,0.29907407407407405,2.409799999713897],[-0.028125,0.32944444444444443,2.426499999999997],[-0.036354166666666646,0.352962962962963,2.4431999998092664],[-0.03927083333333338,0.3485185185185186,2.4608999996185332],[-0.035416666666666666,0.33907407407407414,2.4765000000000015],[-0.02791666666666662,0.33351851851851855,2.493299999713898],[-0.049270833333333285,0.38074074074074077,2.5097999997138984],[-0.050520833333333334,0.3764814814814814,2.5264999999999986],[-0.05020833333333338,0.3925925925925926,2.5430999999046335],[-0.05020833333333338,0.3998148148148148,2.5597999997138956],[-0.041979166666666616,0.3787037037037037,2.576500000000003],[-0.05020833333333338,0.3896296296296296,2.5937999997138945],[-0.051979166666666646,0.36925925925925923,2.609899999618527],[-0.07979166666666669,0.39000000000000007,2.6265],[-0.09520833333333331,0.38555555555555565,2.643099999904635],[-0.11062500000000004,0.381111111111111,2.659799999713897],[-0.0967708333333333,0.3435185185185185,2.6765999999046315],[-0.08937499999999995,0.319074074074074,2.6931999998092664],[-0.07927083333333336,0.28777777777777774,2.7098999996185285],[-0.06916666666666664,0.2564814814814815,2.7265000000000015],[-0.07124999999999998,0.24814814814814815,2.746000000000002],[-0.07124999999999998,0.24814814814814815,2.7598999996185327],[-0.07854166666666665,0.20888888888888882,2.7764999999999986],[-0.08447916666666669,0.19018518518518526,2.7956999998092655],[-0.07770833333333335,0.18370370370370379,2.8097999997138956],[-0.09520833333333331,0.21296296296296297,2.826500000000003],[-0.0953125,0.20907407407407402,2.843199999809265],[-0.11687500000000005,0.24592592592592585,2.859899999618527],[-0.11458333333333333,0.23666666666666658,2.8765],[-0.11770833333333333,0.23629629629629634,2.8933999996185307],[-0.13687499999999997,0.22833333333333325,2.909799999713897],[-0.15916666666666662,0.2301851851851851,2.926499999999997],[-0.15229166666666671,0.2198148148148149,2.9461999998092665],[-0.1532291666666667,0.22018518518518515,2.9620999999046305],[-0.13447916666666668,0.17444444444444454,2.976399999618529],[-0.10791666666666669,0.12370370370370362,2.9937999997139],[-0.10645833333333338,0.11777777777777781,3.0123999996185304],[-0.08989583333333329,0.1014814814814814,3.026699999809267],[-0.09333333333333335,0.1294444444444444,3.043599999904629],[-0.0967708333333333,0.1574074074074074,3.0625],[-0.08541666666666667,0.18592592592592588,3.0766999998092643],[-0.07406250000000002,0.21444444444444435,3.0933999996185264],[-0.06375000000000004,0.2455555555555556,3.1136999998092634],[-0.03937499999999995,0.28481481481481474,3.131999999999998],[-0.03937499999999995,0.28481481481481474,3.1436999998092645],[-0.02374999999999995,0.32888888888888895,3.163899999618529],[0.0032291666666666905,0.3446296296296297,3.178699999809268],[0.029791666666666692,0.3255555555555555,3.1942999997138983],[0.050833333333333286,0.2887037037037037,3.2221999998092627],[0.050833333333333286,0.2887037037037037,3.228899999618527],[0.059791666666666646,0.26425925925925936,3.243399999618532],[0.059791666666666646,0.26425925925925936,3.259999999999998],[0.06812500000000009,0.25833333333333336,3.2815999999046355],[0.08583333333333343,0.222037037037037,3.2990999999046338],[0.08583333333333343,0.222037037037037,3.3101999998092637],[0.09989583333333343,0.22148148148148153,3.3336999998092622],[0.09989583333333343,0.22148148148148153,3.3433999996185264],[0.10854166666666672,0.1977777777777777,3.3600999999046337],[0.09645833333333324,0.2064814814814815,3.385399999618528],[0.09645833333333324,0.2064814814814815,3.3933999996185307],[0.08010416666666677,0.18407407407407403,3.4099999999999966],[0.05239583333333329,0.19000000000000003,3.4357999997139004],[0.05239583333333329,0.19000000000000003,3.4435000000000002],[0.05510416666666664,0.25759259259259265,3.460099999904635],[0.035520833333333356,0.28833333333333344,3.4812999997138974],[0.03833333333333329,0.2818518518518519,3.49589999961853],[0.041770833333333354,0.25685185185185194,3.5097999997138984],[0.041770833333333354,0.25685185185185194,3.531799999713897],[0.04052083333333331,0.24870370370370362,3.543199999809268],[0.0265625,0.24870370370370362,3.5600999999046294],[0.016979166666666618,0.2803703703703703,3.57659999990463],[0.021041666666666715,0.21907407407407398,3.5970000000000013],[0.029375000000000047,0.18888888888888888,3.616199999809268],[0.029375000000000047,0.18888888888888888,3.6266999998092615],[0.050625000000000024,0.13962962962962958,3.643199999809262],[0.036458333333333336,0.07666666666666662,3.6606999998092675],[0.04458333333333329,0.05055555555555547,3.678699999809268],[0.04500000000000005,0.03796296296296296,3.699399999618528],[0.04500000000000005,0.03796296296296296,3.7098999996185285],[0.05593750000000005,0.004444444444444402,3.7269999999999968],[0.05593750000000005,0.004444444444444402,3.7431999998092635],[0.0390625,0.020185185185185143,3.759999999999998],[0.04906250000000002,-0.021481481481481525,3.781399999618529],[0.04906250000000002,-0.021481481481481525,3.793199999809268],[0.05249999999999998,-0.07388888888888885,3.80989999961853],[0.05166666666666669,-0.04129629629629621,3.8290000000000006],[0.05166666666666669,-0.04129629629629621,3.843199999809265],[0.050729166666666714,-0.0294444444444444,3.859899999618527],[0.03572916666666662,-0.0011111111111111532,3.8766999998092615],[0.033854166666666664,0.002407407407407323,3.895699999809267],[0.024479166666666666,0.00851851851851856,3.9121999998092676],[0.015104166666666667,0.014629629629629588,3.9299999999999997],[-0.002291666666666714,0.022777777777777692,3.948199999809262],[0.07843749999999995,-0.11481481481481481,3.9643999996185286],[0.1486458333333334,-0.2388888888888889,3.980799999713895],[0.23125,-0.36129629629629634,3.998099999904632],[0.3111458333333334,-0.5162962962962964,4.013399999618528],[0.3458333333333333,-0.5498148148148148,4.029699999809267],[0.38166666666666677,-0.5807407407407408,4.046999999999997],[0.4196875000000001,-0.5511111111111111,4.06439999961853],[0.4652083333333332,-0.524074074074074,4.080699999809262],[0.5107291666666666,-0.497037037037037,4.100399999618531],[0.5107291666666666,-0.497037037037037,4.113699999809263],[0.5160416666666667,-0.4666666666666667,4.126799999713896],[0.4521874999999999,-0.3290740740740741,4.144199999809267],[0.40166666666666656,-0.20925925925925926,4.165999999999997],[0.40166666666666656,-0.20925925925925926,4.176699999809266],[0.3255208333333333,-0.11055555555555553,4.193699999809262],[0.23635416666666675,-0.007037037037036953,4.211799999713897],[0.2021874999999999,-0.009629629629629714,4.239799999713895],[0.2021874999999999,-0.009629629629629714,4.2468999996185275],[0.18083333333333323,-0.018703703703703747,4.260099999904632],[0.1423958333333334,-0.062037037037037036,4.277699999809265],[0.10135416666666662,-0.11388888888888889,4.300799999713895],[0.10135416666666662,-0.11388888888888889,4.310000000000002],[0.05135416666666662,-0.1425925925925926,4.326799999713899],[0.051874999999999956,-0.1307407407407408,4.345099999904633],[0.05802083333333338,-0.17555555555555558,4.366199999809268],[0.05802083333333338,-0.17555555555555558,4.3766999998092615],[0.03697916666666667,-0.1581481481481481,4.393399999618531],[0.024166666666666715,-0.10666666666666672,4.413099999904631],[0.035416666666666666,-0.08388888888888892,4.429899999618527],[0.041666666666666664,-0.06370370370370367,4.447399999618533],[0.03958333333333333,-0.03425925925925926,4.464599999904635],[0.05239583333333329,-0.031111111111111027,4.479899999618532],[0.0678124999999999,-0.019444444444444445,4.4967999997139],[0.08572916666666662,-0.0235185185185186,4.513299999713894],[0.08572916666666662,-0.0235185185185186,4.526499999999999],[0.09083333333333338,-0.05259259259259255,4.543199999809268],[0.09135416666666671,-0.01703703703703712,4.560199999809264],[0.09697916666666657,-0.014814814814814815,4.5763999996185305],[0.11833333333333323,-0.04592592592592584,4.593099999904631],[0.1265625,-0.03814814814814819,4.610500000000002],[0.1265625,-0.03814814814814819,4.6265],[0.12854166666666675,-0.020185185185185143,4.643199999809262],[0.13916666666666658,0.005555555555555556,4.662500000000001],[0.12708333333333333,0.03851851851851843,4.6797999997139],[0.12708333333333333,0.03851851851851843,4.693199999809266],[0.13020833333333334,0.0492592592592593,4.7098999996185285],[0.13385416666666666,0.04537037037037037,4.727699999809268],[0.14177083333333323,0.046296296296296294,4.75039999961853],[0.14177083333333323,0.046296296296296294,4.7635000000000005],[0.13312499999999997,0.08092592592592601,4.776599999904633],[0.13312499999999997,0.08092592592592601,4.793199999809268],[0.15875000000000009,0.06759259259259259,4.80989999961853],[0.15968749999999995,0.10759259259259263,4.82809999990463],[0.16270833333333337,0.13259259259259262,4.8455999999046355],[0.16697916666666662,0.1596296296296297,4.863199999809268],[0.1662499999999999,0.1425925925925926,4.8788999996185325],[0.1662499999999999,0.1425925925925926,4.893199999809262],[0.18822916666666673,0.11833333333333329,4.909899999618531],[0.1892708333333334,0.13499999999999995,4.929000000000002],[0.19812500000000005,0.1449999999999999,4.948],[0.19781250000000009,0.1625925925925925,4.964799999713897],[0.23114583333333344,0.13537037037037042,4.981199999809263],[0.24604166666666671,0.1479629629629629,4.996599999904632],[0.2445833333333333,0.13444444444444448,5.012299999713896],[0.22822916666666657,0.13185185185185194,5.032599999904633],[0.22822916666666657,0.13185185185185194,5.043199999809268],[0.21833333333333324,0.08981481481481482,5.05989999961853],[0.18406250000000005,0.12296296296296293,5.076999999999998],[0.15989583333333332,0.11129629629629634,5.095099999904633],[0.14052083333333343,0.11574074074074074,5.112699999809266],[0.11052083333333323,0.12074074074074083,5.132799999713896],[0.11052083333333323,0.12074074074074083,5.143199999809262],[0.08541666666666667,0.11333333333333341,5.159899999618531],[0.052083333333333336,0.12314814814814815,5.17739999961853],[0.052083333333333336,0.12314814814814815,5.193199999809266],[-0.0026041666666666665,0.12518518518518523,5.209799999713894],[-0.013854166666666619,0.12296296296296293,5.228499999999997],[-0.007500000000000047,0.10833333333333334,5.245199999809266],[-0.007500000000000047,0.10833333333333334,5.259899999618533],[-0.003125,0.13222222222222219,5.276499999999999],[-0.003125,0.13222222222222219,5.293199999809268],[0.017499999999999953,0.11444444444444436,5.309799999713896],[0.017499999999999953,0.11444444444444436,5.32659999990463],[0.02166666666666662,0.1337037037037038,5.343199999809265],[0.02166666666666662,0.1337037037037038,5.3597999997139],[0.016250000000000025,0.13351851851851856,5.3765],[0.020729166666666642,0.10685185185185193,5.399099999904635],[0.020729166666666642,0.10685185185185193,5.409799999713897],[0.03197916666666671,0.09962962962962954,5.4265999999046315],[0.03197916666666671,0.09962962962962954,5.443199999809266],[0.03166666666666664,0.10500000000000008,5.459799999713894],[0.03177083333333333,0.08703703703703704,5.477599999904633],[0.01875,0.06481481481481481,5.4983999996185275],[0.01875,0.06481481481481481,5.510099999904632],[0.02020833333333331,0.044444444444444446,5.527399999618531],[0.04645833333333336,0.03425925925925926,5.552999999999997],[0.04645833333333336,0.03425925925925926,5.561299999713896],[0.03322916666666664,0.04129629629629621,5.576500000000003],[0.02052083333333338,0.07518518518518523,5.593199999809265],[0.018333333333333358,0.09370370370370375,5.6097999997139],[-0.02385416666666664,0.12611111111111115,5.626399999618528]]","[0.00029999971389571556,0.05489999961852732,0.06259999990463427,0.07669999980926434,0.09339999961852641,0.1135999999046291,0.13039999961853255,0.1432999997138964,0.1598999996185313,0.1765999999046315,0.19400000000000261,0.20979999971389418,0.22659999990462865,0.24319999980926355,0.2598999996185327,0.27649999999999864,0.2931999998092678,0.3098999996185299,0.3265000000000029,0.34319999980926497,0.35999999999999943,0.37650000000000006,0.3931999998092621,0.4099999999999966,0.42889999961852965,0.4440000000000026,0.45989999961852845,0.4765000000000015,0.4937999997139002,0.5097999997138984,0.5275999999046306,0.5461999998092679,0.5630999999046296,0.5772999997138939,0.5940000000000012,0.6100999999046337,0.6265000000000001,0.643099999904635,0.659799999713897,0.6764999999999972,0.6930999999046321,0.7098999996185285,0.7267999997138972,0.7433999996185321,0.7598999996185327,0.7765999999046329,0.7931999998092678,0.8098999996185299,0.8265000000000029,0.843199999809265,0.859899999618527,0.8765000000000001,0.893099999904635,0.9099999999999966,0.9265999999046315,0.9442999997138983,0.9625999999046329,0.9789999999999992,0.9958999996185298,1.0097999997138984,1.0264999999999986,1.0435000000000016,1.066599999904632,1.07659999990463,1.093199999809265,1.109899999618527,1.1265999999046343,1.1431999998092621,1.159799999713897,1.1764999999999972,1.1931999998092664,1.2098999996185285,1.2265000000000015,1.2431999998092635,1.2598999996185327,1.283699999809265,1.2931999998092678,1.3097999997138956,1.326500000000003,1.3432999997138992,1.3597999997138999,1.3765999999046343,1.3931999998092621,1.409799999713897,1.4264999999999972,1.4432999997139007,1.4628999996185286,1.4771999998092653,1.4931999998092635,1.5097999997138984,1.5266999998092672,1.5433999996185293,1.5600999999046294,1.576500000000003,1.5962999997138994,1.6105000000000018,1.6265,1.643099999904635,1.6599999999999966,1.6764999999999972,1.6935999999046345,1.7097999997138942,1.7267999997138972,1.7432999997138978,1.7598999996185327,1.7800999999046354,1.7933999996185293,1.8097999997138956,1.8290000000000006,1.8432999997138992,1.8597999997138999,1.8765,1.8931999998092621,1.9098999996185313,1.9272999997138953,1.9470000000000027,1.9636999998092648,1.979299999713895,1.9956999998092613,2.009999999999998,2.0264999999999986,2.0459999999999994,2.0652999997139005,2.0808999996185307,2.0936999998092674,2.1097999997139,2.12689999961853,2.1432999997138964,2.1598999996185313,2.176499999999997,2.1932999997139007,2.209799999713894,2.2265000000000015,2.2431999998092635,2.2597999997138984,2.2764999999999986,2.293199999809268,2.3097999997138956,2.32659999990463,2.343199999809265,2.3599999999999994,2.3765,2.3936999998092645,2.409799999713897,2.426499999999997,2.4431999998092664,2.4608999996185332,2.4765000000000015,2.493299999713898,2.5097999997138984,2.5264999999999986,2.5430999999046335,2.5597999997138956,2.576500000000003,2.5937999997138945,2.609899999618527,2.6265,2.643099999904635,2.659799999713897,2.6765999999046315,2.6931999998092664,2.7098999996185285,2.7265000000000015,2.746000000000002,2.7598999996185327,2.7764999999999986,2.7956999998092655,2.8097999997138956,2.826500000000003,2.843199999809265,2.859899999618527,2.8765,2.8933999996185307,2.909799999713897,2.926499999999997,2.9461999998092665,2.9620999999046305,2.976399999618529,2.9937999997139,3.0123999996185304,3.026699999809267,3.043599999904629,3.0625,3.0766999998092643,3.0933999996185264,3.1136999998092634,3.131999999999998,3.1436999998092645,3.163899999618529,3.178699999809268,3.1942999997138983,3.2221999998092627,3.228899999618527,3.243399999618532,3.259999999999998,3.2815999999046355,3.2990999999046338,3.3101999998092637,3.3336999998092622,3.3433999996185264,3.3600999999046337,3.385399999618528,3.3933999996185307,3.4099999999999966,3.4357999997139004,3.4435000000000002,3.460099999904635,3.4812999997138974,3.49589999961853,3.5097999997138984,3.531799999713897,3.543199999809268,3.5600999999046294,3.57659999990463,3.5970000000000013,3.616199999809268,3.6266999998092615,3.643199999809262,3.6606999998092675,3.678699999809268,3.699399999618528,3.7098999996185285,3.7269999999999968,3.7431999998092635,3.759999999999998,3.781399999618529,3.793199999809268,3.80989999961853,3.8290000000000006,3.843199999809265,3.859899999618527,3.8766999998092615,3.895699999809267,3.9121999998092676,3.9299999999999997,3.948199999809262,3.9643999996185286,3.980799999713895,3.998099999904632,4.013399999618528,4.029699999809267,4.046999999999997,4.06439999961853,4.080699999809262,4.100399999618531,4.113699999809263,4.126799999713896,4.144199999809267,4.165999999999997,4.176699999809266,4.193699999809262,4.211799999713897,4.239799999713895,4.2468999996185275,4.260099999904632,4.277699999809265,4.300799999713895,4.310000000000002,4.326799999713899,4.345099999904633,4.366199999809268,4.3766999998092615,4.393399999618531,4.413099999904631,4.429899999618527,4.447399999618533,4.464599999904635,4.479899999618532,4.4967999997139,4.513299999713894,4.526499999999999,4.543199999809268,4.560199999809264,4.5763999996185305,4.593099999904631,4.610500000000002,4.6265,4.643199999809262,4.662500000000001,4.6797999997139,4.693199999809266,4.7098999996185285,4.727699999809268,4.75039999961853,4.7635000000000005,4.776599999904633,4.793199999809268,4.80989999961853,4.82809999990463,4.8455999999046355,4.863199999809268,4.8788999996185325,4.893199999809262,4.909899999618531,4.929000000000002,4.948,4.964799999713897,4.981199999809263,4.996599999904632,5.012299999713896,5.032599999904633,5.043199999809268,5.05989999961853,5.076999999999998,5.095099999904633,5.112699999809266,5.132799999713896,5.143199999809262,5.159899999618531,5.17739999961853,5.193199999809266,5.209799999713894,5.228499999999997,5.245199999809266,5.259899999618533,5.276499999999999,5.293199999809268,5.309799999713896,5.32659999990463,5.343199999809265,5.3597999997139,5.3765,5.399099999904635,5.409799999713897,5.4265999999046315,5.443199999809266,5.459799999713894,5.477599999904633,5.4983999996185275,5.510099999904632,5.527399999618531,5.552999999999997,5.561299999713896,5.576500000000003,5.593199999809265,5.6097999997139,5.626399999618528]","[1732006851507,1732006851553,1732006851560,1732006851574,1732006851591,1732006851611,1732006851628,1732006851641,1732006851657,1732006851674,1732006851692,1732006851707,1732006851724,1732006851741,1732006851757,1732006851774,1732006851791,1732006851807,1732006851824,1732006851841,1732006851858,1732006851874,1732006851891,1732006851908,1732006851926,1732006851942,1732006851957,1732006851974,1732006851991,1732006852007,1732006852025,1732006852044,1732006852061,1732006852075,1732006852092,1732006852108,1732006852124,1732006852141,1732006852157,1732006852174,1732006852191,1732006852207,1732006852224,1732006852241,1732006852257,1732006852274,1732006852291,1732006852307,1732006852324,1732006852341,1732006852357,1732006852374,1732006852391,1732006852407,1732006852424,1732006852442,1732006852460,1732006852477,1732006852494,1732006852507,1732006852524,1732006852541,1732006852564,1732006852574,1732006852591,1732006852607,1732006852624,1732006852641,1732006852657,1732006852674,1732006852691,1732006852707,1732006852724,1732006852741,1732006852757,1732006852781,1732006852791,1732006852807,1732006852824,1732006852841,1732006852857,1732006852874,1732006852891,1732006852907,1732006852924,1732006852941,1732006852961,1732006852975,1732006852991,1732006853007,1732006853024,1732006853041,1732006853058,1732006853074,1732006853094,1732006853108,1732006853124,1732006853141,1732006853158,1732006853174,1732006853191,1732006853207,1732006853224,1732006853241,1732006853258,1732006853278,1732006853291,1732006853307,1732006853327,1732006853341,1732006853357,1732006853374,1732006853391,1732006853407,1732006853425,1732006853445,1732006853461,1732006853477,1732006853493,1732006853507,1732006853524,1732006853544,1732006853563,1732006853578,1732006853591,1732006853607,1732006853624,1732006853641,1732006853658,1732006853674,1732006853691,1732006853707,1732006853724,1732006853741,1732006853757,1732006853774,1732006853791,1732006853807,1732006853824,1732006853841,1732006853858,1732006853874,1732006853891,1732006853907,1732006853924,1732006853941,1732006853958,1732006853974,1732006853991,1732006854007,1732006854024,1732006854041,1732006854057,1732006854074,1732006854091,1732006854107,1732006854124,1732006854141,1732006854157,1732006854174,1732006854191,1732006854207,1732006854224,1732006854244,1732006854258,1732006854274,1732006854293,1732006854307,1732006854324,1732006854341,1732006854357,1732006854374,1732006854391,1732006854407,1732006854424,1732006854444,1732006854460,1732006854474,1732006854491,1732006854510,1732006854524,1732006854541,1732006854560,1732006854574,1732006854591,1732006854611,1732006854630,1732006854641,1732006854661,1732006854676,1732006854692,1732006854720,1732006854726,1732006854741,1732006854758,1732006854779,1732006854797,1732006854808,1732006854831,1732006854841,1732006854858,1732006854883,1732006854891,1732006854908,1732006854933,1732006854941,1732006854958,1732006854979,1732006854993,1732006855007,1732006855029,1732006855041,1732006855058,1732006855074,1732006855095,1732006855114,1732006855124,1732006855141,1732006855158,1732006855176,1732006855197,1732006855207,1732006855225,1732006855241,1732006855258,1732006855279,1732006855291,1732006855307,1732006855327,1732006855341,1732006855357,1732006855374,1732006855393,1732006855410,1732006855428,1732006855446,1732006855462,1732006855478,1732006855496,1732006855511,1732006855527,1732006855545,1732006855562,1732006855578,1732006855598,1732006855611,1732006855624,1732006855642,1732006855664,1732006855674,1732006855691,1732006855709,1732006855737,1732006855744,1732006855758,1732006855775,1732006855798,1732006855808,1732006855824,1732006855843,1732006855864,1732006855874,1732006855891,1732006855911,1732006855928,1732006855945,1732006855962,1732006855977,1732006855994,1732006856011,1732006856024,1732006856041,1732006856058,1732006856074,1732006856091,1732006856108,1732006856124,1732006856141,1732006856160,1732006856177,1732006856191,1732006856207,1732006856225,1732006856248,1732006856261,1732006856274,1732006856291,1732006856307,1732006856326,1732006856343,1732006856361,1732006856376,1732006856391,1732006856407,1732006856427,1732006856446,1732006856462,1732006856479,1732006856494,1732006856510,1732006856530,1732006856541,1732006856557,1732006856574,1732006856593,1732006856610,1732006856630,1732006856641,1732006856657,1732006856675,1732006856691,1732006856707,1732006856726,1732006856743,1732006856757,1732006856774,1732006856791,1732006856807,1732006856824,1732006856841,1732006856857,1732006856874,1732006856897,1732006856907,1732006856924,1732006856941,1732006856957,1732006856975,1732006856996,1732006857008,1732006857025,1732006857051,1732006857059,1732006857074,1732006857091,1732006857107,1732006857124]","[[994.6,143.7],[994.6,143.7],[993.7,143.8],[993.7,143.8],[991.9,149.3],[981.8,168.3],[973,180.9],[973,180.9],[957.1,194.4],[948.1,203.5],[937.4,214.4],[932.1,225.8],[926.8,237.2],[934,263.9],[931.3,290.8],[943.7,310.7],[957.6,317.9],[950.3,352.6],[949.2,388.8],[942.9,423.1],[945.9,432],[951.3,439.8],[965.2,467.3],[962.8,480.7],[962.9,499.3],[955.5,522.3],[948.1,545.3],[949,550.4],[949.9,555.5],[942.4,556],[925.6,581.9],[914,578.5],[893.9,555.4],[876,519.6],[855.4,485.6],[841.3,460.7],[827.2,435.8],[843.4,404.9],[859.7,383.7],[896.7,364],[946.9,358.2],[971.2,399.9],[971.2,399.9],[1012.5,440.8],[1012.5,440.8],[1005.5,446.7],[1010.1,474.8],[1008.2,493.8],[1003.9,527.1],[982.2,544.9],[960.4,553],[943.2,568.4],[912.8,569.9],[899.7,550.6],[869.6,532.1],[892.5,566.8],[904,572.3],[898.9,567.6],[896.2,548.6],[897.7,545.8],[899.2,543],[884.2,551.3],[869.2,559.6],[869.2,559.6],[865.6,562.9],[865.6,562.9],[853.6,569.8],[853.6,569.8],[829.8,558.2],[829.8,558.2],[803.9,570.5],[803.9,570.5],[795.7,582.8],[795.7,582.8],[798.1,591.6],[798.3,575.2],[798.3,575.2],[798.5,558.8],[798.5,558.8],[800,555.5],[800,555.5],[819.1,548.2],[819.1,548.2],[817.4,547.7],[817.4,547.7],[834.1,538.1],[855.7,533.1],[883.7,489.1],[887.7,474.6],[896.4,436.7],[903.1,419.7],[918.6,411.4],[941.1,372.3],[946.7,346.6],[962.1,317.7],[972.2,336.2],[979.6,322],[982.9,325.2],[1001.5,317.3],[994.8,336.3],[988.1,355.3],[993.4,383.7],[981.3,415.7],[981.3,415.7],[975.9,454.6],[983.2,497.2],[983.2,497.2],[982.2,495.6],[979,541.7],[979,541.7],[978.5,564.7],[1001.2,590],[1018.7,606.1],[1071.5,611.5],[1085.9,560.6],[1113.2,544.2],[1153.8,516.7],[1177.4,498.7],[1188.3,473.9],[1211.4,459],[1238.2,482.4],[1212.1,486.6],[1214.3,498.1],[1214.3,498.1],[1181.2,520.3],[1146.7,572.8],[1131.2,602.5],[1093.7,613],[1053.5,619.2],[1038.8,635.6],[1008.7,638.4],[973.2,627.8],[985,618.2],[968.1,613.6],[968.1,613.6],[964.2,612.7],[976.5,628.3],[969.5,634.7],[960.3,653],[972.1,649],[955.4,671.7],[947.9,679.4],[939.5,687.8],[927.9,701.5],[933,717.9],[925.1,730.6],[922.3,728.2],[926,723.1],[933.2,720.1],[912.7,745.6],[911.5,743.3],[911.8,752],[911.8,755.9],[919.7,744.5],[911.8,750.4],[910.1,739.4],[883.4,750.6],[868.6,748.2],[853.8,745.8],[867.1,725.5],[874.2,712.3],[883.9,695.4],[893.6,678.5],[891.6,674],[891.6,674],[884.6,652.8],[878.9,642.7],[885.4,639.2],[868.6,655],[868.5,652.9],[847.8,672.8],[850,667.8],[847,667.6],[828.6,663.3],[807.2,664.3],[813.8,658.7],[812.9,658.9],[830.9,634.2],[856.4,606.8],[857.8,603.6],[873.7,594.8],[870.4,609.9],[867.1,625],[878,640.4],[888.9,655.8],[898.8,672.6],[922.2,693.8],[922.2,693.8],[937.2,717.6],[963.1,726.1],[988.6,715.8],[1008.8,695.9],[1008.8,695.9],[1017.4,682.7],[1017.4,682.7],[1025.4,679.5],[1042.4,659.9],[1042.4,659.9],[1055.9,659.6],[1055.9,659.6],[1064.2,646.8],[1052.6,651.5],[1052.6,651.5],[1036.9,639.4],[1010.3,642.6],[1010.3,642.6],[1012.9,679.1],[994.1,695.7],[996.8,692.2],[1000.1,678.7],[1000.1,678.7],[998.9,674.3],[985.5,674.3],[976.3,691.4],[980.2,658.3],[988.2,642],[988.2,642],[1008.6,615.4],[995,581.4],[1002.8,567.3],[1003.2,560.5],[1003.2,560.5],[1013.7,542.4],[1013.7,542.4],[997.5,550.9],[1007.1,528.4],[1007.1,528.4],[1010.4,500.1],[1009.6,517.7],[1009.6,517.7],[1008.7,524.1],[994.3,539.4],[992.5,541.3],[983.5,544.6],[974.5,547.9],[957.8,552.3],[1035.3,478],[1102.7,411],[1182,344.9],[1258.7,261.2],[1292,243.1],[1326.4,226.4],[1362.9,242.4],[1406.6,257],[1450.3,271.6],[1450.3,271.6],[1455.4,288],[1394.1,362.3],[1345.6,427],[1345.6,427],[1272.5,480.3],[1186.9,536.2],[1154.1,534.8],[1154.1,534.8],[1133.6,529.9],[1096.7,506.5],[1057.3,478.5],[1057.3,478.5],[1009.3,463],[1009.8,469.4],[1015.7,445.2],[1015.7,445.2],[995.5,454.6],[983.2,482.4],[994,494.7],[1000,505.6],[998,521.5],[1010.3,523.2],[1025.1,529.5],[1042.3,527.3],[1042.3,527.3],[1047.2,511.6],[1047.7,530.8],[1053.1,532],[1073.6,515.2],[1081.5,519.4],[1081.5,519.4],[1083.4,529.1],[1093.6,543],[1082,560.8],[1082,560.8],[1085,566.6],[1088.5,564.5],[1096.1,565],[1096.1,565],[1087.8,583.7],[1087.8,583.7],[1112.4,576.5],[1113.3,598.1],[1116.2,611.6],[1120.3,626.2],[1119.6,617],[1119.6,617],[1140.7,603.9],[1141.7,612.9],[1150.2,618.3],[1149.9,627.8],[1181.9,613.1],[1196.2,619.9],[1194.8,612.6],[1179.1,611.2],[1179.1,611.2],[1169.6,588.5],[1136.7,606.4],[1113.5,600.1],[1094.9,602.5],[1066.1,605.2],[1066.1,605.2],[1042,601.2],[1010,606.5],[1010,606.5],[957.5,607.6],[946.7,606.4],[952.8,598.5],[952.8,598.5],[957,611.4],[957,611.4],[976.8,601.8],[976.8,601.8],[980.8,612.2],[980.8,612.2],[975.6,612.1],[979.9,597.7],[979.9,597.7],[990.7,593.8],[990.7,593.8],[990.4,596.7],[990.5,587],[978,575],[978,575],[979.4,564],[1004.6,558.5],[1004.6,558.5],[991.9,562.3],[979.7,580.6],[977.6,590.6],[937.1,608.1]]","[-0.056692,0.170076]","[0.056692,0.170076]","[0.170076,0.170076]","[-0.170076,-0.056692]","[-0.170076,-0.170076]","[-0.170076,0.056692]","[-0.056692,-0.056692]","[0.056692,-0.056692]","[0.170076,-0.056692]","[-0.056692,-0.170076]","[0.056692,-0.170076]","[0.170076,-0.170076]","[-0.056692,0.056692]","[0.056692,0.056692]","[0.170076,0.056692]",0,0,0,0,1,1,Smartphone,20,20,7,2,70,4,2,70,4
