inst1_resp.keys,inst1_resp.rt,calibrationMouse.x,calibrationMouse.y,calibrationMouse.leftButton,calibrationMouse.midButton,calibrationMouse.rightButton,calibrationClick.x,calibrationClick.y,calibrationClick.leftButton,calibrationClick.midButton,calibrationClick.rightButton,trialsc.thisRepN,trialsc.thisTrialN,trialsc.thisN,trialsc.thisIndex,trialsc.ran,calibration_x,calibration_y,participant,session,date,expName,psychopyVersion,OS,frameRate,calibrationClick.clicked_name,ScreenRes_pixels,Camera_pixels,mouse_2.x,mouse_2.y,mouse_2.leftButton,mouse_2.midButton,mouse_2.rightButton,mouse_2.time,mouse_2.clicked_name,mouse.x,mouse.y,mouse.leftButton,mouse.midButton,mouse.rightButton,mouse.time,mouse.clicked_name,Choice,Trial,TrialDuration,MOUSE_GAZE,ET_GAZE,ET_GAZE_x_T,time,unixTime,ET_GAZE_NF,Loc_Bus_label,Loc_Metro_label,Loc_RH_label,Loc_Cost_label,Loc_Travel_label,Loc_Comfort_label,Loc_Bus_cost,Loc_Metro_cost,Loc_RH_cost,Loc_Bus_travel,Loc_Metro_travel,Loc_RH_travel,Loc_Bus_comfort,Loc_Metro_comfort,Loc_RH_comfort,trials.thisRepN,trials.thisTrialN,trials.thisN,trials.thisIndex,trials.ran,Block,Device,RH_cost,RH_travel_time,RH_Comfort,metro_cost,metro_travel_time,metro_Comfort,Bus_cost,Bus_travel_time,Bus_Comfort
space,2.5954,-0.488541667,-0.359259259,1,0,0,-0.011458333,0.666666667,1,0,0,0,0,0,13,1,0,0.67,47,001,2024-11-20_14h31.27.991,Attention_exp_legacy,2023.1.0,Win32,59.88023952,,,,,,,,,,,,,,,,,,,,,,,,,,,,,,,,,,,,,,,,,,,,,,,,,,,,,,,,,
,,,,,,,-0.685416667,-0.337037037,1,0,0,0,1,1,1,1,-0.67,-0.33,47,001,2024-11-20_14h31.27.991,Attention_exp_legacy,2023.1.0,Win32,59.88023952,,,,,,,,,,,,,,,,,,,,,,,,,,,,,,,,,,,,,,,,,,,,,,,,,,,,,,,,,
,,,,,,,0.010416667,-0.316666667,1,0,0,0,2,2,10,1,0,-0.33,47,001,2024-11-20_14h31.27.991,Attention_exp_legacy,2023.1.0,Win32,59.88023952,,,,,,,,,,,,,,,,,,,,,,,,,,,,,,,,,,,,,,,,,,,,,,,,,,,,,,,,,
,,,,,,,-0.3625,-0.674074074,1,0,0,0,3,3,4,1,-0.33,-0.67,47,001,2024-11-20_14h31.27.991,Attention_exp_legacy,2023.1.0,Win32,59.88023952,,,,,,,,,,,,,,,,,,,,,,,,,,,,,,,,,,,,,,,,,,,,,,,,,,,,,,,,,
,,,,,,,0.335416667,-0.690740741,1,0,0,0,4,4,14,1,0.33,-0.67,47,001,2024-11-20_14h31.27.991,Attention_exp_legacy,2023.1.0,Win32,59.88023952,,,,,,,,,,,,,,,,,,,,,,,,,,,,,,,,,,,,,,,,,,,,,,,,,,,,,,,,,
,,,,,,,-0.683333333,0.348148148,1,0,0,0,5,5,3,1,-0.67,0.33,47,001,2024-11-20_14h31.27.991,Attention_exp_legacy,2023.1.0,Win32,59.88023952,,,,,,,,,,,,,,,,,,,,,,,,,,,,,,,,,,,,,,,,,,,,,,,,,,,,,,,,,
,,,,,,,-0.660416667,-0.711111111,1,0,0,0,6,6,0,1,-0.67,-0.67,47,001,2024-11-20_14h31.27.991,Attention_exp_legacy,2023.1.0,Win32,59.88023952,,,,,,,,,,,,,,,,,,,,,,,,,,,,,,,,,,,,,,,,,,,,,,,,,,,,,,,,,
,,,,,,,0.344791667,0.664814815,1,0,0,0,7,7,18,1,0.33,0.67,47,001,2024-11-20_14h31.27.991,Attention_exp_legacy,2023.1.0,Win32,59.88023952,,,,,,,,,,,,,,,,,,,,,,,,,,,,,,,,,,,,,,,,,,,,,,,,,,,,,,,,,
,,,,,,,-0.345833333,0.055555556,1,0,0,0,8,8,6,1,-0.33,0,47,001,2024-11-20_14h31.27.991,Attention_exp_legacy,2023.1.0,Win32,59.88023952,,,,,,,,,,,,,,,,,,,,,,,,,,,,,,,,,,,,,,,,,,,,,,,,,,,,,,,,,
,,,,,,,-0.304166667,0.740740741,1,0,0,0,9,9,8,1,-0.33,0.67,47,001,2024-11-20_14h31.27.991,Attention_exp_legacy,2023.1.0,Win32,59.88023952,,,,,,,,,,,,,,,,,,,,,,,,,,,,,,,,,,,,,,,,,,,,,,,,,,,,,,,,,
,,,,,,,0.315625,-0.022222222,1,0,0,0,10,10,16,1,0.33,0,47,001,2024-11-20_14h31.27.991,Attention_exp_legacy,2023.1.0,Win32,59.88023952,,,,,,,,,,,,,,,,,,,,,,,,,,,,,,,,,,,,,,,,,,,,,,,,,,,,,,,,,
,,,,,,,0.327083333,0.322222222,1,0,0,0,11,11,17,1,0.33,0.33,47,001,2024-11-20_14h31.27.991,Attention_exp_legacy,2023.1.0,Win32,59.88023952,calibration_square,,,,,,,,,,,,,,,,,,,,,,,,,,,,,,,,,,,,,,,,,,,,,,,,,,,,,,,,
,,,,,,,0.334375,-0.35,1,0,0,0,12,12,15,1,0.33,-0.33,47,001,2024-11-20_14h31.27.991,Attention_exp_legacy,2023.1.0,Win32,59.88023952,,,,,,,,,,,,,,,,,,,,,,,,,,,,,,,,,,,,,,,,,,,,,,,,,,,,,,,,,
,,,,,,,-0.617708333,-0.085185185,1,0,0,0,13,13,2,1,-0.67,0,47,001,2024-11-20_14h31.27.991,Attention_exp_legacy,2023.1.0,Win32,59.88023952,,,,,,,,,,,,,,,,,,,,,,,,,,,,,,,,,,,,,,,,,,,,,,,,,,,,,,,,,
,,,,,,,0.025,-0.681481481,1,0,0,0,14,14,9,1,0,-0.67,47,001,2024-11-20_14h31.27.991,Attention_exp_legacy,2023.1.0,Win32,59.88023952,,,,,,,,,,,,,,,,,,,,,,,,,,,,,,,,,,,,,,,,,,,,,,,,,,,,,,,,,
,,,,,,,-0.347916667,0.35,1,0,0,0,15,15,7,1,-0.33,0.33,47,001,2024-11-20_14h31.27.991,Attention_exp_legacy,2023.1.0,Win32,59.88023952,,,,,,,,,,,,,,,,,,,,,,,,,,,,,,,,,,,,,,,,,,,,,,,,,,,,,,,,,
,,,,,,,0.661458333,-0.657407407,1,0,0,0,16,16,20,1,0.67,-0.67,47,001,2024-11-20_14h31.27.991,Attention_exp_legacy,2023.1.0,Win32,59.88023952,,,,,,,,,,,,,,,,,,,,,,,,,,,,,,,,,,,,,,,,,,,,,,,,,,,,,,,,,
,,,,,,,-0.327083333,-0.314814815,1,0,0,0,17,17,5,1,-0.33,-0.33,47,001,2024-11-20_14h31.27.991,Attention_exp_legacy,2023.1.0,Win32,59.88023952,,,,,,,,,,,,,,,,,,,,,,,,,,,,,,,,,,,,,,,,,,,,,,,,,,,,,,,,,
,,,,,,,0.026041667,0.005555556,1,0,0,0,18,18,11,1,0,0,47,001,2024-11-20_14h31.27.991,Attention_exp_legacy,2023.1.0,Win32,59.88023952,,,,,,,,,,,,,,,,,,,,,,,,,,,,,,,,,,,,,,,,,,,,,,,,,,,,,,,,,
,,,,,,,0.007291667,0.346296296,1,0,0,0,19,19,12,1,0,0.33,47,001,2024-11-20_14h31.27.991,Attention_exp_legacy,2023.1.0,Win32,59.88023952,,,,,,,,,,,,,,,,,,,,,,,,,,,,,,,,,,,,,,,,,,,,,,,,,,,,,,,,,
,,,,,,,0.704166667,0.653703704,1,0,0,0,20,20,19,1,0.67,0.67,47,001,2024-11-20_14h31.27.991,Attention_exp_legacy,2023.1.0,Win32,59.88023952,,,,,,,,,,,,,,,,,,,,,,,,,,,,,,,,,,,,,,,,,,,,,,,,,,,,,,,,,
,,,,,,,,,,,,,,,,,,,47,001,2024-11-20_14h31.27.991,Attention_exp_legacy,2023.1.0,Win32,59.88023952,,"[1920,1080]","[640,480]",[0.04375],[-0.4759259259259259],[1],[0],[0],[1.8859000000953685],"[""StartButton""]",[0.18541666666666667],[0.17037037037037037],[1],[0],[0],[11.168],"[""RH_label""]",RH_label,1,12.194,"[[0.41875,-0.06481481481481481],[0.41875,-0.06481481481481481],[0.41875,-0.06481481481481481],[0.41875,-0.06481481481481481],[0.41875,-0.06481481481481481],[0.41875,-0.06481481481481481],[0.41875,-0.06481481481481481],[0.41875,-0.06481481481481481],[0.41875,-0.06481481481481481],[0.41875,-0.06481481481481481],[0.41875,-0.06481481481481481],[0.41875,-0.06481481481481481],[0.41875,-0.06481481481481481],[0.41875,-0.06481481481481481],[0.41875,-0.06481481481481481],[0.41875,-0.06481481481481481],[0.41875,-0.06481481481481481],[0.41875,-0.06481481481481481],[0.41875,-0.06481481481481481],[0.41875,-0.06481481481481481],[0.41875,-0.06481481481481481],[0.41875,-0.06481481481481481],[0.41875,-0.06481481481481481],[0.41875,-0.06481481481481481],[0.41875,-0.06481481481481481],[0.41875,-0.06481481481481481],[0.41875,-0.06481481481481481],[0.41875,-0.06481481481481481],[0.41875,-0.06481481481481481],[0.41875,-0.06481481481481481],[0.41875,-0.06481481481481481],[0.41875,-0.06481481481481481],[0.41875,-0.06481481481481481],[0.41875,-0.06481481481481481],[0.41875,-0.06111111111111111],[0.41875,-0.05740740740740741],[0.41875,-0.05555555555555555],[0.41875,-0.05555555555555555],[0.41875,-0.05555555555555555],[0.41875,-0.05555555555555555],[0.41875,-0.05555555555555555],[0.41875,-0.05555555555555555],[0.41875,-0.05555555555555555],[0.41875,-0.05555555555555555],[0.41875,-0.05555555555555555],[0.41875,-0.05555555555555555],[0.41875,-0.05555555555555555],[0.41875,-0.05555555555555555],[0.41875,-0.05555555555555555],[0.41875,-0.05555555555555555],[0.41875,-0.05555555555555555],[0.41875,-0.05555555555555555],[0.41875,-0.05555555555555555],[0.41875,-0.05555555555555555],[0.41875,-0.05555555555555555],[0.41875,-0.05555555555555555],[0.41875,-0.05555555555555555],[0.41875,-0.05555555555555555],[0.41875,-0.05555555555555555],[0.41875,-0.05555555555555555],[0.41875,-0.05555555555555555],[0.41875,-0.05555555555555555],[0.41875,-0.05555555555555555],[0.41875,-0.05555555555555555],[0.41875,-0.05555555555555555],[0.41875,-0.05555555555555555],[0.41875,-0.05555555555555555],[0.41875,-0.05555555555555555],[0.41875,-0.05555555555555555],[0.41875,-0.05555555555555555],[0.41875,-0.05555555555555555],[0.41875,-0.05555555555555555],[0.41875,-0.05555555555555555],[0.41875,-0.05555555555555555],[0.41875,-0.05555555555555555],[0.41875,-0.05555555555555555],[0.41875,-0.05555555555555555],[0.41875,-0.05555555555555555],[0.41875,-0.05555555555555555],[0.41875,-0.05555555555555555],[0.41875,-0.05555555555555555],[0.41875,-0.05555555555555555],[0.41875,-0.05555555555555555],[0.41875,-0.05555555555555555],[0.41875,-0.05555555555555555],[0.41875,-0.05555555555555555],[0.41875,-0.05555555555555555],[0.41875,-0.05555555555555555],[0.41875,-0.05555555555555555],[0.41875,-0.05555555555555555],[0.41875,-0.05555555555555555],[0.41875,-0.05555555555555555],[0.41875,-0.05555555555555555],[0.41875,-0.05555555555555555],[0.41875,-0.05555555555555555],[0.41875,-0.05555555555555555],[0.41875,-0.05555555555555555],[0.41875,-0.05555555555555555],[0.41875,-0.05555555555555555],[0.41875,-0.05555555555555555],[0.41875,-0.05555555555555555],[0.41875,-0.05555555555555555],[0.41875,-0.05555555555555555],[0.41875,-0.05555555555555555],[0.41875,-0.05555555555555555],[0.41875,-0.05555555555555555],[0.41875,-0.05555555555555555],[0.41875,-0.05555555555555555],[0.41875,-0.05555555555555555],[0.41875,-0.05555555555555555],[0.41875,-0.05555555555555555],[0.41875,-0.05555555555555555],[0.41875,-0.05555555555555555],[0.41875,-0.05555555555555555],[0.41875,-0.05555555555555555],[0.41875,-0.05555555555555555],[0.41875,-0.05555555555555555],[0.41875,-0.05555555555555555],[0.41875,-0.05555555555555555],[0.41875,-0.05555555555555555],[0.41875,-0.05555555555555555],[0.41875,-0.05555555555555555],[0.41875,-0.05555555555555555],[0.41875,-0.05555555555555555],[0.41875,-0.05555555555555555],[0.41875,-0.05555555555555555],[0.41875,-0.05555555555555555],[0.41875,-0.05555555555555555],[0.41875,-0.05555555555555555],[0.41875,-0.05555555555555555],[0.41875,-0.05555555555555555],[0.41875,-0.05555555555555555],[0.41875,-0.05555555555555555],[0.41875,-0.05555555555555555],[0.41875,-0.05555555555555555],[0.41875,-0.05555555555555555],[0.41875,-0.05555555555555555],[0.41875,-0.05555555555555555],[0.41875,-0.05555555555555555],[0.41875,-0.05555555555555555],[0.41875,-0.05555555555555555],[0.41875,-0.05555555555555555],[0.41875,-0.05555555555555555],[0.41875,-0.05555555555555555],[0.41875,-0.05555555555555555],[0.41875,-0.05555555555555555],[0.41875,-0.05555555555555555],[0.41875,-0.05555555555555555],[0.41875,-0.05555555555555555],[0.41875,-0.05555555555555555],[0.41875,-0.05555555555555555],[0.41875,-0.05555555555555555],[0.41875,-0.05555555555555555],[0.41875,-0.05555555555555555],[0.41875,-0.05555555555555555],[0.41875,-0.05555555555555555],[0.41875,-0.05555555555555555],[0.41875,-0.05555555555555555],[0.41875,-0.05555555555555555],[0.41875,-0.05555555555555555],[0.41875,-0.05555555555555555],[0.41875,-0.05555555555555555],[0.41875,-0.05555555555555555],[0.41875,-0.05555555555555555],[0.41875,-0.05555555555555555],[0.41875,-0.05555555555555555],[0.41875,-0.05555555555555555],[0.41875,-0.05555555555555555],[0.41875,-0.05555555555555555],[0.41875,-0.05555555555555555],[0.41875,-0.05555555555555555],[0.41875,-0.05555555555555555],[0.41875,-0.05555555555555555],[0.41875,-0.05555555555555555],[0.41875,-0.05555555555555555],[0.41875,-0.05555555555555555],[0.41875,-0.05555555555555555],[0.41875,-0.05555555555555555],[0.41875,-0.05555555555555555],[0.41875,-0.05555555555555555],[0.41875,-0.05555555555555555],[0.41875,-0.05555555555555555],[0.41875,-0.05555555555555555],[0.41875,-0.05555555555555555],[0.41875,-0.05555555555555555],[0.41875,-0.05555555555555555],[0.41875,-0.05555555555555555],[0.41875,-0.05555555555555555],[0.41875,-0.05555555555555555],[0.41875,-0.05555555555555555],[0.41875,-0.05555555555555555],[0.41875,-0.05555555555555555],[0.41875,-0.05555555555555555],[0.41875,-0.05555555555555555],[0.41875,-0.05555555555555555],[0.41875,-0.05555555555555555],[0.41875,-0.05555555555555555],[0.41875,-0.05555555555555555],[0.41875,-0.05555555555555555],[0.41875,-0.05555555555555555],[0.41875,-0.05555555555555555],[0.41875,-0.05555555555555555],[0.41875,-0.05555555555555555],[0.41875,-0.05555555555555555],[0.41875,-0.05555555555555555],[0.41875,-0.05555555555555555],[0.41875,-0.05555555555555555],[0.41875,-0.05555555555555555],[0.41875,-0.05555555555555555],[0.41875,-0.05555555555555555],[0.41875,-0.05555555555555555],[0.41875,-0.05555555555555555],[0.41875,-0.05555555555555555],[0.41875,-0.05555555555555555],[0.41875,-0.05555555555555555],[0.41875,-0.05555555555555555],[0.41875,-0.05555555555555555],[0.41875,-0.05555555555555555],[0.41875,-0.05555555555555555],[0.41875,-0.05555555555555555],[0.41875,-0.05555555555555555],[0.41875,-0.05555555555555555],[0.41875,-0.05555555555555555],[0.41875,-0.05555555555555555],[0.41875,-0.05555555555555555],[0.41875,-0.05555555555555555],[0.41875,-0.05555555555555555],[0.41875,-0.05555555555555555],[0.41875,-0.05555555555555555],[0.41875,-0.05555555555555555],[0.41875,-0.05555555555555555],[0.41875,-0.05555555555555555],[0.41875,-0.05555555555555555],[0.41875,-0.05555555555555555],[0.41875,-0.05555555555555555],[0.41875,-0.05555555555555555],[0.41875,-0.05555555555555555],[0.41875,-0.05555555555555555],[0.41875,-0.05555555555555555],[0.41875,-0.05555555555555555],[0.41875,-0.05555555555555555],[0.41875,-0.05555555555555555],[0.41875,-0.05555555555555555],[0.41875,-0.05555555555555555],[0.41875,-0.05555555555555555],[0.41875,-0.05555555555555555],[0.41875,-0.05555555555555555],[0.41875,-0.05555555555555555],[0.41875,-0.05555555555555555],[0.41875,-0.05555555555555555],[0.41875,-0.05555555555555555],[0.41875,-0.05555555555555555],[0.41875,-0.05555555555555555],[0.41875,-0.05555555555555555],[0.41875,-0.05555555555555555],[0.41875,-0.05555555555555555],[0.41875,-0.05555555555555555],[0.41875,-0.05555555555555555],[0.41875,-0.05555555555555555],[0.41875,-0.05555555555555555],[0.41875,-0.05555555555555555],[0.41875,-0.05555555555555555],[0.41875,-0.05555555555555555],[0.41875,-0.05555555555555555],[0.41875,-0.05555555555555555],[0.41875,-0.05555555555555555],[0.41875,-0.05555555555555555],[0.41875,-0.05555555555555555],[0.41875,-0.05555555555555555],[0.41875,-0.05555555555555555],[0.41875,-0.05555555555555555],[0.41875,-0.05555555555555555],[0.41875,-0.05555555555555555],[0.41875,-0.05555555555555555],[0.41875,-0.05555555555555555],[0.41875,-0.05555555555555555],[0.41875,-0.05555555555555555],[0.41875,-0.05555555555555555],[0.41875,-0.05555555555555555],[0.41875,-0.05555555555555555],[0.41875,-0.05555555555555555],[0.41875,-0.05555555555555555],[0.41875,-0.05555555555555555],[0.41875,-0.05555555555555555],[0.41875,-0.05555555555555555],[0.41875,-0.05555555555555555],[0.41875,-0.05555555555555555],[0.41875,-0.05555555555555555],[0.41875,-0.05555555555555555],[0.41875,-0.05555555555555555],[0.41875,-0.05555555555555555],[0.41875,-0.05555555555555555],[0.41875,-0.05555555555555555],[0.41875,-0.05555555555555555],[0.41875,-0.05555555555555555],[0.41875,-0.05555555555555555],[0.41875,-0.05555555555555555],[0.41875,-0.05555555555555555],[0.41875,-0.05555555555555555],[0.41875,-0.05555555555555555],[0.41875,-0.05555555555555555],[0.41875,-0.05555555555555555],[0.41875,-0.05555555555555555],[0.41875,-0.05555555555555555],[0.41875,-0.05555555555555555],[0.41875,-0.05555555555555555],[0.41875,-0.05555555555555555],[0.41875,-0.05555555555555555],[0.41875,-0.05555555555555555],[0.41875,-0.05555555555555555],[0.41875,-0.05555555555555555],[0.41875,-0.05555555555555555],[0.41875,-0.05555555555555555],[0.41875,-0.05555555555555555],[0.41875,-0.05555555555555555],[0.41875,-0.05555555555555555],[0.41875,-0.05555555555555555],[0.41875,-0.05555555555555555],[0.41875,-0.05555555555555555],[0.41875,-0.05555555555555555],[0.41875,-0.05555555555555555],[0.41875,-0.05555555555555555],[0.41875,-0.05555555555555555],[0.41875,-0.05555555555555555],[0.41875,-0.05555555555555555],[0.41875,-0.05555555555555555],[0.41875,-0.05555555555555555],[0.41875,-0.05555555555555555],[0.41875,-0.05555555555555555],[0.41875,-0.05555555555555555],[0.41875,-0.05555555555555555],[0.41875,-0.05555555555555555],[0.41875,-0.05555555555555555],[0.41875,-0.05555555555555555],[0.41875,-0.05555555555555555],[0.41875,-0.05555555555555555],[0.41875,-0.05555555555555555],[0.41875,-0.05555555555555555],[0.41875,-0.05555555555555555],[0.41875,-0.05555555555555555],[0.41875,-0.05555555555555555],[0.41875,-0.05555555555555555],[0.41875,-0.05555555555555555],[0.41875,-0.05555555555555555],[0.41875,-0.05555555555555555],[0.41875,-0.05555555555555555],[0.41875,-0.05555555555555555],[0.41875,-0.05555555555555555],[0.41875,-0.05555555555555555],[0.41875,-0.05555555555555555],[0.41875,-0.05555555555555555],[0.41875,-0.05555555555555555],[0.41875,-0.05555555555555555],[0.41875,-0.05555555555555555],[0.41875,-0.05555555555555555],[0.41875,-0.05555555555555555],[0.41875,-0.05555555555555555],[0.41875,-0.05555555555555555],[0.41875,-0.05555555555555555],[0.41875,-0.05555555555555555],[0.41875,-0.05555555555555555],[0.41875,-0.05555555555555555],[0.41875,-0.05555555555555555],[0.41875,-0.05555555555555555],[0.41875,-0.05555555555555555],[0.41875,-0.05555555555555555],[0.41875,-0.05555555555555555],[0.41875,-0.05555555555555555],[0.41875,-0.05555555555555555],[0.41875,-0.05555555555555555],[0.41875,-0.05555555555555555],[0.41875,-0.05555555555555555],[0.41875,-0.05555555555555555],[0.41875,-0.05555555555555555],[0.41875,-0.05555555555555555],[0.41875,-0.05555555555555555],[0.41875,-0.05555555555555555],[0.41875,-0.05555555555555555],[0.41875,-0.05555555555555555],[0.41875,-0.05555555555555555],[0.41875,-0.05555555555555555],[0.41875,-0.05555555555555555],[0.41875,-0.05555555555555555],[0.41875,-0.05555555555555555],[0.41875,-0.05555555555555555],[0.41875,-0.05555555555555555],[0.41875,-0.05555555555555555],[0.41875,-0.05555555555555555],[0.41875,-0.05555555555555555],[0.41875,-0.05555555555555555],[0.41875,-0.05555555555555555],[0.41875,-0.05555555555555555],[0.41875,-0.05555555555555555],[0.41875,-0.05555555555555555],[0.41875,-0.05555555555555555],[0.41875,-0.05555555555555555],[0.41875,-0.05555555555555555],[0.41875,-0.05555555555555555],[0.41875,-0.05555555555555555],[0.41875,-0.05555555555555555],[0.41875,-0.05555555555555555],[0.41875,-0.05555555555555555],[0.41875,-0.05555555555555555],[0.41875,-0.05555555555555555],[0.41875,-0.05555555555555555],[0.41875,-0.05555555555555555],[0.41875,-0.05555555555555555],[0.41875,-0.05555555555555555],[0.41875,-0.05555555555555555],[0.41875,-0.05555555555555555],[0.41875,-0.05555555555555555],[0.41875,-0.05555555555555555],[0.41875,-0.05555555555555555],[0.41875,-0.05555555555555555],[0.41875,-0.05555555555555555],[0.41875,-0.05555555555555555],[0.41875,-0.05555555555555555],[0.41875,-0.05555555555555555],[0.41875,-0.05555555555555555],[0.41875,-0.05555555555555555],[0.41875,-0.05555555555555555],[0.41875,-0.05555555555555555],[0.41875,-0.05555555555555555],[0.41875,-0.05555555555555555],[0.41875,-0.05555555555555555],[0.41875,-0.05555555555555555],[0.41875,-0.05555555555555555],[0.41875,-0.05555555555555555],[0.41875,-0.05555555555555555],[0.41875,-0.05555555555555555],[0.41875,-0.05555555555555555],[0.41875,-0.05555555555555555],[0.41875,-0.05555555555555555],[0.41875,-0.05555555555555555],[0.41875,-0.05555555555555555],[0.41875,-0.05555555555555555],[0.41875,-0.05555555555555555],[0.41875,-0.05555555555555555],[0.41875,-0.05555555555555555],[0.41875,-0.05555555555555555],[0.41875,-0.05555555555555555],[0.41875,-0.05555555555555555],[0.41875,-0.05555555555555555],[0.41875,-0.05555555555555555],[0.41875,-0.05555555555555555],[0.41875,-0.05555555555555555],[0.41875,-0.05555555555555555],[0.41875,-0.05555555555555555],[0.41875,-0.05555555555555555],[0.41875,-0.05555555555555555],[0.41875,-0.05555555555555555],[0.41875,-0.05555555555555555],[0.41875,-0.05555555555555555],[0.41875,-0.05555555555555555],[0.41875,-0.05555555555555555],[0.41875,-0.05555555555555555],[0.41875,-0.05555555555555555],[0.41875,-0.05555555555555555],[0.41875,-0.05555555555555555],[0.41875,-0.05555555555555555],[0.41875,-0.05555555555555555],[0.41875,-0.05555555555555555],[0.41875,-0.05555555555555555],[0.41875,-0.05555555555555555],[0.41875,-0.05555555555555555],[0.41875,-0.05555555555555555],[0.41875,-0.05555555555555555],[0.41875,-0.05555555555555555],[0.41875,-0.05555555555555555],[0.41875,-0.05555555555555555],[0.41875,-0.05555555555555555],[0.41875,-0.05555555555555555],[0.41875,-0.05555555555555555],[0.41875,-0.05555555555555555],[0.41875,-0.05555555555555555],[0.41875,-0.05555555555555555],[0.41875,-0.05555555555555555],[0.41875,-0.05555555555555555],[0.41875,-0.05555555555555555],[0.41875,-0.05555555555555555],[0.41875,-0.05555555555555555],[0.41875,-0.05555555555555555],[0.41875,-0.05555555555555555],[0.41875,-0.05555555555555555],[0.41875,-0.05555555555555555],[0.41875,-0.05555555555555555],[0.41875,-0.05555555555555555],[0.41875,-0.05555555555555555],[0.41875,-0.05555555555555555],[0.41875,-0.05555555555555555],[0.41875,-0.05555555555555555],[0.41875,-0.05555555555555555],[0.41875,-0.05555555555555555],[0.41875,-0.05555555555555555],[0.41875,-0.05555555555555555],[0.41875,-0.05555555555555555],[0.41875,-0.05555555555555555],[0.41875,-0.05555555555555555],[0.41875,-0.05555555555555555],[0.41875,-0.05555555555555555],[0.41875,-0.05555555555555555],[0.41875,-0.05555555555555555],[0.41875,-0.05555555555555555],[0.41875,-0.05555555555555555],[0.41875,-0.05555555555555555],[0.41875,-0.05555555555555555],[0.41875,-0.05555555555555555],[0.41875,-0.05555555555555555],[0.41875,-0.05555555555555555],[0.41875,-0.05555555555555555],[0.41875,-0.05555555555555555],[0.41875,-0.05555555555555555],[0.41875,-0.05555555555555555],[0.41875,-0.05555555555555555],[0.41875,-0.05555555555555555],[0.41875,-0.05555555555555555],[0.41875,-0.05555555555555555],[0.41875,-0.05555555555555555],[0.41875,-0.05555555555555555],[0.41875,-0.05555555555555555],[0.41875,-0.05555555555555555],[0.41875,-0.05555555555555555],[0.41875,-0.05555555555555555],[0.41875,-0.05555555555555555],[0.41875,-0.05555555555555555],[0.41875,-0.05555555555555555],[0.41875,-0.05555555555555555],[0.41875,-0.05555555555555555],[0.41875,-0.05555555555555555],[0.41875,-0.05555555555555555],[0.41875,-0.05555555555555555],[0.41875,-0.05555555555555555],[0.41875,-0.05555555555555555],[0.41875,-0.05555555555555555],[0.41875,-0.05555555555555555],[0.41875,-0.05555555555555555],[0.41875,-0.05555555555555555],[0.41875,-0.05555555555555555],[0.41875,-0.05555555555555555],[0.41875,-0.05555555555555555],[0.41875,-0.05555555555555555],[0.41875,-0.05555555555555555],[0.41875,-0.05555555555555555],[0.41875,-0.05555555555555555],[0.41875,-0.05555555555555555],[0.41875,-0.05555555555555555],[0.41875,-0.05555555555555555],[0.41875,-0.05555555555555555],[0.41875,-0.05555555555555555],[0.41875,-0.05555555555555555],[0.41875,-0.05555555555555555],[0.41875,-0.05555555555555555],[0.41875,-0.05555555555555555],[0.41875,-0.05555555555555555],[0.41875,-0.05555555555555555],[0.41875,-0.05555555555555555],[0.41875,-0.05555555555555555],[0.41875,-0.05555555555555555],[0.41875,-0.05555555555555555],[0.41875,-0.05555555555555555],[0.41875,-0.05555555555555555],[0.41875,-0.05555555555555555],[0.41875,-0.05555555555555555],[0.41875,-0.05555555555555555],[0.41875,-0.05555555555555555],[0.41875,-0.05555555555555555],[0.41875,-0.05555555555555555],[0.41875,-0.05555555555555555],[0.41875,-0.05555555555555555],[0.41875,-0.05555555555555555],[0.41875,-0.05555555555555555],[0.41875,-0.05555555555555555],[0.41875,-0.05555555555555555],[0.41875,-0.05555555555555555],[0.41875,-0.05555555555555555],[0.41875,-0.05555555555555555],[0.41875,-0.05555555555555555],[0.41875,-0.05555555555555555],[0.41875,-0.05555555555555555],[0.41875,-0.05555555555555555],[0.41875,-0.05555555555555555],[0.41875,-0.05555555555555555],[0.41875,-0.05555555555555555],[0.41875,-0.05555555555555555],[0.41875,-0.05555555555555555],[0.41875,-0.05555555555555555],[0.41875,-0.05555555555555555],[0.41875,-0.05555555555555555],[0.41875,-0.05555555555555555],[0.41875,-0.05555555555555555],[0.41875,-0.05555555555555555],[0.41875,-0.05555555555555555],[0.41875,-0.05555555555555555],[0.41875,-0.05555555555555555],[0.41875,-0.05555555555555555],[0.41875,-0.05555555555555555],[0.41875,-0.05555555555555555],[0.41875,-0.05555555555555555],[0.41875,-0.05555555555555555],[0.41875,-0.05555555555555555],[0.41875,-0.05555555555555555],[0.41875,-0.05555555555555555],[0.41875,-0.05555555555555555],[0.41875,-0.05555555555555555],[0.41875,-0.05555555555555555],[0.41875,-0.05555555555555555],[0.41875,-0.05555555555555555],[0.41875,-0.05555555555555555],[0.41875,-0.05555555555555555],[0.41875,-0.05555555555555555],[0.41875,-0.05555555555555555],[0.41875,-0.05555555555555555],[0.41875,-0.05555555555555555],[0.41875,-0.05555555555555555],[0.41875,-0.05555555555555555],[0.41875,-0.05555555555555555],[0.41875,-0.05555555555555555],[0.41875,-0.05555555555555555],[0.41875,-0.05555555555555555],[0.41875,-0.05555555555555555],[0.41875,-0.05555555555555555],[0.41875,-0.05555555555555555],[0.41875,-0.05555555555555555],[0.41875,-0.05555555555555555],[0.41875,-0.05555555555555555],[0.41875,-0.05555555555555555],[0.41875,-0.05555555555555555],[0.41875,-0.05555555555555555],[0.41875,-0.05555555555555555],[0.41875,-0.05555555555555555],[0.41875,-0.05555555555555555],[0.41875,-0.05555555555555555],[0.41875,-0.05555555555555555],[0.41875,-0.05555555555555555],[0.41875,-0.05555555555555555],[0.41875,-0.05555555555555555],[0.41875,-0.05555555555555555],[0.41875,-0.05555555555555555],[0.41875,-0.05555555555555555],[0.41875,-0.05555555555555555],[0.41875,-0.05555555555555555],[0.41875,-0.05555555555555555],[0.41875,-0.05555555555555555],[0.4114583333333333,-0.05],[0.38229166666666664,-0.03333333333333333],[0.3375,0.001851851851851852],[0.29583333333333334,0.027777777777777776],[0.26666666666666666,0.04259259259259259],[0.2520833333333333,0.053703703703703705],[0.246875,0.05740740740740741],[0.24583333333333332,0.05740740740740741],[0.24583333333333332,0.05925925925925926],[0.24583333333333332,0.05925925925925926],[0.24583333333333332,0.05925925925925926],[0.24583333333333332,0.05925925925925926],[0.24583333333333332,0.05925925925925926],[0.24583333333333332,0.05925925925925926],[0.240625,0.07222222222222222],[0.23854166666666668,0.07777777777777778],[0.23229166666666667,0.09259259259259259],[0.22708333333333333,0.10555555555555556],[0.21979166666666666,0.11851851851851852],[0.21041666666666667,0.13518518518518519],[0.20104166666666667,0.14629629629629629],[0.19270833333333334,0.15925925925925927],[0.1875,0.16666666666666666],[0.18541666666666667,0.17037037037037037],[0.18541666666666667,0.17037037037037037],[0.18541666666666667,0.17037037037037037],[0.18541666666666667,0.17037037037037037],[0.18541666666666667,0.17037037037037037],[0.18541666666666667,0.17037037037037037],[0.18541666666666667,0.17037037037037037],[0.18541666666666667,0.17037037037037037],[0.18541666666666667,0.17037037037037037],[0.18541666666666667,0.17037037037037037],[0.18541666666666667,0.17037037037037037],[0.18541666666666667,0.17037037037037037],[0.1875,0.1648148148148148],[0.20729166666666668,0.14074074074074075],[0.22083333333333333,0.12222222222222222],[0.23958333333333334,0.09814814814814815],[0.2520833333333333,0.07407407407407407],[0.26145833333333335,0.05555555555555555],[0.26666666666666666,0.044444444444444446],[0.2708333333333333,0.03518518518518519],[0.271875,0.03148148148148148],[0.271875,0.03148148148148148],[0.271875,0.03148148148148148],[0.271875,0.03148148148148148],[0.271875,0.03148148148148148],[0.271875,0.03148148148148148],[0.271875,0.03148148148148148],[0.271875,0.03148148148148148],[0.271875,0.03148148148148148],[0.271875,0.03148148148148148],[0.271875,0.03148148148148148],[0.271875,0.03148148148148148],[0.271875,0.03148148148148148],[0.271875,0.03148148148148148],[0.271875,0.03148148148148148],[0.271875,0.03148148148148148],[0.271875,0.03148148148148148],[0.271875,0.03148148148148148],[0.271875,0.03148148148148148],[0.271875,0.03148148148148148],[0.271875,0.03148148148148148],[0.271875,0.03148148148148148],[0.271875,0.03148148148148148],[0.271875,0.03148148148148148],[0.271875,0.03148148148148148],[0.271875,0.03148148148148148],[0.271875,0.03148148148148148],[0.271875,0.03148148148148148],[0.271875,0.03148148148148148],[0.271875,0.03148148148148148],[0.271875,0.03148148148148148],[0.271875,0.03148148148148148],[0.271875,0.03148148148148148],[0.271875,0.03148148148148148],[0.271875,0.03148148148148148],[0.271875,0.03148148148148148],[0.271875,0.03148148148148148],[0.271875,0.03148148148148148],[0.271875,0.03148148148148148],[0.271875,0.03148148148148148],[0.271875,0.03148148148148148],[0.271875,0.03148148148148148],[0.271875,0.03148148148148148],[0.271875,0.03148148148148148],[0.271875,0.03148148148148148]]","[[0.46729166666666655,-0.16648148148148145],[0.46729166666666655,-0.16648148148148145],[0.4630208333333333,-0.09351851851851851],[0.4630208333333333,-0.09351851851851851],[0.46729166666666655,-0.10092592592592593],[0.46729166666666655,-0.10092592592592593],[0.4709374999999999,-0.1175925925925926],[0.4739583333333333,-0.14518518518518514],[0.4739583333333333,-0.14518518518518514],[0.4835416666666667,-0.1412962962962963],[0.49489583333333326,-0.1270370370370371],[0.5109375,-0.10925925925925926],[0.5280208333333334,-0.08592592592592588],[0.4912499999999999,-0.060555555555555536],[0.46822916666666664,-0.10129629629629627],[0.46510416666666665,-0.12907407407407406],[0.4556250000000001,-0.14203703703703702],[0.4639583333333334,-0.15388888888888894],[0.46156249999999993,-0.14314814814814816],[0.45260416666666664,-0.1638888888888889],[0.43697916666666664,-0.17537037037037034],[0.4166666666666667,-0.19037037037037038],[0.3910416666666668,-0.20555555555555555],[0.3992708333333333,-0.20851851851851855],[0.39083333333333337,-0.19666666666666666],[0.38302083333333337,-0.17685185185185184],[0.37562499999999993,-0.16574074074074074],[0.36749999999999994,-0.17518518518518522],[0.37218749999999995,-0.1757407407407407],[0.3701041666666666,-0.15999999999999995],[0.3634375000000001,-0.1542592592592593],[0.35656249999999995,-0.16500000000000004],[0.34916666666666674,-0.19074074074074074],[0.3198958333333332,-0.19870370370370372],[0.30666666666666675,-0.2338888888888889],[0.30666666666666675,-0.2338888888888889],[0.3258333333333333,-0.27444444444444444],[0.33395833333333325,-0.2855555555555555],[0.33479166666666677,-0.25092592592592594],[0.32791666666666663,-0.22370370370370374],[0.3267708333333334,-0.20907407407407402],[0.32156250000000003,-0.1881481481481482],[0.3172916666666666,-0.16055555555555553],[0.3229166666666667,-0.10574074074074079],[0.3415625000000001,-0.0514814814814814],[0.3441666666666668,0.030000000000000086],[0.31968750000000007,0.06500000000000004],[0.3134375000000001,0.03518518518518519],[0.30583333333333323,0.04537037037037037],[0.3067708333333333,0.06296296296296296],[0.31375000000000003,0.09499999999999992],[0.3689583333333334,0.2551851851851851],[0.4234375,0.4251851851851852],[0.4646874999999999,0.5546296296296296],[0.5147916666666668,0.6668518518518519],[0.5752083333333334,0.7744444444444445],[0.5752083333333334,0.7744444444444445],[0.6326041666666666,0.905925925925926],[0.6660416666666668,1.0624074074074075],[0.709375,1.154259259259259],[0.709375,1.154259259259259],[0.7502083333333334,1.2527777777777778],[0.7894791666666667,1.3683333333333334],[0.7688541666666666,1.324259259259259],[0.7409374999999999,1.2788888888888887],[0.7078125,1.2625925925925925],[0.6802083333333333,1.2262962962962964],[0.6535416666666668,1.166111111111111],[0.6384375000000001,1.086111111111111],[0.6401041666666667,1.0164814814814815],[0.6523958333333333,0.942962962962963],[0.6462500000000001,0.9051851851851851],[0.6366666666666667,0.8322222222222222],[0.6784374999999999,0.7848148148148147],[0.7130208333333333,0.7642592592592593],[0.7315625,0.7346296296296297],[0.7445833333333333,0.725],[0.7813541666666666,0.8048148148148149],[0.7979166666666667,0.8851851851851852],[0.8020833333333334,0.9474074074074073],[0.7900000000000001,1.0392592592592593],[0.7857291666666666,1.0059259259259261],[0.7857291666666666,1.0059259259259261],[0.7678124999999999,0.9875925925925925],[0.7258333333333333,0.9755555555555555],[0.6849999999999999,0.9901851851851853],[0.66875,0.9981481481481481],[0.6540625000000001,0.9914814814814816],[0.5913541666666667,0.9166666666666666],[0.54375,0.8612962962962963],[0.5253125,0.7107407407407407],[0.5056250000000001,0.6103703703703705],[0.5037499999999999,0.5879629629629629],[0.5120833333333332,0.522037037037037],[0.5015625,0.48055555555555557],[0.5015625,0.48055555555555557],[0.49885416666666677,0.3683333333333333],[0.49885416666666677,0.3683333333333333],[0.5081249999999999,0.19388888888888897],[0.4951041666666666,0.06129629629629634],[0.4773958333333333,-0.050370370370370454],[0.44427083333333334,-0.18499999999999997],[0.41770833333333335,-0.21203703703703702],[0.39968750000000003,-0.29148148148148145],[0.3757291666666667,-0.3685185185185185],[0.3376041666666666,-0.4212962962962963],[0.31260416666666657,-0.495],[0.31260416666666657,-0.495],[0.29541666666666655,-0.5331481481481481],[0.2669791666666666,-0.5155555555555555],[0.25927083333333345,-0.5251851851851852],[0.27531249999999996,-0.575],[0.3003124999999999,-0.602037037037037],[0.28250000000000003,-0.5957407407407407],[0.26677083333333323,-0.5948148148148148],[0.24874999999999994,-0.585],[0.24749999999999991,-0.5731481481481482],[0.24249999999999997,-0.5674074074074074],[0.24249999999999997,-0.5674074074074074],[0.24572916666666675,-0.5546296296296296],[0.24572916666666675,-0.5546296296296296],[0.2482291666666666,-0.5353703703703704],[0.2482291666666666,-0.5353703703703704],[0.22989583333333338,-0.5175925925925926],[0.22989583333333338,-0.5175925925925926],[0.21510416666666668,-0.46944444444444444],[0.21510416666666668,-0.46944444444444444],[0.19645833333333323,-0.42685185185185187],[0.19645833333333323,-0.42685185185185187],[0.20968749999999994,-0.4374074074074074],[0.2055208333333333,-0.4179629629629629],[0.1944791666666667,-0.3762962962962963],[0.1892708333333334,-0.3527777777777778],[0.2178124999999999,-0.3698148148148148],[0.23583333333333342,-0.41092592592592586],[0.23583333333333342,-0.41092592592592586],[0.26020833333333326,-0.41388888888888886],[0.2924999999999999,-0.4403703703703704],[0.3104166666666667,-0.45037037037037037],[0.3219791666666666,-0.45499999999999996],[0.31791666666666674,-0.4309259259259259],[0.3412499999999999,-0.44666666666666666],[0.3771874999999999,-0.515],[0.3771874999999999,-0.515],[0.40812499999999996,-0.562962962962963],[0.39812500000000006,-0.5383333333333333],[0.3881249999999999,-0.5137037037037037],[0.37645833333333345,-0.52],[0.37770833333333326,-0.5012962962962962],[0.4009375000000001,-0.5255555555555556],[0.434375,-0.5496296296296297],[0.4616666666666667,-0.5162962962962964],[0.4666666666666667,-0.4666666666666667],[0.4814583333333334,-0.3296296296296296],[0.4962500000000001,-0.1925925925925926],[0.4962500000000001,-0.1925925925925926],[0.509375,-0.06462962962962959],[0.509375,-0.06462962962962959],[0.5369791666666667,0.06018518518518518],[0.535625,0.17407407407407408],[0.5273958333333333,0.297037037037037],[0.52,0.38685185185185184],[0.5029166666666666,0.4872222222222223],[0.4952083333333334,0.5270370370370371],[0.4901041666666667,0.5346296296296297],[0.4717708333333334,0.4762962962962964],[0.45645833333333335,0.38333333333333336],[0.45374999999999993,0.2735185185185186],[0.4365624999999999,0.1668518518518519],[0.4296875,0.045740740740740825],[0.4296875,-0.08444444444444449],[0.40427083333333325,-0.16370370370370366],[0.3885416666666667,-0.2535185185185185],[0.37468750000000006,-0.31574074074074077],[0.35822916666666677,-0.34574074074074074],[0.3296875,-0.35833333333333334],[0.29812500000000003,-0.3362962962962963],[0.2652083333333332,-0.3042592592592593],[0.23302083333333337,-0.27462962962962967],[0.21645833333333328,-0.24648148148148152],[0.19989583333333344,-0.2183333333333333],[0.18947916666666675,-0.13388888888888892],[0.1790625000000001,-0.04944444444444453],[0.17239583333333333,-0.07462962962962966],[0.17229166666666676,-0.09888888888888885],[0.16906249999999995,-0.06925925925925921],[0.19916666666666671,-0.004814814814814857],[0.21104166666666657,0.07370370370370362],[0.2548958333333334,0.20685185185185193],[0.3069791666666667,0.35259259259259257],[0.3648958333333333,0.4868518518518518],[0.4183333333333332,0.5770370370370371],[0.4717708333333334,0.6672222222222222],[0.4929166666666667,0.7916666666666666],[0.5075000000000001,0.9151851851851853],[0.5289583333333333,0.9425925925925925],[0.5044791666666666,0.9757407407407409],[0.4984375,0.9600000000000002],[0.45968749999999997,0.8920370370370371],[0.4014583333333334,0.8033333333333332],[0.33739583333333345,0.7261111111111112],[0.28229166666666666,0.6318518518518519],[0.28229166666666666,0.6318518518518519],[0.2271874999999999,0.5375925925925925],[0.20187499999999994,0.43555555555555564],[0.1851041666666667,0.3274074074074073],[0.17666666666666658,0.244074074074074],[0.17239583333333333,0.14740740740740746],[0.17239583333333333,0.14740740740740746],[0.18291666666666656,0.13722222222222227],[0.18291666666666656,0.13722222222222227],[0.24187500000000003,0.1675925925925926],[0.31447916666666675,0.23648148148148157],[0.3870833333333332,0.30537037037037035],[0.43083333333333323,0.3829629629629629],[0.43083333333333323,0.3829629629629629],[0.4683333333333332,0.4631481481481482],[0.4683333333333332,0.4631481481481482],[0.47374999999999995,0.5883333333333334],[0.4744791666666667,0.6592592592592592],[0.4752083333333334,0.730185185185185],[0.4866666666666667,0.7359259259259259],[0.48447916666666657,0.68],[0.4117708333333333,0.5931481481481481],[0.3349999999999999,0.4955555555555556],[0.25729166666666664,0.39277777777777784],[0.20062499999999991,0.2825925925925926],[0.18624999999999994,0.2140740740740741],[0.20083333333333328,0.15611111111111103],[0.24572916666666675,0.2242592592592593],[0.24572916666666675,0.2242592592592593],[0.2851041666666667,0.2825925925925926],[0.3302083333333333,0.3962962962962963],[0.3732291666666666,0.4933333333333333],[0.4136458333333332,0.5781481481481482],[0.4540625000000001,0.662962962962963],[0.4708333333333333,0.7290740740740742],[0.49093749999999997,0.8388888888888889],[0.49093749999999997,0.8388888888888889],[0.46937499999999993,0.8527777777777777],[0.46937499999999993,0.8527777777777777],[0.4478125000000001,0.8666666666666667],[0.4478125000000001,0.8666666666666667],[0.3963541666666667,0.7957407407407409],[0.3963541666666667,0.7957407407407409],[0.33406250000000004,0.7001851851851852],[0.33406250000000004,0.7001851851851852],[0.2946875000000001,0.5744444444444445],[0.2586458333333333,0.459074074074074],[0.26281249999999995,0.32148148148148153],[0.2669791666666666,0.1838888888888888],[0.296875,0.10740740740740741],[0.32802083333333343,-0.004444444444444402],[0.3614583333333333,-0.08444444444444449],[0.3948958333333332,-0.16444444444444448],[0.43020833333333336,-0.24055555555555552],[0.4818749999999999,-0.2822222222222222],[0.4735416666666666,-0.2607407407407408],[0.45906250000000004,-0.26055555555555554],[0.42916666666666664,-0.24148148148148144],[0.40656249999999994,-0.2351851851851852],[0.3828125,-0.2661111111111111],[0.3540625000000001,-0.28962962962962957],[0.32052083333333337,-0.2868518518518518],[0.2869791666666667,-0.28407407407407403],[0.2693749999999999,-0.2772222222222222],[0.2517708333333334,-0.27037037037037037],[0.2517708333333334,-0.27037037037037037],[0.25125000000000003,-0.30759259259259264],[0.22604166666666667,-0.28407407407407403],[0.2007291666666667,-0.25462962962962965],[0.17312500000000006,-0.23444444444444448],[0.14552083333333338,-0.21425925925925923],[0.1345833333333334,-0.1948148148148148],[0.13177083333333334,-0.18185185185185182],[0.13177083333333334,-0.18185185185185182],[0.10854166666666672,-0.14759259259259258],[0.10854166666666672,-0.14759259259259258],[0.07770833333333324,-0.102962962962963],[0.0775000000000001,0.003703703703703704],[0.12916666666666668,0.12685185185185185],[0.21364583333333323,0.24277777777777781],[0.31312499999999993,0.3618518518518518],[0.4076041666666666,0.5029629629629631],[0.49270833333333336,0.6403703703703703],[0.5631249999999999,0.7561111111111111],[0.6082291666666667,0.8805555555555555],[0.67375,0.9837037037037037],[0.7247916666666666,1.0875925925925924],[0.7314583333333334,1.1270370370370368],[0.7042708333333333,1.1409259259259257],[0.653125,1.1038888888888887],[0.5869791666666667,1.0637037037037038],[0.5126041666666665,1.0105555555555557],[0.4476041666666667,0.9611111111111111],[0.3885416666666667,0.9375925925925925],[0.35479166666666656,0.9053703703703705],[0.3164583333333333,0.8362962962962963],[0.278125,0.7672222222222221],[0.27374999999999994,0.678888888888889],[0.2540625000000001,0.6342592592592593],[0.22947916666666662,0.6187037037037038],[0.2048958333333334,0.6031481481481482],[0.21427083333333338,0.5916666666666667],[0.22041666666666657,0.5509259259259259],[0.22364583333333338,0.4992592592592593],[0.2071875000000001,0.4662962962962962],[0.20177083333333337,0.47685185185185186],[0.2078125,0.49148148148148146],[0.19364583333333343,0.5277777777777778],[0.18885416666666663,0.5142592592592593],[0.20968749999999994,0.49666666666666676],[0.23052083333333329,0.47907407407407415],[0.22364583333333338,0.46166666666666656],[0.22000000000000006,0.4735185185185186],[0.2228125000000001,0.47925925925925916],[0.2453125,0.4662962962962962],[0.24541666666666656,0.4427777777777778],[0.24541666666666656,0.4427777777777778],[0.23364583333333327,0.41444444444444434],[0.22458333333333325,0.38722222222222225],[0.20760416666666662,0.3816666666666667],[0.190625,0.3761111111111112],[0.18156249999999996,0.3640740740740741],[0.17447916666666666,0.36074074074074064],[0.1646874999999999,0.34981481481481475],[0.1484375,0.3449999999999999],[0.1397916666666667,0.33666666666666656],[0.14708333333333337,0.3322222222222222],[0.15572916666666667,0.3381481481481482],[0.15968749999999995,0.3177777777777778],[0.17145833333333324,0.28462962962962973],[0.1736458333333334,0.2916666666666667],[0.16437499999999997,0.2985185185185186],[0.15302083333333344,0.25925925925925924],[0.15302083333333344,0.25925925925925924],[0.1443749999999999,0.22759259259259254],[0.1443749999999999,0.22759259259259254],[0.1506249999999999,0.22462962962962954],[0.146875,0.19018518518518526],[0.1336458333333333,0.15925925925925927],[0.12541666666666676,0.12407407407407407],[0.11916666666666677,0.11407407407407412],[0.14166666666666666,0.09722222222222222],[0.17374999999999996,0.04018518518518527],[0.17374999999999996,0.04018518518518527],[0.20458333333333342,-0.022037037037036994],[0.23020833333333332,0.032777777777777864],[0.2529166666666666,0.0492592592592593],[0.2548958333333334,0.019444444444444445],[0.25927083333333345,0.024629629629629547],[0.2786458333333333,0.03722222222222227],[0.2920833333333334,0.044444444444444446],[0.3016666666666666,0.06740740740740736],[0.27843749999999995,0.09148148148148144],[0.2552083333333333,0.11555555555555551],[0.23427083333333343,0.14222222222222214],[0.22291666666666668,0.0933333333333333],[0.22291666666666668,0.0933333333333333],[0.22333333333333344,0.07018518518518514],[0.22333333333333344,0.07018518518518514],[0.22958333333333342,0.06462962962962959],[0.22958333333333342,0.06462962962962959],[0.23052083333333329,0.07592592592592592],[0.23052083333333329,0.07592592592592592],[0.22125000000000009,0.08314814814814811],[0.23052083333333329,0.06185185185185181],[0.23052083333333329,0.06185185185185181],[0.24468750000000009,0.03259259259259263],[0.24468750000000009,0.03259259259259263],[0.23802083333333332,0.032777777777777864],[0.23729166666666662,0.018888888888888972],[0.23729166666666662,0.018888888888888972],[0.25927083333333345,-0.018888888888888972],[0.2789583333333333,-0.052037037037037076],[0.26593749999999994,-0.03592592592592588],[0.2529166666666666,-0.0198148148148149],[0.2552083333333333,-0.02240740740740745],[0.24520833333333342,-0.042407407407407366],[0.21666666666666667,-0.0338888888888888],[0.22156250000000005,-0.05388888888888893],[0.2513541666666666,-0.09759259259259258],[0.2724999999999999,-0.1368518518518518],[0.2734375,-0.14296296296296293],[0.2743750000000001,-0.14907407407407408],[0.2712500000000001,-0.14240740740740737],[0.28895833333333343,-0.17555555555555558],[0.2877083333333334,-0.2094444444444445],[0.30916666666666665,-0.2337037037037037],[0.3388541666666666,-0.25629629629629624],[0.33406250000000004,-0.2581481481481481],[0.3203125,-0.25574074074074077],[0.30927083333333344,-0.24370370370370376],[0.31260416666666657,-0.22111111111111106],[0.3159374999999999,-0.1985185185185185],[0.3159374999999999,-0.1985185185185185],[0.34187500000000004,-0.22666666666666663],[0.34187500000000004,-0.22666666666666663],[0.33739583333333345,-0.23592592592592587],[0.35208333333333336,-0.24351851851851852],[0.3610416666666666,-0.25018518518518523],[0.35916666666666663,-0.27037037037037037],[0.34364583333333343,-0.2564814814814815],[0.34364583333333343,-0.2564814814814815],[0.33708333333333323,-0.24685185185185188],[0.33708333333333323,-0.24685185185185188],[0.3489583333333333,-0.26592592592592595],[0.3397916666666667,-0.29203703703703704],[0.3306250000000001,-0.3181481481481482],[0.33718750000000003,-0.3244444444444444],[0.3533333333333334,-0.3098148148148148],[0.35,-0.2887037037037037],[0.3466666666666666,-0.2675925925925926],[0.3584374999999999,-0.24351851851851852],[0.38385416666666666,-0.2535185185185185],[0.4162499999999999,-0.29018518518518516],[0.39781250000000007,-0.24592592592592594],[0.3953125,-0.20203703703703707],[0.41468749999999993,-0.1881481481481482],[0.42520833333333335,-0.17999999999999997],[0.4357291666666666,-0.17185185185185187],[0.45031249999999995,-0.20037037037037034],[0.4648958333333333,-0.22888888888888892],[0.4679166666666667,-0.21537037037037038],[0.4728125000000001,-0.22833333333333336],[0.47072916666666675,-0.2146296296296296],[0.5010416666666667,-0.2531481481481481],[0.5006249999999999,-0.2505555555555556],[0.4875,-0.21814814814814817],[0.4962500000000001,-0.2331481481481481],[0.4992708333333333,-0.2661111111111111],[0.5075000000000001,-0.26796296296296296],[0.5157291666666666,-0.2698148148148148],[0.5278125,-0.28296296296296297],[0.5380208333333333,-0.26962962962962966],[0.5389583333333334,-0.26740740740740737],[0.5389583333333334,-0.26740740740740737],[0.5398958333333332,-0.2651851851851852],[0.5564583333333334,-0.3074074074074074],[0.5513541666666666,-0.337037037037037],[0.5228125000000001,-0.3320370370370371],[0.48458333333333337,-0.3101851851851852],[0.44635416666666666,-0.28833333333333333],[0.42947916666666663,-0.2824074074074074],[0.4078125,-0.2983333333333334],[0.3571875000000001,-0.2905555555555555],[0.31583333333333335,-0.27166666666666667],[0.2775000000000001,-0.257962962962963],[0.2775000000000001,-0.257962962962963],[0.2685416666666666,-0.2566666666666667],[0.2633333333333333,-0.28425925925925927],[0.25812499999999994,-0.3118518518518518],[0.2617708333333333,-0.3331481481481481],[0.26541666666666663,-0.3544444444444444],[0.2478125000000001,-0.375],[0.2478125000000001,-0.375],[0.23020833333333332,-0.3955555555555556],[0.23156249999999995,-0.43407407407407406],[0.23291666666666658,-0.47259259259259256],[0.22291666666666668,-0.4872222222222223],[0.18937499999999996,-0.4892592592592592],[0.19333333333333325,-0.48333333333333334],[0.19729166666666675,-0.47740740740740745],[0.1859375,-0.4777777777777778],[0.17458333333333323,-0.4781481481481481],[0.17895833333333327,-0.44611111111111107],[0.18333333333333332,-0.4140740740740741],[0.18677083333333327,-0.38185185185185183],[0.19020833333333323,-0.3496296296296296],[0.24666666666666662,-0.3537037037037037],[0.303125,-0.35777777777777775],[0.29229166666666656,-0.3531481481481481],[0.2841666666666666,-0.34092592592592597],[0.31197916666666664,-0.3388888888888889],[0.31197916666666664,-0.3388888888888889],[0.3252083333333334,-0.3207407407407407],[0.3051041666666668,-0.29259259259259257],[0.29447916666666674,-0.2809259259259259],[0.29447916666666674,-0.2809259259259259],[0.29270833333333335,-0.257962962962963],[0.29270833333333335,-0.257962962962963],[0.29093749999999996,-0.23499999999999996],[0.29093749999999996,-0.23499999999999996],[0.23947916666666677,-0.2116666666666667],[0.2055208333333333,-0.19185185185185188],[0.2055208333333333,-0.19185185185185188],[0.21833333333333324,-0.1633333333333333],[0.21833333333333324,-0.1633333333333333],[0.22729166666666673,-0.13537037037037042],[0.22729166666666673,-0.13537037037037042],[0.25666666666666677,-0.030740740740740784],[0.2986458333333334,0.07277777777777769],[0.36687500000000006,0.18648148148148155],[0.4171875,0.28851851851851845],[0.4171875,0.28851851851851845],[0.4521874999999999,0.3622222222222223],[0.48718750000000005,0.4359259259259259],[0.5253125,0.5085185185185186],[0.5451041666666666,0.5512962962962964],[0.5566666666666668,0.5851851851851851],[0.5566666666666668,0.5851851851851851],[0.5559375000000001,0.5833333333333334],[0.5559375000000001,0.5833333333333334],[0.5185416666666666,0.509074074074074],[0.48312499999999997,0.4198148148148149],[0.48312499999999997,0.4198148148148149],[0.46197916666666666,0.2507407407407407],[0.4470833333333334,0.15703703703703695],[0.4495833333333332,0.07444444444444454],[0.4453125,-0.020740740740740823],[0.44291666666666674,-0.09759259259259258],[0.4466666666666666,-0.1368518518518518],[0.45041666666666674,-0.17611111111111116],[0.46895833333333337,-0.1925925925925926],[0.46895833333333337,-0.1925925925925926],[0.4896874999999999,-0.20203703703703707],[0.5101041666666667,-0.22240740740740744],[0.4969791666666666,-0.19740740740740745],[0.49458333333333326,-0.21333333333333332],[0.4935416666666666,-0.23629629629629634],[0.48312499999999997,-0.23425925925925925],[0.4727083333333333,-0.2322222222222222],[0.45760416666666665,-0.24259259259259258],[0.46114583333333337,-0.24351851851851852],[0.4580208333333334,-0.257962962962963],[0.4538541666666667,-0.27907407407407403],[0.4538541666666667,-0.27907407407407403],[0.4521874999999999,-0.2505555555555556],[0.46104166666666657,-0.225],[0.4679166666666667,-0.2212962962962963],[0.4734375,-0.21055555555555552],[0.4951041666666666,-0.21092592592592588],[0.5165625000000001,-0.205],[0.5230208333333333,-0.19240740740740736],[0.5108333333333335,-0.18925925925925924],[0.49583333333333335,-0.15611111111111114],[0.4883333333333333,-0.13925925925925925],[0.5037499999999999,-0.027222222222222307],[0.5191666666666668,0.08481481481481473],[0.5466666666666666,0.17092592592592584],[0.5741666666666667,0.25703703703703695],[0.5852083333333333,0.35777777777777786],[0.6114583333333333,0.45203703703703707],[0.6396874999999999,0.5622222222222223],[0.6481250000000001,0.6392592592592593],[0.6646874999999999,0.7057407407407408],[0.6678124999999999,0.793148148148148],[0.6458333333333334,0.7466666666666667],[0.6178124999999999,0.6374074074074075],[0.5711458333333332,0.5696296296296297],[0.5315624999999999,0.5264814814814814],[0.5084374999999999,0.4674074074074074],[0.4703125,0.40851851851851856],[0.4535416666666668,0.2803703703703703],[0.4565624999999999,0.1853703703703704],[0.45125000000000004,0.11018518518518519],[0.45291666666666663,0.037037037037037035],[0.4554166666666667,-0.03166666666666671],[0.4639583333333334,-0.03759259259259251],[0.4587500000000001,-0.0514814814814814],[0.44645833333333323,-0.09000000000000004],[0.4384375000000001,-0.14203703703703702],[0.4262500000000001,-0.1940740740740741],[0.4058333333333332,-0.19166666666666668],[0.3854166666666667,-0.18925925925925924],[0.3710416666666667,-0.19277777777777783],[0.35666666666666674,-0.1962962962962963],[0.3368750000000001,-0.22888888888888892],[0.321875,-0.24111111111111108],[0.32062499999999994,-0.24537037037037038],[0.30479166666666657,-0.2548148148148149],[0.2846874999999999,-0.2507407407407407],[0.2648958333333333,-0.2607407407407408],[0.2443749999999999,-0.27037037037037037],[0.22864583333333333,-0.25462962962962965],[0.22864583333333333,-0.25462962962962965],[0.2335416666666667,-0.2657407407407407],[0.2335416666666667,-0.2657407407407407],[0.22083333333333333,-0.2766666666666666],[0.21322916666666672,-0.27999999999999997],[0.21322916666666672,-0.27999999999999997],[0.20083333333333328,-0.3037037037037037],[0.2039583333333333,-0.33185185185185184],[0.2039583333333333,-0.33185185185185184],[0.22374999999999995,-0.36203703703703705],[0.24500000000000005,-0.3918518518518519],[0.27010416666666665,-0.4075925925925926],[0.29322916666666665,-0.422037037037037],[0.3115624999999999,-0.4618518518518518],[0.3017708333333334,-0.4792592592592593],[0.3095833333333334,-0.4968518518518519],[0.30479166666666657,-0.4698148148148148],[0.3,-0.4427777777777778],[0.2755208333333333,-0.4294444444444444],[0.25020833333333337,-0.4118518518518518],[0.2234375,-0.39462962962962966],[0.20520833333333333,-0.3327777777777778],[0.18895833333333342,-0.2722222222222222],[0.18895833333333342,-0.2722222222222222],[0.1834374999999999,-0.24518518518518514],[0.1834374999999999,-0.24518518518518514],[0.1877083333333334,-0.22759259259259254],[0.1877083333333334,-0.22759259259259254],[0.19145833333333329,-0.1838888888888889],[0.20604166666666662,-0.192037037037037],[0.20604166666666662,-0.192037037037037],[0.22906250000000009,-0.20203703703703707],[0.22906250000000009,-0.20203703703703707],[0.25499999999999995,-0.19888888888888884],[0.25499999999999995,-0.19888888888888884],[0.2665625000000001,-0.19685185185185186],[0.29583333333333334,-0.1801851851851852],[0.3165625000000001,-0.2081481481481481],[0.32697916666666677,-0.22666666666666663],[0.32666666666666655,-0.2116666666666667],[0.3294791666666666,-0.21648148148148144],[0.3328125,-0.24740740740740744],[0.3321875000000001,-0.2381481481481482],[0.34322916666666664,-0.2418518518518519],[0.3555208333333333,-0.24055555555555552],[0.35614583333333344,-0.22092592592592594],[0.3519791666666668,-0.22018518518518515],[0.334375,-0.22962962962962963],[0.32708333333333334,-0.2485185185185185],[0.33270833333333344,-0.26962962962962966],[0.3138541666666666,-0.2548148148148149],[0.3259375000000001,-0.25148148148148153],[0.3398958333333333,-0.2551851851851852],[0.3398958333333333,-0.2551851851851852],[0.3337500000000001,-0.24407407407407408],[0.32447916666666665,-0.23203703703703707],[0.35520833333333335,-0.25925925925925924],[0.37302083333333325,-0.2822222222222222],[0.3780208333333334,-0.29685185185185187],[0.37468750000000006,-0.30888888888888894],[0.37468750000000006,-0.30888888888888894],[0.3585416666666667,-0.3164814814814814],[0.3585416666666667,-0.3164814814814814],[0.3732291666666666,-0.34333333333333327],[0.3454166666666666,-0.34518518518518515],[0.3380208333333333,-0.3492592592592593],[0.32395833333333335,-0.3542592592592593],[0.3265625,-0.3592592592592593],[0.31395833333333345,-0.33925925925925926],[0.31395833333333345,-0.33925925925925926],[0.29239583333333335,-0.2705555555555556],[0.3054166666666667,-0.2351851851851852],[0.3267708333333334,-0.20240740740740742],[0.3337500000000001,-0.16648148148148145],[0.32625000000000004,-0.12370370370370372],[0.3303124999999999,-0.09444444444444444],[0.33739583333333345,-0.06388888888888888],[0.3511458333333332,-0.032407407407407406],[0.3142708333333334,0.01796296296296305],[0.28968749999999993,0.07351851851851861],[0.28312499999999996,0.06425925925925935],[0.28312499999999996,0.06425925925925935],[0.2682291666666667,0.09018518518518527],[0.2682291666666667,0.09018518518518527],[0.24718749999999995,0.1242592592592593],[0.2404166666666666,0.152962962962963],[0.23645833333333333,0.14537037037037037],[0.23666666666666672,0.13425925925925927],[0.2087500000000001,0.13925925925925933],[0.18083333333333323,0.14425925925925923],[0.20479166666666657,0.1300000000000001],[0.21645833333333328,0.11055555555555564],[0.20437500000000006,0.08666666666666659],[0.19927083333333329,0.07407407407407407],[0.19177083333333325,0.027222222222222307],[0.2195833333333333,-0.039074074074074115],[0.22989583333333338,-0.04259259259259259],[0.23604166666666657,-0.04259259259259259],[0.25239583333333326,-0.06592592592592597],[0.2570833333333333,-0.09518518518518514],[0.24479166666666666,-0.12222222222222222],[0.23718750000000005,-0.1557407407407408],[0.2476041666666667,-0.15],[0.25104166666666666,-0.15555555555555556],[0.24833333333333343,-0.12925925925925927],[0.2103125000000001,-0.08351851851851856],[0.1977083333333333,-0.08796296296296297],[0.1935416666666666,-0.08611111111111111],[0.17864583333333334,-0.08814814814814818],[0.1865624999999999,-0.0948148148148148],[0.20114583333333325,-0.10092592592592593],[0.2071875000000001,-0.08388888888888892],[0.21208333333333323,-0.09722222222222222],[0.2169791666666666,-0.11055555555555553],[0.23177083333333334,-0.12222222222222222],[0.23833333333333329,-0.1361111111111111],[0.2381249999999999,-0.14222222222222225],[0.22687499999999997,-0.16166666666666668],[0.22135416666666666,-0.17296296296296293],[0.20739583333333325,-0.16425925925925924],[0.18895833333333342,-0.1588888888888889],[0.18895833333333342,-0.1588888888888889],[0.17437500000000009,-0.17018518518518513],[0.17437500000000009,-0.17018518518518513],[0.1779166666666666,-0.16629629629629633],[0.16927083333333334,-0.15314814814814812],[0.16270833333333337,-0.16425925925925924],[0.16010416666666671,-0.17814814814814814],[0.1664583333333333,-0.14444444444444443],[0.17531249999999995,-0.10648148148148148],[0.18468749999999995,-0.06925925925925921],[0.19135416666666671,-0.04148148148148144],[0.19135416666666671,-0.04148148148148144],[0.20979166666666677,-0.06092592592592588],[0.21197916666666666,-0.09851851851851849],[0.19385416666666658,-0.13962962962962958],[0.18760416666666657,-0.18888888888888888],[0.18406250000000005,-0.2212962962962963],[0.19364583333333343,-0.247037037037037],[0.19333333333333325,-0.3153703703703704],[0.1931250000000001,-0.3809259259259259],[0.18229166666666666,-0.44537037037037036],[0.17145833333333324,-0.5098148148148148],[0.17145833333333324,-0.5098148148148148],[0.16760416666666675,-0.4957407407407407],[0.16760416666666675,-0.4957407407407407],[0.17999999999999997,-0.46351851851851855],[0.17999999999999997,-0.46351851851851855],[0.21687500000000004,-0.42907407407407405],[0.21687500000000004,-0.42907407407407405],[0.2209374999999999,-0.36814814814814817],[0.22354166666666658,-0.38851851851851854],[0.22354166666666658,-0.38851851851851854],[0.2071875000000001,-0.3737037037037037],[0.2071875000000001,-0.3737037037037037],[0.2085416666666667,-0.3616666666666667]]","[[0.46729166666666655,-0.16648148148148145,0.0003000001907338401],[0.46729166666666655,-0.16648148148148145,0.04559999990463126],[0.4630208333333333,-0.09351851851851851,0.060499999999997556],[0.4630208333333333,-0.09351851851851851,0.07719999980925962],[0.46729166666666655,-0.10092592592592593,0.09390000009536692],[0.46729166666666655,-0.10092592592592593,0.11059999990462899],[0.4709374999999999,-0.1175925925925926,0.1271999998092639],[0.4739583333333333,-0.14518518518518514,0.1480999999046304],[0.4739583333333333,-0.14518518518518514,0.16049999999999898],[0.4835416666666667,-0.1412962962962963,0.17719999980926104],[0.49489583333333326,-0.1270370370370371,0.1944999999999979],[0.5109375,-0.10925925925925926,0.21040000009536186],[0.5280208333333334,-0.08592592592592588,0.2271999998092653],[0.4912499999999999,-0.060555555555555536,0.24459999990462933],[0.46822916666666664,-0.10129629629629627,0.2605000000000004],[0.46510416666666665,-0.12907407407407406,0.2770999999046282],[0.4556250000000001,-0.14203703703703702,0.29440000009536504],[0.4639583333333334,-0.15388888888888894,0.31049999999999756],[0.46156249999999993,-0.14314814814814816,0.3271999998092596],[0.45260416666666664,-0.1638888888888889,0.3451999998092603],[0.43697916666666664,-0.17537037037037034,0.3619000000953676],[0.4166666666666667,-0.19037037037037038,0.3770999999046296],[0.3910416666666668,-0.20555555555555555,0.3981999998092647],[0.3992708333333333,-0.20851851851851855,0.41290000009536243],[0.39083333333333337,-0.19666666666666666,0.42759999990462916],[0.38302083333333337,-0.17685185185185184,0.44390000009536834],[0.37562499999999993,-0.16574074074074074,0.4619000000953619],[0.36749999999999994,-0.17518518518518522,0.47709999990463103],[0.37218749999999995,-0.1757407407407407,0.49459999990462933],[0.3701041666666666,-0.15999999999999995,0.5128000001907296],[0.3634375000000001,-0.1542592592592593,0.5275999999046306],[0.35656249999999995,-0.16500000000000004,0.5438000001907355],[0.34916666666666674,-0.19074074074074074,0.5625999999046272],[0.3198958333333332,-0.19870370370370372,0.5771999998092596],[0.30666666666666675,-0.2338888888888889,0.5999999999999943],[0.30666666666666675,-0.2338888888888889,0.6108000001907357],[0.3258333333333333,-0.27444444444444444,0.6274999999999977],[0.33395833333333325,-0.2855555555555555,0.6438000001907298],[0.33479166666666677,-0.25092592592592594,0.6613000001907352],[0.32791666666666663,-0.22370370370370374,0.6770999999046268],[0.3267708333333334,-0.20907407407407402,0.6943000001907293],[0.32156250000000003,-0.1881481481481482,0.7104000000953619],[0.3172916666666666,-0.16055555555555553,0.7300999999046311],[0.3229166666666667,-0.10574074074074079,0.747099999904627],[0.3415625000000001,-0.0514814814814814,0.7634000000953662],[0.3441666666666668,0.030000000000000086,0.7790999999046306],[0.31968750000000007,0.06500000000000004,0.7948000001907332],[0.3134375000000001,0.03518518518518519,0.8104999999999976],[0.30583333333333323,0.04537037037037037,0.8271999998092596],[0.3067708333333333,0.06296296296296296,0.844300000190735],[0.31375000000000003,0.09499999999999992,0.8604999999999947],[0.3689583333333334,0.2551851851851851,0.8770999999046296],[0.4234375,0.4251851851851852,0.8939000000953641],[0.4646874999999999,0.5546296296296296,0.9104000000953647],[0.5147916666666668,0.6668518518518519,0.9278000001907287],[0.5752083333333334,0.7744444444444445,0.9444000000953636],[0.5752083333333334,0.7744444444444445,0.9604999999999961],[0.6326041666666666,0.905925925925926,0.9771999998092653],[0.6660416666666668,1.0624074074074075,0.9964000000953632],[0.709375,1.154259259259259,1.0105000000000004],[0.709375,1.154259259259259,1.0271999998092625],[0.7502083333333334,1.2527777777777778,1.0439000000953627],[0.7894791666666667,1.3683333333333334,1.0609000000953657],[0.7688541666666666,1.324259259259259,1.0770999999046325],[0.7409374999999999,1.2788888888888887,1.096900000095367],[0.7078125,1.2625925925925925,1.1104999999999947],[0.6802083333333333,1.2262962962962964,1.129099999904632],[0.6535416666666668,1.166111111111111,1.143900000095364],[0.6384375000000001,1.086111111111111,1.1623000001907329],[0.6401041666666667,1.0164814814814815,1.177199999809261],[0.6523958333333333,0.942962962962963,1.196400000095366],[0.6462500000000001,0.9051851851851851,1.2104999999999961],[0.6366666666666667,0.8322222222222222,1.229699999809263],[0.6784374999999999,0.7848148148148147,1.2443000001907336],[0.7130208333333333,0.7642592592592593,1.2605000000000004],[0.7315625,0.7346296296296297,1.277400000095362],[0.7445833333333333,0.725,1.2969000000953628],[0.7813541666666666,0.8048148148148149,1.3109000000953657],[0.7979166666666667,0.8851851851851852,1.3270999999046325],[0.8020833333333334,0.9474074074074073,1.347999999999999],[0.7900000000000001,1.0392592592592593,1.362800000190731],[0.7857291666666666,1.0059259259259261,1.3891999998092643],[0.7857291666666666,1.0059259259259261,1.3976999998092623],[0.7678124999999999,0.9875925925925925,1.4104000000953647],[0.7258333333333333,0.9755555555555555,1.4274999999999949],[0.6849999999999999,0.9901851851851853,1.443800000190734],[0.66875,0.9981481481481481,1.4609000000953642],[0.6540625000000001,0.9914814814814816,1.477099999904631],[0.5913541666666667,0.9166666666666666,1.4968000001907313],[0.54375,0.8612962962962963,1.5129999999999981],[0.5253125,0.7107407407407407,1.5304000000953621],[0.5056250000000001,0.6103703703703705,1.546599999904629],[0.5037499999999999,0.5879629629629629,1.5619999999999976],[0.5120833333333332,0.522037037037037,1.5771999998092596],[0.5015625,0.48055555555555557,1.5983000001907328],[0.5015625,0.48055555555555557,1.6109000000953628],[0.49885416666666677,0.3683333333333333,1.6274000000953635],[0.49885416666666677,0.3683333333333333,1.6438000001907298],[0.5081249999999999,0.19388888888888897,1.660499999999999],[0.4951041666666666,0.06129629629629634,1.6776999998092634],[0.4773958333333333,-0.050370370370370454,1.6956999998092641],[0.44427083333333334,-0.18499999999999997,1.711900000095362],[0.41770833333333335,-0.21203703703703702,1.7275999999046334],[0.39968750000000003,-0.29148148148148145,1.7438000001907312],[0.3757291666666667,-0.3685185185185185,1.7606999998092618],[0.3376041666666666,-0.4212962962962963,1.777400000095362],[0.31260416666666657,-0.495,1.8028000001907287],[0.31260416666666657,-0.495,1.8105999999046318],[0.29541666666666655,-0.5331481481481481,1.8271999998092596],[0.2669791666666666,-0.5155555555555555,1.8438000001907326],[0.25927083333333345,-0.5251851851851852,1.8624000000953629],[0.27531249999999996,-0.575,1.8770999999046296],[0.3003124999999999,-0.602037037037037,1.8954000000953641],[0.28250000000000003,-0.5957407407407407,1.910900000095367],[0.26677083333333323,-0.5948148148148148,1.9303000001907336],[0.24874999999999994,-0.585,1.9439000000953683],[0.24749999999999991,-0.5731481481481482,1.9629999999999939],[0.24249999999999997,-0.5674074074074074,1.9824999999999946],[0.24249999999999997,-0.5674074074074074,1.9939000000953655],[0.24572916666666675,-0.5546296296296296,2.010400000095366],[0.24572916666666675,-0.5546296296296296,2.0271999998092625],[0.2482291666666666,-0.5353703703703704,2.0438000001907355],[0.2482291666666666,-0.5353703703703704,2.0609000000953657],[0.22989583333333338,-0.5175925925925926,2.0770999999046325],[0.22989583333333338,-0.5175925925925926,2.0940999999046284],[0.21510416666666668,-0.46944444444444444,2.1104999999999947],[0.21510416666666668,-0.46944444444444444,2.127199999809264],[0.19645833333333323,-0.42685185185185187,2.14380000019073],[0.19645833333333323,-0.42685185185185187,2.160499999999999],[0.20968749999999994,-0.4374074074074074,2.177199999809261],[0.2055208333333333,-0.4179629629629629,2.1969999999999956],[0.1944791666666667,-0.3762962962962963,2.211900000095362],[0.1892708333333334,-0.3527777777777778,2.227400000095365],[0.2178124999999999,-0.3698148148148148,2.2446999998092636],[0.23583333333333342,-0.41092592592592586,2.2671999998092645],[0.23583333333333342,-0.41092592592592586,2.2771999998092625],[0.26020833333333326,-0.41388888888888886,2.2938000001907355],[0.2924999999999999,-0.4403703703703704,2.312599999904627],[0.3104166666666667,-0.45037037037037037,2.3294000000953616],[0.3219791666666666,-0.45499999999999996,2.343900000095367],[0.31791666666666674,-0.4309259259259259,2.3621999998092633],[0.3412499999999999,-0.44666666666666666,2.377199999809264],[0.3771874999999999,-0.515,2.3948000001907346],[0.3771874999999999,-0.515,2.4166999998092606],[0.40812499999999996,-0.562962962962963,2.4303000001907336],[0.39812500000000006,-0.5383333333333333,2.444199999809264],[0.3881249999999999,-0.5137037037037037,2.460400000095362],[0.37645833333333345,-0.52,2.477099999904631],[0.37770833333333326,-0.5012962962962962,2.4973000001907337],[0.4009375000000001,-0.5255555555555556,2.5105000000000004],[0.434375,-0.5496296296296297,2.527099999904628],[0.4616666666666667,-0.5162962962962964,2.5438000001907355],[0.4666666666666667,-0.4666666666666667,2.5604000000953633],[0.4814583333333334,-0.3296296296296296,2.5771999998092596],[0.4962500000000001,-0.1925925925925926,2.598699999809263],[0.4962500000000001,-0.1925925925925926,2.6106999998092633],[0.509375,-0.06462962962962959,2.627300000190729],[0.509375,-0.06462962962962959,2.643900000095364],[0.5369791666666667,0.06018518518518518,2.660499999999999],[0.535625,0.17407407407407408,2.6774000000953677],[0.5273958333333333,0.297037037037037,2.6939000000953683],[0.52,0.38685185185185184,2.710400000095362],[0.5029166666666666,0.4872222222222223,2.7271999998092653],[0.4952083333333334,0.5270370370370371,2.7439000000953655],[0.4901041666666667,0.5346296296296297,2.7608000001907342],[0.4717708333333334,0.4762962962962964,2.777099999904628],[0.45645833333333335,0.38333333333333336,2.796300000190733],[0.45374999999999993,0.2735185185185186,2.8104999999999976],[0.4365624999999999,0.1668518518518519,2.8270999999046325],[0.4296875,0.045740740740740825,2.8438000001907326],[0.4296875,-0.08444444444444449,2.8604999999999947],[0.40427083333333325,-0.16370370370370366,2.8774000000953635],[0.3885416666666667,-0.2535185185185185,2.89419999980926],[0.37468750000000006,-0.31574074074074077,2.9104000000953647],[0.35822916666666677,-0.34574074074074074,2.930099999904627],[0.3296875,-0.35833333333333334,2.943800000190734],[0.29812500000000003,-0.3362962962962963,2.9613000001907324],[0.2652083333333332,-0.3042592592592593,2.9771999998092653],[0.23302083333333337,-0.27462962962962967,2.994400000095368],[0.21645833333333328,-0.24648148148148152,3.0105000000000004],[0.19989583333333344,-0.2183333333333333,3.0274999999999963],[0.18947916666666675,-0.13388888888888892,3.0439000000953627],[0.1790625000000001,-0.04944444444444453,3.0604999999999976],[0.17239583333333333,-0.07462962962962966,3.0771999998092596],[0.17229166666666676,-0.09888888888888885,3.093900000095367],[0.16906249999999995,-0.06925925925925921,3.113999999999997],[0.19916666666666671,-0.004814814814814857,3.128699999809264],[0.21104166666666657,0.07370370370370362,3.14380000019073],[0.2548958333333334,0.20685185185185193,3.160499999999999],[0.3069791666666667,0.35259259259259257,3.1770999999046268],[0.3648958333333333,0.4868518518518518,3.19409999990463],[0.4183333333333332,0.5770370370370371,3.210400000095362],[0.4717708333333334,0.6672222222222222,3.2271999998092653],[0.4929166666666667,0.7916666666666666,3.2438000001907312],[0.5075000000000001,0.9151851851851853,3.260400000095366],[0.5289583333333333,0.9425925925925925,3.2771999998092625],[0.5044791666666666,0.9757407407407409,3.293999999999997],[0.4984375,0.9600000000000002,3.3104999999999976],[0.45968749999999997,0.8920370370370371,3.327300000190732],[0.4014583333333334,0.8033333333333332,3.3438000001907326],[0.33739583333333345,0.7261111111111112,3.3608000001907357],[0.28229166666666666,0.6318518518518519,3.3770999999046296],[0.28229166666666666,0.6318518518518519,3.393900000095364],[0.2271874999999999,0.5375925925925925,3.4104000000953647],[0.20187499999999994,0.43555555555555564,3.4270999999046268],[0.1851041666666667,0.3274074074074073,3.4439999999999955],[0.17666666666666658,0.244074074074074,3.460499999999996],[0.17239583333333333,0.14740740740740746,3.477099999904631],[0.17239583333333333,0.14740740740740746,3.4939000000953655],[0.18291666666666656,0.13722222222222227,3.510400000095366],[0.18291666666666656,0.13722222222222227,3.528099999904633],[0.24187500000000003,0.1675925925925926,3.5439000000953627],[0.31447916666666675,0.23648148148148157,3.560599999904632],[0.3870833333333332,0.30537037037037035,3.5770999999046325],[0.43083333333333323,0.3829629629629629,3.596900000095367],[0.43083333333333323,0.3829629629629629,3.6104999999999947],[0.4683333333333332,0.4631481481481482,3.627199999809264],[0.4683333333333332,0.4631481481481482,3.643900000095364],[0.47374999999999995,0.5883333333333334,3.6604000000953647],[0.4744791666666667,0.6592592592592592,3.6770999999046268],[0.4752083333333334,0.730185185185185,3.69409999990463],[0.4866666666666667,0.7359259259259259,3.710400000095362],[0.48447916666666657,0.68,3.727099999904631],[0.4117708333333333,0.5931481481481481,3.7439000000953655],[0.3349999999999999,0.4955555555555556,3.7609999999999957],[0.25729166666666664,0.39277777777777784,3.777099999904628],[0.20062499999999991,0.2825925925925926,3.7953000001907355],[0.18624999999999994,0.2140740740740741,3.812099999904632],[0.20083333333333328,0.15611111111111103,3.8299999999999983],[0.24572916666666675,0.2242592592592593,3.8480999999046333],[0.24572916666666675,0.2242592592592593,3.8604000000953675],[0.2851041666666667,0.2825925925925926,3.877199999809264],[0.3302083333333333,0.3962962962962963,3.8980999999046304],[0.3732291666666666,0.4933333333333333,3.9155999999046287],[0.4136458333333332,0.5781481481481482,3.9314000000953655],[0.4540625000000001,0.662962962962963,3.9475999999046323],[0.4708333333333333,0.7290740740740742,3.964599999904628],[0.49093749999999997,0.8388888888888889,3.9894000000953653],[0.49093749999999997,0.8388888888888889,3.997800000190729],[0.46937499999999993,0.8527777777777777,4.0105],[0.46937499999999993,0.8527777777777777,4.027099999904628],[0.4478125000000001,0.8666666666666667,4.0438000001907355],[0.4478125000000001,0.8666666666666667,4.0604999999999976],[0.3963541666666667,0.7957407407407409,4.0770999999046325],[0.3963541666666667,0.7957407407407409,4.093900000095367],[0.33406250000000004,0.7001851851851852,4.1104000000953675],[0.33406250000000004,0.7001851851851852,4.12709999990463],[0.2946875000000001,0.5744444444444445,4.14380000019073],[0.2586458333333333,0.459074074074074,4.164699999809265],[0.26281249999999995,0.32148148148148153,4.180999999999997],[0.2669791666666666,0.1838888888888888,4.196999999999996],[0.296875,0.10740740740740741,4.213699999809265],[0.32802083333333343,-0.004444444444444402,4.229999999999997],[0.3614583333333333,-0.08444444444444449,4.244199999809261],[0.3948958333333332,-0.16444444444444448,4.2605],[0.43020833333333336,-0.24055555555555552,4.277099999904628],[0.4818749999999999,-0.2822222222222222,4.295599999904631],[0.4735416666666666,-0.2607407407407408,4.311900000095363],[0.45906250000000004,-0.26055555555555554,4.328400000095364],[0.42916666666666664,-0.24148148148148144,4.343800000190733],[0.40656249999999994,-0.2351851851851852,4.362300000190736],[0.3828125,-0.2661111111111111,4.37709999990463],[0.3540625000000001,-0.28962962962962957,4.396300000190735],[0.32052083333333337,-0.2868518518518518,4.4118000001907305],[0.2869791666666667,-0.28407407407407403,4.427599999904629],[0.2693749999999999,-0.2772222222222222,4.443900000095368],[0.2517708333333334,-0.27037037037037037,4.460400000095362],[0.2517708333333334,-0.27037037037037037,4.477099999904631],[0.25125000000000003,-0.30759259259259264,4.493800000190731],[0.22604166666666667,-0.28407407407407403,4.511900000095366],[0.2007291666666667,-0.25462962962962965,4.527400000095362],[0.17312500000000006,-0.23444444444444448,4.543699999809263],[0.14552083333333338,-0.21425925925925923,4.560400000095363],[0.1345833333333334,-0.1948148148148148,4.576999999999998],[0.13177083333333334,-0.18185185185185182,4.598499999999994],[0.13177083333333334,-0.18185185185185182,4.611900000095368],[0.10854166666666672,-0.14759259259259258,4.6274000000953635],[0.10854166666666672,-0.14759259259259258,4.643900000095364],[0.07770833333333324,-0.102962962962963,4.660499999999999],[0.0775000000000001,0.003703703703703704,4.677099999904627],[0.12916666666666668,0.12685185185185185,4.697599999904632],[0.21364583333333323,0.24277777777777781,4.713900000095364],[0.31312499999999993,0.3618518518518518,4.730099999904631],[0.4076041666666666,0.5029629629629631,4.747900000095363],[0.49270833333333336,0.6403703703703703,4.76430000019073],[0.5631249999999999,0.7561111111111111,4.778599999904628],[0.6082291666666667,0.8805555555555555,4.797099999904631],[0.67375,0.9837037037037037,4.811999999999998],[0.7247916666666666,1.0875925925925924,4.828499999999998],[0.7314583333333334,1.1270370370370368,4.846900000095367],[0.7042708333333333,1.1409259259259257,4.863599999904629],[0.653125,1.1038888888888887,4.879699999809262],[0.5869791666666667,1.0637037037037038,4.89809999990463],[0.5126041666666665,1.0105555555555557,4.914099999904629],[0.4476041666666667,0.9611111111111111,4.929599999904632],[0.3885416666666667,0.9375925925925925,4.944199999809264],[0.35479166666666656,0.9053703703703705,4.961900000095362],[0.3164583333333333,0.8362962962962963,4.977099999904631],[0.278125,0.7672222222222221,4.995699999809261],[0.27374999999999994,0.678888888888889,5.010400000095366],[0.2540625000000001,0.6342592592592593,5.027099999904628],[0.22947916666666662,0.6187037037037038,5.0438000001907355],[0.2048958333333334,0.6031481481481482,5.061],[0.21427083333333338,0.5916666666666667,5.079499999999996],[0.22041666666666657,0.5509259259259259,5.097900000095365],[0.22364583333333338,0.4992592592592593,5.112199999809263],[0.2071875000000001,0.4662962962962962,5.1289000000953635],[0.20177083333333337,0.47685185185185186,5.14380000019073],[0.2078125,0.49148148148148146,5.160599999904633],[0.19364583333333343,0.5277777777777778,5.177099999904627],[0.18885416666666663,0.5142592592592593,5.196699999809262],[0.20968749999999994,0.49666666666666676,5.210400000095362],[0.23052083333333329,0.47907407407407415,5.227099999904631],[0.22364583333333338,0.46166666666666656,5.2455],[0.22000000000000006,0.4735185185185186,5.260400000095366],[0.2228125000000001,0.47925925925925916,5.277599999904631],[0.2453125,0.4662962962962962,5.295099999904629],[0.24541666666666656,0.4427777777777778,5.321300000190732],[0.24541666666666656,0.4427777777777778,5.32869999980926],[0.23364583333333327,0.41444444444444434,5.343800000190733],[0.22458333333333325,0.38722222222222225,5.360499999999995],[0.20760416666666662,0.3816666666666667,5.37709999990463],[0.190625,0.3761111111111112,5.396099999904628],[0.18156249999999996,0.3640740740740741,5.412900000095362],[0.17447916666666666,0.36074074074074064,5.427499999999995],[0.1646874999999999,0.34981481481481475,5.443800000190734],[0.1484375,0.3449999999999999,5.462400000095364],[0.1397916666666667,0.33666666666666656,5.477400000095365],[0.14708333333333337,0.3322222222222222,5.495699999809261],[0.15572916666666667,0.3381481481481482,5.514499999999998],[0.15968749999999995,0.3177777777777778,5.530999999999999],[0.17145833333333324,0.28462962962962973,5.546199999809261],[0.1736458333333334,0.2916666666666667,5.563699999809259],[0.16437499999999997,0.2985185185185186,5.579999999999998],[0.15302083333333344,0.25925925925925924,5.597199999809263],[0.15302083333333344,0.25925925925925924,5.610499999999995],[0.1443749999999999,0.22759259259259254,5.627199999809264],[0.1443749999999999,0.22759259259259254,5.64380000019073],[0.1506249999999999,0.22462962962962954,5.660499999999999],[0.146875,0.19018518518518526,5.677499999999995],[0.1336458333333333,0.15925925925925927,5.69409999990463],[0.12541666666666676,0.12407407407407407,5.710400000095362],[0.11916666666666677,0.11407407407407412,5.728499999999997],[0.14166666666666666,0.09722222222222222,5.745699999809261],[0.17374999999999996,0.04018518518518527,5.760699999809262],[0.17374999999999996,0.04018518518518527,5.777099999904628],[0.20458333333333342,-0.022037037037036994,5.7938000001907355],[0.23020833333333332,0.032777777777777864,5.8104999999999976],[0.2529166666666666,0.0492592592592593,5.827599999904628],[0.2548958333333334,0.019444444444444445,5.843800000190733],[0.25927083333333345,0.024629629629629547,5.862499999999997],[0.2786458333333333,0.03722222222222227,5.879199999809259],[0.2920833333333334,0.044444444444444446,5.89530000019073],[0.3016666666666666,0.06740740740740736,5.91069999980926],[0.27843749999999995,0.09148148148148144,5.928999999999995],[0.2552083333333333,0.11555555555555551,5.943900000095368],[0.23427083333333343,0.14222222222222214,5.962199999809265],[0.22291666666666668,0.0933333333333333,5.977400000095365],[0.22291666666666668,0.0933333333333333,5.9939000000953655],[0.22333333333333344,0.07018518518518514,6.0105],[0.22333333333333344,0.07018518518518514,6.0271999998092625],[0.22958333333333342,0.06462962962962959,6.0438000001907355],[0.22958333333333342,0.06462962962962959,6.0604999999999976],[0.23052083333333329,0.07592592592592592,6.0770999999046325],[0.23052083333333329,0.07592592592592592,6.093800000190733],[0.22125000000000009,0.08314814814814811,6.110499999999995],[0.23052083333333329,0.06185185185185181,6.1325999999046275],[0.23052083333333329,0.06185185185185181,6.1436999998092645],[0.24468750000000009,0.03259259259259263,6.160499999999999],[0.24468750000000009,0.03259259259259263,6.177099999904627],[0.23802083333333332,0.032777777777777864,6.1939999999999955],[0.23729166666666662,0.018888888888888972,6.210900000095364],[0.23729166666666662,0.018888888888888972,6.227099999904631],[0.25927083333333345,-0.018888888888888972,6.243800000190731],[0.2789583333333333,-0.052037037037037076,6.26109999990463],[0.26593749999999994,-0.03592592592592588,6.277400000095362],[0.2529166666666666,-0.0198148148148149,6.294300000190731],[0.2552083333333333,-0.02240740740740745,6.311199999809261],[0.24520833333333342,-0.042407407407407366,6.329499999999996],[0.21666666666666667,-0.0338888888888888,6.343900000095367],[0.22156250000000005,-0.05388888888888893,6.362400000095363],[0.2513541666666666,-0.09759259259259258,6.377300000190729],[0.2724999999999999,-0.1368518518518518,6.3959000000953665],[0.2734375,-0.14296296296296293,6.410400000095365],[0.2743750000000001,-0.14907407407407408,6.427300000190733],[0.2712500000000001,-0.14240740740740737,6.443800000190734],[0.28895833333333343,-0.17555555555555558,6.463699999809265],[0.2877083333333334,-0.2094444444444445,6.4794999999999945],[0.30916666666666665,-0.2337037037037037,6.497499999999995],[0.3388541666666666,-0.25629629629629624,6.5120000000000005],[0.33406250000000004,-0.2581481481481481,6.528499999999994],[0.3203125,-0.25574074074074077,6.544499999999999],[0.30927083333333344,-0.24370370370370376,6.564699999809264],[0.31260416666666657,-0.22111111111111106,6.580999999999996],[0.3159374999999999,-0.1985185185185185,6.599599999904633],[0.3159374999999999,-0.1985185185185185,6.610599999904629],[0.34187500000000004,-0.22666666666666663,6.62709999990463],[0.34187500000000004,-0.22666666666666663,6.6436999998092645],[0.33739583333333345,-0.23592592592592587,6.660499999999999],[0.35208333333333336,-0.24351851851851852,6.677099999904627],[0.3610416666666666,-0.25018518518518523,6.693699999809262],[0.35916666666666663,-0.27037037037037037,6.71080000019073],[0.34364583333333343,-0.2564814814814815,6.732400000095367],[0.34364583333333343,-0.2564814814814815,6.7498000001907315],[0.33708333333333323,-0.24685185185185188,6.767499999999998],[0.33708333333333323,-0.24685185185185188,6.777099999904628],[0.3489583333333333,-0.26592592592592595,6.7938000001907355],[0.3397916666666667,-0.29203703703703704,6.810400000095363],[0.3306250000000001,-0.3181481481481482,6.8270999999046325],[0.33718750000000003,-0.3244444444444444,6.84369999980926],[0.3533333333333334,-0.3098148148148148,6.8604000000953675],[0.35,-0.2887037037037037,6.87709999990463],[0.3466666666666666,-0.2675925925925926,6.89380000019073],[0.3584374999999999,-0.24351851851851852,6.910400000095365],[0.38385416666666666,-0.2535185185185185,6.927],[0.4162499999999999,-0.29018518518518516,6.943800000190734],[0.39781250000000007,-0.24592592592592594,6.960400000095362],[0.3953125,-0.20203703703703707,6.977099999904631],[0.41468749999999993,-0.1881481481481482,6.993800000190731],[0.42520833333333335,-0.17999999999999997,7.010300000190732],[0.4357291666666666,-0.17185185185185187,7.027099999904628],[0.45031249999999995,-0.20037037037037034,7.043699999809263],[0.4648958333333333,-0.22888888888888892,7.0604999999999976],[0.4679166666666667,-0.21537037037037038,7.0770999999046325],[0.4728125000000001,-0.22833333333333336,7.09669999980926],[0.47072916666666675,-0.2146296296296296,7.1104000000953675],[0.5010416666666667,-0.2531481481481481,7.12709999990463],[0.5006249999999999,-0.2505555555555556,7.144300000190732],[0.4875,-0.21814814814814817,7.160800000190733],[0.4962500000000001,-0.2331481481481481,7.177],[0.4992708333333333,-0.2661111111111111,7.1950999999046275],[0.5075000000000001,-0.26796296296296296,7.210400000095362],[0.5157291666666666,-0.2698148148148148,7.226999999999997],[0.5278125,-0.28296296296296297,7.243699999809266],[0.5380208333333333,-0.26962962962962966,7.2620000000000005],[0.5389583333333334,-0.26740740740740737,7.277099999904628],[0.5389583333333334,-0.26740740740740737,7.293900000095363],[0.5398958333333332,-0.2651851851851852,7.3104999999999976],[0.5564583333333334,-0.3074074074074074,7.3270999999046325],[0.5513541666666666,-0.337037037037037,7.34369999980926],[0.5228125000000001,-0.3320370370370371,7.360599999904629],[0.48458333333333337,-0.3101851851851852,7.37709999990463],[0.44635416666666666,-0.28833333333333333,7.393900000095364],[0.42947916666666663,-0.2824074074074074,7.410400000095365],[0.4078125,-0.2983333333333334,7.427],[0.3571875000000001,-0.2905555555555555,7.443800000190734],[0.31583333333333335,-0.27166666666666667,7.460400000095362],[0.2775000000000001,-0.257962962962963,7.476999999999997],[0.2775000000000001,-0.257962962962963,7.493800000190731],[0.2685416666666666,-0.2566666666666667,7.510400000095366],[0.2633333333333333,-0.28425925925925927,7.526999999999994],[0.25812499999999994,-0.3118518518518518,7.543699999809263],[0.2617708333333333,-0.3331481481481481,7.563300000190729],[0.26541666666666663,-0.3544444444444444,7.576999999999998],[0.2478125000000001,-0.375,7.595400000095367],[0.2478125000000001,-0.375,7.610599999904629],[0.23020833333333332,-0.3955555555555556,7.627199999809264],[0.23156249999999995,-0.43407407407407406,7.647400000095367],[0.23291666666666658,-0.47259259259259256,7.663800000190733],[0.22291666666666668,-0.4872222222222223,7.677199999809261],[0.18937499999999996,-0.4892592592592592,7.693699999809262],[0.19333333333333325,-0.48333333333333334,7.710400000095362],[0.19729166666666675,-0.47740740740740745,7.730499999999999],[0.1859375,-0.4777777777777778,7.743800000190731],[0.17458333333333323,-0.4781481481481481,7.7605],[0.17895833333333327,-0.44611111111111107,7.777099999904628],[0.18333333333333332,-0.4140740740740741,7.794400000095365],[0.18677083333333327,-0.38185185185185183,7.810400000095363],[0.19020833333333323,-0.3496296296296296,7.826999999999998],[0.24666666666666662,-0.3537037037037037,7.84369999980926],[0.303125,-0.35777777777777775,7.8604000000953675],[0.29229166666666656,-0.3531481481481481,7.87709999990463],[0.2841666666666666,-0.34092592592592597,7.893900000095364],[0.31197916666666664,-0.3388888888888889,7.9133000001907305],[0.31197916666666664,-0.3388888888888889,7.927099999904627],[0.3252083333333334,-0.3207407407407407,7.943900000095368],[0.3051041666666668,-0.29259259259259257,7.961999999999996],[0.29447916666666674,-0.2809259259259259,7.980499999999999],[0.29447916666666674,-0.2809259259259259,7.993800000190731],[0.29270833333333335,-0.257962962962963,8.0105],[0.29270833333333335,-0.257962962962963,8.027199999809262],[0.29093749999999996,-0.23499999999999996,8.043800000190735],[0.29093749999999996,-0.23499999999999996,8.060499999999998],[0.23947916666666677,-0.2116666666666667,8.07719999980926],[0.2055208333333333,-0.19185185185185188,8.099099999904631],[0.2055208333333333,-0.19185185185185188,8.110400000095368],[0.21833333333333324,-0.1633333333333333,8.12709999990463],[0.21833333333333324,-0.1633333333333333,8.143699999809265],[0.22729166666666673,-0.13537037037037042,8.160499999999999],[0.22729166666666673,-0.13537037037037042,8.177],[0.25666666666666677,-0.030740740740740784,8.193800000190734],[0.2986458333333334,0.07277777777777769,8.210400000095362],[0.36687500000000006,0.18648148148148155,8.226999999999997],[0.4171875,0.28851851851851845,8.249400000095363],[0.4171875,0.28851851851851845,8.260400000095366],[0.4521874999999999,0.3622222222222223,8.277099999904628],[0.48718750000000005,0.4359259259259259,8.295699999809266],[0.5253125,0.5085185185185186,8.310800000190731],[0.5451041666666666,0.5512962962962964,8.328599999904633],[0.5566666666666668,0.5851851851851851,8.344300000190735],[0.5566666666666668,0.5851851851851851,8.360400000095368],[0.5559375000000001,0.5833333333333334,8.37709999990463],[0.5559375000000001,0.5833333333333334,8.39380000019073],[0.5185416666666666,0.509074074074074,8.410400000095365],[0.48312499999999997,0.4198148148148149,8.427099999904627],[0.48312499999999997,0.4198148148148149,8.443699999809262],[0.46197916666666666,0.2507407407407407,8.460400000095362],[0.4470833333333334,0.15703703703703695,8.477099999904631],[0.4495833333333332,0.07444444444444454,8.493800000190731],[0.4453125,-0.020740740740740823,8.510400000095366],[0.44291666666666674,-0.09759259259259258,8.527099999904628],[0.4466666666666666,-0.1368518518518518,8.543800000190735],[0.45041666666666674,-0.17611111111111116,8.564300000190734],[0.46895833333333337,-0.1925925925925926,8.579],[0.46895833333333337,-0.1925925925925926,8.593800000190733],[0.4896874999999999,-0.20203703703703707,8.610499999999995],[0.5101041666666667,-0.22240740740740744,8.629900000095368],[0.4969791666666666,-0.19740740740740745,8.647800000190735],[0.49458333333333326,-0.21333333333333332,8.664400000095362],[0.4935416666666666,-0.23629629629629634,8.680099999904627],[0.48312499999999997,-0.23425925925925925,8.696400000095366],[0.4727083333333333,-0.2322222222222222,8.713400000095362],[0.45760416666666665,-0.24259259259259258,8.7305],[0.46114583333333337,-0.24351851851851852,8.745300000190731],[0.4580208333333334,-0.257962962962963,8.763400000095366],[0.4538541666666667,-0.27907407407407403,8.783400000095362],[0.4538541666666667,-0.27907407407407403,8.793800000190735],[0.4521874999999999,-0.2505555555555556,8.810400000095363],[0.46104166666666657,-0.225,8.826999999999998],[0.4679166666666667,-0.2212962962962963,8.845400000095367],[0.4734375,-0.21055555555555552,8.860499999999995],[0.4951041666666666,-0.21092592592592588,8.876999999999995],[0.5165625000000001,-0.205,8.895900000095367],[0.5230208333333333,-0.19240740740740736,8.910999999999994],[0.5108333333333335,-0.18925925925925924,8.927],[0.49583333333333335,-0.15611111111111114,8.94580000019073],[0.4883333333333333,-0.13925925925925925,8.960999999999999],[0.5037499999999999,-0.027222222222222307,8.977099999904631],[0.5191666666666668,0.08481481481481473,8.994199999809261],[0.5466666666666666,0.17092592592592584,9.010800000190734],[0.5741666666666667,0.25703703703703695,9.027099999904628],[0.5852083333333333,0.35777777777777786,9.043699999809263],[0.6114583333333333,0.45203703703703707,9.060400000095363],[0.6396874999999999,0.5622222222222223,9.078499999999998],[0.6481250000000001,0.6392592592592593,9.096900000095367],[0.6646874999999999,0.7057407407407408,9.110699999809263],[0.6678124999999999,0.793148148148148,9.129999999999995],[0.6458333333333334,0.7466666666666667,9.144999999999996],[0.6178124999999999,0.6374074074074075,9.161699999809265],[0.5711458333333332,0.5696296296296297,9.177099999904627],[0.5315624999999999,0.5264814814814814,9.195099999904627],[0.5084374999999999,0.4674074074074074,9.210400000095362],[0.4703125,0.40851851851851856,9.226999999999997],[0.4535416666666668,0.2803703703703703,9.243599999904632],[0.4565624999999999,0.1853703703703704,9.260300000190732],[0.45125000000000004,0.11018518518518519,9.276999999999994],[0.45291666666666663,0.037037037037037035,9.295699999809266],[0.4554166666666667,-0.03166666666666671,9.310400000095363],[0.4639583333333334,-0.03759259259259251,9.327099999904632],[0.4587500000000001,-0.0514814814814814,9.343900000095367],[0.44645833333333323,-0.09000000000000004,9.362099999904629],[0.4384375000000001,-0.14203703703703702,9.37880000019073],[0.4262500000000001,-0.1940740740740741,9.394300000190732],[0.4058333333333332,-0.19166666666666668,9.410400000095365],[0.3854166666666667,-0.18925925925925924,9.430300000190734],[0.3710416666666667,-0.19277777777777783,9.446599999904628],[0.35666666666666674,-0.1962962962962963,9.462199999809265],[0.3368750000000001,-0.22888888888888892,9.477099999904631],[0.321875,-0.24111111111111108,9.49759999990463],[0.32062499999999994,-0.24537037037037038,9.512099999904628],[0.30479166666666657,-0.2548148148148149,9.529199999809265],[0.2846874999999999,-0.2507407407407407,9.5445],[0.2648958333333333,-0.2607407407407408,9.560499999999998],[0.2443749999999999,-0.27037037037037037,9.577099999904632],[0.22864583333333333,-0.25462962962962965,9.597400000095362],[0.22864583333333333,-0.25462962962962965,9.610400000095368],[0.2335416666666667,-0.2657407407407407,9.62880000019073],[0.2335416666666667,-0.2657407407407407,9.64380000019073],[0.22083333333333333,-0.2766666666666666,9.660400000095365],[0.21322916666666672,-0.27999999999999997,9.679499999999997],[0.21322916666666672,-0.27999999999999997,9.693800000190734],[0.20083333333333328,-0.3037037037037037,9.710400000095362],[0.2039583333333333,-0.33185185185185184,9.729499999999994],[0.2039583333333333,-0.33185185185185184,9.743699999809266],[0.22374999999999995,-0.36203703703703705,9.7605],[0.24500000000000005,-0.3918518518518519,9.776999999999994],[0.27010416666666665,-0.4075925925925926,9.795199999809263],[0.29322916666666665,-0.422037037037037,9.812199999809259],[0.3115624999999999,-0.4618518518518518,9.827300000190732],[0.3017708333333334,-0.4792592592592593,9.843800000190733],[0.3095833333333334,-0.4968518518518519,9.860599999904629],[0.30479166666666657,-0.4698148148148148,9.876999999999995],[0.3,-0.4427777777777778,9.896900000095364],[0.2755208333333333,-0.4294444444444444,9.913400000095365],[0.25020833333333337,-0.4118518518518518,9.929499999999997],[0.2234375,-0.39462962962962966,9.943699999809262],[0.20520833333333333,-0.3327777777777778,9.96380000019073],[0.18895833333333342,-0.2722222222222222,9.981099999904629],[0.18895833333333342,-0.2722222222222222,9.993699999809266],[0.1834374999999999,-0.24518518518518514,10.010400000095366],[0.1834374999999999,-0.24518518518518514,10.027400000095362],[0.1877083333333334,-0.22759259259259254,10.043699999809263],[0.1877083333333334,-0.22759259259259254,10.060499999999998],[0.19145833333333329,-0.1838888888888889,10.077099999904632],[0.20604166666666662,-0.192037037037037,10.098900000095362],[0.20604166666666662,-0.192037037037037,10.110400000095368],[0.22906250000000009,-0.20203703703703707,10.12709999990463],[0.22906250000000009,-0.20203703703703707,10.14359999990463],[0.25499999999999995,-0.19888888888888884,10.160499999999999],[0.25499999999999995,-0.19888888888888884,10.177099999904627],[0.2665625000000001,-0.19685185185185186,10.193800000190734],[0.29583333333333334,-0.1801851851851852,10.210400000095362],[0.3165625000000001,-0.2081481481481481,10.226999999999997],[0.32697916666666677,-0.22666666666666663,10.243800000190731],[0.32666666666666655,-0.2116666666666667,10.260400000095366],[0.3294791666666666,-0.21648148148148144,10.27759999990463],[0.3328125,-0.24740740740740744,10.293800000190735],[0.3321875000000001,-0.2381481481481482,10.311800000190729],[0.34322916666666664,-0.2418518518518519,10.328800000190732],[0.3555208333333333,-0.24055555555555552,10.34609999990463],[0.35614583333333344,-0.22092592592592594,10.363199999809261],[0.3519791666666668,-0.22018518518518515,10.377800000190732],[0.334375,-0.22962962962962963,10.396099999904628],[0.32708333333333334,-0.2485185185185185,10.412099999904633],[0.33270833333333344,-0.26962962962962966,10.427999999999997],[0.3138541666666666,-0.2548148148148149,10.444199999809264],[0.3259375000000001,-0.25148148148148153,10.46080000019073],[0.3398958333333333,-0.2551851851851852,10.48480000019073],[0.3398958333333333,-0.2551851851851852,10.493699999809266],[0.3337500000000001,-0.24407407407407408,10.510300000190732],[0.32447916666666665,-0.23203703703703707,10.527900000095364],[0.35520833333333335,-0.25925925925925924,10.543699999809263],[0.37302083333333325,-0.2822222222222222,10.560400000095363],[0.3780208333333334,-0.29685185185185187,10.57869999980926],[0.37468750000000006,-0.30888888888888894,10.597400000095362],[0.37468750000000006,-0.30888888888888894,10.610400000095368],[0.3585416666666667,-0.3164814814814814,10.62709999990463],[0.3585416666666667,-0.3164814814814814,10.64380000019073],[0.3732291666666666,-0.34333333333333327,10.660400000095365],[0.3454166666666666,-0.34518518518518515,10.677],[0.3380208333333333,-0.3492592592592593,10.695499999999996],[0.32395833333333335,-0.3542592592592593,10.710400000095362],[0.3265625,-0.3592592592592593,10.73069999980926],[0.31395833333333345,-0.33925925925925926,10.74909999990463],[0.31395833333333345,-0.33925925925925926,10.7605],[0.29239583333333335,-0.2705555555555556,10.777199999809262],[0.3054166666666667,-0.2351851851851852,10.79430000019073],[0.3267708333333334,-0.20240740740740742,10.81309999990463],[0.3337500000000001,-0.16648148148148145,10.82809999990463],[0.32625000000000004,-0.12370370370370372,10.843800000190733],[0.3303124999999999,-0.09444444444444444,10.864099999904631],[0.33739583333333345,-0.06388888888888888,10.879099999904632],[0.3511458333333332,-0.032407407407407406,10.895499999999998],[0.3142708333333334,0.01796296296296305,10.91030000019073],[0.28968749999999993,0.07351851851851861,10.927],[0.28312499999999996,0.06425925925925935,10.948099999904628],[0.28312499999999996,0.06425925925925935,10.966300000190735],[0.2682291666666667,0.09018518518518527,10.986999999999995],[0.2682291666666667,0.09018518518518527,10.995300000190731],[0.24718749999999995,0.1242592592592593,11.0105],[0.2404166666666666,0.152962962962963,11.027300000190735],[0.23645833333333333,0.14537037037037037,11.045300000190736],[0.23666666666666672,0.13425925925925927,11.060499999999998],[0.2087500000000001,0.13925925925925933,11.07719999980926],[0.18083333333333323,0.14425925925925923,11.09669999980926],[0.20479166666666657,0.1300000000000001,11.110800000190736],[0.21645833333333328,0.11055555555555564,11.127199999809264],[0.20437500000000006,0.08666666666666659,11.143699999809265],[0.19927083333333329,0.07407407407407407,11.16030000019073],[0.19177083333333325,0.027222222222222307,11.177699999809263],[0.2195833333333333,-0.039074074074074115,11.195999999999998],[0.22989583333333338,-0.04259259259259259,11.210400000095362],[0.23604166666666657,-0.04259259259259259,11.226999999999997],[0.25239583333333326,-0.06592592592592597,11.243699999809266],[0.2570833333333333,-0.09518518518518514,11.260300000190732],[0.24479166666666666,-0.12222222222222222,11.276999999999994],[0.23718750000000005,-0.1557407407407408,11.29430000019073],[0.2476041666666667,-0.15,11.310400000095363],[0.25104166666666666,-0.15555555555555556,11.328800000190732],[0.24833333333333343,-0.12925925925925927,11.343800000190733],[0.2103125000000001,-0.08351851851851856,11.360599999904629],[0.1977083333333333,-0.08796296296296297,11.38009999990463],[0.1935416666666666,-0.08611111111111111,11.395599999904633],[0.17864583333333334,-0.08814814814814818,11.410499999999999],[0.1865624999999999,-0.0948148148148148,11.427199999809261],[0.20114583333333325,-0.10092592592592593,11.446599999904628],[0.2071875000000001,-0.08388888888888892,11.460699999809265],[0.21208333333333323,-0.09722222222222222,11.476999999999997],[0.2169791666666666,-0.11055555555555553,11.493900000095365],[0.23177083333333334,-0.12222222222222222,11.510300000190732],[0.23833333333333329,-0.1361111111111111,11.526999999999994],[0.2381249999999999,-0.14222222222222225,11.543599999904629],[0.22687499999999997,-0.16166666666666668,11.560300000190729],[0.22135416666666666,-0.17296296296296293,11.576999999999998],[0.20739583333333325,-0.16425925925925924,11.594099999904628],[0.18895833333333342,-0.1588888888888889,11.611199999809266],[0.18895833333333342,-0.1588888888888889,11.62709999990463],[0.17437500000000009,-0.17018518518518513,11.643900000095364],[0.17437500000000009,-0.17018518518518513,11.660499999999999],[0.1779166666666666,-0.16629629629629633,11.677099999904627],[0.16927083333333334,-0.15314814814814812,11.695199999809262],[0.16270833333333337,-0.16425925925925924,11.710400000095362],[0.16010416666666671,-0.17814814814814814,11.7275],[0.1664583333333333,-0.14444444444444443,11.745699999809261],[0.17531249999999995,-0.10648148148148148,11.760300000190732],[0.18468749999999995,-0.06925925925925921,11.776999999999994],[0.19135416666666671,-0.04148148148148144,11.794099999904631],[0.19135416666666671,-0.04148148148148144,11.810300000190729],[0.20979166666666677,