inst1_resp.keys,inst1_resp.rt,calibrationMouse.x,calibrationMouse.y,calibrationMouse.leftButton,calibrationMouse.midButton,calibrationMouse.rightButton,calibrationClick.x,calibrationClick.y,calibrationClick.leftButton,calibrationClick.midButton,calibrationClick.rightButton,trialsc.thisRepN,trialsc.thisTrialN,trialsc.thisN,trialsc.thisIndex,trialsc.ran,calibration_x,calibration_y,participant,session,date,expName,psychopyVersion,OS,frameRate,calibrationClick.clicked_name,ScreenRes_pixels,Camera_pixels,mouse_2.x,mouse_2.y,mouse_2.leftButton,mouse_2.midButton,mouse_2.rightButton,mouse_2.time,mouse_2.clicked_name,mouse.x,mouse.y,mouse.leftButton,mouse.midButton,mouse.rightButton,mouse.time,mouse.clicked_name,Choice,Trial,TrialDuration,MOUSE_GAZE,ET_GAZE,ET_GAZE_x_T,time,unixTime,ET_GAZE_NF,Loc_Bus_label,Loc_Metro_label,Loc_RH_label,Loc_Cost_label,Loc_Travel_label,Loc_Comfort_label,Loc_Bus_cost,Loc_Metro_cost,Loc_RH_cost,Loc_Bus_travel,Loc_Metro_travel,Loc_RH_travel,Loc_Bus_comfort,Loc_Metro_comfort,Loc_RH_comfort,trials.thisRepN,trials.thisTrialN,trials.thisN,trials.thisIndex,trials.ran,Block,Device,RH_cost,RH_travel_time,RH_Comfort,metro_cost,metro_travel_time,metro_Comfort,Bus_cost,Bus_travel_time,Bus_Comfort
space,2.6383,-0.034375,0.290740741,1,0,0,-0.435416667,-0.642592593,0,0,0,0,0,0,4,1,-0.33,-0.67,05,001,2024-11-19_15h42.43.262,Attention_exp_legacy,2023.1.0,Win32,60.24096386,,,,,,,,,,,,,,,,,,,,,,,,,,,,,,,,,,,,,,,,,,,,,,,,,,,,,,,,,
,,,,,,,-0.663541667,0.337037037,1,0,0,0,1,1,3,1,-0.67,0.33,05,001,2024-11-19_15h42.43.262,Attention_exp_legacy,2023.1.0,Win32,60.24096386,calibration_square,,,,,,,,,,,,,,,,,,,,,,,,,,,,,,,,,,,,,,,,,,,,,,,,,,,,,,,,
,,,,,,,0.008333333,-0.340740741,1,0,0,0,2,2,10,1,0,-0.33,05,001,2024-11-19_15h42.43.262,Attention_exp_legacy,2023.1.0,Win32,60.24096386,,,,,,,,,,,,,,,,,,,,,,,,,,,,,,,,,,,,,,,,,,,,,,,,,,,,,,,,,
,,,,,,,-0.003125,0.683333333,1,0,0,0,3,3,13,1,0,0.67,05,001,2024-11-19_15h42.43.262,Attention_exp_legacy,2023.1.0,Win32,60.24096386,,,,,,,,,,,,,,,,,,,,,,,,,,,,,,,,,,,,,,,,,,,,,,,,,,,,,,,,,
,,,,,,,0.347916667,0.003703704,1,0,0,0,4,4,16,1,0.33,0,05,001,2024-11-19_15h42.43.262,Attention_exp_legacy,2023.1.0,Win32,60.24096386,,,,,,,,,,,,,,,,,,,,,,,,,,,,,,,,,,,,,,,,,,,,,,,,,,,,,,,,,
,,,,,,,0.322916667,0.318518519,1,0,0,0,5,5,17,1,0.33,0.33,05,001,2024-11-19_15h42.43.262,Attention_exp_legacy,2023.1.0,Win32,60.24096386,,,,,,,,,,,,,,,,,,,,,,,,,,,,,,,,,,,,,,,,,,,,,,,,,,,,,,,,,
,,,,,,,-0.673958333,-0.67037037,1,0,0,0,6,6,0,1,-0.67,-0.67,05,001,2024-11-19_15h42.43.262,Attention_exp_legacy,2023.1.0,Win32,60.24096386,calibration_square,,,,,,,,,,,,,,,,,,,,,,,,,,,,,,,,,,,,,,,,,,,,,,,,,,,,,,,,
,,,,,,,-0.352083333,-0.009259259,1,0,0,0,7,7,6,1,-0.33,0,05,001,2024-11-19_15h42.43.262,Attention_exp_legacy,2023.1.0,Win32,60.24096386,,,,,,,,,,,,,,,,,,,,,,,,,,,,,,,,,,,,,,,,,,,,,,,,,,,,,,,,,
,,,,,,,0.678125,-0.67962963,1,0,0,0,8,8,20,1,0.67,-0.67,05,001,2024-11-19_15h42.43.262,Attention_exp_legacy,2023.1.0,Win32,60.24096386,calibration_square,,,,,,,,,,,,,,,,,,,,,,,,,,,,,,,,,,,,,,,,,,,,,,,,,,,,,,,,
,,,,,,,-0.678125,-0.011111111,1,0,0,0,9,9,2,1,-0.67,0,05,001,2024-11-19_15h42.43.262,Attention_exp_legacy,2023.1.0,Win32,60.24096386,,,,,,,,,,,,,,,,,,,,,,,,,,,,,,,,,,,,,,,,,,,,,,,,,,,,,,,,,
,,,,,,,0.002083333,-0.666666667,1,0,0,0,10,10,9,1,0,-0.67,05,001,2024-11-19_15h42.43.262,Attention_exp_legacy,2023.1.0,Win32,60.24096386,calibration_square,,,,,,,,,,,,,,,,,,,,,,,,,,,,,,,,,,,,,,,,,,,,,,,,,,,,,,,,
,,,,,,,-0.677083333,-0.327777778,1,0,0,0,11,11,1,1,-0.67,-0.33,05,001,2024-11-19_15h42.43.262,Attention_exp_legacy,2023.1.0,Win32,60.24096386,calibration_square,,,,,,,,,,,,,,,,,,,,,,,,,,,,,,,,,,,,,,,,,,,,,,,,,,,,,,,,
,,,,,,,-0.010416667,0.007407407,1,0,0,0,12,12,11,1,0,0,05,001,2024-11-19_15h42.43.262,Attention_exp_legacy,2023.1.0,Win32,60.24096386,,,,,,,,,,,,,,,,,,,,,,,,,,,,,,,,,,,,,,,,,,,,,,,,,,,,,,,,,
,,,,,,,0.003125,0.340740741,1,0,0,0,13,13,12,1,0,0.33,05,001,2024-11-19_15h42.43.262,Attention_exp_legacy,2023.1.0,Win32,60.24096386,,,,,,,,,,,,,,,,,,,,,,,,,,,,,,,,,,,,,,,,,,,,,,,,,,,,,,,,,
,,,,,,,0.319791667,-0.666666667,1,0,0,0,14,14,14,1,0.33,-0.67,05,001,2024-11-19_15h42.43.262,Attention_exp_legacy,2023.1.0,Win32,60.24096386,,,,,,,,,,,,,,,,,,,,,,,,,,,,,,,,,,,,,,,,,,,,,,,,,,,,,,,,,
,,,,,,,0.3375,0.668518519,1,0,0,0,15,15,18,1,0.33,0.67,05,001,2024-11-19_15h42.43.262,Attention_exp_legacy,2023.1.0,Win32,60.24096386,calibration_square,,,,,,,,,,,,,,,,,,,,,,,,,,,,,,,,,,,,,,,,,,,,,,,,,,,,,,,,
,,,,,,,0.334375,-0.322222222,1,0,0,0,16,16,15,1,0.33,-0.33,05,001,2024-11-19_15h42.43.262,Attention_exp_legacy,2023.1.0,Win32,60.24096386,calibration_square,,,,,,,,,,,,,,,,,,,,,,,,,,,,,,,,,,,,,,,,,,,,,,,,,,,,,,,,
,,,,,,,-0.329166667,0.325925926,1,0,0,0,17,17,7,1,-0.33,0.33,05,001,2024-11-19_15h42.43.262,Attention_exp_legacy,2023.1.0,Win32,60.24096386,calibration_square,,,,,,,,,,,,,,,,,,,,,,,,,,,,,,,,,,,,,,,,,,,,,,,,,,,,,,,,
,,,,,,,-0.341666667,-0.344444444,1,0,0,0,18,18,5,1,-0.33,-0.33,05,001,2024-11-19_15h42.43.262,Attention_exp_legacy,2023.1.0,Win32,60.24096386,,,,,,,,,,,,,,,,,,,,,,,,,,,,,,,,,,,,,,,,,,,,,,,,,,,,,,,,,
,,,,,,,-0.334375,0.672222222,1,0,0,0,19,19,8,1,-0.33,0.67,05,001,2024-11-19_15h42.43.262,Attention_exp_legacy,2023.1.0,Win32,60.24096386,calibration_square,,,,,,,,,,,,,,,,,,,,,,,,,,,,,,,,,,,,,,,,,,,,,,,,,,,,,,,,
,,,,,,,0.652083333,0.672222222,1,0,0,0,20,20,19,1,0.67,0.67,05,001,2024-11-19_15h42.43.262,Attention_exp_legacy,2023.1.0,Win32,60.24096386,,,,,,,,,,,,,,,,,,,,,,,,,,,,,,,,,,,,,,,,,,,,,,,,,,,,,,,,,
,,,,,,,,,,,,,,,,,,,05,001,2024-11-19_15h42.43.262,Attention_exp_legacy,2023.1.0,Win32,60.24096386,,"[1920,1080]","[640,480]",[0.005208333333333333],[-0.5203703703703704],[1],[0],[0],[3.2802000002861007],"[""StartButton""]","[0.13125,0.15208333333333332]","[0.3962962962962963,0.35555555555555557]","[1,1]","[0,0]","[0,0]","[9.55020000028609,10.517499999999991]","[""Metro_label"",""Metro_label""]",Metro_label,1,10.56,"[[0.005208333333333333,-0.5203703703703704],[0.005208333333333333,-0.5203703703703704],[0.005208333333333333,-0.5203703703703704],[0.005208333333333333,-0.5203703703703704],[0.005208333333333333,-0.5203703703703704],[0.005208333333333333,-0.5203703703703704],[0.005208333333333333,-0.5203703703703704],[0.005208333333333333,-0.5203703703703704],[0.005208333333333333,-0.5203703703703704],[0.005208333333333333,-0.5203703703703704],[0.005208333333333333,-0.5203703703703704],[0.005208333333333333,-0.5203703703703704],[0.005208333333333333,-0.5203703703703704],[0.005208333333333333,-0.5203703703703704],[0.005208333333333333,-0.5203703703703704],[0.005208333333333333,-0.5203703703703704],[0.005208333333333333,-0.5203703703703704],[0.005208333333333333,-0.5203703703703704],[0.005208333333333333,-0.5203703703703704],[0.005208333333333333,-0.5203703703703704],[0.005208333333333333,-0.5203703703703704],[0.005208333333333333,-0.5203703703703704],[0.005208333333333333,-0.5203703703703704],[0.005208333333333333,-0.5203703703703704],[0.005208333333333333,-0.5203703703703704],[0.005208333333333333,-0.5203703703703704],[0.005208333333333333,-0.5203703703703704],[0.005208333333333333,-0.5203703703703704],[0.005208333333333333,-0.5203703703703704],[0.005208333333333333,-0.5203703703703704],[0.005208333333333333,-0.5203703703703704],[0.005208333333333333,-0.5203703703703704],[0.005208333333333333,-0.5203703703703704],[0.005208333333333333,-0.5203703703703704],[0.005208333333333333,-0.5203703703703704],[0.005208333333333333,-0.5203703703703704],[0.005208333333333333,-0.5203703703703704],[0.005208333333333333,-0.5203703703703704],[0.005208333333333333,-0.5203703703703704],[0.005208333333333333,-0.5203703703703704],[0.005208333333333333,-0.5203703703703704],[0.005208333333333333,-0.5203703703703704],[0.005208333333333333,-0.5203703703703704],[0.005208333333333333,-0.5203703703703704],[0.005208333333333333,-0.5203703703703704],[0.005208333333333333,-0.5203703703703704],[0.005208333333333333,-0.5203703703703704],[0.005208333333333333,-0.5203703703703704],[0.005208333333333333,-0.5203703703703704],[0.005208333333333333,-0.5203703703703704],[0.005208333333333333,-0.5203703703703704],[0.005208333333333333,-0.5203703703703704],[0.005208333333333333,-0.5203703703703704],[0.005208333333333333,-0.5203703703703704],[0.005208333333333333,-0.5203703703703704],[0.005208333333333333,-0.5203703703703704],[0.005208333333333333,-0.5203703703703704],[0.005208333333333333,-0.5203703703703704],[0.005208333333333333,-0.5203703703703704],[0.005208333333333333,-0.5203703703703704],[0.005208333333333333,-0.5203703703703704],[0.005208333333333333,-0.5203703703703704],[0.005208333333333333,-0.5203703703703704],[0.005208333333333333,-0.5203703703703704],[0.005208333333333333,-0.5203703703703704],[0.005208333333333333,-0.5203703703703704],[0.005208333333333333,-0.5203703703703704],[0.005208333333333333,-0.5203703703703704],[0.005208333333333333,-0.5203703703703704],[0.005208333333333333,-0.5203703703703704],[0.005208333333333333,-0.5203703703703704],[0.005208333333333333,-0.5203703703703704],[0.005208333333333333,-0.5203703703703704],[0.005208333333333333,-0.5203703703703704],[0.005208333333333333,-0.5203703703703704],[0.005208333333333333,-0.5203703703703704],[0.005208333333333333,-0.5203703703703704],[0.005208333333333333,-0.5203703703703704],[0.005208333333333333,-0.5203703703703704],[0.005208333333333333,-0.5203703703703704],[0.005208333333333333,-0.5203703703703704],[0.005208333333333333,-0.5203703703703704],[0.005208333333333333,-0.5203703703703704],[0.005208333333333333,-0.5203703703703704],[0.005208333333333333,-0.5203703703703704],[0.005208333333333333,-0.5203703703703704],[0.005208333333333333,-0.5203703703703704],[0.005208333333333333,-0.5203703703703704],[0.005208333333333333,-0.5203703703703704],[0.005208333333333333,-0.5203703703703704],[0.005208333333333333,-0.5203703703703704],[0.005208333333333333,-0.5203703703703704],[0.005208333333333333,-0.5203703703703704],[0.005208333333333333,-0.5203703703703704],[0.005208333333333333,-0.5203703703703704],[0.005208333333333333,-0.5203703703703704],[0.005208333333333333,-0.5203703703703704],[0.005208333333333333,-0.5203703703703704],[0.005208333333333333,-0.5203703703703704],[0.005208333333333333,-0.5203703703703704],[0.005208333333333333,-0.5203703703703704],[0.005208333333333333,-0.5203703703703704],[0.005208333333333333,-0.5203703703703704],[0.005208333333333333,-0.5203703703703704],[0.005208333333333333,-0.5203703703703704],[0.005208333333333333,-0.5203703703703704],[0.005208333333333333,-0.5203703703703704],[0.005208333333333333,-0.5203703703703704],[0.005208333333333333,-0.5203703703703704],[0.005208333333333333,-0.5203703703703704],[0.005208333333333333,-0.5203703703703704],[0.005208333333333333,-0.5203703703703704],[0.005208333333333333,-0.5203703703703704],[0.005208333333333333,-0.5203703703703704],[0.005208333333333333,-0.5203703703703704],[0.005208333333333333,-0.5203703703703704],[0.005208333333333333,-0.5203703703703704],[0.005208333333333333,-0.5203703703703704],[0.005208333333333333,-0.5203703703703704],[0.005208333333333333,-0.5203703703703704],[0.005208333333333333,-0.5203703703703704],[0.005208333333333333,-0.5203703703703704],[0.005208333333333333,-0.5203703703703704],[0.005208333333333333,-0.5203703703703704],[0.005208333333333333,-0.5203703703703704],[0.005208333333333333,-0.5203703703703704],[0.005208333333333333,-0.5203703703703704],[0.005208333333333333,-0.5203703703703704],[0.005208333333333333,-0.5203703703703704],[0.005208333333333333,-0.5203703703703704],[0.005208333333333333,-0.5203703703703704],[0.005208333333333333,-0.5203703703703704],[0.005208333333333333,-0.5203703703703704],[0.005208333333333333,-0.5203703703703704],[0.005208333333333333,-0.5203703703703704],[0.005208333333333333,-0.5203703703703704],[0.005208333333333333,-0.5203703703703704],[0.005208333333333333,-0.5203703703703704],[0.005208333333333333,-0.5203703703703704],[0.005208333333333333,-0.5203703703703704],[0.005208333333333333,-0.5203703703703704],[0.005208333333333333,-0.5203703703703704],[0.005208333333333333,-0.5203703703703704],[0.005208333333333333,-0.5203703703703704],[0.005208333333333333,-0.5203703703703704],[0.005208333333333333,-0.5203703703703704],[0.005208333333333333,-0.5203703703703704],[0.005208333333333333,-0.5203703703703704],[0.005208333333333333,-0.5203703703703704],[0.005208333333333333,-0.5203703703703704],[0.005208333333333333,-0.5203703703703704],[0.005208333333333333,-0.5203703703703704],[0.005208333333333333,-0.5203703703703704],[0.005208333333333333,-0.5203703703703704],[0.005208333333333333,-0.5203703703703704],[0.005208333333333333,-0.5203703703703704],[0.005208333333333333,-0.5203703703703704],[0.005208333333333333,-0.5203703703703704],[0.005208333333333333,-0.5203703703703704],[0.005208333333333333,-0.5203703703703704],[0.005208333333333333,-0.5203703703703704],[0.005208333333333333,-0.5203703703703704],[0.005208333333333333,-0.5203703703703704],[0.005208333333333333,-0.5203703703703704],[0.005208333333333333,-0.5203703703703704],[0.005208333333333333,-0.5203703703703704],[0.005208333333333333,-0.5203703703703704],[0.005208333333333333,-0.5203703703703704],[0.005208333333333333,-0.5203703703703704],[0.005208333333333333,-0.5203703703703704],[0.005208333333333333,-0.5203703703703704],[0.005208333333333333,-0.5203703703703704],[0.005208333333333333,-0.5203703703703704],[0.005208333333333333,-0.5203703703703704],[0.005208333333333333,-0.5203703703703704],[0.005208333333333333,-0.5203703703703704],[0.005208333333333333,-0.5203703703703704],[0.005208333333333333,-0.5203703703703704],[0.005208333333333333,-0.5203703703703704],[0.005208333333333333,-0.5203703703703704],[0.005208333333333333,-0.5203703703703704],[0.005208333333333333,-0.5203703703703704],[0.005208333333333333,-0.5203703703703704],[0.005208333333333333,-0.5203703703703704],[0.005208333333333333,-0.5203703703703704],[0.005208333333333333,-0.5203703703703704],[0.005208333333333333,-0.5203703703703704],[0.005208333333333333,-0.5203703703703704],[0.005208333333333333,-0.5203703703703704],[0.005208333333333333,-0.5203703703703704],[0.005208333333333333,-0.5203703703703704],[0.005208333333333333,-0.5203703703703704],[0.005208333333333333,-0.5203703703703704],[0.005208333333333333,-0.5203703703703704],[0.005208333333333333,-0.5203703703703704],[0.005208333333333333,-0.5203703703703704],[0.005208333333333333,-0.5203703703703704],[0.005208333333333333,-0.5203703703703704],[0.005208333333333333,-0.5203703703703704],[0.005208333333333333,-0.5203703703703704],[0.005208333333333333,-0.5203703703703704],[0.005208333333333333,-0.5203703703703704],[0.005208333333333333,-0.5203703703703704],[0.005208333333333333,-0.5203703703703704],[0.005208333333333333,-0.5203703703703704],[0.005208333333333333,-0.5203703703703704],[0.005208333333333333,-0.5203703703703704],[0.005208333333333333,-0.5203703703703704],[0.005208333333333333,-0.5203703703703704],[0.005208333333333333,-0.5203703703703704],[0.005208333333333333,-0.5203703703703704],[0.005208333333333333,-0.5203703703703704],[0.005208333333333333,-0.5203703703703704],[0.005208333333333333,-0.5203703703703704],[0.005208333333333333,-0.5203703703703704],[0.005208333333333333,-0.5203703703703704],[0.005208333333333333,-0.5203703703703704],[0.005208333333333333,-0.5203703703703704],[0.005208333333333333,-0.5203703703703704],[0.005208333333333333,-0.5203703703703704],[0.005208333333333333,-0.5203703703703704],[0.005208333333333333,-0.5203703703703704],[0.005208333333333333,-0.5203703703703704],[0.005208333333333333,-0.5203703703703704],[0.005208333333333333,-0.5203703703703704],[0.005208333333333333,-0.5203703703703704],[0.005208333333333333,-0.5203703703703704],[0.005208333333333333,-0.5203703703703704],[0.005208333333333333,-0.5203703703703704],[0.005208333333333333,-0.5203703703703704],[0.005208333333333333,-0.5203703703703704],[0.005208333333333333,-0.5203703703703704],[0.005208333333333333,-0.5203703703703704],[0.005208333333333333,-0.5203703703703704],[0.005208333333333333,-0.5203703703703704],[0.005208333333333333,-0.5203703703703704],[0.005208333333333333,-0.5203703703703704],[0.005208333333333333,-0.5203703703703704],[0.005208333333333333,-0.5203703703703704],[0.005208333333333333,-0.5203703703703704],[0.005208333333333333,-0.5203703703703704],[0.005208333333333333,-0.5203703703703704],[0.005208333333333333,-0.5203703703703704],[0.005208333333333333,-0.5203703703703704],[0.005208333333333333,-0.5203703703703704],[0.005208333333333333,-0.5203703703703704],[0.005208333333333333,-0.5203703703703704],[0.005208333333333333,-0.5203703703703704],[0.005208333333333333,-0.5203703703703704],[0.005208333333333333,-0.5203703703703704],[0.005208333333333333,-0.5203703703703704],[0.005208333333333333,-0.5203703703703704],[0.005208333333333333,-0.5203703703703704],[0.005208333333333333,-0.5203703703703704],[0.005208333333333333,-0.5203703703703704],[0.005208333333333333,-0.5203703703703704],[0.005208333333333333,-0.5203703703703704],[0.005208333333333333,-0.5203703703703704],[0.005208333333333333,-0.5203703703703704],[0.005208333333333333,-0.5203703703703704],[0.005208333333333333,-0.5203703703703704],[0.005208333333333333,-0.5203703703703704],[0.005208333333333333,-0.5203703703703704],[0.005208333333333333,-0.5203703703703704],[0.005208333333333333,-0.5203703703703704],[0.005208333333333333,-0.5203703703703704],[0.005208333333333333,-0.5203703703703704],[0.005208333333333333,-0.5203703703703704],[0.005208333333333333,-0.5203703703703704],[0.005208333333333333,-0.5203703703703704],[0.005208333333333333,-0.5203703703703704],[0.005208333333333333,-0.5203703703703704],[0.005208333333333333,-0.5203703703703704],[0.005208333333333333,-0.5203703703703704],[0.005208333333333333,-0.5203703703703704],[0.005208333333333333,-0.5203703703703704],[0.005208333333333333,-0.5203703703703704],[0.005208333333333333,-0.5203703703703704],[0.005208333333333333,-0.5203703703703704],[0.005208333333333333,-0.5203703703703704],[0.005208333333333333,-0.5203703703703704],[0.005208333333333333,-0.5203703703703704],[0.005208333333333333,-0.5203703703703704],[0.005208333333333333,-0.5203703703703704],[0.005208333333333333,-0.5203703703703704],[0.005208333333333333,-0.5203703703703704],[0.005208333333333333,-0.5203703703703704],[0.005208333333333333,-0.5203703703703704],[0.005208333333333333,-0.5203703703703704],[0.005208333333333333,-0.5203703703703704],[0.005208333333333333,-0.5203703703703704],[0.005208333333333333,-0.5203703703703704],[0.005208333333333333,-0.5203703703703704],[0.005208333333333333,-0.5203703703703704],[0.005208333333333333,-0.5203703703703704],[0.005208333333333333,-0.5203703703703704],[0.005208333333333333,-0.5203703703703704],[0.005208333333333333,-0.5203703703703704],[0.005208333333333333,-0.5203703703703704],[0.005208333333333333,-0.5203703703703704],[0.005208333333333333,-0.5203703703703704],[0.005208333333333333,-0.5203703703703704],[0.005208333333333333,-0.5203703703703704],[0.005208333333333333,-0.5203703703703704],[0.005208333333333333,-0.5203703703703704],[0.005208333333333333,-0.5203703703703704],[0.005208333333333333,-0.5203703703703704],[0.005208333333333333,-0.5203703703703704],[0.005208333333333333,-0.5203703703703704],[0.005208333333333333,-0.5203703703703704],[0.005208333333333333,-0.5203703703703704],[0.005208333333333333,-0.5203703703703704],[0.005208333333333333,-0.5203703703703704],[0.005208333333333333,-0.5203703703703704],[0.005208333333333333,-0.5203703703703704],[0.005208333333333333,-0.5203703703703704],[0.005208333333333333,-0.5203703703703704],[0.005208333333333333,-0.5203703703703704],[0.005208333333333333,-0.5203703703703704],[0.005208333333333333,-0.5203703703703704],[0.005208333333333333,-0.5203703703703704],[0.005208333333333333,-0.5203703703703704],[0.005208333333333333,-0.5203703703703704],[0.005208333333333333,-0.5203703703703704],[0.005208333333333333,-0.5203703703703704],[0.005208333333333333,-0.5203703703703704],[0.005208333333333333,-0.5203703703703704],[0.005208333333333333,-0.5203703703703704],[0.005208333333333333,-0.5203703703703704],[0.005208333333333333,-0.5203703703703704],[0.005208333333333333,-0.5203703703703704],[0.005208333333333333,-0.5203703703703704],[0.005208333333333333,-0.5203703703703704],[0.005208333333333333,-0.5203703703703704],[0.005208333333333333,-0.5203703703703704],[0.005208333333333333,-0.5203703703703704],[0.005208333333333333,-0.5203703703703704],[0.005208333333333333,-0.5203703703703704],[0.005208333333333333,-0.5203703703703704],[0.005208333333333333,-0.5203703703703704],[0.005208333333333333,-0.5203703703703704],[0.005208333333333333,-0.5203703703703704],[0.005208333333333333,-0.5203703703703704],[0.005208333333333333,-0.5203703703703704],[0.005208333333333333,-0.5203703703703704],[0.005208333333333333,-0.5203703703703704],[0.005208333333333333,-0.5203703703703704],[0.005208333333333333,-0.5203703703703704],[0.005208333333333333,-0.5203703703703704],[0.005208333333333333,-0.5203703703703704],[0.005208333333333333,-0.5203703703703704],[0.005208333333333333,-0.5203703703703704],[0.005208333333333333,-0.5203703703703704],[0.005208333333333333,-0.5203703703703704],[0.005208333333333333,-0.5203703703703704],[0.005208333333333333,-0.5203703703703704],[0.005208333333333333,-0.5203703703703704],[0.004166666666666667,-0.5185185185185185],[0.05,-0.32592592592592595],[0.19270833333333334,-0.009259259259259259],[0.303125,0.18888888888888888],[0.33541666666666664,0.2740740740740741],[0.33958333333333335,0.3277777777777778],[0.33958333333333335,0.4],[0.334375,0.4185185185185185],[0.32916666666666666,0.43333333333333335],[0.32708333333333334,0.4351851851851852],[0.32708333333333334,0.4351851851851852],[0.32708333333333334,0.4351851851851852],[0.32708333333333334,0.4185185185185185],[0.32708333333333334,0.3611111111111111],[0.32708333333333334,0.3388888888888889],[0.32395833333333335,0.29814814814814816],[0.31354166666666666,0.25925925925925924],[0.3,0.2462962962962963],[0.28958333333333336,0.24259259259259258],[0.28229166666666666,0.24259259259259258],[0.26979166666666665,0.24259259259259258],[0.25416666666666665,0.24259259259259258],[0.2375,0.24259259259259258],[0.22916666666666666,0.24259259259259258],[0.22395833333333334,0.24259259259259258],[0.22395833333333334,0.24259259259259258],[0.22083333333333333,0.24259259259259258],[0.21875,0.24259259259259258],[0.21666666666666667,0.24814814814814815],[0.21666666666666667,0.2611111111111111],[0.21666666666666667,0.2796296296296296],[0.21458333333333332,0.3],[0.21145833333333333,0.31666666666666665],[0.203125,0.3388888888888889],[0.19375,0.35555555555555557],[0.184375,0.36666666666666664],[0.18229166666666666,0.37592592592592594],[0.18020833333333333,0.37962962962962965],[0.18020833333333333,0.3814814814814815],[0.17916666666666667,0.38333333333333336],[0.178125,0.38333333333333336],[0.178125,0.38333333333333336],[0.178125,0.38333333333333336],[0.178125,0.38333333333333336],[0.178125,0.38333333333333336],[0.178125,0.38333333333333336],[0.178125,0.38333333333333336],[0.178125,0.38333333333333336],[0.178125,0.38333333333333336],[0.17708333333333334,0.38333333333333336],[0.17291666666666666,0.38333333333333336],[0.15520833333333334,0.38333333333333336],[0.140625,0.38333333333333336],[0.12604166666666666,0.3888888888888889],[0.11979166666666667,0.3907407407407407],[0.11770833333333333,0.3925925925925926],[0.11770833333333333,0.3925925925925926],[0.11770833333333333,0.3925925925925926],[0.11770833333333333,0.3925925925925926],[0.11770833333333333,0.3925925925925926],[0.11770833333333333,0.3925925925925926],[0.11770833333333333,0.3925925925925926],[0.11770833333333333,0.3925925925925926],[0.11770833333333333,0.3925925925925926],[0.11770833333333333,0.3925925925925926],[0.11770833333333333,0.3925925925925926],[0.11770833333333333,0.3925925925925926],[0.11770833333333333,0.3925925925925926],[0.11770833333333333,0.3925925925925926],[0.11770833333333333,0.3925925925925926],[0.11770833333333333,0.3925925925925926],[0.11770833333333333,0.3925925925925926],[0.11770833333333333,0.3925925925925926],[0.11770833333333333,0.3925925925925926],[0.11770833333333333,0.3925925925925926],[0.11770833333333333,0.3925925925925926],[0.11770833333333333,0.3925925925925926],[0.11770833333333333,0.3925925925925926],[0.11770833333333333,0.3925925925925926],[0.11770833333333333,0.3925925925925926],[0.11770833333333333,0.3925925925925926],[0.11770833333333333,0.3925925925925926],[0.11770833333333333,0.3925925925925926],[0.11770833333333333,0.3925925925925926],[0.11770833333333333,0.3925925925925926],[0.11770833333333333,0.3925925925925926],[0.11770833333333333,0.3925925925925926],[0.11770833333333333,0.3925925925925926],[0.11770833333333333,0.3925925925925926],[0.11979166666666667,0.3925925925925926],[0.11979166666666667,0.3925925925925926],[0.12083333333333333,0.3925925925925926],[0.12083333333333333,0.3925925925925926],[0.121875,0.3925925925925926],[0.12291666666666666,0.3925925925925926],[0.12291666666666666,0.3925925925925926],[0.125,0.3925925925925926],[0.125,0.3925925925925926],[0.125,0.3925925925925926],[0.125,0.3925925925925926],[0.125,0.3925925925925926],[0.125,0.3925925925925926],[0.125,0.3925925925925926],[0.125,0.3925925925925926],[0.125,0.3925925925925926],[0.125,0.3925925925925926],[0.125,0.3925925925925926],[0.12604166666666666,0.3962962962962963],[0.12708333333333333,0.3962962962962963],[0.128125,0.3962962962962963],[0.128125,0.3962962962962963],[0.128125,0.3962962962962963],[0.128125,0.3962962962962963],[0.128125,0.3962962962962963],[0.128125,0.3962962962962963],[0.128125,0.3962962962962963],[0.12916666666666668,0.3962962962962963],[0.12916666666666668,0.3962962962962963],[0.12916666666666668,0.3962962962962963],[0.12916666666666668,0.3962962962962963],[0.12916666666666668,0.3962962962962963],[0.12916666666666668,0.3962962962962963],[0.12916666666666668,0.3962962962962963],[0.12916666666666668,0.3962962962962963],[0.12916666666666668,0.3962962962962963],[0.12916666666666668,0.3962962962962963],[0.12916666666666668,0.3962962962962963],[0.12916666666666668,0.3962962962962963],[0.12916666666666668,0.3962962962962963],[0.12916666666666668,0.3962962962962963],[0.12916666666666668,0.3962962962962963],[0.12916666666666668,0.3962962962962963],[0.12916666666666668,0.3962962962962963],[0.12916666666666668,0.3962962962962963],[0.12916666666666668,0.3962962962962963],[0.12916666666666668,0.3962962962962963],[0.12916666666666668,0.3962962962962963],[0.12916666666666668,0.3962962962962963],[0.12916666666666668,0.3962962962962963],[0.12916666666666668,0.3962962962962963],[0.12916666666666668,0.3962962962962963],[0.12916666666666668,0.3962962962962963],[0.12916666666666668,0.3962962962962963],[0.12916666666666668,0.3962962962962963],[0.12916666666666668,0.3962962962962963],[0.12916666666666668,0.3962962962962963],[0.12916666666666668,0.3962962962962963],[0.13020833333333334,0.3962962962962963],[0.13020833333333334,0.3962962962962963],[0.13020833333333334,0.3962962962962963],[0.13020833333333334,0.3962962962962963],[0.13020833333333334,0.3962962962962963],[0.13020833333333334,0.3962962962962963],[0.13020833333333334,0.3962962962962963],[0.13020833333333334,0.3962962962962963],[0.13020833333333334,0.3962962962962963],[0.13020833333333334,0.3962962962962963],[0.13020833333333334,0.3962962962962963],[0.13020833333333334,0.3962962962962963],[0.13020833333333334,0.3962962962962963],[0.13020833333333334,0.3962962962962963],[0.13020833333333334,0.3962962962962963],[0.13020833333333334,0.3962962962962963],[0.13020833333333334,0.3962962962962963],[0.13020833333333334,0.3962962962962963],[0.13020833333333334,0.3962962962962963],[0.13020833333333334,0.3962962962962963],[0.13020833333333334,0.3962962962962963],[0.13020833333333334,0.3962962962962963],[0.13020833333333334,0.3962962962962963],[0.13020833333333334,0.3962962962962963],[0.13020833333333334,0.3962962962962963],[0.13020833333333334,0.3962962962962963],[0.13020833333333334,0.3962962962962963],[0.13020833333333334,0.3962962962962963],[0.13020833333333334,0.3962962962962963],[0.13020833333333334,0.3962962962962963],[0.13125,0.3962962962962963],[0.13125,0.3962962962962963],[0.13125,0.3962962962962963],[0.13125,0.3962962962962963],[0.13125,0.3962962962962963],[0.13125,0.3962962962962963],[0.13125,0.3962962962962963],[0.13125,0.3962962962962963],[0.13125,0.3962962962962963],[0.13125,0.3962962962962963],[0.13125,0.3962962962962963],[0.13125,0.3962962962962963],[0.13125,0.3962962962962963],[0.13125,0.3962962962962963],[0.13125,0.3962962962962963],[0.13125,0.3962962962962963],[0.13125,0.3962962962962963],[0.13125,0.3962962962962963],[0.13125,0.3962962962962963],[0.13125,0.3962962962962963],[0.13125,0.3962962962962963],[0.13125,0.3962962962962963],[0.13125,0.3962962962962963],[0.13125,0.3962962962962963],[0.13125,0.3962962962962963],[0.13125,0.3962962962962963],[0.13125,0.3962962962962963],[0.13125,0.3962962962962963],[0.13125,0.3962962962962963],[0.13125,0.3962962962962963],[0.13125,0.3962962962962963],[0.13125,0.3962962962962963],[0.13125,0.3962962962962963],[0.13125,0.3962962962962963],[0.13125,0.3962962962962963],[0.13125,0.3962962962962963],[0.13125,0.3962962962962963],[0.13125,0.3962962962962963],[0.13125,0.3962962962962963],[0.13125,0.3962962962962963],[0.13125,0.3962962962962963],[0.13125,0.3962962962962963],[0.13125,0.3962962962962963],[0.13125,0.3962962962962963],[0.13125,0.3962962962962963],[0.13125,0.3962962962962963],[0.13125,0.3962962962962963],[0.13333333333333333,0.3962962962962963],[0.13645833333333332,0.38333333333333336],[0.140625,0.3685185185185185],[0.14166666666666666,0.35555555555555557],[0.14375,0.34074074074074073],[0.14583333333333334,0.3314814814814815],[0.14583333333333334,0.3277777777777778],[0.14583333333333334,0.32222222222222224],[0.146875,0.32037037037037036],[0.146875,0.32037037037037036],[0.146875,0.32037037037037036],[0.146875,0.32037037037037036],[0.146875,0.32037037037037036],[0.146875,0.32037037037037036],[0.146875,0.32037037037037036],[0.146875,0.32037037037037036],[0.146875,0.32037037037037036],[0.146875,0.32037037037037036],[0.146875,0.32037037037037036],[0.146875,0.32037037037037036],[0.146875,0.32037037037037036],[0.146875,0.32037037037037036],[0.146875,0.32037037037037036],[0.146875,0.32037037037037036],[0.146875,0.32037037037037036],[0.146875,0.32037037037037036],[0.146875,0.32037037037037036],[0.146875,0.32037037037037036],[0.146875,0.32037037037037036],[0.146875,0.32037037037037036],[0.146875,0.32037037037037036],[0.146875,0.32037037037037036],[0.146875,0.32037037037037036],[0.146875,0.32037037037037036],[0.146875,0.32037037037037036],[0.14791666666666667,0.32592592592592595],[0.14791666666666667,0.3296296296296296],[0.14895833333333333,0.3333333333333333],[0.14895833333333333,0.3388888888888889],[0.15,0.3425925925925926],[0.15,0.34444444444444444],[0.15,0.34814814814814815],[0.15,0.35],[0.15,0.35185185185185186],[0.15208333333333332,0.35555555555555557],[0.15208333333333332,0.35555555555555557],[0.15208333333333332,0.35555555555555557],[0.15208333333333332,0.35555555555555557],[0.15208333333333332,0.35555555555555557],[0.15208333333333332,0.35555555555555557],[0.15208333333333332,0.35555555555555557],[0.15208333333333332,0.35555555555555557]]","[[0.09322916666666667,-0.22999999999999998],[0.09322916666666667,-0.22999999999999998],[0.050833333333333286,-0.24500000000000002],[0.0696875000000001,-0.2722222222222222],[0.0709374999999999,-0.30037037037037034],[0.07364583333333338,-0.2853703703703704],[0.07364583333333338,-0.2853703703703704],[0.041458333333333285,-0.2946296296296297],[0.041458333333333285,-0.2946296296296297],[0.002291666666666714,-0.3153703703703704],[-0.02020833333333331,-0.3285185185185185],[-0.052083333333333336,-0.33055555555555555],[-0.06593749999999995,-0.3418518518518519],[-0.06593749999999995,-0.3418518518518519],[-0.08322916666666665,-0.3248148148148148],[-0.057187499999999974,-0.3037037037037037],[-0.06937500000000002,-0.3085185185185186],[-0.04770833333333328,-0.3362962962962963],[-0.051041666666666666,-0.37759259259259254],[-0.043020833333333286,-0.3690740740740741],[-0.029062499999999977,-0.37592592592592594],[-0.00302083333333331,-0.37833333333333335],[0,-0.39444444444444443],[0.001979166666666643,-0.39388888888888884],[0.011874999999999976,-0.40111111111111114],[0.0032291666666666905,-0.40370370370370373],[-0.022187499999999954,-0.4507407407407407],[-0.05916666666666662,-0.46166666666666667],[-0.10697916666666671,-0.395],[-0.10604166666666662,-0.41333333333333333],[-0.14010416666666667,-0.4292592592592593],[-0.1814583333333334,-0.4227777777777778],[-0.17749999999999996,-0.4192592592592592],[-0.19874999999999995,-0.41518518518518516],[-0.21677083333333336,-0.40240740740740744],[-0.23239583333333336,-0.39740740740740743],[-0.23125,-0.3479629629629629],[-0.19718749999999996,-0.3],[-0.19718749999999996,-0.3],[-0.15229166666666671,-0.3296296296296296],[-0.15427083333333336,-0.3138888888888889],[-0.11531250000000005,-0.2838888888888889],[-0.07937500000000004,-0.2627777777777777],[-0.09208333333333331,-0.2581481481481481],[-0.09177083333333336,-0.2574074074074074],[-0.10416666666666667,-0.2707407407407407],[-0.10625,-0.26222222222222225],[-0.13114583333333332,-0.2737037037037037],[-0.17312500000000006,-0.26351851851851854],[-0.23125,-0.2729629629629629],[-0.24427083333333333,-0.24888888888888885],[-0.2816666666666666,-0.2511111111111112],[-0.31218750000000006,-0.27685185185185185],[-0.32843749999999994,-0.3014814814814815],[-0.35260416666666666,-0.30333333333333334],[-0.3654166666666666,-0.27314814814814814],[-0.3897916666666667,-0.3124074074074074],[-0.3913541666666667,-0.3316666666666667],[-0.40604166666666663,-0.3757407407407407],[-0.40604166666666663,-0.3757407407407407],[-0.3977083333333333,-0.4020370370370371],[-0.3898958333333333,-0.4425925925925926],[-0.36364583333333333,-0.4735185185185185],[-0.37302083333333336,-0.4807407407407408],[-0.3686458333333333,-0.4888888888888889],[-0.3516666666666667,-0.5185185185185185],[-0.3516666666666667,-0.5185185185185185],[-0.34093749999999995,-0.5666666666666667],[-0.2978125,-0.5766666666666667],[-0.24635416666666668,-0.6053703703703703],[-0.19645833333333335,-0.6298148148148148],[-0.15343749999999995,-0.6524074074074074],[-0.13541666666666666,-0.6568518518518518],[-0.11739583333333338,-0.6612962962962964],[-0.07072916666666665,-0.6640740740740741],[-0.07072916666666665,-0.6640740740740741],[-0.04020833333333336,-0.6633333333333333],[-0.01906249999999995,-0.659074074074074],[0.04093749999999995,-0.6561111111111111],[0.07687499999999996,-0.6442592592592592],[0.0890625,-0.6087037037037036],[0.10281250000000004,-0.5774074074074075],[0.1165625000000001,-0.5461111111111111],[0.1345833333333334,-0.5161111111111111],[0.14729166666666677,-0.4948148148148148],[0.15677083333333333,-0.48814814814814816],[0.16864583333333344,-0.48407407407407405],[0.18614583333333337,-0.4955555555555556],[0.17239583333333333,-0.5051851851851852],[0.14427083333333332,-0.5138888888888888],[0.13156249999999994,-0.5275925925925925],[0.12791666666666662,-0.524074074074074],[0.13291666666666657,-0.5166666666666667],[0.11927083333333334,-0.5205555555555555],[0.11833333333333323,-0.5246296296296297],[0.1365624999999999,-0.5233333333333334],[0.13864583333333325,-0.5359259259259259],[0.14208333333333342,-0.5416666666666666],[0.1171875,-0.5275925925925925],[0.09718749999999995,-0.5061111111111112],[0.04052083333333331,-0.5012962962962962],[0.04052083333333331,-0.5012962962962962],[-0.02520833333333338,-0.5137037037037037],[-0.02520833333333338,-0.5137037037037037],[-0.08020833333333334,-0.5364814814814814],[-0.12104166666666671,-0.5544444444444444],[-0.17927083333333335,-0.5687037037037037],[-0.17927083333333335,-0.5687037037037037],[-0.24833333333333332,-0.5912962962962963],[-0.2872916666666666,-0.5861111111111111],[-0.2872916666666666,-0.5861111111111111],[-0.31791666666666674,-0.5942592592592593],[-0.31791666666666674,-0.5942592592592593],[-0.3397916666666667,-0.5951851851851852],[-0.3397916666666667,-0.5951851851851852],[-0.34104166666666663,-0.6172222222222222],[-0.34104166666666663,-0.6172222222222222],[-0.2794791666666666,-0.6203703703703703],[-0.2794791666666666,-0.6203703703703703],[-0.2133333333333333,-0.6268518518518519],[-0.1764583333333333,-0.6222222222222222],[-0.13729166666666662,-0.6331481481481481],[-0.07583333333333328,-0.6477777777777778],[-0.019375000000000024,-0.6466666666666666],[0.017499999999999953,-0.6605555555555556],[0.04604166666666672,-0.6611111111111111],[0.04604166666666672,-0.6611111111111111],[0.08447916666666658,-0.6742592592592593],[0.08447916666666658,-0.6742592592592593],[0.09333333333333324,-0.6835185185185185],[0.07604166666666666,-0.6950000000000001],[0.04781249999999997,-0.6925925925925925],[0.02947916666666662,-0.6948148148148148],[0.02947916666666662,-0.6948148148148148],[0.019166666666666644,-0.72],[-0.0046875,-0.7168518518518519],[-0.028541666666666642,-0.7137037037037036],[-0.03250000000000005,-0.7153703703703704],[-0.0578125,-0.7174074074074074],[-0.05406249999999998,-0.7055555555555556],[-0.02833333333333338,-0.6975925925925925],[-0.0026041666666666665,-0.6896296296296296],[0.028541666666666642,-0.687037037037037],[0.06531250000000005,-0.6816666666666668],[0.09447916666666671,-0.647037037037037],[0.12489583333333343,-0.6318518518518518],[0.15833333333333333,-0.6133333333333333],[0.1775000000000001,-0.5888888888888889],[0.21989583333333323,-0.5716666666666667],[0.24291666666666673,-0.5827777777777777],[0.23427083333333343,-0.5692592592592592],[0.2256249999999999,-0.5557407407407408],[0.1868750000000001,-0.5811111111111111],[0.15302083333333344,-0.6157407407407407],[0.15302083333333344,-0.6157407407407407],[0.11875,-0.6566666666666667],[0.08447916666666658,-0.6794444444444444],[0.03208333333333328,-0.7105555555555555],[-0.0203125,-0.7416666666666667],[-0.04760416666666671,-0.77],[-0.07489583333333331,-0.7983333333333333],[-0.10541666666666671,-0.8312962962962962],[-0.1359375,-0.8642592592592593],[-0.1359375,-0.8642592592592593],[-0.12833333333333338,-0.8362962962962963],[-0.13937499999999994,-0.7803703703703704],[-0.14489583333333336,-0.732962962962963],[-0.15656249999999997,-0.7116666666666667],[-0.12166666666666662,-0.7090740740740741],[-0.12166666666666662,-0.7090740740740741],[-0.09281250000000002,-0.7229629629629629],[-0.08333333333333333,-0.6975925925925925],[-0.0672916666666667,-0.6751851851851852],[-0.029375000000000047,-0.6516666666666666],[0.022083333333333382,-0.6405555555555555],[0.06645833333333329,-0.6566666666666667],[0.11479166666666671,-0.6820370370370371],[0.15427083333333325,-0.6877777777777777],[0.19989583333333344,-0.6855555555555556],[0.19989583333333344,-0.6855555555555556],[0.2107291666666666,-0.6483333333333334],[0.22072916666666675,-0.5924074074074074],[0.22312500000000005,-0.570925925925926],[0.22312500000000005,-0.570925925925926],[0.21083333333333343,-0.5611111111111111],[0.20125000000000004,-0.5611111111111111],[0.20125000000000004,-0.5611111111111111],[0.1806250000000001,-0.5333333333333333],[0.16177083333333328,-0.5064814814814815],[0.16177083333333328,-0.5064814814814815],[0.12052083333333338,-0.495],[0.12052083333333338,-0.495],[0.07760416666666667,-0.5283333333333333],[0.043958333333333384,-0.562962962962963],[0.01854166666666662,-0.6035185185185185],[0.01854166666666662,-0.6035185185185185],[0,-0.6462962962962963],[-0.059062500000000046,-0.6698148148148148],[-0.09020833333333336,-0.6694444444444444],[-0.12406250000000002,-0.6592592592592592],[-0.1701041666666666,-0.6703703703703704],[-0.2179166666666667,-0.6805555555555556],[-0.2359375,-0.6668518518518519],[-0.24468749999999997,-0.6385185185185185],[-0.2627083333333334,-0.6088888888888889],[-0.2838541666666667,-0.5946296296296296],[-0.30499999999999994,-0.5803703703703703],[-0.3081249999999999,-0.5681481481481482],[-0.3081249999999999,-0.5681481481481482],[-0.3055208333333333,-0.5890740740740741],[-0.3126041666666667,-0.5859259259259259],[-0.30822916666666667,-0.580925925925926],[-0.3038541666666667,-0.575925925925926],[-0.31447916666666664,-0.5840740740740741],[-0.32937500000000003,-0.5731481481481482],[-0.34177083333333336,-0.5777777777777777],[-0.35427083333333337,-0.5705555555555556],[-0.35520833333333335,-0.5411111111111111],[-0.32458333333333333,-0.5485185185185185],[-0.3194791666666667,-0.5320370370370371],[-0.3016666666666667,-0.5557407407407408],[-0.28125,-0.575925925925926],[-0.2664583333333333,-0.5766666666666667],[-0.23989583333333328,-0.585],[-0.19979166666666662,-0.5988888888888888],[-0.16218750000000004,-0.5972222222222222],[-0.12625000000000006,-0.5974074074074075],[-0.12625000000000006,-0.5974074074074075],[-0.10072916666666672,-0.6207407407407407],[-0.10072916666666672,-0.6207407407407407],[-0.057500000000000044,-0.6385185185185185],[-0.057500000000000044,-0.6385185185185185],[-0.02510416666666669,-0.6474074074074074],[-0.02510416666666669,-0.6474074074074074],[0.019791666666666666,-0.6207407407407407],[0.03250000000000005,-0.6220370370370369],[0.03250000000000005,-0.6220370370370369],[0.028958333333333287,-0.6168518518518519],[0.03187500000000002,-0.6342592592592593],[0.021249999999999977,-0.6461111111111111],[0.004999999999999952,-0.6509259259259259],[-0.014479166666666644,-0.6598148148148149],[-0.014479166666666644,-0.6598148148148149],[-0.02781250000000005,-0.6542592592592593],[-0.07552083333333333,-0.6305555555555555],[-0.11604166666666664,-0.6153703703703703],[-0.17854166666666665,-0.6331481481481481],[-0.21468750000000003,-0.6394444444444445],[-0.22135416666666666,-0.6596296296296296],[-0.23447916666666668,-0.6572222222222222],[-0.2476041666666667,-0.6548148148148148],[-0.26458333333333334,-0.6620370370370371],[-0.27062499999999995,-0.6577777777777778],[-0.2908333333333334,-0.6346296296296297],[-0.30489583333333337,-0.6444444444444445],[-0.299375,-0.6433333333333333],[-0.2873958333333333,-0.6287037037037037],[-0.2898958333333333,-0.6085185185185186],[-0.2700000000000001,-0.5827777777777777],[-0.2782291666666667,-0.567037037037037],[-0.26052083333333337,-0.5561111111111111],[-0.25979166666666664,-0.529074074074074],[-0.2705208333333334,-0.5305555555555556],[-0.2717708333333333,-0.5327777777777778],[-0.2642708333333334,-0.5353703703703704],[-0.2760416666666667,-0.5235185185185185],[-0.29093749999999996,-0.5024074074074074],[-0.2889583333333333,-0.4807407407407408],[-0.3109375,-0.46518518518518515],[-0.30010416666666667,-0.4192592592592592],[-0.32083333333333336,-0.37703703703703706],[-0.3234375,-0.3785185185185185],[-0.29333333333333333,-0.3287037037037037],[-0.2563541666666667,-0.32759259259259255],[-0.24510416666666662,-0.31722222222222224],[-0.2029166666666666,-0.3066666666666667],[-0.16989583333333336,-0.29518518518518516],[-0.11291666666666664,-0.28185185185185185],[-0.07395833333333333,-0.29240740740740734],[-0.02666666666666669,-0.2868518518518518],[0.011562500000000024,-0.29666666666666663],[0.1015625,-0.29500000000000004],[0.1474999999999999,-0.3242592592592593],[0.18468749999999995,-0.3168518518518519],[0.18468749999999995,-0.3168518518518519],[0.2439583333333334,-0.29314814814814816],[0.2751041666666666,-0.2853703703703704],[0.3273958333333333,-0.3022222222222222],[0.36864583333333345,-0.3272222222222222],[0.36864583333333345,-0.3272222222222222],[0.40208333333333335,-0.33537037037037043],[0.43250000000000005,-0.3918518518518519],[0.47802083333333345,-0.43796296296296294],[0.49249999999999994,-0.46148148148148144],[0.5330208333333334,-0.497037037037037],[0.5663541666666667,-0.5372222222222223],[0.6028125000000001,-0.5674074074074074],[0.6397916666666668,-0.6075925925925927],[0.6679166666666667,-0.6333333333333333],[0.6830208333333334,-0.6498148148148147],[0.7173958333333333,-0.6701851851851851],[0.7209374999999999,-0.6624074074074073],[0.7209374999999999,-0.6624074074074073],[0.7240624999999999,-0.6411111111111111],[0.7146874999999999,-0.6242592592592593],[0.7043750000000001,-0.6037037037037037],[0.7043750000000001,-0.6037037037037037],[0.6829166666666666,-0.567037037037037],[0.6829166666666666,-0.567037037037037],[0.6728125000000001,-0.5783333333333334],[0.6338541666666667,-0.5516666666666666],[0.5948958333333333,-0.525],[0.5648958333333333,-0.52],[0.5361458333333334,-0.5009259259259259],[0.4644791666666668,-0.5251851851851852],[0.3928124999999999,-0.5494444444444444],[0.3607291666666666,-0.5659259259259259],[0.32708333333333334,-0.5690740740740741],[0.33125,-0.6181481481481482],[0.3150000000000001,-0.6242592592592593],[0.3150000000000001,-0.6242592592592593],[0.3084374999999999,-0.6722222222222223],[0.30187499999999995,-0.7201851851851852],[0.30187499999999995,-0.7201851851851852],[0.28458333333333335,-0.7237037037037037],[0.21906249999999997,-0.7612962962962964],[0.2169791666666666,-0.7692592592592592],[0.19145833333333329,-0.7820370370370371],[0.1178124999999999,-0.8166666666666667],[0.07729166666666672,-0.8107407407407408],[0.010625000000000048,-0.7851851851851852],[-0.035625000000000046,-0.7825925925925926],[-0.06625000000000002,-0.7866666666666667],[-0.071875,-0.7512962962962962],[-0.08854166666666667,-0.7111111111111111],[-0.05,-0.653888888888889],[-0.05,-0.653888888888889],[-0.004999999999999952,-0.5966666666666667],[0.04375,-0.5075925925925926],[0.13385416666666666,-0.3937037037037037],[0.16177083333333328,-0.34685185185185186],[0.20625,-0.2905555555555555],[0.2289583333333333,-0.22870370370370371],[0.2552083333333333,-0.15629629629629627],[0.22666666666666657,-0.10388888888888893],[0.21833333333333324,-0.06444444444444447],[0.18239583333333323,-0.03481481481481473],[0.18239583333333323,-0.03481481481481473],[0.13208333333333327,0.004074074074074159],[0.13208333333333327,0.004074074074074159],[0.0859375,-0.04148148148148144],[0.0859375,-0.04148148148148144],[0.029166666666666667,-0.050370370370370454],[0.029166666666666667,-0.050370370370370454],[-0.00625,-0.022777777777777692],[-0.00625,-0.022777777777777692],[-0.04697916666666669,-0.020555555555555598],[-0.04697916666666669,-0.020555555555555598],[-0.06760416666666665,0.03370370370370379],[-0.11499999999999998,0.022777777777777692],[-0.14406249999999995,0.02388888888888885],[-0.121875,-0.0011111111111111532],[-0.07395833333333333,-0.03537037037037041],[-0.017812500000000023,-0.08148148148148149],[-0.017812500000000023,-0.08148148148148149],[0.024479166666666666,-0.032407407407407406],[0.02833333333333338,-0.04870370370370362],[0.02833333333333338,-0.04870370370370362],[0.050416666666666644,-0.08314814814814811],[0.07166666666666661,-0.07611111111111116],[0.10145833333333343,-0.14148148148148143],[0.13989583333333327,-0.11703703703703702],[0.1881249999999999,-0.11870370370370374],[0.19052083333333342,-0.13499999999999995],[0.18708333333333324,-0.1270370370370371],[0.14249999999999996,-0.0301851851851851],[0.12885416666666671,-0.016666666666666666],[0.1453125,0.02444444444444453],[0.1337500000000001,0.032407407407407406],[0.11916666666666677,0.007407407407407408],[0.08875000000000005,0.0242592592592593],[0.07843749999999995,0.00592592592592601],[0.060104166666666715,0.014629629629629588],[0.051874999999999956,0.028888888888888933],[0.04364583333333331,0.040370370370370286],[0.06208333333333336,-0.03314814814814811],[0.050312499999999954,-0.042407407407407366],[0.05416666666666667,-0.10037037037037035],[0.05416666666666667,-0.10037037037037035],[0.06177083333333329,-0.11074074074074076],[0.04874999999999995,-0.09740740740740746],[0.06187499999999998,-0.12333333333333338],[0.06343749999999998,-0.10648148148148148],[0.07468750000000005,-0.122037037037037],[0.06635416666666671,-0.11574074074074074],[0.06635416666666671,-0.11574074074074074],[0.05343749999999995,-0.1418518518518519],[0.058749999999999976,-0.1648148148148148],[0.11052083333333323,-0.22018518518518515],[0.12958333333333344,-0.2037037037037037],[0.15395833333333328,-0.1977777777777778],[0.1671875,-0.2337037037037037],[0.16822916666666668,-0.23537037037037042],[0.18333333333333332,-0.2825925925925926],[0.1859375,-0.3146296296296296],[0.1865624999999999,-0.35999999999999993],[0.20062499999999991,-0.36074074074074075],[0.20437500000000006,-0.3655555555555555],[0.17583333333333329,-0.31611111111111106],[0.17062499999999994,-0.34222222222222226],[0.18979166666666672,-0.38685185185185184],[0.23927083333333338,-0.41074074074074074],[0.2328125,-0.41222222222222227],[0.221875,-0.4003703703703704],[0.221875,-0.4003703703703704],[0.20979166666666677,-0.38925925925925925],[0.203125,-0.4198148148148148],[0.20114583333333325,-0.4455555555555556],[0.20572916666666666,-0.4742592592592593],[0.2009375000000001,-0.5157407407407407],[0.17614583333333325,-0.5138888888888888],[0.17614583333333325,-0.5138888888888888],[0.14885416666666676,-0.48],[0.0796875,-0.4331481481481481],[0.07249999999999991,-0.4074074074074074],[0.06333333333333328,-0.3714814814814815],[0.06333333333333328,-0.3714814814814815],[0.0743750000000001,-0.3461111111111111],[0.05343749999999995,-0.2683333333333333],[0.05499999999999995,-0.21444444444444447],[0.04031250000000005,-0.15962962962962962],[0.03260416666666662,-0.11185185185185181],[0.035416666666666666,-0.09000000000000004],[0.017604166666666643,-0.08537037037037042],[0.028958333333333287,-0.10481481481481486],[0.01114583333333338,-0.1259259259259259],[-0.009375,-0.1551851851851852],[-0.009375,-0.1551851851851852],[-0.04114583333333333,-0.205],[-0.04114583333333333,-0.205],[-0.06614583333333333,-0.20777777777777776],[-0.11468750000000003,-0.21851851851851853],[-0.14718749999999994,-0.23574074074074075],[-0.1805208333333333,-0.26370370370370366],[-0.22437499999999996,-0.2657407407407407],[-0.22437499999999996,-0.2657407407407407],[-0.2830208333333334,-0.24666666666666665],[-0.2864583333333333,-0.2898148148148148],[-0.2890625,-0.3320370370370371],[-0.25510416666666663,-0.3635185185185185],[-0.22229166666666664,-0.39166666666666666],[-0.17177083333333332,-0.40055555555555555],[-0.14510416666666662,-0.39814814814814814],[-0.11177083333333329,-0.37333333333333335],[-0.051770833333333384,-0.38425925925925924],[0.008437500000000023,-0.39277777777777784],[0.09520833333333342,-0.4212962962962963],[0.14010416666666667,-0.37296296296296294],[0.19135416666666671,-0.32166666666666666],[0.17687499999999995,-0.2825925925925926],[0.1803124999999999,-0.2485185185185185],[0.19812500000000005,-0.2692592592592592],[0.2419791666666666,-0.30185185185185187],[0.2652083333333332,-0.3396296296296296],[0.28635416666666674,-0.3640740740740741],[0.26895833333333335,-0.34888888888888886],[0.2529166666666666,-0.35037037037037033],[0.23229166666666667,-0.3351851851851852],[0.23229166666666667,-0.3351851851851852],[0.20927083333333343,-0.3229629629629629],[0.20927083333333343,-0.3229629629629629],[0.19052083333333342,-0.32629629629629625],[0.19052083333333342,-0.32629629629629625],[0.1775000000000001,-0.3237037037037037],[0.1775000000000001,-0.3237037037037037],[0.16291666666666677,-0.34370370370370373],[0.16291666666666677,-0.34370370370370373],[0.1345833333333334,-0.33611111111111114],[0.1345833333333334,-0.33611111111111114],[0.11854166666666661,-0.382962962962963],[0.09031250000000005,-0.4262962962962963],[0.0990624999999999,-0.4812962962962963],[0.1415625000000001,-0.5559259259259259],[0.16354166666666667,-0.5805555555555556],[0.1616666666666667,-0.6424074074074073],[0.16729166666666656,-0.6962962962962963],[0.16729166666666656,-0.6962962962962963],[0.21510416666666668,-0.7520370370370371],[0.21510416666666668,-0.7520370370370371],[0.22020833333333342,-0.737037037037037],[0.2195833333333333,-0.7325925925925927],[0.20385416666666673,-0.6842592592592592],[0.1935416666666666,-0.6224074074074074],[0.1935416666666666,-0.6224074074074074],[0.19052083333333342,-0.5688888888888889],[0.10947916666666657,-0.46796296296296297],[0.05604166666666662,-0.43703703703703706],[0.04729166666666664,-0.38870370370370366],[0.04729166666666664,-0.38870370370370366],[0.08822916666666672,-0.36925925925925923],[0.005937500000000048,-0.2522222222222222],[-0.034687499999999954,-0.21962962962962967],[-0.04750000000000002,-0.20481481481481487],[-0.06208333333333336,-0.18777777777777774],[-0.06124999999999995,-0.17629629629629628],[-0.0704166666666667,-0.20407407407407405],[-0.059687499999999956,-0.2155555555555555],[-0.04583333333333333,-0.2548148148148149],[-0.07906249999999998,-0.2892592592592592],[-0.1420833333333333,-0.2770370370370371],[-0.15750000000000006,-0.32],[-0.15375000000000003,-0.35],[-0.17020833333333332,-0.3464814814814815],[-0.16791666666666671,-0.34629629629629627],[-0.1766666666666667,-0.35037037037037033],[-0.19406249999999994,-0.34740740740740744],[-0.20145833333333332,-0.36925925925925923],[-0.20666666666666664,-0.35333333333333333],[-0.19041666666666662,-0.32333333333333336],[-0.16875,-0.3394444444444445],[-0.1273958333333333,-0.3822222222222222],[-0.10677083333333333,-0.36796296296296294],[-0.0889583333333333,-0.37111111111111106],[-0.07531249999999995,-0.40185185185185185],[-0.07572916666666671,-0.44537037037037036],[-0.08510416666666672,-0.45759259259259266],[-0.07229166666666664,-0.4746296296296296],[-0.07729166666666672,-0.504074074074074],[-0.06541666666666662,-0.5364814814814814],[-0.05677083333333333,-0.5335185185185186],[-0.027499999999999976,-0.5351851851851852],[-0.014687500000000023,-0.5664814814814815],[-0.007395833333333357,-0.6166666666666667],[0.008333333333333333,-0.6211111111111111],[0.025625000000000023,-0.609074074074074],[0.06864583333333343,-0.5974074074074075],[0.10354166666666677,-0.5603703703703704],[0.1478125000000001,-0.5211111111111111],[0.17520833333333338,-0.4788888888888889],[0.20895833333333325,-0.4648148148148148],[0.21802083333333327,-0.4475925925925926],[0.23052083333333329,-0.40685185185185185],[0.22770833333333323,-0.38055555555555554],[0.23739583333333342,-0.3427777777777778],[0.25510416666666674,-0.30351851851851847],[0.25,-0.3164814814814814],[0.25,-0.3164814814814814],[0.23083333333333325,-0.35],[0.16802083333333329,-0.375],[0.06916666666666677,-0.3801851851851852],[0.007604166666666619,-0.3440740740740741],[-0.05395833333333329,-0.307962962962963],[-0.12062499999999995,-0.34148148148148144],[-0.1664583333333333,-0.3416666666666667],[-0.1985416666666667,-0.39462962962962966],[-0.24322916666666666,-0.45018518518518524],[-0.2978125,-0.46037037037037043],[-0.3055208333333333,-0.47370370370370374],[-0.26322916666666674,-0.49537037037037035],[-0.19697916666666668,-0.5281481481481481],[-0.18083333333333335,-0.5824074074074074],[-0.18083333333333335,-0.5824074074074074],[-0.16833333333333336,-0.6177777777777779],[-0.15510416666666665,-0.6275925925925926],[-0.13354166666666673,-0.6372222222222222],[-0.13354166666666673,-0.6372222222222222],[-0.14937499999999998,-0.6194444444444445],[-0.15031249999999996,-0.6190740740740741],[-0.12260416666666671,-0.6325925925925926],[-0.11614583333333334,-0.6196296296296296],[-0.11604166666666664,-0.6068518518518519],[-0.0765625,-0.6127777777777778],[-0.03802083333333333,-0.61],[-0.00010416666666669035,-0.5962962962962963],[0.03947916666666664,-0.5840740740740741],[0.08093750000000005,-0.5542592592592592],[0.12020833333333343,-0.547037037037037],[0.16656250000000009,-0.5112962962962964],[0.19249999999999995,-0.4888888888888889],[0.19197916666666662,-0.4992592592592593],[0.19145833333333329,-0.5111111111111111],[0.15520833333333334,-0.5007407407407407],[0.1304166666666667,-0.4905555555555555],[0.10989583333333333,-0.5101851851851852],[0.08739583333333342,-0.4722222222222222],[0.06395833333333331,-0.5001851851851852],[0.049583333333333354,-0.5098148148148148],[0.049583333333333354,-0.5098148148148148],[0.04072916666666669,-0.5218518518518519],[0.04072916666666669,-0.5218518518518519],[0.04833333333333331,-0.5068518518518518],[0.04833333333333331,-0.5068518518518518],[0.059375,-0.4792592592592593],[0.059375,-0.4792592592592593],[0.07239583333333334,-0.4418518518518519],[0.07239583333333334,-0.4418518518518519],[0.09166666666666666,-0.42537037037037034],[0.09166666666666666,-0.42537037037037034],[0.11229166666666662,-0.41759259259259257],[0.13718750000000005,-0.3883333333333333],[0.15822916666666675,-0.4140740740740741],[0.15822916666666675,-0.4140740740740741],[0.17000000000000004,-0.39166666666666666],[0.18614583333333337,-0.3516666666666666],[0.18291666666666656,-0.32518518518518524],[0.18364583333333329,-0.3124074074074074],[0.16739583333333338,-0.32],[0.14916666666666673,-0.3359259259259259],[0.14916666666666673,-0.3359259259259259],[0.09041666666666662,-0.3427777777777778],[0.026250000000000048,-0.3411111111111111],[-0.03583333333333331,-0.3351851851851852],[-0.08666666666666671,-0.31611111111111106],[-0.1264583333333333,-0.28888888888888886],[-0.1264583333333333,-0.28888888888888886],[-0.17062499999999994,-0.27925925925925926],[-0.1664583333333333,-0.31074074074074076],[-0.1890625,-0.3224074074074075],[-0.18937499999999996,-0.3344444444444445],[-0.17374999999999996,-0.3085185185185186],[-0.12083333333333333,-0.2962962962962963],[-0.06791666666666671,-0.28407407407407403],[-0.012812499999999952,-0.3146296296296296],[0.028541666666666642,-0.33185185185185184],[0.028541666666666642,-0.33185185185185184],[0.0626041666666667,-0.3255555555555556],[0.09187500000000005,-0.34],[0.07729166666666672,-0.3059259259259259],[0.10499999999999995,-0.317037037037037],[0.12479166666666662,-0.31055555555555553],[0.1423958333333334,-0.3098148148148148],[0.16541666666666663,-0.2957407407407407],[0.16895833333333338,-0.2964814814814815]]","[[0.09322916666666667,-0.22999999999999998,0.0005000000000023874],[0.09322916666666667,-0.22999999999999998,0.05169999980926576],[0.050833333333333286,-0.24500000000000002,0.06319999980926383],[0.0696875000000001,-0.2722222222222222,0.0807999997138964],[0.0709374999999999,-0.30037037037037034,0.09639999961852652],[0.07364583333333338,-0.2853703703703704,0.11489999961852959],[0.07364583333333338,-0.2853703703703704,0.12749999999999773],[0.041458333333333285,-0.2946296296296297,0.1476999998092623],[0.041458333333333285,-0.2946296296296297,0.16139999961853135],[0.002291666666666714,-0.3153703703703704,0.17679999971390004],[-0.02020833333333331,-0.3285185185185185,0.19350000000000023],[-0.052083333333333336,-0.33055555555555555,0.21009999990463513],[-0.06593749999999995,-0.3418518518518519,0.22689999961853147],[-0.06593749999999995,-0.3418518518518519,0.2433999996185321],[-0.08322916666666665,-0.3248148148148148,0.2600999999046323],[-0.057187499999999974,-0.3037037037037037,0.27679999971389435],[-0.06937500000000002,-0.3085185185185186,0.29339999961852925],[-0.04770833333333328,-0.3362962962962963,0.31009999990462944],[-0.051041666666666666,-0.37759259259259254,0.32669999980926434],[-0.043020833333333286,-0.3690740740740741,0.3461999998092651],[-0.029062499999999977,-0.37592592592592594,0.3603999996185294],[-0.00302083333333331,-0.37833333333333335,0.3767999997138958],[0,-0.39444444444444443,0.39350000000000307],[0.001979166666666643,-0.39388888888888884,0.41009999990463086],[0.011874999999999976,-0.40111111111111114,0.4272999997138953],[0.0032291666666666905,-0.40370370370370373,0.44339999961852783],[-0.022187499999999954,-0.4507407407407407,0.46000000000000085],[-0.05916666666666662,-0.46166666666666667,0.4766999998092629],[-0.10697916666666671,-0.395,0.4933999996185321],[-0.10604166666666662,-0.41333333333333333,0.5100999999046323],[-0.14010416666666667,-0.4292592592592593,0.5266999998092672],[-0.1814583333333334,-0.4227777777777778,0.5457999997138998],[-0.17749999999999996,-0.4192592592592592,0.5604999999999976],[-0.19874999999999995,-0.41518518518518516,0.5772999997138939],[-0.21677083333333336,-0.40240740740740744,0.5933999996185335],[-0.23239583333333336,-0.39740740740740743,0.6107999997138975],[-0.23125,-0.3479629629629629,0.6267999997138958],[-0.19718749999999996,-0.3,0.6458999996185284],[-0.19718749999999996,-0.3,0.6600999999046309],[-0.15229166666666671,-0.3296296296296296,0.6768999996185272],[-0.15427083333333336,-0.3138888888888889,0.6948999996185279],[-0.11531250000000005,-0.2838888888888889,0.7100999999046351],[-0.07937500000000004,-0.2627777777777777,0.7267999997138972],[-0.09208333333333331,-0.2581481481481481,0.7462999997138979],[-0.09177083333333336,-0.2574074074074074,0.76259999990463],[-0.10416666666666667,-0.2707407407407407,0.777000000000001],[-0.10625,-0.26222222222222225,0.7933999996185293],[-0.13114583333333332,-0.2737037037037037,0.8100000000000023],[-0.17312500000000006,-0.26351851851851854,0.8282999997138987],[-0.23125,-0.2729629629629629,0.8452999997138946],[-0.24427083333333333,-0.24888888888888885,0.8600999999046337],[-0.2816666666666666,-0.2511111111111112,0.8771999998092639],[-0.31218750000000006,-0.27685185185185185,0.8933999996185307],[-0.32843749999999994,-0.3014814814814815,0.9101999998092651],[-0.35260416666666666,-0.30333333333333334,0.9267999997139],[-0.3654166666666666,-0.27314814814814814,0.9470000000000027],[-0.3897916666666667,-0.3124074074074074,0.9600000000000009],[-0.3913541666666667,-0.3316666666666667,0.9766999998092629],[-0.40604166666666663,-0.3757407407407407,0.9934999999999974],[-0.40604166666666663,-0.3757407407407407,1.0100999999046323],[-0.3977083333333333,-0.4020370370370371,1.0266999998092672],[-0.3898958333333333,-0.4425925925925926,1.0435999999046288],[-0.36364583333333333,-0.4735185185185185,1.0600999999046294],[-0.37302083333333336,-0.4807407407407408,1.0767999997138986],[-0.3686458333333333,-0.4888888888888889,1.0934999999999988],[-0.3516666666666667,-0.5185185185185185,1.1128999996185271],[-0.3516666666666667,-0.5185185185185185,1.1267999997138958],[-0.34093749999999995,-0.5666666666666667,1.1435999999046302],[-0.2978125,-0.5766666666666667,1.1640999999046358],[-0.24635416666666668,-0.6053703703703703,1.1786999998092682],[-0.19645833333333335,-0.6298148148148148,1.1933999996185278],[-0.15343749999999995,-0.6524074074074074,1.2100999999046351],[-0.13541666666666666,-0.6568518518518518,1.2267999997138972],[-0.11739583333333338,-0.6612962962962964,1.245599999904634],[-0.07072916666666665,-0.6640740740740741,1.2600999999046323],[-0.07072916666666665,-0.6640740740740741,1.2768999996185286],[-0.04020833333333336,-0.6633333333333333,1.2933999996185293],[-0.01906249999999995,-0.659074074074074,1.3100999999046294],[0.04093749999999995,-0.6561111111111111,1.3266999998092643],[0.07687499999999996,-0.6442592592592592,1.3452999997138946],[0.0890625,-0.6087037037037036,1.3599999999999994],[0.10281250000000004,-0.5774074074074075,1.3767999997138958],[0.1165625000000001,-0.5461111111111111,1.393500000000003],[0.1345833333333334,-0.5161111111111111,1.4100999999046309],[0.14729166666666677,-0.4948148148148148,1.4266999998092658],[0.15677083333333333,-0.48814814814814816,1.4450000000000003],[0.16864583333333344,-0.48407407407407405,1.4600999999046351],[0.18614583333333337,-0.4955555555555556,1.4767999997138972],[0.17239583333333333,-0.5051851851851852,1.4947999997138979],[0.14427083333333332,-0.5138888888888888,1.5105999999046347],[0.13156249999999994,-0.5275925925925925,1.5266999998092672],[0.12791666666666662,-0.524074074074074,1.5451999998092631],[0.13291666666666657,-0.5166666666666667,1.5600999999046294],[0.11927083333333334,-0.5205555555555555,1.5766999998092643],[0.11833333333333323,-0.5246296296296297,1.5959999999999965],[0.1365624999999999,-0.5233333333333334,1.6099999999999994],[0.13864583333333325,-0.5359259259259259,1.6267999997138958],[0.14208333333333342,-0.5416666666666666,1.6475999999046351],[0.1171875,-0.5275925925925925,1.6617999997138995],[0.09718749999999995,-0.5061111111111112,1.6790999999046292],[0.04052083333333331,-0.5012962962962962,1.693799999713896],[0.04052083333333331,-0.5012962962962962,1.7100999999046351],[-0.02520833333333338,-0.5137037037037037,1.7267999997138972],[-0.02520833333333338,-0.5137037037037037,1.743399999618532],[-0.08020833333333334,-0.5364814814814814,1.7600999999046323],[-0.12104166666666671,-0.5544444444444444,1.7766999998092672],[-0.17927083333333335,-0.5687037037037037,1.7935000000000016],[-0.17927083333333335,-0.5687037037037037,1.8101999998092637],[-0.24833333333333332,-0.5912962962962963,1.8267999997138986],[-0.2872916666666666,-0.5861111111111111,1.847999999999999],[-0.2872916666666666,-0.5861111111111111,1.8600999999046337],[-0.31791666666666674,-0.5942592592592593,1.8767999997138958],[-0.31791666666666674,-0.5942592592592593,1.8933999996185307],[-0.3397916666666667,-0.5951851851851852,1.9100999999046309],[-0.3397916666666667,-0.5951851851851852,1.9267999997139],[-0.34104166666666663,-0.6172222222222222,1.9435000000000002],[-0.34104166666666663,-0.6172222222222222,1.9600999999046351],[-0.2794791666666666,-0.6203703703703703,1.9768999996185315],[-0.2794791666666666,-0.6203703703703703,1.993399999618532],[-0.2133333333333333,-0.6268518518518519,2.0100999999046323],[-0.1764583333333333,-0.6222222222222222,2.0281999998092672],[-0.13729166666666662,-0.6331481481481481,2.0468999996185318],[-0.07583333333333328,-0.6477777777777778,2.0615000000000023],[-0.019375000000000024,-0.6466666666666666,2.0770999999046325],[0.017499999999999953,-0.6605555555555556,2.0933999996185335],[0.04604166666666672,-0.6611111111111111,2.1115999999046338],[0.04604166666666672,-0.6611111111111111,2.1267999997138958],[0.08447916666666658,-0.6742592592592593,2.143500000000003],[0.08447916666666658,-0.6742592592592593,2.160099999904631],[0.09333333333333324,-0.6835185185185185,2.1767999997139],[0.07604166666666666,-0.6950000000000001,2.193399999618528],[0.04781249999999997,-0.6925925925925925,2.2101999998092623],[0.02947916666666662,-0.6948148148148148,2.226799999713897],[0.02947916666666662,-0.6948148148148148,2.243399999618532],[0.019166666666666644,-0.72,2.2600999999046323],[-0.0046875,-0.7168518518518519,2.2790999999046306],[-0.028541666666666642,-0.7137037037037036,2.293699999809263],[-0.03250000000000005,-0.7153703703703704,2.3119999999999976],[-0.0578125,-0.7174074074074074,2.3271999998092667],[-0.05406249999999998,-0.7055555555555556,2.3474999999999966],[-0.02833333333333338,-0.6975925925925925,2.3629999999999995],[-0.0026041666666666665,-0.6896296296296296,2.3770000000000024],[0.028541666666666642,-0.687037037037037,2.3933999996185307],[0.06531250000000005,-0.6816666666666668,2.410099999904631],[0.09447916666666671,-0.647037037037037,2.4284999999999997],[0.12489583333333343,-0.6318518518518518,2.4436999998092617],[0.15833333333333333,-0.6133333333333333,2.460099999904635],[0.1775000000000001,-0.5888888888888889,2.476699999809263],[0.21989583333333323,-0.5716666666666667,2.493299999713898],[0.24291666666666673,-0.5827777777777777,2.5100999999046323],[0.23427083333333343,-0.5692592592592592,2.526699999809267],[0.2256249999999999,-0.5557407407407408,2.544699999809268],[0.1868750000000001,-0.5811111111111111,2.5600000000000023],[0.15302083333333344,-0.6157407407407407,2.57809999990463],[0.15302083333333344,-0.6157407407407407,2.5933999996185335],[0.11875,-0.6566666666666667,2.6100999999046337],[0.08447916666666658,-0.6794444444444444,2.6266999998092615],[0.03208333333333328,-0.7105555555555555,2.645799999713894],[-0.0203125,-0.7416666666666667,2.6600000000000037],[-0.04760416666666671,-0.77,2.6767999997139],[-0.07489583333333331,-0.7983333333333333,2.695299999713903],[-0.10541666666666671,-0.8312962962962962,2.710000000000001],[-0.1359375,-0.8642592592592593,2.726699999809263],[-0.1359375,-0.8642592592592593,2.7435000000000045],[-0.12833333333333338,-0.8362962962962963,2.759999999999998],[-0.13937499999999994,-0.7803703703703704,2.77669999980926],[-0.14489583333333336,-0.732962962962963,2.7972999997138928],[-0.15656249999999997,-0.7116666666666667,2.81289999961853],[-0.12166666666666662,-0.7090740740740741,2.827299999713894],[-0.12166666666666662,-0.7090740740740741,2.843599999904633],[-0.09281250000000002,-0.7229629629629629,2.8600999999046266],[-0.08333333333333333,-0.6975925925925925,2.8773999996185253],[-0.0672916666666667,-0.6751851851851852,2.8933999996185307],[-0.029375000000000047,-0.6516666666666666,2.9114999999999966],[0.022083333333333382,-0.6405555555555555,2.9280999999046387],[0.06645833333333329,-0.6566666666666667,2.9447999997139007],[0.11479166666666671,-0.6820370370370371,2.960099999904635],[0.15427083333333325,-0.6877777777777777,2.976699999809263],[0.19989583333333344,-0.6855555555555556,2.993399999618525],[0.19989583333333344,-0.6855555555555556,3.0101999998092666],[0.2107291666666666,-0.6483333333333334,3.0267999997138944],[0.22072916666666675,-0.5924074074074074,3.0487999997139],[0.22312500000000005,-0.570925925925926,3.0645999999046367],[0.22312500000000005,-0.570925925925926,3.0767999997138915],[0.21083333333333343,-0.5611111111111111,3.0936999998092674],[0.20125000000000004,-0.5611111111111111,3.113999999999997],[0.20125000000000004,-0.5611111111111111,3.126799999713903],[0.1806250000000001,-0.5333333333333333,3.1435999999046302],[0.16177083333333328,-0.5064814814814815,3.1665999999046264],[0.16177083333333328,-0.5064814814814815,3.1766999998092658],[0.12052083333333338,-0.495,3.193499999999993],[0.12052083333333338,-0.495,3.210000000000001],[0.07760416666666667,-0.5283333333333333,3.226699999809263],[0.043958333333333384,-0.562962962962963,3.2453999996185345],[0.01854166666666662,-0.6035185185185185,3.263599999904635],[0.01854166666666662,-0.6035185185185185,3.281399999618536],[0,-0.6462962962962963,3.2953999996185317],[-0.059062500000000046,-0.6698148148148148,3.309999999999995],[-0.09020833333333336,-0.6694444444444444,3.3266999998092714],[-0.12406250000000002,-0.6592592592592592,3.3467999997139017],[-0.1701041666666666,-0.6703703703703704,3.3603999996185294],[-0.2179166666666667,-0.6805555555555556,3.376799999713903],[-0.2359375,-0.6668518518518519,3.3933999996185307],[-0.24468749999999997,-0.6385185185185185,3.410099999904638],[-0.2627083333333334,-0.6088888888888889,3.4299999999999997],[-0.2838541666666667,-0.5946296296296296,3.445399999618523],[-0.30499999999999994,-0.5803703703703703,3.460000000000001],[-0.3081249999999999,-0.5681481481481482,3.476799999713897],[-0.3081249999999999,-0.5681481481481482,3.4938999996185274],[-0.3055208333333333,-0.5890740740740741,3.5101999998092666],[-0.3126041666666667,-0.5859259259259259,3.52669999980926],[-0.30822916666666667,-0.580925925925926,3.5459999999999994],[-0.3038541666666667,-0.575925925925926,3.561799999713891],[-0.31447916666666664,-0.5840740740740741,3.5766999998092714],[-0.32937500000000003,-0.5731481481481482,3.5933999996185335],[-0.34177083333333336,-0.5777777777777777,3.6100999999046266],[-0.35427083333333337,-0.5705555555555556,3.6266999998092686],[-0.35520833333333335,-0.5411111111111111,3.6432999997138964],[-0.32458333333333333,-0.5485185185185185,3.660099999904638],[-0.3194791666666667,-0.5320370370370371,3.6767999997139],[-0.3016666666666667,-0.5557407407407408,3.693399999618528],[-0.28125,-0.575925925925926,3.710000000000001],[-0.2664583333333333,-0.5766666666666667,3.726699999809263],[-0.23989583333333328,-0.585,3.7435000000000045],[-0.19979166666666662,-0.5988888888888888,3.759999999999998],[-0.16218750000000004,-0.5972222222222222,3.77669999980926],[-0.12625000000000006,-0.5974074074074075,3.793299999713902],[-0.12625000000000006,-0.5974074074074075,3.8100999999046294],[-0.10072916666666672,-0.6207407407407407,3.8266999998092714],[-0.10072916666666672,-0.6207407407407407,3.8433999996185335],[-0.057500000000000044,-0.6385185185185185,3.8600999999046266],[-0.057500000000000044,-0.6385185185185185,3.876799999713903],[-0.02510416666666669,-0.6474074074074074,3.8933999996185307],[-0.02510416666666669,-0.6474074074074074,3.9100000000000037],[0.019791666666666666,-0.6207407407407407,3.9266999998092658],[0.03250000000000005,-0.6220370370370369,3.9505999999046324],[0.03250000000000005,-0.6220370370370369,3.960099999904635],[0.028958333333333287,-0.6168518518518519,3.976699999809263],[0.03187500000000002,-0.6342592592592593,3.998199999809266],[0.021249999999999977,-0.6461111111111111,4.013299999713901],[0.004999999999999952,-0.6509259259259259,4.02669999980926],[-0.014479166666666644,-0.6598148148148149,4.045199999809263],[-0.014479166666666644,-0.6598148148148149,4.060099999904629],[-0.02781250000000005,-0.6542592592592593,4.0766999998092714],[-0.07552083333333333,-0.6305555555555555,4.093799999713902],[-0.11604166666666664,-0.6153703703703703,4.1100000000000065],[-0.17854166666666665,-0.6331481481481481,4.126699999809269],[-0.21468750000000003,-0.6394444444444445,4.143499999999996],[-0.22135416666666666,-0.6596296296296296,4.160299999713892],[-0.23447916666666668,-0.6572222222222222,4.176699999809266],[-0.2476041666666667,-0.6548148148148148,4.1932999997138936],[-0.26458333333333334,-0.6620370370370371,4.210000000000001],[-0.27062499999999995,-0.6577777777777778,4.226699999809263],[-0.2908333333333334,-0.6346296296296297,4.247099999904627],[-0.30489583333333337,-0.6444444444444445,4.2635000000000005],[-0.299375,-0.6433333333333333,4.278199999809267],[-0.2873958333333333,-0.6287037037037037,4.293299999713902],[-0.2898958333333333,-0.6085185185185186,4.309999999999995],[-0.2700000000000001,-0.5827777777777777,4.32719999980926],[-0.2782291666666667,-0.567037037037037,4.3440999999046355],[-0.26052083333333337,-0.5561111111111111,4.3600000000000065],[-0.25979166666666664,-0.529074074074074,4.376699999809269],[-0.2705208333333334,-0.5305555555555556,4.393799999713899],[-0.2717708333333333,-0.5327777777777778,4.410000000000004],[-0.2642708333333334,-0.5353703703703704,4.428699999809261],[-0.2760416666666667,-0.5235185185185185,4.4439999999999955],[-0.29093749999999996,-0.5024074074074074,4.461999999999996],[-0.2889583333333333,-0.4807407407407408,4.476999999999997],[-0.3109375,-0.46518518518518515,4.493399999618525],[-0.30010416666666667,-0.4192592592592592,4.509999999999998],[-0.32083333333333336,-0.37703703703703706,4.526599999904626],[-0.3234375,-0.3785185185185185,4.543399999618536],[-0.29333333333333333,-0.3287037037037037,4.561799999713891],[-0.2563541666666667,-0.32759259259259255,4.580299999713894],[-0.24510416666666662,-0.31722222222222224,4.594699999809258],[-0.2029166666666666,-0.3066666666666667,4.610199999809261],[-0.16989583333333336,-0.29518518518518516,4.626599999904634],[-0.11291666666666664,-0.28185185185185185,4.645099999904637],[-0.07395833333333333,-0.29240740740740734,4.661399999618531],[-0.02666666666666669,-0.2868518518518518,4.677500000000002],[0.011562500000000024,-0.29666666666666663,4.693399999618528],[0.1015625,-0.29500000000000004,4.710099999904635],[0.1474999999999999,-0.3242592592592593,4.726599999904629],[0.18468749999999995,-0.3168518518518519,4.750299999713896],[0.18468749999999995,-0.3168518518518519,4.759999999999998],[0.2439583333333334,-0.29314814814814816,4.77669999980926],[0.2751041666666666,-0.2853703703703704,4.7963999996185365],[0.3273958333333333,-0.3022222222222222,4.812799999713896],[0.36864583333333345,-0.3272222222222222,4.828399999618533],[0.36864583333333345,-0.3272222222222222,4.843499999999999],[0.40208333333333335,-0.33537037037037043,4.860099999904627],[0.43250000000000005,-0.3918518518518519,4.8770000000000024],[0.47802083333333345,-0.43796296296296294,4.893399999618531],[0.49249999999999994,-0.46148148148148144,4.910000000000004],[0.5330208333333334,-0.497037037037037,4.926699999809266],[0.5663541666666667,-0.5372222222222223,4.9432999997138936],[0.6028125000000001,-0.5674074074074074,4.960000000000001],[0.6397916666666668,-0.6075925925925927,4.976699999809263],[0.6679166666666667,-0.6333333333333333,4.993399999618525],[0.6830208333333334,-0.6498148148148147,5.009999999999998],[0.7173958333333333,-0.6701851851851851,5.02669999980926],[0.7209374999999999,-0.6624074074074073,5.045199999809263],[0.7209374999999999,-0.6624074074074073,5.059999999999995],[0.7240624999999999,-0.6411111111111111,5.0766999998092714],[0.7146874999999999,-0.6242592592592593,5.093799999713902],[0.7043750000000001,-0.6037037037037037,5.113199999809261],[0.7043750000000001,-0.6037037037037037,5.126799999713903],[0.6829166666666666,-0.567037037037037,5.14359999990463],[0.6829166666666666,-0.567037037037037,5.160099999904638],[0.6728125000000001,-0.5783333333333334,5.176699999809266],[0.6338541666666667,-0.5516666666666666,5.19709999990463],[0.5948958333333333,-0.525,5.211899999618531],[0.5648958333333333,-0.52,5.226699999809263],[0.5361458333333334,-0.5009259259259259,5.246500000000005],[0.4644791666666668,-0.5251851851851852,5.261999999999993],[0.3928124999999999,-0.5494444444444444,5.278099999904633],[0.3607291666666666,-0.5659259259259259,5.293599999904636],[0.32708333333333334,-0.5690740740740741,5.309999999999995],[0.33125,-0.6181481481481482,5.3266999998092714],[0.3150000000000001,-0.6242592592592593,5.345299999713895],[0.3150000000000001,-0.6242592592592593,5.3600000000000065],[0.3084374999999999,-0.6722222222222223,5.376699999809269],[0.30187499999999995,-0.7201851851851852,5.393299999713896],[0.30187499999999995,-0.7201851851851852,5.410199999809258],[0.28458333333333335,-0.7237037037037037,5.426699999809266],[0.21906249999999997,-0.7612962962962964,5.445199999809269],[0.2169791666666666,-0.7692592592592592,5.461699999809262],[0.19145833333333329,-0.7820370370370371,5.476999999999997],[0.1178124999999999,-0.8166666666666667,5.4935000000000045],[0.07729166666666672,-0.8107407407407408,5.512199999809262],[0.010625000000000048,-0.7851851851851852,5.527099999904628],[-0.035625000000000046,-0.7825925925925926,5.545299999713897],[-0.06625000000000002,-0.7866666666666667,5.559999999999995],[-0.071875,-0.7512962962962962,5.58019999980926],[-0.08854166666666667,-0.7111111111111111,5.59519999980926],[-0.05,-0.653888888888889,5.611399999618534],[-0.05,-0.653888888888889,5.629799999713903],[-0.004999999999999952,-0.5966666666666667,5.643499999999996],[0.04375,-0.5075925925925926,5.660000000000004],[0.13385416666666666,-0.3937037037037037,5.677],[0.16177083333333328,-0.34685185185185186,5.693399999618528],[0.20625,-0.2905555555555555,5.710000000000001],[0.2289583333333333,-0.22870370370370371,5.726699999809263],[0.2552083333333333,-0.15629629629629627,5.745199999809266],[0.22666666666666657,-0.10388888888888893,5.760199999809267],[0.21833333333333324,-0.06444444444444447,5.776799999713894],[0.18239583333333323,-0.03481481481481473,5.793299999713902],[0.18239583333333323,-0.03481481481481473,5.809999999999995],[0.13208333333333327,0.004074074074074159,5.8266999998092714],[0.13208333333333327,0.004074074074074159,5.8433999996185335],[0.0859375,-0.04148148148148144,5.860099999904627],[0.0859375,-0.04148148148148144,5.876799999713903],[0.029166666666666667,-0.050370370370370454,5.893399999618531],[0.029166666666666667,-0.050370370370370454,5.910000000000004],[-0.00625,-0.022777777777777692,5.926699999809266],[-0.00625,-0.022777777777777692,5.943399999618528],[-0.04697916666666669,-0.020555555555555598,5.960099999904635],[-0.04697916666666669,-0.020555555555555598,5.982399999618529],[-0.06760416666666665,0.03370370370370379,5.9935000000000045],[-0.11499999999999998,0.022777777777777692,6.013199999809267],[-0.14406249999999995,0.02388888888888885,6.0308999996185335],[-0.121875,-0.0011111111111111532,6.048499999999997],[-0.07395833333333333,-0.03537037037037041,6.064199999809269],[-0.017812500000000023,-0.08148148148148149,6.088899999618526],[-0.017812500000000023,-0.08148148148148149,6.095699999809263],[0.024479166666666666,-0.032407407407407406,6.110199999809261],[0.02833333333333338,-0.04870370370370362,6.131799999713898],[0.02833333333333338,-0.04870370370370362,6.143499999999996],[0.050416666666666644,-0.08314814814814811,6.160099999904638],[0.07166666666666661,-0.07611111111111116,6.182399999618532],[0.10145833333333343,-0.14148148148148143,6.196199999809259],[0.13989583333333327,-0.11703703703703702,6.210399999618524],[0.1881249999999999,-0.11870370370370374,6.2268999996185315],[0.19052083333333342,-0.13499999999999995,6.247599999904629],[0.18708333333333324,-0.1270370370370371,6.26239999961853],[0.14249999999999996,-0.0301851851851851,6.2790000000000035],[0.12885416666666671,-0.016666666666666666,6.293500000000002],[0.1453125,0.02444444444444453,6.312399999618528],[0.1337500000000001,0.032407407407407406,6.3267999997138915],[0.11916666666666677,0.007407407407407408,6.343499999999999],[0.08875000000000005,0.0242592592592593,6.3640999999046315],[0.07843749999999995,0.00592592592592601,6.380199999809271],[0.060104166666666715,0.014629629629629588,6.395399999618526],[0.051874999999999956,0.028888888888888933,6.410199999809258],[0.04364583333333331,0.040370370370370286,6.4302999997139025],[0.06208333333333336,-0.03314814814814811,6.446799999713896],[0.050312499999999954,-0.042407407407407366,6.461799999713897],[0.05416666666666667,-0.10037037037037035,6.481000000000002],[0.05416666666666667,-0.10037037037037035,6.494199999809261],[0.06177083333333329,-0.11074074074074076,6.512799999713899],[0.04874999999999995,-0.09740740740740746,6.53169999980927],[0.06187499999999998,-0.12333333333333338,6.545999999999992],[0.06343749999999998,-0.10648148148148148,6.560199999809257],[0.07468750000000005,-0.122037037037037,6.579299999713896],[0.06635416666666671,-0.11574074074074074,6.59669999980926],[0.06635416666666671,-0.11574074074074074,6.6100999999046195],[0.05343749999999995,-0.1418518518518519,6.626799999713896],[0.058749999999999976,-0.1648148148148148,6.645699999809253],[0.11052083333333323,-0.22018518518518515,6.659899999618517],[0.12958333333333344,-0.2037037037037037,6.676699999809259],[0.15395833333333328,-0.1977777777777778,6.6932999997138865],[0.1671875,-0.2337037037037037,6.710099999904628],[0.16822916666666668,-0.23537037037037042,6.72699999999999],[0.18333333333333332,-0.2825925925925926,6.743799999713886],[0.1859375,-0.3146296296296296,6.759999999999991],[0.1865624999999999,-0.35999999999999993,6.7786999998092625],[0.20062499999999991,-0.36074074074074075,6.795699999809258],[0.20437500000000006,-0.3655555555555555,6.810199999809257],[0.17583333333333329,-0.31611111111111106,6.829399999618516],[0.17062499999999994,-0.34222222222222226,6.847399999618517],[0.18979166666666672,-0.38685185185185184,6.86099999999999],[0.23927083333333338,-0.41074074074074074,6.876899999618516],[0.2328125,-0.41222222222222227,6.893499999999989],[0.221875,-0.4003703703703704,6.909999999999997],[0.221875,-0.4003703703703704,6.926699999809259],[0.20979166666666677,-0.38925925925925925,6.9432999997138865],[0.203125,-0.4198148148148148,6.959999999999994],[0.20114583333333325,-0.4455555555555556,6.9765999999046215],[0.20572916666666666,-0.4742592592592593,6.993399999618518],[0.2009375000000001,-0.5157407407407407,7.009999999999991],[0.17614583333333325,-0.5138888888888888,7.026999999999987],[0.17614583333333325,-0.5138888888888888,7.043299999713895],[0.14885416666666676,-0.48,7.059999999999988],[0.0796875,-0.4331481481481481,7.076699999809264],[0.07249999999999991,-0.4074074074074074,7.093299999713892],[0.06333333333333328,-0.3714814814814815,7.111999999999995],[0.06333333333333328,-0.3714814814814815,7.1266999998092615],[0.0743750000000001,-0.3461111111111111,7.143399999618524],[0.05343749999999995,-0.2683333333333333,7.160599999904619],[0.05499999999999995,-0.21444444444444447,7.1821999998092565],[0.04031250000000005,-0.15962962962962962,7.196199999809252],[0.03260416666666662,-0.11185185185185181,7.214499999999987],[0.035416666666666666,-0.09000000000000004,7.22999999999999],[0.017604166666666643,-0.08537037037037042,7.246699999809252],[0.028958333333333287,-0.10481481481481486,7.261999999999986],[0.01114583333333338,-0.1259259259259259,7.278799999713897],[-0.009375,-0.1551851851851852,7.293899999618517],[-0.009375,-0.1551851851851852,7.309999999999988],[-0.04114583333333333,-0.205,7.326699999809264],[-0.04114583333333333,-0.205,7.343299999713892],[-0.06614583333333333,-0.20777777777777776,7.359999999999999],[-0.11468750000000003,-0.21851851851851853,7.376599999904627],[-0.14718749999999994,-0.23574074074074075,7.393699999809257],[-0.1805208333333333,-0.26370370370370366,7.411399999618524],[-0.22437499999999996,-0.2657407407407407,7.426599999904624],[-0.22437499999999996,-0.2657407407407407,7.4432999997138865],[-0.2830208333333334,-0.24666666666666665,7.462799999713894],[-0.2864583333333333,-0.2898148148148148,7.477099999904624],[-0.2890625,-0.3320370370370371,7.493999999999986],[-0.25510416666666663,-0.3635185185185185,7.509999999999991],[-0.22229166666666664,-0.39166666666666666,7.529099999904631],[-0.17177083333333332,-0.40055555555555555,7.544099999904631],[-0.14510416666666662,-0.39814814814814814,7.562699999809254],[-0.11177083333333329,-0.37333333333333335,7.580299999713887],[-0.051770833333333384,-0.38425925925925924,7.597199999809263],[0.008437500000000023,-0.39277777777777784,7.6126999998092515],[0.09520833333333342,-0.4212962962962963,7.6266999998092615],[0.14010416666666667,-0.37296296296296294,7.644999999999996],[0.19135416666666671,-0.32166666666666666,7.661899999618527],[0.17687499999999995,-0.2825925925925926,7.676699999809259],[0.1803124999999999,-0.2485185185185185,7.6932999997138865],[0.19812500000000005,-0.2692592592592592,7.709999999999994],[0.2419791666666666,-0.30185185185185187,7.726699999809256],[0.2652083333333332,-0.3396296296296296,7.745199999809259],[0.28635416666666674,-0.3640740740740741,7.762499999999989],[0.26895833333333335,-0.34888888888888886,7.7775999999046235],[0.2529166666666666,-0.35037037037037033,7.793599999904629],[0.23229166666666667,-0.3351851851851852,7.815099999904632],[0.23229166666666667,-0.3351851851851852,7.82659999990463],[0.20927083333333343,-0.3229629629629629,7.843399999618526],[0.20927083333333343,-0.3229629629629629,7.859999999999999],[0.19052083333333342,-0.32629629629629625,7.8766999998092615],[0.19052083333333342,-0.32629629629629625,7.893299999713889],[0.1775000000000001,-0.3237037037037037,7.9147999997138925],[0.1775000000000001,-0.3237037037037037,7.926699999809259],[0.16291666666666677,-0.34370370370370373,7.943399999618521],[0.16291666666666677,-0.34370370370370373,7.959999999999994],[0.1345833333333334,-0.33611111111111114,7.9765999999046215],[0.1345833333333334,-0.33611111111111114,7.993299999713884],[0.11854166666666661,-0.382962962962963,8.010099999904625],[0.09031250000000005,-0.4262962962962963,8.027099999904621],[0.0990624999999999,-0.4812962962962963,8.043499999999995],[0.1415625000000001,-0.5559259259259259,8.059999999999988],[0.16354166666666667,-0.5805555555555556,8.077299999713887],[0.1616666666666667,-0.6424074074074073,8.093399999618526],[0.16729166666666656,-0.6962962962962963,8.11],[0.16729166666666656,-0.6962962962962963,8.127399999618518],[0.21510416666666668,-0.7520370370370371,8.143499999999989],[0.21510416666666668,-0.7520370370370371,8.159999999999997],[0.22020833333333342,-0.737037037037037,8.176699999809259],[0.2195833333333333,-0.7325925925925927,8.193899999618523],[0.20385416666666673,-0.6842592592592592,8.209899999618528],[0.1935416666666666,-0.6224074074074074,8.226599999904622],[0.1935416666666666,-0.6224074074074074,8.243299999713884],[0.19052083333333342,-0.5688888888888889,8.259899999618526],[0.10947916666666657,-0.46796296296296297,8.278899999618517],[0.05604166666666662,-0.43703703703703706,8.293899999618517],[0.04729166666666664,-0.38870370370370366,8.309999999999988],[0.04729166666666664,-0.38870370370370366,8.32659999990463],[0.08822916666666672,-0.36925925925925923,8.343499999999992],[0.005937500000000048,-0.2522222222222222,8.360599999904622],[-0.034687499999999954,-0.21962962962962967,8.376599999904627],[-0.04750000000000002,-0.20481481481481487,8.395199999809265],[-0.06208333333333336,-0.18777777777777774,8.409999999999997],[-0.06124999999999995,-0.17629629629629628,8.43059999990463],[-0.0704166666666667,-0.20407407407407405,8.446799999713889],[-0.059687499999999956,-0.2155555555555555,8.463099999904628],[-0.04583333333333333,-0.2548148148148149,8.479299999713888],[-0.07906249999999998,-0.2892592592592592,8.494699999809256],[-0.1420833333333333,-0.2770370370370371,8.511999999999986],[-0.15750000000000006,-0.32,8.526599999904619],[-0.15375000000000003,-0.35,8.54619999980926],[-0.17020833333333332,-0.3464814814814815,8.560799999713893],[-0.16791666666666671,-0.34629629629629627,8.57659999990463],[-0.1766666666666667,-0.35037037037037033,8.595199999809253],[-0.19406249999999994,-0.34740740740740744,8.612399999618518],[-0.20145833333333332,-0.36925925925925923,8.626799999713896],[-0.20666666666666664,-0.35333333333333333,8.64609999990462],[-0.19041666666666662,-0.32333333333333336,8.662099999904626],[-0.16875,-0.3394444444444445,8.676599999904624],[-0.1273958333333333,-0.3822222222222222,8.695999999999998],[-0.10677083333333333,-0.36796296296296294,8.711499999999987],[-0.0889583333333333,-0.37111111111111106,8.726599999904622],[-0.07531249999999995,-0.40185185185185185,8.74689999961852],[-0.07572916666666671,-0.44537037037037036,8.762999999999991],[-0.08510416666666672,-0.45759259259259266,8.778599999904628],[-0.07229166666666664,-0.4746296296296296,8.795699999809258],[-0.07729166666666672,-0.504074074074074,8.812699999809254],[-0.06541666666666662,-0.5364814814814814,8.82659999990463],[-0.05677083333333333,-0.5335185185185186,8.845499999999987],[-0.027499999999999976,-0.5351851851851852,8.85989999961852],[-0.014687500000000023,-0.5664814814814815,8.876599999904627],[-0.007395833333333357,-0.6166666666666667,8.89509999990463],[0.008333333333333333,-0.6211111111111111,8.909999999999997],[0.025625000000000023,-0.609074074074074,8.929099999904622],[0.06864583333333343,-0.5974074074074075,8.945799999713884],[0.10354166666666677,-0.5603703703703704,8.961299999713887],[0.1478125000000001,-0.5211111111111111,8.97679999971389],[0.17520833333333338,-0.4788888888888889,8.993299999713884],[0.20895833333333325,-0.4648148148148148,9.013699999809262],[0.21802083333333327,-0.4475925925925926,9.027099999904621],[0.23052083333333329,-0.40685185185185185,9.044699999809254],[0.22770833333333323,-0.38055555555555554,9.06029999971389],[0.23739583333333342,-0.3427777777777778,9.077099999904618],[0.25510416666666674,-0.30351851851851847,9.09459999990463],[0.25,-0.3164814814814814,9.111399999618527],[0.25,-0.3164814814814814,9.126699999809261],[0.23083333333333325,-0.35,9.143499999999989],[0.16802083333333329,-0.375,9.16009999990463],[0.06916666666666677,-0.3801851851851852,9.179099999904622],[0.007604166666666619,-0.3440740740740741,9.193499999999986],[-0.05395833333333329,-0.307962962962963,9.209899999618528],[-0.12062499999999995,-0.34148148148148144,9.229499999999987],[-0.1664583333333333,-0.3416666666666667,9.246799999713886],[-0.1985416666666667,-0.39462962962962966,9.262899999618526],[-0.24322916666666666,-0.45018518518518524,9.277199999809255],[-0.2978125,-0.46037037037037043,9.293299999713895],[-0.3055208333333333,-0.47370370370370374,9.313199999809257],[-0.26322916666666674,-0.49537037037037035,9.327999999999989],[-0.19697916666666668,-0.5281481481481481,9.34469999980925],[-0.18083333333333335,-0.5824074074074074,9.360399999618522],[-0.18083333333333335,-0.5824074074074074,9.381199999809255],[-0.16833333333333336,-0.6177777777777779,9.393499999999989],[-0.15510416666666665,-0.6275925925925926,9.409999999999997],[-0.13354166666666673,-0.6372222222222222,9.429899999618527],[-0.13354166666666673,-0.6372222222222222,9.443299999713886],[-0.14937499999999998,-0.6194444444444445,9.459999999999994],[-0.15031249999999996,-0.6190740740740741,9.476699999809256],[-0.12260416666666671,-0.6325925925925926,9.493399999618518],[-0.11614583333333334,-0.6196296296296296,9.510099999904625],[-0.11604166666666664,-0.6068518518518519,9.526599999904619],[-0.0765625,-0.6127777777777778,9.544799999713888],[-0.03802083333333333,-0.61,9.559899999618523],[-0.00010416666666669035,-0.5962962962962963,9.57659999990463],[0.03947916666666664,-0.5840740740740741,9.593299999713892],[0.08093750000000005,-0.5542592592592592,9.61],[0.12020833333333343,-0.547037037037037,9.626699999809261],[0.16656250000000009,-0.5112962962962964,9.646899999618526],[0.19249999999999995,-0.4888888888888889,9.661999999999992],[0.19197916666666662,-0.4992592592592593,9.676599999904624],[0.19145833333333329,-0.5111111111111111,9.693199999809252],[0.15520833333333334,-0.5007407407407407,9.712399999618526],[0.1304166666666667,-0.4905555555555555,9.726699999809256],[0.10989583333333333,-0.5101851851851852,9.743399999618518],[0.08739583333333342,-0.4722222222222222,9.76319999980926],[0.06395833333333331,-0.5001851851851852,9.777599999904623],[0.049583333333333354,-0.5098148148148148,9.793499999999995],[0.049583333333333354,-0.5098148148148148,9.810099999904622],[0.04072916666666669,-0.5218518518518519,9.831399999618526],[0.04072916666666669,-0.5218518518518519,9.843499999999992],[0.04833333333333331,-0.5068518518518518,9.86],[0.04833333333333331,-0.5068518518518518,9.876599999904627],[0.059375,-0.4792592592592593,9.89329999971389],[0.059375,-0.4792592592592593,9.909899999618517],[0.07239583333333334,-0.4418518518518519,9.926599999904624],[0.07239583333333334,-0.4418518518518519,9.94339999961852],[0.09166666666666666,-0.42537037037037034,9.959899999618528],[0.09166666666666666,-0.42537037037037034,9.976699999809256],[0.11229166666666662,-0.41759259259259257,9.993299999713884],[0.13718750000000005,-0.3883333333333333,10.011299999713884],[0.15822916666666675,-0.4140740740740741,10.026599999904619],[0.15822916666666675,-0.4140740740740741,10.043499999999995],[0.17000000000000004,-0.39166666666666666,10.059999999999988],[0.18614583333333337,-0.3516666666666666,10.07659999990463],[0.18291666666666656,-0.32518518518518524,10.093299999713892],[0.18364583333333329,-0.3124074074074074,10.10989999961852],[0.16739583333333338,-0.32,10.128399999618523],[0.14916666666666673,-0.3359259259259259,10.147599999904628],[0.14916666666666673,-0.3359259259259259,10.159999999999997],[0.09041666666666662,-0.3427777777777778,10.176699999809259],[0.026250000000000048,-0.3411111111111111,10.19339999961852],[-0.03583333333333331,-0.3351851851851852,10.212899999618529],[-0.08666666666666671,-0.31611111111111106,10.227299999713892],[-0.1264583333333333,-0.28888888888888886,10.246499999999997],[-0.1264583333333333,-0.28888888888888886,10.259999999999991],[-0.17062499999999994,-0.27925925925925926,10.276699999809253],[-0.1664583333333333,-0.31074074074074076,10.295599999904624],[-0.1890625,-0.3224074074074075,10.310399999618525],[-0.18937499999999996,-0.3344444444444445,10.326699999809264],[-0.17374999999999996,-0.3085185185185186,10.346499999999992],[-0.12083333333333333,-0.2962962962962963,10.362499999999997],[-0.06791666666666671,-0.28407407407407403,10.376799999713896],[-0.012812499999999952,-0.3146296296296296,10.395599999904618],[0.028541666666666642,-0.33185185185185184,10.411399999618524],[0.028541666666666642,-0.33185185185185184,10.426799999713893],[0.0626041666666667,-0.3255555555555556,10.446299999713887],[0.09187500000000005,-0.34,10.461599999904621],[0.07729166666666672,-0.3059259259259259,10.47699999999999],[0.10499999999999995,-0.317037037037037,10.493299999713884],[0.12479166666666662,-0.31055555555555553,10.509999999999991],[0.1423958333333334,-0.3098148148148148,10.527399999618524],[0.16541666666666663,-0.2957407407407407,10.543299999713895],[0.16895833333333338,-0.2964814814814815,10.559999999999988]]","[0.0005000000000023874,0.05169999980926576,0.06319999980926383,0.0807999997138964,0.09639999961852652,0.11489999961852959,0.12749999999999773,0.1476999998092623,0.16139999961853135,0.17679999971390004,0.19350000000000023,0.21009999990463513,0.22689999961853147,0.2433999996185321,0.2600999999046323,0.27679999971389435,0.29339999961852925,0.31009999990462944,0.32669999980926434,0.3461999998092651,0.3603999996185294,0.3767999997138958,0.39350000000000307,0.41009999990463086,0.4272999997138953,0.44339999961852783,0.46000000000000085,0.4766999998092629,0.4933999996185321,0.5100999999046323,0.5266999998092672,0.5457999997138998,0.5604999999999976,0.5772999997138939,0.5933999996185335,0.6107999997138975,0.6267999997138958,0.6458999996185284,0.6600999999046309,0.6768999996185272,0.6948999996185279,0.7100999999046351,0.7267999997138972,0.7462999997138979,0.76259999990463,0.777000000000001,0.7933999996185293,0.8100000000000023,0.8282999997138987,0.8452999997138946,0.8600999999046337,0.8771999998092639,0.8933999996185307,0.9101999998092651,0.9267999997139,0.9470000000000027,0.9600000000000009,0.9766999998092629,0.9934999999999974,1.0100999999046323,1.0266999998092672,1.0435999999046288,1.0600999999046294,1.0767999997138986,1.0934999999999988,1.1128999996185271,1.1267999997138958,1.1435999999046302,1.1640999999046358,1.1786999998092682,1.1933999996185278,1.2100999999046351,1.2267999997138972,1.245599999904634,1.2600999999046323,1.2768999996185286,1.2933999996185293,1.3100999999046294,1.3266999998092643,1.3452999997138946,1.3599999999999994,1.3767999997138958,1.393500000000003,1.4100999999046309,1.4266999998092658,1.4450000000000003,1.4600999999046351,1.4767999997138972,1.4947999997138979,1.5105999999046347,1.5266999998092672,1.5451999998092631,1.5600999999046294,1.5766999998092643,1.5959999999999965,1.6099999999999994,1.6267999997138958,1.6475999999046351,1.6617999997138995,1.6790999999046292,1.693799999713896,1.7100999999046351,1.7267999997138972,1.743399999618532,1.7600999999046323,1.7766999998092672,1.7935000000000016,1.8101999998092637,1.8267999997138986,1.847999999999999,1.8600999999046337,1.8767999997138958,1.8933999996185307,1.9100999999046309,1.9267999997139,1.9435000000000002,1.9600999999046351,1.9768999996185315,1.993399999618532,2.0100999999046323,2.0281999998092672,2.0468999996185318,2.0615000000000023,2.0770999999046325,2.0933999996185335,2.1115999999046338,2.1267999997138958,2.143500000000003,2.160099999904631,2.1767999997139,2.193399999618528,2.2101999998092623,2.226799999713897,2.243399999618532,2.2600999999046323,2.2790999999046306,2.293699999809263,2.3119999999999976,2.3271999998092667,2.3474999999999966,2.3629999999999995,2.3770000000000024,2.3933999996185307,2.410099999904631,2.4284999999999997,2.4436999998092617,2.460099999904635,2.476699999809263,2.493299999713898,2.5100999999046323,2.526699999809267,2.544699999809268,2.5600000000000023,2.57809999990463,2.5933999996185335,2.6100999999046337,2.6266999998092615,2.645799999713894,2.6600000000000037,2.6767999997139,2.695299999713903,2.710000000000001,2.726699999809263,2.7435000000000045,2.759999999999998,2.77669999980926,2.7972999997138928,2.81289999961853,2.827299999713894,2.843599999904633,2.8600999999046266,2.8773999996185253,2.8933999996185307,2.9114999999999966,2.9280999999046387,2.9447999997139007,2.960099999904635,2.976699999809263,2.993399999618525,3.0101999998092666,3.0267999997138944,3.0487999997139,3.0645999999046367,3.0767999997138915,3.0936999998092674,3.113999999999997,3.126799999713903,3.1435999999046302,3.1665999999046264,3.1766999998092658,3.193499999999993,3.210000000000001,3.226699999809263,3.2453999996185345,3.263599999904635,3.281399999618536,3.2953999996185317,3.309999999999995,3.3266999998092714,3.3467999997139017,3.3603999996185294,3.376799999713903,3.3933999996185307,3.410099999904638,3.4299999999999997,3.445399999618523,3.460000000000001,3.476799999713897,3.4938999996185274,3.5101999998092666,3.52669999980926,3.5459999999999994,3.561799999713891,3.5766999998092714,3.5933999996185335,3.6100999999046266,3.6266999998092686,3.6432999997138964,3.660099999904638,3.6767999997139,3.693399999618528,3.710000000000001,3.726699999809263,3.7435000000000045,3.759999999999998,3.77669999980926,3.793299999713902,3.8100999999046294,3.8266999998092714,3.8433999996185335,3.8600999999046266,3.876799999713903,3.8933999996185307,3.9100000000000037,3.9266999998092658,3.9505999999046324,3.960099999904635,3.976699999809263,3.998199999809266,4.013299999713901,4.02669999980926,4.045199999809263,4.060099999904629,4.0766999998092714,4.093799999713902,4.1100000000000065,4.126699999809269,4.143499999999996,4.160299999713892,4.176699999809266,4.1932999997138936,4.210000000000001,4.226699999809263,4.247099999904627,4.2635000000000005,4.278199999809267,4.293299999713902,4.309999999999995,4.32719999980926,4.3440999999046355,4.3600000000000065,4.376699999809269,4.393799999713899,4.410000000000004,4.428699999809261,4.4439999999999955,4.461