inst1_resp.keys,inst1_resp.rt,calibrationMouse.x,calibrationMouse.y,calibrationMouse.leftButton,calibrationMouse.midButton,calibrationMouse.rightButton,calibrationClick.x,calibrationClick.y,calibrationClick.leftButton,calibrationClick.midButton,calibrationClick.rightButton,trialsc.thisRepN,trialsc.thisTrialN,trialsc.thisN,trialsc.thisIndex,trialsc.ran,calibration_x,calibration_y,participant,session,date,expName,psychopyVersion,OS,frameRate,calibrationClick.clicked_name,ScreenRes_pixels,mouse_2.x,mouse_2.y,mouse_2.leftButton,mouse_2.midButton,mouse_2.rightButton,mouse_2.time,mouse_2.clicked_name,Camera_pixels,mouse.x,mouse.y,mouse.leftButton,mouse.midButton,mouse.rightButton,mouse.time,mouse.clicked_name,Choice,Trial,TrialDuration,MOUSE_GAZE,ET_GAZE,ET_GAZE_x_T,time,unixTime,ET_GAZE_NF,Loc_Bus_label,Loc_Metro_label,Loc_RH_label,Loc_Cost_label,Loc_Travel_label,Loc_Comfort_label,Loc_Bus_cost,Loc_Metro_cost,Loc_RH_cost,Loc_Bus_travel,Loc_Metro_travel,Loc_RH_travel,Loc_Bus_comfort,Loc_Metro_comfort,Loc_RH_comfort,trials.thisRepN,trials.thisTrialN,trials.thisN,trials.thisIndex,trials.ran,Block,Device,RH_cost,RH_travel_time,RH_Comfort,metro_cost,metro_travel_time,metro_Comfort,Bus_cost,Bus_travel_time,Bus_Comfort
space,1.8136,-0.0125,0.162962963,1,0,0,0.335416667,0.342592593,1,0,0,0,0,0,17,1,0.33,0.33,45,001,2024-11-20_12h57.31.022,Attention_exp_legacy,2023.1.0,Win32,60.24096386,,,,,,,,,,,,,,,,,,,,,,,,,,,,,,,,,,,,,,,,,,,,,,,,,,,,,,,,,
,,,,,,,-0.011458333,0.681481481,1,0,0,0,1,1,13,1,0,0.67,45,001,2024-11-20_12h57.31.022,Attention_exp_legacy,2023.1.0,Win32,60.24096386,,,,,,,,,,,,,,,,,,,,,,,,,,,,,,,,,,,,,,,,,,,,,,,,,,,,,,,,,
,,,,,,,-0.329166667,-0.325925926,1,0,0,0,2,2,5,1,-0.33,-0.33,45,001,2024-11-20_12h57.31.022,Attention_exp_legacy,2023.1.0,Win32,60.24096386,calibration_square,,,,,,,,,,,,,,,,,,,,,,,,,,,,,,,,,,,,,,,,,,,,,,,,,,,,,,,,
,,,,,,,0.310416667,0.664814815,1,0,0,0,3,3,18,1,0.33,0.67,45,001,2024-11-20_12h57.31.022,Attention_exp_legacy,2023.1.0,Win32,60.24096386,,,,,,,,,,,,,,,,,,,,,,,,,,,,,,,,,,,,,,,,,,,,,,,,,,,,,,,,,
,,,,,,,-0.326041667,-0.659259259,1,0,0,0,4,4,4,1,-0.33,-0.67,45,001,2024-11-20_12h57.31.022,Attention_exp_legacy,2023.1.0,Win32,60.24096386,,,,,,,,,,,,,,,,,,,,,,,,,,,,,,,,,,,,,,,,,,,,,,,,,,,,,,,,,
,,,,,,,-0.00625,0.322222222,1,0,0,0,5,5,12,1,0,0.33,45,001,2024-11-20_12h57.31.022,Attention_exp_legacy,2023.1.0,Win32,60.24096386,calibration_square,,,,,,,,,,,,,,,,,,,,,,,,,,,,,,,,,,,,,,,,,,,,,,,,,,,,,,,,
,,,,,,,0.3375,-0.35,1,0,0,0,6,6,15,1,0.33,-0.33,45,001,2024-11-20_12h57.31.022,Attention_exp_legacy,2023.1.0,Win32,60.24096386,,,,,,,,,,,,,,,,,,,,,,,,,,,,,,,,,,,,,,,,,,,,,,,,,,,,,,,,,
,,,,,,,-0.673958333,-0.335185185,1,0,0,0,7,7,1,1,-0.67,-0.33,45,001,2024-11-20_12h57.31.022,Attention_exp_legacy,2023.1.0,Win32,60.24096386,calibration_square,,,,,,,,,,,,,,,,,,,,,,,,,,,,,,,,,,,,,,,,,,,,,,,,,,,,,,,,
,,,,,,,-0.669791667,-0.661111111,1,0,0,0,8,8,0,1,-0.67,-0.67,45,001,2024-11-20_12h57.31.022,Attention_exp_legacy,2023.1.0,Win32,60.24096386,calibration_square,,,,,,,,,,,,,,,,,,,,,,,,,,,,,,,,,,,,,,,,,,,,,,,,,,,,,,,,
,,,,,,,-0.320833333,0.672222222,1,0,0,0,9,9,8,1,-0.33,0.67,45,001,2024-11-20_12h57.31.022,Attention_exp_legacy,2023.1.0,Win32,60.24096386,calibration_square,,,,,,,,,,,,,,,,,,,,,,,,,,,,,,,,,,,,,,,,,,,,,,,,,,,,,,,,
,,,,,,,0.002083333,-0.322222222,1,0,0,0,10,10,10,1,0,-0.33,45,001,2024-11-20_12h57.31.022,Attention_exp_legacy,2023.1.0,Win32,60.24096386,calibration_square,,,,,,,,,,,,,,,,,,,,,,,,,,,,,,,,,,,,,,,,,,,,,,,,,,,,,,,,
,,,,,,,0.660416667,0.690740741,1,0,0,0,11,11,19,1,0.67,0.67,45,001,2024-11-20_12h57.31.022,Attention_exp_legacy,2023.1.0,Win32,60.24096386,,,,,,,,,,,,,,,,,,,,,,,,,,,,,,,,,,,,,,,,,,,,,,,,,,,,,,,,,
,,,,,,,-0.673958333,-0.022222222,1,0,0,0,12,12,2,1,-0.67,0,45,001,2024-11-20_12h57.31.022,Attention_exp_legacy,2023.1.0,Win32,60.24096386,,,,,,,,,,,,,,,,,,,,,,,,,,,,,,,,,,,,,,,,,,,,,,,,,,,,,,,,,
,,,,,,,-0.338541667,0.337037037,1,0,0,0,13,13,7,1,-0.33,0.33,45,001,2024-11-20_12h57.31.022,Attention_exp_legacy,2023.1.0,Win32,60.24096386,calibration_square,,,,,,,,,,,,,,,,,,,,,,,,,,,,,,,,,,,,,,,,,,,,,,,,,,,,,,,,
,,,,,,,-0.326041667,-0.027777778,1,0,0,0,14,14,6,1,-0.33,0,45,001,2024-11-20_12h57.31.022,Attention_exp_legacy,2023.1.0,Win32,60.24096386,,,,,,,,,,,,,,,,,,,,,,,,,,,,,,,,,,,,,,,,,,,,,,,,,,,,,,,,,
,,,,,,,0.645833333,-0.668518519,1,0,0,0,15,15,20,1,0.67,-0.67,45,001,2024-11-20_12h57.31.022,Attention_exp_legacy,2023.1.0,Win32,60.24096386,,,,,,,,,,,,,,,,,,,,,,,,,,,,,,,,,,,,,,,,,,,,,,,,,,,,,,,,,
,,,,,,,0.04375,0.016666667,1,0,0,0,16,16,11,1,0,0,45,001,2024-11-20_12h57.31.022,Attention_exp_legacy,2023.1.0,Win32,60.24096386,,,,,,,,,,,,,,,,,,,,,,,,,,,,,,,,,,,,,,,,,,,,,,,,,,,,,,,,,
,,,,,,,0.34375,0.009259259,1,0,0,0,17,17,16,1,0.33,0,45,001,2024-11-20_12h57.31.022,Attention_exp_legacy,2023.1.0,Win32,60.24096386,,,,,,,,,,,,,,,,,,,,,,,,,,,,,,,,,,,,,,,,,,,,,,,,,,,,,,,,,
,,,,,,,-0.655208333,0.318518519,1,0,0,0,18,18,3,1,-0.67,0.33,45,001,2024-11-20_12h57.31.022,Attention_exp_legacy,2023.1.0,Win32,60.24096386,,,,,,,,,,,,,,,,,,,,,,,,,,,,,,,,,,,,,,,,,,,,,,,,,,,,,,,,,
,,,,,,,0.322916667,-0.661111111,1,0,0,0,19,19,14,1,0.33,-0.67,45,001,2024-11-20_12h57.31.022,Attention_exp_legacy,2023.1.0,Win32,60.24096386,calibration_square,,,,,,,,,,,,,,,,,,,,,,,,,,,,,,,,,,,,,,,,,,,,,,,,,,,,,,,,
,,,,,,,0.007291667,-0.655555556,1,0,0,0,20,20,9,1,0,-0.67,45,001,2024-11-20_12h57.31.022,Attention_exp_legacy,2023.1.0,Win32,60.24096386,,,,,,,,,,,,,,,,,,,,,,,,,,,,,,,,,,,,,,,,,,,,,,,,,,,,,,,,,
,,,,,,,,,,,,,,,,,,,45,001,2024-11-20_12h57.31.022,Attention_exp_legacy,2023.1.0,Win32,60.24096386,,"[1920,1080]",[0.014583333333333334],[-0.5092592592592593],[1],[0],[0],[0.9993000001907362],"[""StartButton""]","[640,480]",[0.375],[0.40370370370370373],[1],[0],[0],[4.099100000381469],"[""RH_label""]",RH_label,1,5.113,"[[0.15729166666666666,-0.22592592592592592],[0.15729166666666666,-0.22777777777777777],[0.15729166666666666,-0.22777777777777777],[0.15729166666666666,-0.22777777777777777],[0.15729166666666666,-0.22777777777777777],[0.15729166666666666,-0.22777777777777777],[0.15729166666666666,-0.22777777777777777],[0.15729166666666666,-0.22777777777777777],[0.15833333333333333,-0.22777777777777777],[0.15833333333333333,-0.22777777777777777],[0.15833333333333333,-0.22777777777777777],[0.159375,-0.22407407407407406],[0.16041666666666668,-0.2222222222222222],[0.1625,-0.22037037037037038],[0.1625,-0.21666666666666667],[0.16458333333333333,-0.21296296296296297],[0.16770833333333332,-0.2],[0.17083333333333334,-0.1962962962962963],[0.17604166666666668,-0.1814814814814815],[0.18229166666666666,-0.16666666666666666],[0.18645833333333334,-0.15555555555555556],[0.19166666666666668,-0.1425925925925926],[0.19166666666666668,-0.14074074074074075],[0.19375,-0.13703703703703704],[0.19583333333333333,-0.13148148148148148],[0.19895833333333332,-0.12407407407407407],[0.20416666666666666,-0.11481481481481481],[0.21041666666666667,-0.10555555555555556],[0.22291666666666668,-0.09259259259259259],[0.23958333333333334,-0.06851851851851852],[0.24895833333333334,-0.05185185185185185],[0.25625,-0.03888888888888889],[0.25625,-0.037037037037037035],[0.25833333333333336,-0.03333333333333333],[0.25833333333333336,-0.03333333333333333],[0.25833333333333336,-0.03333333333333333],[0.25833333333333336,-0.03333333333333333],[0.25833333333333336,-0.03333333333333333],[0.25833333333333336,-0.03333333333333333],[0.25833333333333336,-0.03333333333333333],[0.25833333333333336,-0.03148148148148148],[0.2604166666666667,-0.025925925925925925],[0.26145833333333335,-0.018518518518518517],[0.26458333333333334,-0.005555555555555556],[0.271875,0.03148148148148148],[0.28125,0.07222222222222222],[0.2916666666666667,0.1388888888888889],[0.30520833333333336,0.21481481481481482],[0.3125,0.26666666666666666],[0.31875,0.3],[0.32708333333333334,0.3296296296296296],[0.340625,0.3685185185185185],[0.36041666666666666,0.40555555555555556],[0.39166666666666666,0.45925925925925926],[0.41458333333333336,0.49444444444444446],[0.43125,0.5203703703703704],[0.4427083333333333,0.5388888888888889],[0.4510416666666667,0.55],[0.45416666666666666,0.5537037037037037],[0.45416666666666666,0.5537037037037037],[0.45416666666666666,0.5537037037037037],[0.45416666666666666,0.5537037037037037],[0.45416666666666666,0.5537037037037037],[0.45416666666666666,0.5537037037037037],[0.45416666666666666,0.55],[0.45416666666666666,0.5444444444444444],[0.45416666666666666,0.5351851851851852],[0.453125,0.5222222222222223],[0.4510416666666667,0.5055555555555555],[0.4479166666666667,0.47962962962962963],[0.4479166666666667,0.4722222222222222],[0.4479166666666667,0.4666666666666667],[0.4479166666666667,0.46296296296296297],[0.4479166666666667,0.45925925925925926],[0.446875,0.4537037037037037],[0.446875,0.44814814814814813],[0.44583333333333336,0.4425925925925926],[0.44479166666666664,0.4351851851851852],[0.44479166666666664,0.43333333333333335],[0.44375,0.42962962962962964],[0.44375,0.42962962962962964],[0.44375,0.42962962962962964],[0.44375,0.42962962962962964],[0.44375,0.42962962962962964],[0.440625,0.42592592592592593],[0.4322916666666667,0.4222222222222222],[0.41354166666666664,0.4166666666666667],[0.384375,0.412962962962963],[0.31875,0.412962962962963],[0.28229166666666666,0.412962962962963],[0.21145833333333333,0.412962962962963],[0.14791666666666667,0.40370370370370373],[0.11145833333333334,0.3962962962962963],[0.08854166666666667,0.3888888888888889],[0.0875,0.3888888888888889],[0.0875,0.3888888888888889],[0.0875,0.3888888888888889],[0.0875,0.3888888888888889],[0.0875,0.3888888888888889],[0.0875,0.3888888888888889],[0.0875,0.3888888888888889],[0.0875,0.3888888888888889],[0.0875,0.3888888888888889],[0.0875,0.3888888888888889],[0.0875,0.3888888888888889],[0.0875,0.3888888888888889],[0.0875,0.3888888888888889],[0.0875,0.3888888888888889],[0.0875,0.3888888888888889],[0.0875,0.3888888888888889],[0.0875,0.3888888888888889],[0.0875,0.3888888888888889],[0.0875,0.3888888888888889],[0.0875,0.3888888888888889],[0.0875,0.3888888888888889],[0.08541666666666667,0.3888888888888889],[0.08020833333333334,0.38333333333333336],[0.06458333333333334,0.36666666666666664],[0.046875,0.35185185185185186],[0.025,0.3277777777777778],[-0.0020833333333333333,0.28888888888888886],[-0.027083333333333334,0.2351851851851852],[-0.040625,0.1814814814814815],[-0.051041666666666666,0.13518518518518519],[-0.05520833333333333,0.1111111111111111],[-0.05625,0.1037037037037037],[-0.05625,0.1],[-0.05416666666666667,0.08888888888888889],[-0.03229166666666667,0.03518518518518519],[-0.00625,-0.022222222222222223],[0.029166666666666667,-0.08888888888888889],[0.05520833333333333,-0.12407407407407407],[0.07604166666666666,-0.14814814814814814],[0.09166666666666666,-0.1685185185185185],[0.09791666666666667,-0.17592592592592593],[0.09791666666666667,-0.17777777777777778],[0.09791666666666667,-0.17777777777777778],[0.09791666666666667,-0.17962962962962964],[0.09791666666666667,-0.17962962962962964],[0.09791666666666667,-0.18333333333333332],[0.09791666666666667,-0.18888888888888888],[0.09791666666666667,-0.1962962962962963],[0.09791666666666667,-0.19814814814814816],[0.09791666666666667,-0.20185185185185187],[0.103125,-0.20185185185185187],[0.1125,-0.2],[0.13020833333333334,-0.18888888888888888],[0.153125,-0.17222222222222222],[0.19583333333333333,-0.15],[0.21041666666666667,-0.14074074074074075],[0.23645833333333333,-0.13148148148148148],[0.253125,-0.1259259259259259],[0.2604166666666667,-0.12222222222222222],[0.26145833333333335,-0.12222222222222222],[0.26145833333333335,-0.12222222222222222],[0.26145833333333335,-0.12222222222222222],[0.2625,-0.12407407407407407],[0.2625,-0.15185185185185185],[0.2552083333333333,-0.19444444444444445],[0.246875,-0.24814814814814815],[0.23541666666666666,-0.29444444444444445],[0.225,-0.337037037037037],[0.22291666666666668,-0.3425925925925926],[0.21770833333333334,-0.3537037037037037],[0.21145833333333333,-0.3648148148148148],[0.2,-0.37592592592592594],[0.18958333333333333,-0.38333333333333336],[0.184375,-0.3888888888888889],[0.178125,-0.39444444444444443],[0.17708333333333334,-0.3962962962962963],[0.175,-0.3962962962962963],[0.17395833333333333,-0.3962962962962963],[0.17083333333333334,-0.39814814814814814],[0.16875,-0.39814814814814814],[0.159375,-0.39814814814814814],[0.153125,-0.39814814814814814],[0.15104166666666666,-0.39814814814814814],[0.14375,-0.39814814814814814],[0.13854166666666667,-0.3962962962962963],[0.134375,-0.3888888888888889],[0.13229166666666667,-0.37037037037037035],[0.13125,-0.3351851851851852],[0.13125,-0.2777777777777778],[0.13125,-0.05185185185185185],[0.13125,0.05740740740740741],[0.13125,0.26851851851851855],[0.13125,0.4537037037037037],[0.13020833333333334,0.5185185185185185],[0.12604166666666666,0.5444444444444444],[0.12604166666666666,0.5444444444444444],[0.12604166666666666,0.5444444444444444],[0.12291666666666666,0.5462962962962963],[0.11770833333333333,0.5092592592592593],[0.10833333333333334,0.4537037037037037],[0.09791666666666667,0.3925925925925926],[0.090625,0.337037037037037],[0.08333333333333333,0.2962962962962963],[0.08020833333333334,0.2722222222222222],[0.07916666666666666,0.2537037037037037],[0.078125,0.2388888888888889],[0.07708333333333334,0.22962962962962963],[0.07604166666666666,0.22407407407407406],[0.07604166666666666,0.22407407407407406],[0.07604166666666666,0.22407407407407406],[0.07604166666666666,0.22407407407407406],[0.07604166666666666,0.22407407407407406],[0.08125,0.23703703703703705],[0.084375,0.2518518518518518],[0.090625,0.2740740740740741],[0.09375,0.29074074074074074],[0.096875,0.3055555555555556],[0.09895833333333333,0.32222222222222224],[0.1,0.3277777777777778],[0.10104166666666667,0.337037037037037],[0.10208333333333333,0.34074074074074073],[0.10208333333333333,0.34629629629629627],[0.103125,0.34814814814814815],[0.103125,0.34814814814814815],[0.103125,0.34814814814814815],[0.10729166666666666,0.34814814814814815],[0.125,0.3537037037037037],[0.15729166666666666,0.3648148148148148],[0.19583333333333333,0.3814814814814815],[0.2677083333333333,0.4111111111111111],[0.28958333333333336,0.4185185185185185],[0.3333333333333333,0.4203703703703704],[0.3572916666666667,0.4185185185185185],[0.3697916666666667,0.412962962962963],[0.375,0.40370370370370373],[0.375,0.40370370370370373],[0.375,0.40370370370370373],[0.375,0.40370370370370373],[0.375,0.40370370370370373],[0.375,0.40370370370370373],[0.375,0.40370370370370373],[0.375,0.40370370370370373],[0.375,0.40370370370370373],[0.375,0.40370370370370373],[0.375,0.40370370370370373],[0.375,0.40370370370370373],[0.375,0.40370370370370373],[0.375,0.40370370370370373],[0.375,0.40370370370370373],[0.375,0.40370370370370373],[0.375,0.40370370370370373],[0.375,0.40370370370370373],[0.375,0.40370370370370373],[0.375,0.40370370370370373],[0.375,0.40370370370370373],[0.375,0.40370370370370373],[0.375,0.40370370370370373],[0.375,0.40370370370370373],[0.375,0.40185185185185185],[0.375,0.39814814814814814],[0.371875,0.39444444444444443],[0.36666666666666664,0.3888888888888889],[0.35520833333333335,0.37777777777777777],[0.3416666666666667,0.3685185185185185],[0.328125,0.3574074074074074],[0.3104166666666667,0.3425925925925926],[0.28854166666666664,0.32592592592592595],[0.271875,0.3111111111111111],[0.2552083333333333,0.29074074074074074],[0.24375,0.2740740740740741],[0.23645833333333333,0.26666666666666666],[0.234375,0.26296296296296295],[0.23333333333333334,0.2611111111111111],[0.23333333333333334,0.2611111111111111],[0.23333333333333334,0.2611111111111111],[0.23333333333333334,0.2611111111111111],[0.2375,0.27037037037037037],[0.25,0.29814814814814816],[0.27395833333333336,0.3314814814814815],[0.3072916666666667,0.3648148148148148],[0.321875,0.37592592592592594],[0.328125,0.3814814814814815],[0.32916666666666666,0.3814814814814815],[0.3302083333333333,0.3814814814814815],[0.3302083333333333,0.3814814814814815],[0.3302083333333333,0.3814814814814815],[0.3302083333333333,0.3814814814814815],[0.3302083333333333,0.3814814814814815],[0.3302083333333333,0.3814814814814815],[0.3302083333333333,0.3814814814814815],[0.3302083333333333,0.3814814814814815],[0.3302083333333333,0.3814814814814815],[0.3302083333333333,0.3814814814814815],[0.3302083333333333,0.3814814814814815],[0.3302083333333333,0.3814814814814815],[0.3260416666666667,0.3814814814814815],[0.31354166666666666,0.37777777777777777],[0.29375,0.3685185185185185],[0.2625,0.3537037037037037],[0.22083333333333333,0.3351851851851852],[0.171875,0.32222222222222224],[0.13020833333333334,0.3148148148148148],[0.09791666666666667,0.3055555555555556],[0.071875,0.3],[0.065625,0.3],[0.06354166666666666,0.3],[0.06354166666666666,0.3],[0.06354166666666666,0.3],[0.0625,0.29814814814814816],[0.0625,0.29814814814814816],[0.0625,0.29814814814814816],[0.0625,0.29814814814814816]]","[[0.16156249999999991,0.16592592592592598],[0.16156249999999991,0.16592592592592598],[0.15791666666666657,0.17037037037037037],[0.16979166666666667,0.1844444444444445],[0.1772916666666667,0.20629629629629626],[0.19802083333333323,0.24666666666666676],[0.22062499999999996,0.2381481481481482],[0.23666666666666672,0.22148148148148153],[0.23666666666666672,0.22148148148148153],[0.23395833333333324,0.2390740740740741],[0.23395833333333324,0.2390740740740741],[0.23072916666666668,0.25092592592592594],[0.21302083333333333,0.2051851851851851],[0.21302083333333333,0.2051851851851851],[0.20416666666666666,0.16833333333333328],[0.1779166666666666,0.15833333333333333],[0.14375,0.1588888888888888],[0.14375,0.1588888888888888],[0.1349999999999999,0.12185185185185177],[0.1349999999999999,0.12185185185185177],[0.1212500000000001,0.10129629629629638],[0.1212500000000001,0.10129629629629638],[0.1349999999999999,0.15555555555555556],[0.1349999999999999,0.15555555555555556],[0.12083333333333333,0.1479629629629629],[0.13020833333333334,0.14444444444444443],[0.13020833333333334,0.14444444444444443],[0.13791666666666677,0.12314814814814815],[0.14135416666666673,0.10222222222222231],[0.14135416666666673,0.10222222222222231],[0.13229166666666667,0.06407407407407412],[0.1538541666666667,0.052407407407407326],[0.1538541666666667,0.052407407407407326],[0.19885416666666675,0.030740740740740784],[0.22864583333333333,0.032407407407407406],[0.2390625,0.002407407407407323],[0.21708333333333343,-0.10203703703703708],[0.23583333333333342,-0.09351851851851851],[0.2334374999999999,-0.15962962962962962],[0.2509375000000001,-0.1705555555555556],[0.2726041666666667,-0.14166666666666666],[0.2928124999999999,-0.11944444444444445],[0.3125,-0.1301851851851852],[0.32354166666666656,-0.14333333333333328],[0.3210416666666667,-0.16962962962962966],[0.3185416666666666,-0.18592592592592588],[0.3185416666666666,-0.18592592592592588],[0.33125,-0.1816666666666667],[0.33125,-0.1816666666666667],[0.33052083333333326,-0.21537037037037038],[0.33052083333333326,-0.21537037037037038],[0.35052083333333334,-0.2007407407407407],[0.35427083333333326,-0.22296296296296292],[0.34104166666666674,-0.262037037037037],[0.34104166666666674,-0.262037037037037],[0.33010416666666675,-0.2903703703703704],[0.33010416666666675,-0.2903703703703704],[0.34645833333333326,-0.305],[0.34645833333333326,-0.305],[0.34791666666666665,-0.3412962962962963],[0.3474999999999999,-0.30759259259259264],[0.3474999999999999,-0.30759259259259264],[0.3481250000000001,-0.3255555555555556],[0.3481250000000001,-0.3255555555555556],[0.3692708333333333,-0.2814814814814815],[0.3692708333333333,-0.2814814814814815],[0.3945833333333333,-0.2740740740740741],[0.4002083333333334,-0.2657407407407407],[0.40385416666666674,-0.257962962962963],[0.41437499999999994,-0.2577777777777778],[0.41437499999999994,-0.2577777777777778],[0.42999999999999994,-0.26796296296296296],[0.4125,-0.2433333333333333],[0.40770833333333345,-0.19685185185185186],[0.4040625000000001,-0.22037037037037038],[0.42249999999999993,-0.22388888888888886],[0.42249999999999993,-0.22388888888888886],[0.4226041666666667,-0.24407407407407408],[0.4226041666666667,-0.24407407407407408],[0.40614583333333343,-0.247037037037037],[0.39718749999999997,-0.2644444444444445],[0.3845833333333334,-0.3198148148148148],[0.3767708333333334,-0.32999999999999996],[0.37833333333333335,-0.30759259259259264],[0.3857291666666666,-0.33370370370370367],[0.3679166666666667,-0.38055555555555554],[0.3541666666666667,-0.4],[0.3485416666666666,-0.35999999999999993],[0.3363541666666668,-0.38333333333333336],[0.34885416666666674,-0.39592592592592596],[0.3576041666666666,-0.4112962962962963],[0.33406250000000004,-0.362962962962963],[0.33406250000000004,-0.362962962962963],[0.321875,-0.3557407407407408],[0.2764583333333334,-0.38259259259259265],[0.2521874999999999,-0.39444444444444443],[0.24260416666666676,-0.38555555555555554],[0.24947916666666667,-0.3762962962962963],[0.22489583333333343,-0.4203703703703704],[0.19947916666666668,-0.4366666666666667],[0.18291666666666656,-0.42166666666666663],[0.15916666666666662,-0.41203703703703703],[0.17135416666666667,-0.4281481481481481],[0.18312499999999995,-0.3738888888888888],[0.14010416666666667,-0.37777777777777777],[0.07593750000000009,-0.39666666666666667],[0.009895833333333333,-0.42018518518518516],[-0.058229166666666644,-0.4235185185185185],[-0.11052083333333336,-0.4081481481481481],[-0.153125,-0.3925925925925926],[-0.20968749999999994,-0.4046296296296296],[-0.2741666666666667,-0.4081481481481481],[-0.33864583333333337,-0.4414814814814814],[-0.4058333333333334,-0.5294444444444444],[-0.39958333333333335,-0.5383333333333333],[-0.38177083333333334,-0.5138888888888888],[-0.38177083333333334,-0.5138888888888888],[-0.3516666666666667,-0.5066666666666667],[-0.33562500000000006,-0.5507407407407408],[-0.33562500000000006,-0.5507407407407408],[-0.31979166666666664,-0.5631481481481482],[-0.3171875,-0.5848148148148148],[-0.31927083333333334,-0.5862962962962963],[-0.27802083333333333,-0.5742592592592592],[-0.2367708333333333,-0.5324074074074074],[-0.1827083333333333,-0.46870370370370373],[-0.14260416666666664,-0.3992592592592593],[-0.090625,-0.38185185185185183],[-0.04364583333333331,-0.36314814814814816],[-0.04364583333333331,-0.36314814814814816],[-0.024791666666666618,-0.2772222222222222],[-0.024791666666666618,-0.2772222222222222],[0.005312500000000024,-0.20481481481481487],[0.046875,-0.17240740740740745],[0.10374999999999991,-0.10907407407407403],[0.16270833333333337,-0.0507407407407407],[0.2085416666666667,0.007777777777777862],[0.20583333333333323,0.021851851851851768],[0.20583333333333323,0.021851851851851768],[0.21916666666666676,0.03944444444444436],[0.21916666666666676,0.03944444444444436],[0.20572916666666666,0.08259259259259263],[0.20187499999999994,0.15129629629629637],[0.24270833333333333,0.14370370370370375],[0.246875,0.10537037037037032],[0.246875,0.10537037037037032],[0.2742708333333333,0.1537037037037037],[0.2696875000000001,0.1287037037037037],[0.23479166666666676,0.09203703703703713],[0.23479166666666676,0.09203703703703713],[0.23208333333333328,0.08925925925925934],[0.23208333333333328,0.08925925925925934],[0.24500000000000005,0.09037037037037028],[0.27458333333333323,0.09092592592592597],[0.30750000000000005,0.08462962962962971],[0.29635416666666664,0.08222222222222218],[0.2756249999999999,0.1227777777777777],[0.27104166666666674,0.1883333333333334],[0.27104166666666674,0.1883333333333334],[0.23802083333333332,0.21944444444444444],[0.2150000000000001,0.27518518518518525],[0.19343750000000004,0.3031481481481482],[0.15281250000000005,0.297037037037037],[0.13989583333333327,0.37240740740740746],[0.13989583333333327,0.37240740740740746],[0.09635416666666667,0.37703703703703706],[0.09635416666666667,0.37703703703703706],[0.07625000000000005,0.39351851851851855],[0.059062500000000046,0.425],[0.059062500000000046,0.425],[0.05520833333333333,0.4300000000000001],[0.0640625,0.38685185185185184],[0.0546875,0.37166666666666676],[0.07291666666666667,0.36018518518518516],[0.06739583333333338,0.3675925925925926],[0.08312499999999995,0.3851851851851852],[0.08312499999999995,0.3851851851851852],[0.07062499999999995,0.34574074074074085],[0.07062499999999995,0.34574074074074085],[0.08854166666666667,0.3624074074074075],[0.08854166666666667,0.3624074074074075],[0.09354166666666662,0.3762962962962964],[0.09354166666666662,0.3762962962962964],[0.1078125,0.3329629629629629],[0.1078125,0.3329629629629629],[0.11145833333333334,0.32888888888888895],[0.11145833333333334,0.32888888888888895],[0.10052083333333334,0.2577777777777779],[0.10166666666666657,0.19296296296296306],[0.08989583333333329,0.1896296296296296],[0.13114583333333343,0.17185185185185176],[0.11354166666666667,0.13944444444444437],[0.12760416666666666,0.04407407407407399],[0.14947916666666666,-0.02759259259259255],[0.14895833333333333,-0.09259259259259259],[0.14895833333333333,-0.09259259259259259],[0.1556250000000001,-0.10111111111111115],[0.1556250000000001,-0.10111111111111115],[0.1525000000000001,-0.1992592592592593],[0.1525000000000001,-0.1992592592592593],[0.1634375000000001,-0.21777777777777782],[0.15770833333333342,-0.24685185185185188],[0.16010416666666671,-0.3044444444444444],[0.16010416666666671,-0.3044444444444444],[0.1326041666666666,-0.29796296296296293],[0.1646874999999999,-0.27462962962962967],[0.18760416666666657,-0.25148148148148153],[0.18760416666666657,-0.25148148148148153],[0.15395833333333328,-0.202962962962963],[0.1493750000000001,-0.2631481481481482],[0.14583333333333334,-0.29870370370370375],[0.1556250000000001,-0.26481481481481484],[0.1556250000000001,-0.26481481481481484],[0.16270833333333337,-0.20777777777777776],[0.16614583333333333,-0.14592592592592596],[0.16614583333333333,-0.14592592592592596],[0.16979166666666667,-0.18037037037037032],[0.19135416666666671,-0.2712962962962963],[0.19093749999999995,-0.37462962962962965],[0.1616666666666667,-0.3983333333333334],[0.1616666666666667,-0.3983333333333334],[0.16656250000000009,-0.4440740740740741],[0.16104166666666658,-0.41092592592592586],[0.17114583333333327,-0.4624074074074074],[0.17114583333333327,-0.4624074074074074],[0.15114583333333323,-0.4777777777777778],[0.13114583333333343,-0.49314814814814817],[0.13114583333333343,-0.49314814814814817],[0.15520833333333334,-0.5237037037037037],[0.15520833333333334,-0.5237037037037037],[0.17979166666666657,-0.5209259259259259],[0.16739583333333338,-0.490925925925926],[0.15166666666666656,-0.43555555555555553],[0.14010416666666667,-0.4118518518518518],[0.12750000000000009,-0.4140740740740741],[0.13947916666666677,-0.4398148148148148],[0.14072916666666657,-0.42666666666666664],[0.17333333333333342,-0.4746296296296296],[0.20593750000000005,-0.5225925925925926],[0.21218750000000006,-0.5401851851851852],[0.20625,-0.5338888888888889],[0.20541666666666672,-0.537962962962963],[0.20791666666666658,-0.5674074074074074],[0.24249999999999997,-0.5592592592592592],[0.27708333333333335,-0.5511111111111111],[0.28072916666666664,-0.5070370370370371],[0.28624999999999995,-0.4696296296296297],[0.2947916666666667,-0.39351851851851855],[0.2947916666666667,-0.39351851851851855],[0.2556250000000001,-0.3005555555555556],[0.22458333333333325,-0.27259259259259255],[0.24770833333333328,-0.21796296296296294],[0.2601041666666667,-0.1712962962962963],[0.28250000000000003,-0.15629629629629627],[0.29489583333333325,-0.15851851851851856],[0.2928124999999999,-0.17703703703703708],[0.2928124999999999,-0.17703703703703708],[0.30010416666666656,-0.1911111111111111],[0.30010416666666656,-0.1911111111111111],[0.32364583333333335,-0.2155555555555555],[0.29354166666666665,-0.21444444444444447],[0.3172916666666666,-0.2390740740740741],[0.35,-0.20388888888888893],[0.3155208333333334,-0.2505555555555556],[0.2872916666666666,-0.2853703703703704],[0.28968749999999993,-0.26537037037037037],[0.30010416666666656,-0.25148148148148153],[0.26437499999999997,-0.24259259259259258],[0.2271874999999999,-0.21148148148148146],[0.20802083333333338,-0.17611111111111116],[0.20802083333333338,-0.17611111111111116],[0.17218749999999997,-0.19796296296296292],[0.18916666666666657,-0.20240740740740742],[0.16395833333333343,-0.27166666666666667],[0.15177083333333338,-0.28574074074074074],[0.1453125,-0.29129629629629633],[0.1453125,-0.29129629629629633],[0.09822916666666662,-0.32],[0.07385416666666676,-0.3190740740740741],[0.14322916666666666,-0.30166666666666664],[0.20666666666666675,-0.3055555555555556],[0.21802083333333327,-0.32092592592592595],[0.2860416666666666,-0.290925925925926],[0.2953125,-0.2957407407407407],[0.3388541666666666,-0.2564814814814815],[0.36041666666666666,-0.2205555555555556],[0.39385416666666656,-0.19814814814814816],[0.4361458333333334,-0.15703703703703706],[0.4421875,-0.1307407407407408],[0.3948958333333332,-0.09444444444444444],[0.3263541666666666,-0.08629629629629634],[0.2804166666666667,-0.06333333333333331],[0.24166666666666667,-0.11518518518518517],[0.23052083333333329,-0.1161111111111111],[0.16375000000000003,-0.07462962962962966],[0.16375000000000003,-0.07462962962962966],[0.1586458333333333,-0.09129629629629632],[0.1586458333333333,-0.09129629629629632],[0.17572916666666671,-0.0787037037037037],[0.17572916666666671,-0.0787037037037037],[0.14510416666666662,-0.14629629629629629],[0.14510416666666662,-0.14629629629629629],[0.09041666666666662,-0.18611111111111112],[0.09041666666666662,-0.18611111111111112],[0.06697916666666662,-0.27037037037037037],[0.05406249999999998,-0.33555555555555555]]","[[0.16156249999999991,0.16592592592592598,0.00029999971389571556],[0.16156249999999991,0.16592592592592598,0.05769999980926599],[0.15791666666666657,0.17037037037037037,0.06319999980926383],[0.16979166666666667,0.1844444444444445,0.07809999990463012],[0.1772916666666667,0.20629629629629626,0.09419999980926264],[0.19802083333333323,0.24666666666666676,0.11069999980926326],[0.22062499999999996,0.2381481481481482,0.12769999980926627],[0.23666666666666672,0.22148148148148153,0.14350000000000307],[0.23666666666666672,0.22148148148148153,0.16199999999999903],[0.23395833333333324,0.2390740740740741,0.17459999990463615],[0.23395833333333324,0.2390740740740741,0.19129999971389822],[0.23072916666666668,0.25092592592592594,0.21099999999999852],[0.21302083333333333,0.2051851851851851,0.2271999998092653],[0.21302083333333333,0.2051851851851851,0.24129999971389537],[0.20416666666666666,0.16833333333333328,0.26229999971389617],[0.1779166666666666,0.15833333333333333,0.27769999980926485],[0.14375,0.1588888888888888,0.2945999999046336],[0.14375,0.1588888888888888,0.3080999999046341],[0.1349999999999999,0.12185185185185177,0.32940000009536874],[0.1349999999999999,0.12185185185185177,0.3421999998092673],[0.1212500000000001,0.10129629629629638,0.3582999997138998],[0.1212500000000001,0.10129629629629638,0.37479999971390043],[0.1349999999999999,0.15555555555555556,0.3965000000000032],[0.1349999999999999,0.15555555555555556,0.4081999998092627],[0.12083333333333333,0.1479629629629629,0.4247999997138976],[0.13020833333333334,0.14444444444444443,0.44550000000000267],[0.13020833333333334,0.14444444444444443,0.4580999999046327],[0.13791666666666677,0.12314814814814815,0.4746999998092676],[0.14135416666666673,0.10222222222222231,0.4979000000953704],[0.14135416666666673,0.10222222222222231,0.5159999999999982],[0.13229166666666667,0.06407407407407412,0.529599999904633],[0.1538541666666667,0.052407407407407326,0.5454000000953698],[0.1538541666666667,0.052407407407407326,0.5582999997138955],[0.19885416666666675,0.030740740740740784,0.5749000000953686],[0.22864583333333333,0.032407407407407406,0.5911999998092625],[0.2390625,0.002407407407407323,0.6079000000953698],[0.21708333333333343,-0.10203703703703708,0.6245999999046319],[0.23583333333333342,-0.09351851851851851,0.6412999997139011],[0.2334374999999999,-0.15962962962962962,0.6589000000953718],[0.2509375000000001,-0.1705555555555556,0.6769999999999996],[0.2726041666666667,-0.14166666666666666,0.6930999999046321],[0.2928124999999999,-0.11944444444444445,0.7080999999046327],[0.3125,-0.1301851851851852,0.7247999997139019],[0.32354166666666656,-0.14333333333333328,0.7414000000953678],[0.3210416666666667,-0.16962962962962966,0.7617999997139009],[0.3185416666666666,-0.18592592592592588,0.7786999998092625],[0.3185416666666666,-0.18592592592592588,0.7914000000953649],[0.33125,-0.1816666666666667,0.8080999999046341],[0.33125,-0.1816666666666667,0.8266999998092643],[0.33052083333333326,-0.21537037037037038,0.8415000000000035],[0.33052083333333326,-0.21537037037037038,0.8584999999999994],[0.35052083333333334,-0.2007407407407407,0.8770000000000024],[0.35427083333333326,-0.22296296296296292,0.8912999997139011],[0.34104166666666674,-0.262037037037037,0.9080000000000013],[0.34104166666666674,-0.262037037037037,0.9246999998092633],[0.33010416666666675,-0.2903703703703704,0.9470999999046299],[0.33010416666666675,-0.2903703703703704,0.9590999999046304],[0.34645833333333326,-0.305,0.9749000000953671],[0.34645833333333326,-0.305,0.991500000000002],[0.34791666666666665,-0.3412962962962963,1.0079000000953684],[0.3474999999999999,-0.30759259259259264,1.0287999997138968],[0.3474999999999999,-0.30759259259259264,1.0412999997138996],[0.3481250000000001,-0.3255555555555556,1.0579999999999998],[0.3481250000000001,-0.3255555555555556,1.0745000000000005],[0.3692708333333333,-0.2814814814814815,1.0947999997138993],[0.3692708333333333,-0.2814814814814815,1.1080999999046313],[0.3945833333333333,-0.2740740740740741,1.1246999998092662],[0.4002083333333334,-0.2657407407407407,1.141299999713901],[0.40385416666666674,-0.257962962962963,1.1604000000953647],[0.41437499999999994,-0.2577777777777778,1.1750999999046314],[0.41437499999999994,-0.2577777777777778,1.1914000000953706],[0.42999999999999994,-0.26796296296296296,1.2100999999046351],[0.4125,-0.2433333333333333,1.2246999998092676],[0.40770833333333345,-0.19685185185185186,1.2412999997138954],[0.4040625000000001,-0.22037037037037038,1.2607999997138961],[0.42249999999999993,-0.22388888888888886,1.2755999999046352],[0.42249999999999993,-0.22388888888888886,1.291400000095365],[0.4226041666666667,-0.24407407407407408,1.3112999997138957],[0.4226041666666667,-0.24407407407407408,1.3259000000953662],[0.40614583333333343,-0.247037037037037,1.3415000000000035],[0.39718749999999997,-0.2644444444444445,1.3590000000000018],[0.3845833333333334,-0.3198148148148148,1.3744999999999976],[0.3767708333333334,-0.32999999999999996,1.3911999998092668],[0.37833333333333335,-0.30759259259259264,1.4077999997139017],[0.3857291666666666,-0.33370370370370367,1.4265000000000043],[0.3679166666666667,-0.38055555555555554,1.4420999999046344],[0.3541666666666667,-0.4,1.4580999999046327],[0.3485416666666666,-0.35999999999999993,1.4779000000953673],[0.3363541666666668,-0.38333333333333336,1.4944000000953679],[0.34885416666666674,-0.39592592592592596,1.5080999999046298],[0.3576041666666666,-0.4112962962962963,1.5246999998092647],[0.33406250000000004,-0.362962962962963,1.5437999997138974],[0.33406250000000004,-0.362962962962963,1.5582999997138955],[0.321875,-0.3557407407407408,1.5747999997138962],[0.2764583333333334,-0.38259259259259265,1.593599999904633],[0.2521874999999999,-0.39444444444444443,1.6079000000953698],[0.24260416666666676,-0.38555555555555554,1.6244999999999976],[0.24947916666666667,-0.3762962962962963,1.6410999999046325],[0.22489583333333343,-0.4203703703703704,1.657900000095367],[0.19947916666666668,-0.4366666666666667,1.6745000000000019],[0.18291666666666656,-0.42166666666666663,1.6910999999046368],[0.15916666666666662,-0.41203703703703703,1.7079000000953712],[0.17135416666666667,-0.4281481481481481,1.724499999999999],[0.18312499999999995,-0.3738888888888888,1.7411999998092682],[0.14010416666666667,-0.37777777777777777,1.7599000000953708],[0.07593750000000009,-0.39666666666666667,1.7785999999046354],[0.009895833333333333,-0.42018518518518516,1.7937999997138974],[-0.058229166666666644,-0.4235185185185185,1.8085999999046365],[-0.11052083333333336,-0.4081481481481481,1.8245000000000005],[-0.153125,-0.3925925925925926,1.8411999998092625],[-0.20968749999999994,-0.4046296296296296,1.858699999809268],[-0.2741666666666667,-0.4081481481481481,1.8745999999046319],[-0.33864583333333337,-0.4414814814814814,1.8936999998092645],[-0.4058333333333334,-0.5294444444444444,1.9081999998092627],[-0.39958333333333335,-0.5383333333333333,1.9245000000000019],[-0.38177083333333334,-0.5138888888888888,1.9444000000953707],[-0.38177083333333334,-0.5138888888888888,1.9580999999046327],[-0.3516666666666667,-0.5066666666666667,1.9746999998092676],[-0.33562500000000006,-0.5507407407407408,1.9949000000953703],[-0.33562500000000006,-0.5507407407407408,2.0079000000953684],[-0.31979166666666664,-0.5631481481481482,2.0245999999046305],[-0.3171875,-0.5848148148148148,2.0412999997138996],[-0.31927083333333334,-0.5862962962962963,2.0619999999999976],[-0.27802083333333333,-0.5742592592592592,2.0767999997138986],[-0.2367708333333333,-0.5324074074074074,2.091400000095369],[-0.1827083333333333,-0.46870370370370373,2.108000000000004],[-0.14260416666666664,-0.3992592592592593,2.1274000000953706],[-0.090625,-0.38185185185185183,2.142400000095371],[-0.04364583333333331,-0.36314814814814816,2.1610000000000014],[-0.04364583333333331,-0.36314814814814816,2.1779999999999973],[-0.024791666666666618,-0.2772222222222222,2.191499999999998],[-0.024791666666666618,-0.2772222222222222,2.2079999999999984],[0.005312500000000024,-0.20481481481481487,2.2245999999046333],[0.046875,-0.17240740740740745,2.2435999999046317],[0.10374999999999991,-0.10907407407407403,2.258900000095366],[0.16270833333333337,-0.0507407407407407,2.275099999904633],[0.2085416666666667,0.007777777777777862,2.291099999904631],[0.20583333333333323,0.021851851851851768,2.3151999998092663],[0.20583333333333323,0.021851851851851768,2.3245000000000005],[0.21916666666666676,0.03944444444444436,2.3415000000000035],[0.21916666666666676,0.03944444444444436,2.358400000095365],[0.20572916666666666,0.08259259259259263,2.377599999904632],[0.20187499999999994,0.15129629629629637,2.393900000095371],[0.24270833333333333,0.14370370370370375,2.410199999809265],[0.246875,0.10537037037037032,2.4290999999046363],[0.246875,0.10537037037037032,2.441299999713898],[0.2742708333333333,0.1537037037037037,2.4580999999046327],[0.2696875000000001,0.1287037037037037,2.4756999998092653],[0.23479166666666676,0.09203703703703713,2.498599999904634],[0.23479166666666676,0.09203703703703713,2.50809999990463],[0.23208333333333328,0.08925925925925934,2.5246999998092647],[0.23208333333333328,0.08925925925925934,2.5412999997138996],[0.24500000000000005,0.09037037037037028,2.5619999999999976],[0.27458333333333323,0.09092592592592597,2.5766999998092643],[0.30750000000000005,0.08462962962962971,2.5911999998092625],[0.29635416666666664,0.08222222222222218,2.6081999998092655],[0.2756249999999999,0.1227777777777777,2.6277999997139005],[0.27104166666666674,0.1883333333333334,2.6445000000000007],[0.27104166666666674,0.1883333333333334,2.6584000000953694],[0.23802083333333332,0.21944444444444444,2.6746999998092633],[0.2150000000000001,0.27518518518518525,2.694900000095366],[0.19343750000000004,0.3031481481481482,2.7105000000000032],[0.15281250000000005,0.297037037037037,2.7254000000953695],[0.13989583333333327,0.37240740740740746,2.7414000000953678],[0.13989583333333327,0.37240740740740746,2.761799999713901],[0.09635416666666667,0.37703703703703706,2.7746999998092647],[0.09635416666666667,0.37703703703703706,2.7912999997138996],[0.07625000000000005,0.39351851851851855,2.808],[0.059062500000000046,0.425,2.826999999999998],[0.059062500000000046,0.425,2.841299999713897],[0.05520833333333333,0.4300000000000001,2.8581999998092655],[0.0640625,0.38685185185185184,2.8789000000953706],[0.0546875,0.37166666666666676,2.8951999998092646],[0.07291666666666667,0.36018518518518516,2.910799999713902],[0.06739583333333338,0.3675925925925926,2.9299999999999997],[0.08312499999999995,0.3851851851851852,2.947499999999998],[0.08312499999999995,0.3851851851851852,2.9579999999999984],[0.07062499999999995,0.34574074074074085,2.9746999998092676],[0.07062499999999995,0.34574074074074085,2.9965999999046318],[0.08854166666666667,0.3624074074074075,3.00809999990463],[0.08854166666666667,0.3624074074074075,3.0246999998092647],[0.09354166666666662,0.3762962962962964,3.041400000095365],[0.09354166666666662,0.3762962962962964,3.0677999997138983],[0.1078125,0.3329629629629629,3.0790000000000006],[0.1078125,0.3329629629629629,3.091299999713897],[0.11145833333333334,0.32888888888888895,3.108000000000004],[0.11145833333333334,0.32888888888888895,3.128999999999998],[0.10052083333333334,0.2577777777777779,3.1414000000953664],[0.10166666666666657,0.19296296296296306,3.160199999809265],[0.08989583333333329,0.1896296296296296,3.177199999809268],[0.13114583333333343,0.17185185185185176,3.1917999997139006],[0.11354166666666667,0.13944444444444437,3.210799999713899],[0.12760416666666666,0.04407407407407399,3.224900000095367],[0.14947916666666666,-0.02759259259259255,3.2412999997138954],[0.14895833333333333,-0.09259259259259259,3.2642999997138986],[0.14895833333333333,-0.09259259259259259,3.2745999999046305],[0.1556250000000001,-0.10111111111111115,3.291400000095365],[0.1556250000000001,-0.10111111111111115,3.3081999998092684],[0.1525000000000001,-0.1992592592592593,3.329199999809269],[0.1525000000000001,-0.1992592592592593,3.341400000095369],[0.1634375000000001,-0.21777777777777782,3.3581999998092655],[0.15770833333333342,-0.24685185185185188,3.377599999904632],[0.16010416666666671,-0.3044444444444444,3.3915000000000006],[0.16010416666666671,-0.3044444444444444,3.407900000095367],[0.1326041666666666,-0.29796296296296293,3.424500000000002],[0.1646874999999999,-0.27462962962962967,3.4421999998092687],[0.18760416666666657,-0.25148148148148153,3.464500000000001],[0.18760416666666657,-0.25148148148148153,3.4745999999046333],[0.15395833333333328,-0.202962962962963,3.4912999997138954],[0.1493750000000001,-0.2631481481481482,3.5085999999046322],[0.14583333333333334,-0.29870370370370375,3.5294999999999987],[0.1556250000000001,-0.26481481481481484,3.545199999809263],[0.1556250000000001,-0.26481481481481484,3.558099999904634],[0.16270833333333337,-0.20777777777777776,3.5745999999046347],[0.16614583333333333,-0.14592592592592596,3.5977999997138994],[0.16614583333333333,-0.14592592592592596,3.60790000009537],[0.16979166666666667,-0.18037037037037032,3.624699999809266],[0.19135416666666671,-0.2712962962962963,3.6419000000953687],[0.19093749999999995,-0.37462962962962965,3.6577999997139017],[0.1616666666666667,-0.3983333333333334,3.680400000095368],[0.1616666666666667,-0.3983333333333334,3.691299999713898],[0.16656250000000009,-0.4440740740740741,3.7080999999046327],[0.16104166666666658,-0.41092592592592586,3.7245999999046333],[0.17114583333333327,-0.4624074074074074,3.747400000095368],[0.17114583333333327,-0.4624074074074074,3.75809999990463],[0.15114583333333323,-0.4777777777777778,3.7746999998092647],[0.13114583333333343,-0.49314814814814817,3.791400000095365],[0.13114583333333343,-0.49314814814814817,3.8109000000953657],[0.15520833333333334,-0.5237037037037037,3.831400000095371],[0.15520833333333334,-0.5237037037037037,3.8410999999046354],[0.17979166666666657,-0.5209259259259259,3.85790000009537],[0.16739583333333338,-0.490925925925926,3.8744999999999976],[0.15166666666666656,-0.43555555555555553,3.8945000000000007],[0.14010416666666667,-0.4118518518518518,3.9080000000000013],[0.12750000000000009,-0.4140740740740741,3.9244000000953676],[0.13947916666666677,-0.4398148148148148,3.941199999809264],[0.14072916666666657,-0.42666666666666664,3.9579000000953712],[0.17333333333333342,-0.4746296296296296,3.974499999999999],[0.20593750000000005,-0.5225925925925926,3.991199999809268],[0.21218750000000006,-0.5401851851851852,4.007799999713896],[0.20625,-0.5338888888888889,4.024500000000003],[0.20541666666666672,-0.537962962962963,4.041099999904631],[0.20791666666666658,-0.5674074074074074,4.0577999997139],[0.24249999999999997,-0.5592592592592592,4.0745000000000005],[0.27708333333333335,-0.5511111111111111,4.094299999713897],[0.28072916666666664,-0.5070370370370371,4.1082999997139],[0.28624999999999995,-0.4696296296296297,4.1244000000953704],[0.2947916666666667,-0.39351851851851855,4.144699999809269],[0.2947916666666667,-0.39351851851851855,4.158000000000001],[0.2556250000000001,-0.3005555555555556,4.174599999904636],[0.22458333333333325,-0.27259259259259255,4.191900000095366],[0.24770833333333328,-0.21796296296296294,4.210400000095369],[0.2601041666666667,-0.1712962962962963,4.227599999904633],[0.28250000000000003,-0.15629629629629627,4.242900000095368],[0.29489583333333325,-0.15851851851851856,4.262199999809269],[0.2928124999999999,-0.17703703703703708,4.280000000000001],[0.2928124999999999,-0.17703703703703708,4.291400000095365],[0.30010416666666656,-0.1911111111111111,4.308199999809268],[0.30010416666666656,-0.1911111111111111,4.324699999809269],[0.32364583333333335,-0.2155555555555555,4.344999999999999],[0.29354166666666665,-0.21444444444444447,4.362099999904636],[0.3172916666666666,-0.2390740740740741,4.378199999809269],[0.35,-0.20388888888888893,4.395000000000003],[0.3155208333333334,-0.2505555555555556,4.408599999904631],[0.2872916666666666,-0.2853703703703704,4.424599999904636],[0.28968749999999993,-0.26537037037037037,4.441299999713898],[0.30010416666666656,-0.25148148148148153,4.460500000000003],[0.26437499999999997,-0.24259259259259258,4.474499999999999],[0.2271874999999999,-0.21148148148148146,4.491099999904634],[0.20802083333333338,-0.17611111111111116,4.507799999713896],[0.20802083333333338,-0.17611111111111116,4.5264000000953715],[0.17218749999999997,-0.19796296296296292,4.541400000095365],[0.18916666666666657,-0.20240740740740742,4.558199999809268],[0.16395833333333343,-0.27166666666666667,4.574699999809269],[0.15177083333333338,-0.28574074074074074,4.594299999713897],[0.1453125,-0.29129629629629633,4.610500000000002],[0.1453125,-0.29129629629629633,4.624599999904632],[0.09822916666666662,-0.32,4.641400000095366],[0.07385416666666676,-0.3190740740740741,4.658199999809263],[0.14322916666666666,-0.30166666666666664,4.674500000000002],[0.20666666666666675,-0.3055555555555556,4.691099999904637],[0.21802083333333327,-0.32092592592592595,4.707799999713899],[0.2860416666666666,-0.290925925925926,4.724499999999999],[0.2953125,-0.2957407407407407,4.741199999809268],[0.3388541666666666,-0.2564814814814815,4.757900000095368],[0.36041666666666666,-0.2205555555555556,4.774500000000003],[0.39385416666666656,-0.19814814814814816,4.7912999997139],[0.4361458333333334,-0.15703703703703706,4.8077999997139],[0.4421875,-0.1307407407407408,4.8245000000000005],[0.3948958333333332,-0.09444444444444444,4.843299999713899],[0.3263541666666666,-0.08629629629629634,4.858000000000004],[0.2804166666666667,-0.06333333333333331,4.874699999809266],[0.24166666666666667,-0.11518518518518517,4.8936999998092645],[0.23052083333333329,-0.1161111111111111,4.909699999809263],[0.16375000000000003,-0.07462962962962966,4.925199999809266],[0.16375000000000003,-0.07462962962962966,4.944400000095371],[0.1586458333333333,-0.09129629629629632,4.958299999713901],[0.1586458333333333,-0.09129629629629632,4.974799999713902],[0.17572916666666671,-0.0787037037037037,4.997299999713896],[0.17572916666666671,-0.0787037037037037,5.008000000000003],[0.14510416666666662,-0.14629629629629629,5.036500000000004],[0.14510416666666662,-0.14629629629629629,5.047599999904634],[0.09041666666666662,-0.18611111111111112,5.063299999713898],[0.09041666666666662,-0.18611111111111112,5.074400000095366],[0.06697916666666662,-0.27037037037037037,5.091099999904635],[0.05406249999999998,-0.33555555555555555,5.1129999999999995]]","[0.00029999971389571556,0.05769999980926599,0.06319999980926383,0.07809999990463012,0.09419999980926264,0.11069999980926326,0.12769999980926627,0.14350000000000307,0.16199999999999903,0.17459999990463615,0.19129999971389822,0.21099999999999852,0.2271999998092653,0.24129999971389537,0.26229999971389617,0.27769999980926485,0.2945999999046336,0.3080999999046341,0.32940000009536874,0.3421999998092673,0.3582999997138998,0.37479999971390043,0.3965000000000032,0.4081999998092627,0.4247999997138976,0.44550000000000267,0.4580999999046327,0.4746999998092676,0.4979000000953704,0.5159999999999982,0.529599999904633,0.5454000000953698,0.5582999997138955,0.5749000000953686,0.5911999998092625,0.6079000000953698,0.6245999999046319,0.6412999997139011,0.6589000000953718,0.6769999999999996,0.6930999999046321,0.7080999999046327,0.7247999997139019,0.7414000000953678,0.7617999997139009,0.7786999998092625,0.7914000000953649,0.8080999999046341,0.8266999998092643,0.8415000000000035,0.8584999999999994,0.8770000000000024,0.8912999997139011,0.9080000000000013,0.9246999998092633,0.9470999999046299,0.9590999999046304,0.9749000000953671,0.991500000000002,1.0079000000953684,1.0287999997138968,1.0412999997138996,1.0579999999999998,1.0745000000000005,1.0947999997138993,1.1080999999046313,1.1246999998092662,1.141299999713901,1.1604000000953647,1.1750999999046314,1.1914000000953706,1.2100999999046351,1.2246999998092676,1.2412999997138954,1.2607999997138961,1.2755999999046352,1.291400000095365,1.3112999997138957,1.3259000000953662,1.3415000000000035,1.3590000000000018,1.3744999999999976,1.3911999998092668,1.4077999997139017,1.4265000000000043,1.4420999999046344,1.4580999999046327,1.4779000000953673,1.4944000000953679,1.5080999999046298,1.5246999998092647,1.5437999997138974,1.5582999997138955,1.5747999997138962,1.593599999904633,1.6079000000953698,1.6244999999999976,1.6410999999046325,1.657900000095367,1.6745000000000019,1.6910999999046368,1.7079000000953712,1.724499999999999,1.7411999998092682,1.7599000000953708,1.7785999999046354,1.7937999997138974,1.8085999999046365,1.8245000000000005,1.8411999998092625,1.858699999809268,1.8745999999046319,1.8936999998092645,1.9081999998092627,1.9245000000000019,1.9444000000953707,1.9580999999046327,1.9746999998092676,1.9949000000953703,2.0079000000953684,2.0245999999046305,2.0412999997138996,2.0619999999999976,2.0767999997138986,2.091400000095369,2.108000000000004,2.1274000000953706,2.142400000095371,2.1610000000000014,2.1779999999999973,2.191499999999998,2.2079999999999984,2.2245999999046333,2.2435999999046317,2.258900000095366,2.275099999904633,2.291099999904631,2.3151999998092663,2.3245000000000005,2.3415000000000035,2.358400000095365,2.377599999904632,2.393900000095371,2.410199999809265,2.4290999999046363,2.441299999713898,2.4580999999046327,2.4756999998092653,2.498599999904634,2.50809999990463,2.5246999998092647,2.5412999997138996,2.5619999999999976,2.5766999998092643,2.5911999998092625,2.6081999998092655,2.6277999997139005,2.6445000000000007,2.6584000000953694,2.6746999998092633,2.694900000095366,2.7105000000000032,2.7254000000953695,2.7414000000953678,2.761799999713901,2.7746999998092647,2.7912999997138996,2.808,2.826999999999998,2.841299999713897,2.8581999998092655,2.8789000000953706,2.8951999998092646,2.910799999713902,2.9299999999999997,2.947499999999998,2.9579999999999984,2.9746999998092676,2.9965999999046318,3.00809999990463,3.0246999998092647,3.041400000095365,3.0677999997138983,3.0790000000000006,3.091299999713897,3.108000000000004,3.128999999999998,3.1414000000953664,3.160199999809265,3.177199999809268,3.1917999997139006,3.210799999713899,3.224900000095367,3.2412999997138954,3.2642999997138986,3.2745999999046305,3.291400000095365,3.3081999998092684,3.329199999809269,3.341400000095369,3.3581999998092655,3.377599999904632,3.3915000000000006,3.407900000095367,3.424500000000002,3.4421999998092687,3.464500000000001,3.4745999999046333,3.4912999997138954,3.5085999999046322,3.5294999999999987,3.545199999809263,3.558099999904634,3.5745999999046347,3.5977999997138994,3.60790000009537,3.624699999809266,3.6419000000953687,3.6577999997139017,3.680400000095368,3.691299999713898,3.7080999999046327,3.7245999999046333,3.747400000095368,3.75809999990463,3.7746999998092647,3.791400000095365,3.8109000000953657,3.831400000095371,3.8410999999046354,3.85790000009537,3.8744999999999976,3.8945000000000007,3.9080000000000013,3.9244000000953676,3.941199999809264,3.9579000000953712,3.974499999999999,3.991199999809268,4.007799999713896,4.024500000000003,4.041099999904631,4.0577999997139,4.0745000000000005,4.094299999713897,4.1082999997139,4.1244000000953704,4.144699999809269,4.158000000000001,4.174599999904636,4.191900000095366,4.210400000095369,4.227599999904633,4.242900000095368,4.262199999809269,4.280000000000001,4.291400000095365,4.308199999809268,4.324699999809269,4.344999999999999,4.362099999904636,4.378199999809269,4.395000000000003,4.408599999904631,4.424599999904636,4.441299999713898,4.460500000000003,4.474499999999999,4.491099999904634,4.507799999713896,4.5264000000953715,4.541400000095365,4.558199999809268,4.574699999809269,4.594299999713897,4.610500000000002,4.624599999904632,4.641400000095366,4.658199999809263,4.674500000000002,4.691099999904637,4.707799999713899,4.724499999999999,4.741199999809268,4.757900000095368,4.774500000000003,4.7912999997139,4.8077999997139,4.8245000000000005,4.843299999713899,4.858000000000004,4.874699999809266,4.8936999998092645,4.909699999809263,4.925199999809266,4.944400000095371,4.958299999713901,4.974799999713902,4.997299999713896,5.008000000000003,5.036500000000004,5.047599999904634,5.063299999713898,5.074400000095366,5.091099999904635,5.1129999999999995]","[1732078689572,1732078689620,1732078689625,1732078689640,1732078689656,1732078689673,1732078689690,1732078689706,1732078689724,1732078689737,1732078689754,1732078689773,1732078689790,1732078689804,1732078689825,1732078689840,1732078689857,1732078689870,1732078689892,1732078689904,1732078689921,1732078689937,1732078689959,1732078689970,1732078689987,1732078690008,1732078690020,1732078690037,1732078690060,1732078690078,1732078690092,1732078690108,1732078690121,1732078690137,1732078690153,1732078690170,1732078690187,1732078690203,1732078690221,1732078690239,1732078690255,1732078690270,1732078690287,1732078690304,1732078690324,1732078690341,1732078690354,1732078690370,1732078690389,1732078690404,1732078690421,1732078690439,1732078690454,1732078690470,1732078690487,1732078690509,1732078690521,1732078690537,1732078690554,1732078690570,1732078690591,1732078690604,1732078690620,1732078690637,1732078690657,1732078690670,1732078690687,1732078690704,1732078690723,1732078690737,1732078690754,1732078690772,1732078690787,1732078690804,1732078690823,1732078690838,1732078690854,1732078690874,1732078690888,1732078690904,1732078690921,1732078690937,1732078690953,1732078690970,1732078690989,1732078691004,1732078691020,1732078691040,1732078691057,1732078691070,1732078691087,1732078691106,1732078691121,1732078691137,1732078691156,1732078691170,1732078691187,1732078691203,1732078691220,1732078691237,1732078691253,1732078691270,1732078691287,1732078691303,1732078691322,1732078691341,1732078691356,1732078691371,1732078691387,1732078691403,1732078691421,1732078691437,1732078691456,1732078691470,1732078691487,1732078691507,1732078691520,1732078691537,1732078691557,1732078691570,1732078691587,1732078691604,1732078691624,1732078691639,1732078691654,1732078691670,1732078691690,1732078691705,1732078691723,1732078691740,1732078691754,1732078691770,1732078691787,1732078691806,1732078691821,1732078691837,1732078691853,1732078691877,1732078691887,1732078691904,1732078691921,1732078691940,1732078691956,1732078691972,1732078691991,1732078692004,1732078692020,1732078692038,1732078692061,1732078692070,1732078692087,1732078692104,1732078692124,1732078692139,1732078692153,1732078692170,1732078692190,1732078692207,1732078692221,1732078692237,1732078692257,1732078692273,1732078692288,1732078692304,1732078692324,1732078692337,1732078692354,1732078692370,1732078692389,1732078692404,1732078692421,1732078692441,1732078692457,1732078692473,1732078692492,1732078692510,1732078692520,1732078692537,1732078692559,1732078692570,1732078692587,1732078692604,1732078692630,1732078692641,1732078692654,1732078692670,1732078692691,1732078692704,1732078692722,1732078692739,1732078692754,1732078692773,1732078692787,1732078692804,1732078692827,1732078692837,1732078692854,1732078692870,1732078692891,1732078692904,1732078692920,1732078692940,1732078692954,1732078692970,1732078692987,1732078693004,1732078693027,1732078693037,1732078693054,1732078693071,1732078693092,1732078693107,1732078693120,1732078693137,1732078693160,1732078693170,1732078693187,1732078693204,1732078693220,1732078693243,1732078693253,1732078693270,1732078693287,1732078693310,1732078693320,1732078693337,1732078693354,1732078693373,1732078693394,1732078693403,1732078693420,1732078693437,1732078693457,1732078693470,1732078693487,1732078693503,1732078693520,1732078693537,1732078693553,1732078693570,1732078693587,1732078693603,1732078693620,1732078693637,1732078693657,1732078693671,1732078693687,1732078693707,1732078693720,1732078693737,1732078693754,1732078693773,1732078693790,1732078693805,1732078693826,1732078693843,1732078693855,1732078693872,1732078693888,1732078693908,1732078693926,1732078693942,1732078693958,1732078693972,1732078693988,1732078694005,1732078694024,1732078694038,1732078694055,1732078694071,1732078694090,1732078694105,1732078694122,1732078694138,1732078694158,1732078694174,1732078694188,1732078694205,1732078694222,1732078694238,1732078694255,1732078694271,1732078694288,1732078694305,1732078694321,1732078694338,1732078694355,1732078694371,1732078694388,1732078694407,1732078694422,1732078694438,1732078694457,1732078694473,1732078694489,1732078694508,1732078694522,1732078694538,1732078694561,1732078694571,1732078694600,1732078694611,1732078694627,1732078694638,1732078694655,1732078694676]","[[1115.1,629.6],[1115.1,629.6],[1111.6,632],[1123,639.6],[1130.2,651.4],[1150.1,673.2],[1171.8,668.6],[1187.2,659.6],[1187.2,659.6],[1184.6,669.1],[1184.6,669.1],[1181.5,675.5],[1164.5,650.8],[1164.5,650.8],[1156,630.9],[1130.8,625.5],[1098,625.8],[1098,625.8],[1089.6,605.8],[1089.6,605.8],[1076.4,594.7],[1076.4,594.7],[1089.6,624],[1089.6,624],[1076,619.9],[1085,618],[1085,618],[1092.4,606.5],[1095.7,595.2],[1095.7,595.2],[1087,574.6],[1107.7,568.3],[1107.7,568.3],[1150.9,556.6],[1179.5,557.5],[1189.5,541.3],[1168.4,484.9],[1186.4,489.5],[1184.1,453.8],[1200.9,447.9],[1221.7,463.5],[1241.1,475.5],[1260,469.7],[1270.6,462.6],[1268.2,448.4],[1265.8,439.6],[1265.8,439.6],[1278,441.9],[1278,441.9],[1277.3,423.7],[1277.3,423.7],[1296.5,431.6],[1300.1,419.6],[1287.4,398.5],[1287.4,398.5],[1276.9,383.2],[1276.9,383.2],[1292.6,375.3],[1292.6,375.3],[1294,355.7],[1293.6,373.9],[1293.6,373.9],[1294.2,364.2],[1294.2,364.2],[1314.5,388],[1314.5,388],[1338.8,392],[1344.2,396.5],[1347.7,400.7],[1357.8,400.8],[1357.8,400.8],[1372.8,395.3],[1356,408.6],[1351.4,433.7],[1347.9,421],[1365.6,419.1],[1365.6,419.1],[1365.7,408.2],[1365.7,408.2],[1349.9,406.6],[1341.3,397.2],[1329.2,367.3],[1321.7,361.8],[1323.2,373.9],[1330.3,359.8],[1313.2,334.5],[1300,324],[1294.6,345.6],[1282.9,333],[1294.9,326.2],[1303.3,317.9],[1280.7,344],[1280.7,344],[1269,347.9],[1225.4,333.4],[1202.1,327],[1192.9,331.8],[1199.5,336.8],[1175.9,313],[1151.5,304.2],[1135.6,312.3],[1112.8,317.5],[1124.5,308.8],[1135.8,338.1],[1094.5,336],[1032.9,325.8],[969.5,313.1],[904.1,311.3],[853.9,319.6],[813,328],[758.7,321.5],[696.8,319.6],[634.9,301.6],[570.4,254.1],[576.4,249.3],[593.5,262.5],[593.5,262.5],[622.4,266.4],[637.8,242.6],[637.8,242.6],[653,235.9],[655.5,224.2],[653.5,223.4],[693.1,229.9],[732.7,252.5],[784.6,286.9],[823.1,324.4],[873,333.8],[918.1,343.9],[918.1,343.9],[936.2,390.3],[936.2,390.3],[965.1,429.4],[1005,446.9],[1059.6,481.1],[1116.2,512.6],[1160.2,544.2],[1157.6,551.8],[1157.6,551.8],[1170.4,561.3],[1170.4,561.3],[1157.5,584.6],[1153.8,621.7],[1193,617.6],[1197,596.9],[1197,596.9],[1223.3,623],[1218.9,609.5],[1185.4,589.7],[1185.4,589.7],[1182.8,588.2],[1182.8,588.2],[1195.2,588.8],[1223.6,589.1],[1255.2,585.7],[1244.5,584.4],[1224.6,606.3],[1220.2,641.7],[1220.2,641.7],[1188.5,658.5],[1166.4,688.6],[1145.7,703.7],[1106.7,700.4],[1094.3,741.1],[1094.3,741.1],[1052.5,743.6],[1052.5,743.6],[1033.2,752.5],[1016.7,769.5],[1016.7,769.5],[1013,772.2],[1021.5,748.9],[1012.5,740.7],[1030,734.5],[1024.7,738.5],[1039.8,748],[1039.8,748],[1027.8,726.7],[1027.8,726.7],[1045,735.7],[1045,735.7],[1049.8,743.2],[1049.8,743.2],[1063.5,719.8],[1063.5,719.8],[1067,717.6],[1067,717.6],[1056.5,679.2],[1057.6,644.2],[1046.3,642.4],[1085.9,632.8],[1069,615.3],[1082.5,563.8],[1103.5,525.1],[1103,490],[1103,490],[1109.4,485.4],[1109.4,485.4],[1106.4,432.4],[1106.4,432.4],[1116.9,422.4],[1111.4,406.7],[1113.7,375.6],[1113.7,375.6],[1087.3,379.1],[1118.1,391.7],[1140.1,404.2],[1140.1,404.2],[1107.8,430.4],[1103.4,397.9],[1100,378.7],[1109.4,397],[1109.4,397],[1116.2,427.8],[1119.5,461.2],[1119.5,461.2],[1123,442.6],[1143.7,393.5],[1143.3,337.7],[1115.2,324.9],[1115.2,324.9],[1119.9,300.2],[1114.6,318.1],[1124.3,290.3],[1124.3,290.3],[1105.1,282],[1085.9,273.7],[1085.9,273.7],[1109,257.2],[1109,257.2],[1132.6,258.7],[1120.7,274.9],[1105.6,304.8],[1094.5,317.6],[1082.4,316.4],[1093.9,302.5],[1095.1,309.6],[1126.4,283.7],[1157.7,257.8],[1163.7,248.3],[1158,251.7],[1157.2,249.5],[1159.6,233.6],[1192.8,238],[1226,242.4],[1229.5,266.2],[1234.8,286.4],[1243,327.5],[1243,327.5],[1205.4,377.7],[1175.6,392.8],[1197.8,422.3],[1209.7,447.5],[1231.2,455.6],[1243.1,454.4],[1241.1,444.4],[1241.1,444.4],[1248.1,436.8],[1248.1,436.8],[1270.7,423.6],[1241.8,424.2],[1264.6,410.9],[1296,429.9],[1262.9,404.7],[1235.8,385.9],[1238.1,396.7],[1248.1,404.2],[1213.8,409],[1178.1,425.8],[1159.7,444.9],[1159.7,444.9],[1125.3,433.1],[1141.6,430.7],[1117.4,393.3],[1105.7,385.7],[1099.5,382.7],[1099.5,382.7],[1054.3,367.2],[1030.9,367.7],[1097.5,377.1],[1158.4,375],[1169.3,366.7],[1234.6,382.9],[1243.5,380.3],[1285.3,401.5],[1306,420.9],[1338.1,433],[1378.7,455.2],[1384.5,469.4],[1339.1,489],[1273.3,493.4],[1229.2,505.8],[1192,477.8],[1181.3,477.3],[1117.2,499.7],[1117.2,499.7],[1112.3,490.7],[1112.3,490.7],[1128.7,497.5],[1128.7,497.5],[1099.3,461],[1099.3,461],[1046.8,439.5],[1046.8,439.5],[1024.3,394],[1011.9,358.8]]","[-0.132282,0.39684600000000003]","[0.132282,0.39684600000000003]","[0.39684600000000003,0.39684600000000003]","[-0.39684600000000003,-0.39684600000000003]","[-0.39684600000000003,-0.132282]","[-0.39684600000000003,0.132282]","[-0.132282,-0.39684600000000003]","[0.132282,-0.39684600000000003]","[0.39684600000000003,-0.39684600000000003]","[-0.132282,-0.132282]","[0.132282,-0.132282]","[0.39684600000000003,-0.132282]","[-0.132282,0.132282]","[0.132282,0.132282]","[0.39684600000000003,0.132282]",0,0,0,0,1,1,Tablet,20,20,7,2,70,4,2,70,4
