inst1_resp.keys,inst1_resp.rt,calibrationMouse.x,calibrationMouse.y,calibrationMouse.leftButton,calibrationMouse.midButton,calibrationMouse.rightButton,calibrationClick.x,calibrationClick.y,calibrationClick.leftButton,calibrationClick.midButton,calibrationClick.rightButton,calibrationClick.clicked_name,trialsc.thisRepN,trialsc.thisTrialN,trialsc.thisN,trialsc.thisIndex,trialsc.ran,calibration_x,calibration_y,participant,session,date,expName,psychopyVersion,OS,frameRate,ScreenRes_pixels,Camera_pixels,mouse_2.x,mouse_2.y,mouse_2.leftButton,mouse_2.midButton,mouse_2.rightButton,mouse_2.time,mouse_2.clicked_name,mouse.x,mouse.y,mouse.leftButton,mouse.midButton,mouse.rightButton,mouse.time,mouse.clicked_name,Choice,Trial,TrialDuration,MOUSE_GAZE,ET_GAZE,ET_GAZE_x_T,time,unixTime,ET_GAZE_NF,Loc_Bus_label,Loc_Metro_label,Loc_RH_label,Loc_Cost_label,Loc_Travel_label,Loc_Comfort_label,Loc_Bus_cost,Loc_Metro_cost,Loc_RH_cost,Loc_Bus_travel,Loc_Metro_travel,Loc_RH_travel,Loc_Bus_comfort,Loc_Metro_comfort,Loc_RH_comfort,trials.thisRepN,trials.thisTrialN,trials.thisN,trials.thisIndex,trials.ran,Block,Device,RH_cost,RH_travel_time,RH_Comfort,metro_cost,metro_travel_time,metro_Comfort,Bus_cost,Bus_travel_time,Bus_Comfort
space,11.2971,-0.279166667,0.296296296,1,0,0,0.325,-0.661111111,1,0,0,calibration_square,0,0,0,14,1,0.33,-0.67,44,001,2024-11-19_13h09.18.542,Attention_exp_legacy,2023.1.0,Win32,59.88023952,,,,,,,,,,,,,,,,,,,,,,,,,,,,,,,,,,,,,,,,,,,,,,,,,,,,,,,,
,,,,,,,-0.31875,-0.664814815,1,0,0,,0,1,1,4,1,-0.33,-0.67,44,001,2024-11-19_13h09.18.542,Attention_exp_legacy,2023.1.0,Win32,59.88023952,,,,,,,,,,,,,,,,,,,,,,,,,,,,,,,,,,,,,,,,,,,,,,,,,,,,,,,,
,,,,,,,0.678125,0.677777778,1,0,0,calibration_square,0,2,2,19,1,0.67,0.67,44,001,2024-11-19_13h09.18.542,Attention_exp_legacy,2023.1.0,Win32,59.88023952,,,,,,,,,,,,,,,,,,,,,,,,,,,,,,,,,,,,,,,,,,,,,,,,,,,,,,,,
,,,,,,,-0.672916667,0.335185185,1,0,0,calibration_square,0,3,3,3,1,-0.67,0.33,44,001,2024-11-19_13h09.18.542,Attention_exp_legacy,2023.1.0,Win32,59.88023952,,,,,,,,,,,,,,,,,,,,,,,,,,,,,,,,,,,,,,,,,,,,,,,,,,,,,,,,
,,,,,,,0.328125,0.32962963,1,0,0,calibration_square,0,4,4,17,1,0.33,0.33,44,001,2024-11-19_13h09.18.542,Attention_exp_legacy,2023.1.0,Win32,59.88023952,,,,,,,,,,,,,,,,,,,,,,,,,,,,,,,,,,,,,,,,,,,,,,,,,,,,,,,,
,,,,,,,0.672916667,-0.675925926,1,0,0,calibration_square,0,5,5,20,1,0.67,-0.67,44,001,2024-11-19_13h09.18.542,Attention_exp_legacy,2023.1.0,Win32,59.88023952,,,,,,,,,,,,,,,,,,,,,,,,,,,,,,,,,,,,,,,,,,,,,,,,,,,,,,,,
,,,,,,,-0.667708333,-0.661111111,1,0,0,calibration_square,0,6,6,0,1,-0.67,-0.67,44,001,2024-11-19_13h09.18.542,Attention_exp_legacy,2023.1.0,Win32,59.88023952,,,,,,,,,,,,,,,,,,,,,,,,,,,,,,,,,,,,,,,,,,,,,,,,,,,,,,,,
,,,,,,,0.004166667,0.338888889,1,0,0,calibration_square,0,7,7,12,1,0,0.33,44,001,2024-11-19_13h09.18.542,Attention_exp_legacy,2023.1.0,Win32,59.88023952,,,,,,,,,,,,,,,,,,,,,,,,,,,,,,,,,,,,,,,,,,,,,,,,,,,,,,,,
,,,,,,,0.33125,0.688888889,1,0,0,,0,8,8,18,1,0.33,0.67,44,001,2024-11-19_13h09.18.542,Attention_exp_legacy,2023.1.0,Win32,59.88023952,,,,,,,,,,,,,,,,,,,,,,,,,,,,,,,,,,,,,,,,,,,,,,,,,,,,,,,,
,,,,,,,-0.005208333,-0.677777778,1,0,0,calibration_square,0,9,9,9,1,0,-0.67,44,001,2024-11-19_13h09.18.542,Attention_exp_legacy,2023.1.0,Win32,59.88023952,,,,,,,,,,,,,,,,,,,,,,,,,,,,,,,,,,,,,,,,,,,,,,,,,,,,,,,,
,,,,,,,0.010416667,0.681481481,1,0,0,,0,10,10,13,1,0,0.67,44,001,2024-11-19_13h09.18.542,Attention_exp_legacy,2023.1.0,Win32,59.88023952,,,,,,,,,,,,,,,,,,,,,,,,,,,,,,,,,,,,,,,,,,,,,,,,,,,,,,,,
,,,,,,,0.325,0,1,0,0,calibration_square,0,11,11,16,1,0.33,0,44,001,2024-11-19_13h09.18.542,Attention_exp_legacy,2023.1.0,Win32,59.88023952,,,,,,,,,,,,,,,,,,,,,,,,,,,,,,,,,,,,,,,,,,,,,,,,,,,,,,,,
,,,,,,,-0.325,0.331481481,1,0,0,calibration_square,0,12,12,7,1,-0.33,0.33,44,001,2024-11-19_13h09.18.542,Attention_exp_legacy,2023.1.0,Win32,59.88023952,,,,,,,,,,,,,,,,,,,,,,,,,,,,,,,,,,,,,,,,,,,,,,,,,,,,,,,,
,,,,,,,-0.325,0.681481481,1,0,0,,0,13,13,8,1,-0.33,0.67,44,001,2024-11-19_13h09.18.542,Attention_exp_legacy,2023.1.0,Win32,59.88023952,,,,,,,,,,,,,,,,,,,,,,,,,,,,,,,,,,,,,,,,,,,,,,,,,,,,,,,,
,,,,,,,-0.334375,-0.325925926,1,0,0,calibration_square,0,14,14,5,1,-0.33,-0.33,44,001,2024-11-19_13h09.18.542,Attention_exp_legacy,2023.1.0,Win32,59.88023952,,,,,,,,,,,,,,,,,,,,,,,,,,,,,,,,,,,,,,,,,,,,,,,,,,,,,,,,
,,,,,,,-0.676041667,-0.325925926,1,0,0,calibration_square,0,15,15,1,1,-0.67,-0.33,44,001,2024-11-19_13h09.18.542,Attention_exp_legacy,2023.1.0,Win32,59.88023952,,,,,,,,,,,,,,,,,,,,,,,,,,,,,,,,,,,,,,,,,,,,,,,,,,,,,,,,
,,,,,,,-0.321875,0.001851852,1,0,0,calibration_square,0,16,16,6,1,-0.33,0,44,001,2024-11-19_13h09.18.542,Attention_exp_legacy,2023.1.0,Win32,59.88023952,,,,,,,,,,,,,,,,,,,,,,,,,,,,,,,,,,,,,,,,,,,,,,,,,,,,,,,,
,,,,,,,-0.003125,-0.325925926,1,0,0,calibration_square,0,17,17,10,1,0,-0.33,44,001,2024-11-19_13h09.18.542,Attention_exp_legacy,2023.1.0,Win32,59.88023952,,,,,,,,,,,,,,,,,,,,,,,,,,,,,,,,,,,,,,,,,,,,,,,,,,,,,,,,
,,,,,,,0.330208333,-0.327777778,1,0,0,calibration_square,0,18,18,15,1,0.33,-0.33,44,001,2024-11-19_13h09.18.542,Attention_exp_legacy,2023.1.0,Win32,59.88023952,,,,,,,,,,,,,,,,,,,,,,,,,,,,,,,,,,,,,,,,,,,,,,,,,,,,,,,,
,,,,,,,-0.671875,0.005555556,1,0,0,calibration_square,0,19,19,2,1,-0.67,0,44,001,2024-11-19_13h09.18.542,Attention_exp_legacy,2023.1.0,Win32,59.88023952,,,,,,,,,,,,,,,,,,,,,,,,,,,,,,,,,,,,,,,,,,,,,,,,,,,,,,,,
,,,,,,,0,-0.001851852,1,0,0,calibration_square,0,20,20,11,1,0,0,44,001,2024-11-19_13h09.18.542,Attention_exp_legacy,2023.1.0,Win32,59.88023952,,,,,,,,,,,,,,,,,,,,,,,,,,,,,,,,,,,,,,,,,,,,,,,,,,,,,,,,
,,,,,,,,,,,,,,,,,,,,44,001,2024-11-19_13h09.18.542,Attention_exp_legacy,2023.1.0,Win32,59.88023952,"[1920,1080]","[640,480]",[0.014583333333333334],[-0.49444444444444446],[1],[0],[0],[9.262199999809255],"[""StartButton""]",[-0.18020833333333333],[0.5833333333333334],[1],[0],[0],[6.8842000002861],"[""Bus_label""]",Bus_label,1,7.9101,"[[0.014583333333333334,-0.49444444444444446],[0.014583333333333334,-0.49444444444444446],[0.014583333333333334,-0.49444444444444446],[0.014583333333333334,-0.49444444444444446],[0.014583333333333334,-0.49444444444444446],[0.014583333333333334,-0.49444444444444446],[0.014583333333333334,-0.49444444444444446],[0.014583333333333334,-0.49444444444444446],[0.014583333333333334,-0.49444444444444446],[0.014583333333333334,-0.49444444444444446],[0.014583333333333334,-0.49444444444444446],[0.014583333333333334,-0.49444444444444446],[0.014583333333333334,-0.49444444444444446],[0.014583333333333334,-0.49444444444444446],[0.014583333333333334,-0.49444444444444446],[0.014583333333333334,-0.49444444444444446],[0.014583333333333334,-0.49444444444444446],[0.014583333333333334,-0.49444444444444446],[0.014583333333333334,-0.49444444444444446],[0.014583333333333334,-0.49444444444444446],[0.014583333333333334,-0.49444444444444446],[0.014583333333333334,-0.49444444444444446],[0.014583333333333334,-0.49444444444444446],[0.014583333333333334,-0.49444444444444446],[0.014583333333333334,-0.49444444444444446],[0.014583333333333334,-0.49444444444444446],[0.014583333333333334,-0.49444444444444446],[0.014583333333333334,-0.49444444444444446],[0.014583333333333334,-0.49444444444444446],[0.014583333333333334,-0.49444444444444446],[0.014583333333333334,-0.49444444444444446],[0.014583333333333334,-0.49444444444444446],[0.014583333333333334,-0.49444444444444446],[0.014583333333333334,-0.49444444444444446],[0.014583333333333334,-0.49444444444444446],[0.014583333333333334,-0.49444444444444446],[0.014583333333333334,-0.49444444444444446],[0.014583333333333334,-0.49444444444444446],[0.014583333333333334,-0.49444444444444446],[0.014583333333333334,-0.49444444444444446],[0.014583333333333334,-0.49444444444444446],[0.014583333333333334,-0.49444444444444446],[0.014583333333333334,-0.49444444444444446],[0.014583333333333334,-0.49444444444444446],[0.014583333333333334,-0.49444444444444446],[0.014583333333333334,-0.49444444444444446],[0.014583333333333334,-0.49444444444444446],[0.014583333333333334,-0.49444444444444446],[0.014583333333333334,-0.49444444444444446],[0.014583333333333334,-0.49444444444444446],[0.014583333333333334,-0.49444444444444446],[0.014583333333333334,-0.49444444444444446],[0.014583333333333334,-0.49444444444444446],[0.014583333333333334,-0.49444444444444446],[0.014583333333333334,-0.49444444444444446],[0.014583333333333334,-0.49444444444444446],[0.014583333333333334,-0.49444444444444446],[0.014583333333333334,-0.49444444444444446],[0.014583333333333334,-0.49444444444444446],[0.014583333333333334,-0.49444444444444446],[0.014583333333333334,-0.49444444444444446],[0.014583333333333334,-0.49444444444444446],[0.014583333333333334,-0.49444444444444446],[0.014583333333333334,-0.49444444444444446],[0.014583333333333334,-0.49444444444444446],[0.014583333333333334,-0.49444444444444446],[0.014583333333333334,-0.49444444444444446],[0.014583333333333334,-0.49444444444444446],[0.014583333333333334,-0.49444444444444446],[0.014583333333333334,-0.49444444444444446],[0.014583333333333334,-0.49444444444444446],[0.014583333333333334,-0.49444444444444446],[0.014583333333333334,-0.49444444444444446],[0.014583333333333334,-0.49444444444444446],[0.014583333333333334,-0.49444444444444446],[0.014583333333333334,-0.49444444444444446],[0.014583333333333334,-0.49444444444444446],[0.014583333333333334,-0.49444444444444446],[0.014583333333333334,-0.49444444444444446],[0.014583333333333334,-0.49444444444444446],[0.014583333333333334,-0.49444444444444446],[0.014583333333333334,-0.49444444444444446],[0.014583333333333334,-0.49444444444444446],[0.014583333333333334,-0.49444444444444446],[0.014583333333333334,-0.49444444444444446],[0.014583333333333334,-0.49444444444444446],[0.014583333333333334,-0.49444444444444446],[0.014583333333333334,-0.49444444444444446],[0.014583333333333334,-0.49444444444444446],[0.014583333333333334,-0.49444444444444446],[0.014583333333333334,-0.49444444444444446],[0.014583333333333334,-0.49444444444444446],[0.014583333333333334,-0.49444444444444446],[0.014583333333333334,-0.49444444444444446],[0.014583333333333334,-0.49444444444444446],[0.014583333333333334,-0.49444444444444446],[0.014583333333333334,-0.49444444444444446],[0.014583333333333334,-0.49444444444444446],[0.014583333333333334,-0.49444444444444446],[0.014583333333333334,-0.49444444444444446],[0.014583333333333334,-0.49444444444444446],[0.014583333333333334,-0.49444444444444446],[0.014583333333333334,-0.49444444444444446],[0.014583333333333334,-0.49444444444444446],[0.014583333333333334,-0.49444444444444446],[0.014583333333333334,-0.49444444444444446],[0.014583333333333334,-0.49444444444444446],[0.014583333333333334,-0.49444444444444446],[0.014583333333333334,-0.49444444444444446],[0.014583333333333334,-0.49444444444444446],[0.014583333333333334,-0.49444444444444446],[0.014583333333333334,-0.49444444444444446],[0.014583333333333334,-0.49444444444444446],[0.014583333333333334,-0.49444444444444446],[0.014583333333333334,-0.49444444444444446],[0.014583333333333334,-0.49444444444444446],[0.014583333333333334,-0.49444444444444446],[0.014583333333333334,-0.49444444444444446],[0.014583333333333334,-0.49444444444444446],[0.014583333333333334,-0.49444444444444446],[0.014583333333333334,-0.49444444444444446],[0.014583333333333334,-0.49444444444444446],[0.014583333333333334,-0.49444444444444446],[0.014583333333333334,-0.49444444444444446],[0.014583333333333334,-0.49444444444444446],[0.014583333333333334,-0.49444444444444446],[0.014583333333333334,-0.49444444444444446],[0.014583333333333334,-0.49444444444444446],[0.014583333333333334,-0.49444444444444446],[0.014583333333333334,-0.49444444444444446],[0.014583333333333334,-0.49444444444444446],[0.014583333333333334,-0.49444444444444446],[0.014583333333333334,-0.49444444444444446],[0.014583333333333334,-0.49444444444444446],[0.014583333333333334,-0.49444444444444446],[0.014583333333333334,-0.49444444444444446],[0.014583333333333334,-0.49444444444444446],[0.014583333333333334,-0.49444444444444446],[0.014583333333333334,-0.49444444444444446],[0.014583333333333334,-0.49444444444444446],[0.014583333333333334,-0.49444444444444446],[0.014583333333333334,-0.49444444444444446],[0.014583333333333334,-0.49444444444444446],[0.014583333333333334,-0.49444444444444446],[0.014583333333333334,-0.49444444444444446],[0.014583333333333334,-0.49444444444444446],[0.014583333333333334,-0.4962962962962963],[0.013541666666666667,-0.4962962962962963],[0.013541666666666667,-0.49444444444444446],[0.013541666666666667,-0.49444444444444446],[0.0125,-0.4925925925925926],[0.0125,-0.4925925925925926],[0.0125,-0.4925925925925926],[0.0125,-0.4925925925925926],[0.011458333333333333,-0.49074074074074076],[0.011458333333333333,-0.49074074074074076],[0.011458333333333333,-0.4888888888888889],[0.011458333333333333,-0.4888888888888889],[0.011458333333333333,-0.4888888888888889],[0.010416666666666666,-0.48703703703703705],[0.010416666666666666,-0.48518518518518516],[0.010416666666666666,-0.48518518518518516],[0.010416666666666666,-0.48333333333333334],[0.010416666666666666,-0.48148148148148145],[0.010416666666666666,-0.47962962962962963],[0.010416666666666666,-0.47962962962962963],[0.010416666666666666,-0.47962962962962963],[0.010416666666666666,-0.4777777777777778],[0.010416666666666666,-0.4777777777777778],[0.010416666666666666,-0.4777777777777778],[0.010416666666666666,-0.4740740740740741],[0.009375,-0.4722222222222222],[0.008333333333333333,-0.4685185185185185],[0.008333333333333333,-0.4685185185185185],[0.008333333333333333,-0.4648148148148148],[0.008333333333333333,-0.4648148148148148],[0.007291666666666667,-0.45925925925925926],[0.007291666666666667,-0.45925925925925926],[0.007291666666666667,-0.45555555555555555],[0.00625,-0.45185185185185184],[0.005208333333333333,-0.44814814814814813],[0.005208333333333333,-0.44814814814814813],[0.005208333333333333,-0.4462962962962963],[0.005208333333333333,-0.4462962962962963],[0.005208333333333333,-0.4444444444444444],[0.005208333333333333,-0.4425925925925926],[0.005208333333333333,-0.44074074074074077],[0.005208333333333333,-0.44074074074074077],[0.005208333333333333,-0.4388888888888889],[0.005208333333333333,-0.43703703703703706],[0.005208333333333333,-0.4351851851851852],[0.005208333333333333,-0.43148148148148147],[0.005208333333333333,-0.42777777777777776],[0.005208333333333333,-0.42592592592592593],[0.005208333333333333,-0.4203703703703704],[0.005208333333333333,-0.4166666666666667],[0.005208333333333333,-0.412962962962963],[0.005208333333333333,-0.40925925925925927],[0.005208333333333333,-0.4074074074074074],[0.005208333333333333,-0.4074074074074074],[0.005208333333333333,-0.40555555555555556],[0.005208333333333333,-0.40370370370370373],[0.005208333333333333,-0.40185185185185185],[0.005208333333333333,-0.4],[0.005208333333333333,-0.39814814814814814],[0.005208333333333333,-0.39814814814814814],[0.004166666666666667,-0.3962962962962963],[0.004166666666666667,-0.3925925925925926],[0.004166666666666667,-0.3907407407407407],[0.004166666666666667,-0.387037037037037],[0.004166666666666667,-0.38333333333333336],[0.004166666666666667,-0.37962962962962965],[0.004166666666666667,-0.37777777777777777],[0.004166666666666667,-0.37407407407407406],[0.004166666666666667,-0.3685185185185185],[0.003125,-0.3685185185185185],[0.003125,-0.36666666666666664],[0.003125,-0.3648148148148148],[0.003125,-0.3648148148148148],[0.003125,-0.3648148148148148],[0.003125,-0.3648148148148148],[0.003125,-0.3648148148148148],[0.003125,-0.3648148148148148],[0.003125,-0.3648148148148148],[0.003125,-0.3648148148148148],[0.003125,-0.3648148148148148],[0.003125,-0.3648148148148148],[0.003125,-0.3648148148148148],[0.003125,-0.3648148148148148],[0.003125,-0.3648148148148148],[0.003125,-0.3648148148148148],[0.003125,-0.3648148148148148],[0.003125,-0.3648148148148148],[0.003125,-0.3648148148148148],[0.003125,-0.362962962962963],[0.003125,-0.3574074074074074],[0.003125,-0.35185185185185186],[0.005208333333333333,-0.35],[0.009375,-0.3351851851851852],[0.0125,-0.32592592592592595],[0.015625,-0.31296296296296294],[0.017708333333333333,-0.3037037037037037],[0.020833333333333332,-0.29259259259259257],[0.020833333333333332,-0.28888888888888886],[0.025,-0.2722222222222222],[0.026041666666666668,-0.26851851851851855],[0.026041666666666668,-0.26296296296296295],[0.029166666666666667,-0.2537037037037037],[0.030208333333333334,-0.24074074074074073],[0.03229166666666667,-0.23148148148148148],[0.03229166666666667,-0.22407407407407406],[0.035416666666666666,-0.20555555555555555],[0.0375,-0.1814814814814815],[0.042708333333333334,-0.15185185185185185],[0.04479166666666667,-0.1],[0.04479166666666667,-0.04814814814814815],[0.04479166666666667,0.011111111111111112],[0.040625,0.05555555555555555],[0.03854166666666667,0.08518518518518518],[0.03333333333333333,0.11666666666666667],[0.030208333333333334,0.13333333333333333],[0.027083333333333334,0.15],[0.025,0.15555555555555556],[0.025,0.1574074074074074],[0.025,0.15925925925925927],[0.025,0.15925925925925927],[0.022916666666666665,0.16111111111111112],[0.022916666666666665,0.1648148148148148],[0.020833333333333332,0.1685185185185185],[0.01875,0.17407407407407408],[0.01875,0.17592592592592593],[0.015625,0.1814814814814815],[0.014583333333333334,0.18518518518518517],[0.011458333333333333,0.19074074074074074],[0.007291666666666667,0.20185185185185187],[0.0010416666666666667,0.21481481481481482],[-0.007291666666666667,0.22777777777777777],[-0.014583333333333334,0.24074074074074073],[-0.020833333333333332,0.25],[-0.027083333333333334,0.2611111111111111],[-0.030208333333333334,0.26851851851851855],[-0.035416666666666666,0.2814814814814815],[-0.042708333333333334,0.29814814814814816],[-0.052083333333333336,0.3111111111111111],[-0.0625,0.32407407407407407],[-0.065625,0.3296296296296296],[-0.06770833333333333,0.3333333333333333],[-0.06979166666666667,0.337037037037037],[-0.07083333333333333,0.337037037037037],[-0.071875,0.3388888888888889],[-0.07604166666666666,0.3425925925925926],[-0.08333333333333333,0.34814814814814815],[-0.08854166666666667,0.35],[-0.08958333333333333,0.35],[-0.08958333333333333,0.35],[-0.08958333333333333,0.35],[-0.08958333333333333,0.35],[-0.08958333333333333,0.35],[-0.08958333333333333,0.35],[-0.08958333333333333,0.35],[-0.090625,0.35185185185185186],[-0.09166666666666666,0.34629629629629627],[-0.09479166666666666,0.3296296296296296],[-0.09583333333333334,0.31851851851851853],[-0.09583333333333334,0.3074074074074074],[-0.09583333333333334,0.29444444444444445],[-0.09583333333333334,0.2833333333333333],[-0.09583333333333334,0.2740740740740741],[-0.09583333333333334,0.26481481481481484],[-0.09583333333333334,0.2611111111111111],[-0.09583333333333334,0.2611111111111111],[-0.09583333333333334,0.2611111111111111],[-0.09583333333333334,0.2611111111111111],[-0.09583333333333334,0.2611111111111111],[-0.09583333333333334,0.2611111111111111],[-0.096875,0.25925925925925924],[-0.096875,0.25925925925925924],[-0.096875,0.25925925925925924],[-0.096875,0.25925925925925924],[-0.096875,0.25925925925925924],[-0.096875,0.25925925925925924],[-0.096875,0.25925925925925924],[-0.096875,0.25925925925925924],[-0.096875,0.25925925925925924],[-0.096875,0.25925925925925924],[-0.096875,0.25925925925925924],[-0.096875,0.25925925925925924],[-0.096875,0.25925925925925924],[-0.096875,0.25925925925925924],[-0.096875,0.25925925925925924],[-0.096875,0.25925925925925924],[-0.096875,0.25925925925925924],[-0.096875,0.25925925925925924],[-0.096875,0.25925925925925924],[-0.096875,0.25925925925925924],[-0.096875,0.25925925925925924],[-0.096875,0.25925925925925924],[-0.096875,0.25925925925925924],[-0.096875,0.25925925925925924],[-0.096875,0.25925925925925924],[-0.096875,0.25925925925925924],[-0.096875,0.25925925925925924],[-0.096875,0.25925925925925924],[-0.096875,0.25925925925925924],[-0.096875,0.25925925925925924],[-0.096875,0.25925925925925924],[-0.096875,0.25925925925925924],[-0.096875,0.25925925925925924],[-0.096875,0.25925925925925924],[-0.096875,0.25925925925925924],[-0.096875,0.25925925925925924],[-0.096875,0.25925925925925924],[-0.096875,0.25925925925925924],[-0.096875,0.25925925925925924],[-0.096875,0.25925925925925924],[-0.096875,0.25925925925925924],[-0.096875,0.25925925925925924],[-0.096875,0.25925925925925924],[-0.096875,0.25925925925925924],[-0.096875,0.25925925925925924],[-0.096875,0.25925925925925924],[-0.096875,0.25925925925925924],[-0.096875,0.25925925925925924],[-0.096875,0.25925925925925924],[-0.096875,0.25925925925925924],[-0.096875,0.25925925925925924],[-0.096875,0.25925925925925924],[-0.096875,0.25925925925925924],[-0.09791666666666667,0.26296296296296295],[-0.09895833333333333,0.26666666666666666],[-0.10104166666666667,0.2740740740740741],[-0.10104166666666667,0.2759259259259259],[-0.10104166666666667,0.2796296296296296],[-0.10208333333333333,0.2814814814814815],[-0.10416666666666667,0.28703703703703703],[-0.10520833333333333,0.29074074074074074],[-0.10833333333333334,0.3],[-0.11354166666666667,0.3148148148148148],[-0.11666666666666667,0.32592592592592595],[-0.121875,0.34074074074074073],[-0.128125,0.3611111111111111],[-0.134375,0.38333333333333336],[-0.14375,0.4148148148148148],[-0.14895833333333333,0.44074074074074077],[-0.15520833333333334,0.4703703703703704],[-0.16041666666666668,0.4962962962962963],[-0.165625,0.5203703703703704],[-0.16979166666666667,0.5351851851851852],[-0.17291666666666666,0.5481481481481482],[-0.17395833333333333,0.5592592592592592],[-0.17604166666666668,0.5685185185185185],[-0.17708333333333334,0.5740740740740741],[-0.178125,0.5796296296296296],[-0.18020833333333333,0.5833333333333334],[-0.18020833333333333,0.5833333333333334],[-0.18020833333333333,0.5833333333333334],[-0.18020833333333333,0.5833333333333334],[-0.18020833333333333,0.5833333333333334],[-0.18020833333333333,0.5833333333333334],[-0.18020833333333333,0.5833333333333334],[-0.18020833333333333,0.5833333333333334],[-0.18020833333333333,0.5833333333333334],[-0.18020833333333333,0.5833333333333334],[-0.18020833333333333,0.5833333333333334],[-0.18020833333333333,0.5833333333333334],[-0.18020833333333333,0.5833333333333334],[-0.18020833333333333,0.5833333333333334],[-0.18020833333333333,0.5833333333333334],[-0.18020833333333333,0.5833333333333334],[-0.18020833333333333,0.5833333333333334],[-0.18020833333333333,0.5833333333333334],[-0.18020833333333333,0.5833333333333334],[-0.18020833333333333,0.5833333333333334],[-0.18020833333333333,0.5833333333333334],[-0.18020833333333333,0.5833333333333334],[-0.18020833333333333,0.5833333333333334],[-0.18020833333333333,0.5833333333333334],[-0.18020833333333333,0.5833333333333334],[-0.18020833333333333,0.5833333333333334],[-0.18020833333333333,0.5833333333333334],[-0.18020833333333333,0.5833333333333334],[-0.18020833333333333,0.5833333333333334],[-0.18020833333333333,0.5833333333333334],[-0.18020833333333333,0.5833333333333334],[-0.18020833333333333,0.5833333333333334],[-0.18020833333333333,0.5833333333333334],[-0.18020833333333333,0.5833333333333334],[-0.18020833333333333,0.5833333333333334],[-0.18020833333333333,0.5833333333333334],[-0.18020833333333333,0.5833333333333334],[-0.18020833333333333,0.5833333333333334],[-0.18020833333333333,0.5833333333333334],[-0.18020833333333333,0.5833333333333334],[-0.18020833333333333,0.5833333333333334],[-0.18020833333333333,0.5833333333333334],[-0.18020833333333333,0.5833333333333334],[-0.18020833333333333,0.5833333333333334],[-0.18020833333333333,0.5833333333333334],[-0.18020833333333333,0.5833333333333334],[-0.18020833333333333,0.5833333333333334],[-0.18020833333333333,0.5833333333333334],[-0.18020833333333333,0.5833333333333334],[-0.18020833333333333,0.5833333333333334],[-0.18020833333333333,0.5833333333333334],[-0.18020833333333333,0.5833333333333334],[-0.18020833333333333,0.5833333333333334],[-0.18020833333333333,0.5833333333333334],[-0.18020833333333333,0.5833333333333334],[-0.18020833333333333,0.5833333333333334],[-0.18020833333333333,0.5833333333333334],[-0.18020833333333333,0.5833333333333334],[-0.18020833333333333,0.5833333333333334],[-0.18020833333333333,0.5833333333333334],[-0.18020833333333333,0.5833333333333334],[-0.18020833333333333,0.5833333333333334],[-0.18020833333333333,0.5833333333333334],[-0.18020833333333333,0.5833333333333334],[-0.18020833333333333,0.5833333333333334],[-0.18020833333333333,0.5833333333333334],[-0.18020833333333333,0.5833333333333334],[-0.18020833333333333,0.5833333333333334],[-0.18020833333333333,0.5833333333333334],[-0.18020833333333333,0.5833333333333334],[-0.18020833333333333,0.5833333333333334],[-0.18020833333333333,0.5833333333333334],[-0.18020833333333333,0.5833333333333334],[-0.18020833333333333,0.5833333333333334],[-0.18020833333333333,0.5833333333333334],[-0.18020833333333333,0.5833333333333334],[-0.18020833333333333,0.5833333333333334],[-0.18020833333333333,0.5833333333333334],[-0.18020833333333333,0.5833333333333334],[-0.18020833333333333,0.5833333333333334]]","[[-0.03218749999999997,-0.03611111111111111],[-0.03218749999999997,-0.03611111111111111],[-0.022083333333333382,-0.03685185185185181],[-0.022083333333333382,-0.03685185185185181],[-0.011770833333333286,-0.03296296296296288],[-0.011770833333333286,-0.03296296296296288],[-0.002812500000000047,-0.026851851851851852],[-0.002812500000000047,-0.026851851851851852],[0.005729166666666666,-0.048333333333333374],[0.005729166666666666,-0.048333333333333374],[0.03885416666666662,-0.027037037037037078],[0.03885416666666662,-0.027037037037037078],[0.06302083333333333,-0.05],[0.06302083333333333,-0.05],[0.07989583333333337,-0.07574074074074069],[0.07989583333333337,-0.07574074074074069],[0.12416666666666672,-0.11018518518518519],[0.12416666666666672,-0.11018518518518519],[0.12822916666666656,-0.0962962962962963],[0.12822916666666656,-0.0962962962962963],[0.13177083333333334,-0.09277777777777782],[0.13177083333333334,-0.09277777777777782],[0.13854166666666667,-0.0772222222222222],[0.13854166666666667,-0.0772222222222222],[0.13427083333333342,-0.08555555555555554],[0.13427083333333342,-0.08555555555555554],[0.1118750000000001,-0.0003703703703704546],[0.1118750000000001,-0.0003703703703704546],[0.11666666666666667,0.10833333333333334],[0.11666666666666667,0.10833333333333334],[0.09895833333333333,0.11537037037037029],[0.09895833333333333,0.11537037037037029],[0.07041666666666657,0.18185185185185193],[0.07041666666666657,0.18185185185185193],[0.05916666666666662,0.1925925925925926],[0.05916666666666662,0.1925925925925926],[0.02166666666666662,0.21888888888888897],[0.02166666666666662,0.21888888888888897],[0.013645833333333357,0.22240740740740744],[0.013645833333333357,0.22240740740740744],[-0.014999999999999977,0.22777777777777777],[-0.014999999999999977,0.22777777777777777],[-0.02000000000000005,0.20833333333333334],[-0.02000000000000005,0.20833333333333334],[-0.0013541666666666192,0.18796296296296297],[-0.0013541666666666192,0.18796296296296297],[0.029999999999999954,0.09462962962962967],[0.029999999999999954,0.09462962962962967],[0.02520833333333338,-0.009629629629629714],[0.02520833333333338,-0.009629629629629714],[0.06124999999999995,-0.02814814814814823],[0.06124999999999995,-0.02814814814814823],[0.09510416666666661,-0.05814814814814811],[0.09510416666666661,-0.05814814814814811],[0.12197916666666657,-0.07537037037037035],[0.12197916666666657,-0.07537037037037035],[0.16739583333333338,-0.07907407407407405],[0.16739583333333338,-0.07907407407407405],[0.18864583333333323,-0.12962962962962962],[0.18864583333333323,-0.12962962962962962],[0.22864583333333333,-0.1440740740740741],[0.22864583333333333,-0.1440740740740741],[0.2334374999999999,-0.15351851851851847],[0.2334374999999999,-0.15351851851851847],[0.2265625,-0.12999999999999998],[0.2265625,-0.12999999999999998],[0.2224999999999999,-0.13203703703703706],[0.2224999999999999,-0.13203703703703706],[0.17052083333333337,-0.11537037037037039],[0.17052083333333337,-0.11537037037037039],[0.08729166666666661,-0.11574074074074074],[0.08729166666666661,-0.11574074074074074],[0.007604166666666619,-0.09537037037037037],[0.007604166666666619,-0.09537037037037037],[-0.09416666666666665,-0.05814814814814811],[-0.09416666666666665,-0.05814814814814811],[-0.19906250000000003,-0.05759259259259263],[-0.19906250000000003,-0.05759259259259263],[-0.2755208333333333,0.000925925925925926],[-0.2755208333333333,0.000925925925925926],[-0.3572916666666667,0.012037037037037037],[-0.3572916666666667,0.012037037037037037],[-0.44562499999999994,0.0294444444444444],[-0.44562499999999994,0.0294444444444444],[-0.44562499999999994,0.0294444444444444],[-0.44562499999999994,0.0294444444444444],[-0.5136458333333334,0.06814814814814807],[-0.5136458333333334,0.06814814814814807],[-0.5786458333333333,0.10851851851851856],[-0.5786458333333333,0.10851851851851856],[-0.5627083333333334,0.11055555555555564],[-0.5627083333333334,0.11055555555555564],[-0.4984375,0.11685185185185189],[-0.4984375,0.11685185185185189],[-0.4262500000000001,0.10740740740740741],[-0.4262500000000001,0.10740740740740741],[-0.35104166666666664,0.12722222222222232],[-0.35104166666666664,0.12722222222222232],[-0.27614583333333337,0.13944444444444437],[-0.27614583333333337,0.13944444444444437],[-0.20427083333333335,0.1359259259259259],[-0.20427083333333335,0.1359259259259259],[-0.11604166666666664,0.17388888888888884],[-0.11604166666666664,0.17388888888888884],[-0.04052083333333331,0.19277777777777783],[-0.04052083333333331,0.19277777777777783],[0.025625000000000023,0.19518518518518516],[0.025625000000000023,0.19518518518518516],[0.09635416666666667,0.20092592592592592],[0.09635416666666667,0.20092592592592592],[0.12666666666666657,0.23499999999999996],[0.12666666666666657,0.23499999999999996],[0.11916666666666677,0.24740740740740744],[0.11916666666666677,0.24740740740740744],[0.10052083333333334,0.28666666666666657],[0.10052083333333334,0.28666666666666657],[0.09947916666666666,0.2985185185185186],[0.09947916666666666,0.2985185185185186],[0.10291666666666661,0.3329629629629629],[0.10291666666666661,0.3329629629629629],[0.08812499999999991,0.38425925925925924],[0.08812499999999991,0.38425925925925924],[0.07062499999999995,0.39203703703703713],[0.07062499999999995,0.39203703703703713],[0.08250000000000005,0.4294444444444444],[0.08250000000000005,0.4294444444444444],[0.08104166666666662,0.44537037037037036],[0.08104166666666662,0.44537037037037036],[0.05437500000000005,0.4516666666666666],[0.05437500000000005,0.4516666666666666],[0.05437500000000005,0.4516666666666666],[0.009062500000000048,0.4711111111111111],[0.009062500000000048,0.4711111111111111],[-0.02822916666666669,0.4987037037037036],[-0.02822916666666669,0.4987037037037036],[-0.07229166666666664,0.5035185185185185],[-0.07229166666666664,0.5035185185185185],[-0.12604166666666666,0.5327777777777779],[-0.12604166666666666,0.5327777777777779],[-0.1898958333333333,0.5427777777777778],[-0.1898958333333333,0.5427777777777778],[-0.23239583333333336,0.49148148148148146],[-0.23239583333333336,0.49148148148148146],[-0.2789583333333333,0.44814814814814813],[-0.2789583333333333,0.44814814814814813],[-0.3388541666666666,0.3979629629629629],[-0.37302083333333336,0.3725925925925927],[-0.3835416666666667,0.3738888888888888],[-0.36916666666666664,0.36444444444444435],[-0.34489583333333335,0.3237037037037036],[-0.31520833333333337,0.2814814814814815],[-0.31520833333333337,0.2814814814814815],[-0.26760416666666664,0.24055555555555552],[-0.2205208333333334,0.21296296296296297],[-0.1883333333333333,0.21574074074074073],[-0.1883333333333333,0.21574074074074073],[-0.14249999999999996,0.262037037037037],[-0.08166666666666664,0.2881481481481482],[-0.03125,0.23629629629629634],[0.017083333333333308,0.16518518518518527],[0.025833333333333285,0.1712962962962963],[0.01864583333333331,0.20611111111111102],[0.01864583333333331,0.20611111111111102],[0.044375000000000026,0.23740740740740748],[0.042916666666666714,0.25018518518518523],[0.060000000000000026,0.23851851851851844],[0.08812499999999991,0.23722222222222225],[0.12833333333333338,0.18777777777777774],[0.11333333333333329,0.20666666666666672],[0.10083333333333329,0.3118518518518518],[0.08833333333333329,0.4170370370370371],[0.11666666666666667,0.431111111111111],[0.14500000000000005,0.44518518518518513],[0.1349999999999999,0.4675925925925926],[0.1375,0.490925925925926],[0.13552083333333323,0.5231481481481481],[0.12999999999999995,0.5790740740740742],[0.0990624999999999,0.6564814814814814],[0.09291666666666672,0.6592592592592592],[0.08083333333333324,0.6298148148148148],[0.08083333333333324,0.6298148148148148],[0.0890625,0.5992592592592593],[0.0787499999999999,0.5770370370370371],[0.0787499999999999,0.5831481481481481],[0.07854166666666676,0.5590740740740741],[0.09447916666666671,0.5466666666666667],[0.08583333333333343,0.5738888888888889],[0.06906249999999996,0.5388888888888889],[0.06906249999999996,0.5388888888888889],[0.058854166666666666,0.4962962962962963],[0.0578125,0.4801851851851851],[0.0578125,0.4801851851851851],[0.05020833333333338,0.4831481481481481],[0.017916666666666713,0.4596296296296297],[0.014687500000000023,0.4631481481481482],[0.010104166666666714,0.4449999999999999],[0.01114583333333338,0.4522222222222223],[0.002291666666666714,0.45018518518518524],[0.002291666666666714,0.45018518518518524],[-0.01229166666666662,0.4324074074074074],[-0.015208333333333357,0.45314814814814824],[-0.050312499999999954,0.49962962962962953],[-0.050312499999999954,0.49962962962962953],[-0.05416666666666667,0.5162962962962963],[-0.03875000000000005,0.5024074074074073],[-0.01895833333333338,0.5161111111111112],[-0.00791666666666669,0.49611111111111106],[-0.016875000000000046,0.48648148148148157],[-0.03354166666666671,0.45740740740740743],[-0.049583333333333354,0.427962962962963],[-0.06124999999999995,0.3661111111111112],[-0.0515625,0.3416666666666667],[-0.01885416666666669,0.3118518518518518],[-0.01114583333333338,0.3118518518518518],[-0.01114583333333338,0.3118518518518518],[-0.019270833333333334,0.3146296296296296],[-0.019270833333333334,0.3146296296296296],[-0.027604166666666666,0.34370370370370373],[-0.0203125,0.3516666666666666],[-0.006666666666666643,0.37481481481481477],[0.010312499999999976,0.4209259259259258],[0.028541666666666642,0.47314814814814815],[0.057395833333333354,0.5300000000000001],[0.059687499999999956,0.5646296296296296],[0.06458333333333334,0.5864814814814816],[0.09249999999999996,0.5740740740740741],[0.10812499999999996,0.5644444444444444],[0.1256249999999999,0.54],[0.12614583333333323,0.5155555555555555],[0.13135416666666658,0.4588888888888888],[0.15697916666666673,0.4246296296296295],[0.18135416666666657,0.38425925925925924],[0.18937499999999996,0.3633333333333334],[0.20260416666666667,0.3272222222222223],[0.22291666666666668,0.26185185185185184],[0.19760416666666672,0.2594444444444445],[0.1759375000000001,0.2566666666666667],[0.15260416666666668,0.24240740740740738],[0.1337500000000001,0.2712962962962963],[0.13572916666666662,0.25314814814814823],[0.11208333333333324,0.24888888888888885],[0.07760416666666667,0.2668518518518519],[0.07583333333333328,0.22814814814814824],[0.06864583333333343,0.2081481481481481],[0.05437500000000005,0.21740740740740735],[0.05437500000000005,0.21740740740740735],[0.05947916666666669,0.22351851851851862],[0.07479166666666662,0.25703703703703695],[0.09010416666666667,0.2905555555555555],[0.09572916666666677,0.25925925925925924],[0.09572916666666677,0.25925925925925924],[0.07770833333333324,0.28722222222222227],[0.07770833333333324,0.28722222222222227],[0.058541666666666714,0.28277777777777785],[0.058541666666666714,0.28277777777777785],[0.05437500000000005,0.24740740740740744],[0.05437500000000005,0.24740740740740744],[0.04802083333333336,0.22814814814814824],[0.04802083333333336,0.22814814814814824],[0.06270833333333338,0.20092592592592592],[0.06270833333333338,0.20092592592592592],[0.05437500000000005,0.15981481481481474],[0.05437500000000005,0.15981481481481474],[0.05135416666666662,0.10185185185185185],[0.05135416666666662,0.10185185185185185],[0.04854166666666669,0.028518518518518478],[0.05656249999999995,-0.056851851851851834],[0.042604166666666644,-0.06370370370370367],[0.042604166666666644,-0.06370370370370367],[0.02010416666666662,-0.08888888888888889],[0.021354166666666667,-0.12444444444444443],[0.014687500000000023,-0.13259259259259262],[-0.018333333333333358,-0.09648148148148153],[-0.040625,-0.08944444444444447],[-0.040625,-0.08944444444444447],[-0.058958333333333356,-0.08388888888888892],[-0.06812499999999998,-0.09222222222222225],[-0.08166666666666664,-0.1014814814814815],[-0.08166666666666664,-0.1014814814814815],[-0.11395833333333331,-0.09703703703703699],[-0.11791666666666671,-0.10611111111111113],[-0.11052083333333336,-0.10907407407407403],[-0.1336458333333333,-0.10425925925925927],[-0.1530208333333333,-0.11814814814814817],[-0.20093749999999996,-0.1772222222222222],[-0.20833333333333334,-0.20629629629629626],[-0.19666666666666663,-0.22000000000000003],[-0.20562499999999997,-0.20111111111111116],[-0.20562499999999997,-0.20111111111111116],[-0.20604166666666662,-0.21074074074074076],[-0.21302083333333333,-0.2131481481481482],[-0.24249999999999997,-0.23499999999999996],[-0.2390625,-0.25759259259259265],[-0.20822916666666663,-0.2935185185185185],[-0.17739583333333328,-0.32944444444444443],[-0.12062499999999995,-0.3285185185185185],[-0.13406250000000006,-0.34370370370370373],[-0.14750000000000002,-0.3588888888888889],[-0.14750000000000002,-0.3588888888888889],[-0.1482291666666666,-0.38499999999999995],[-0.1345833333333334,-0.3901851851851852],[-0.11614583333333334,-0.40703703703703703],[-0.11552083333333331,-0.4196296296296297],[-0.10593750000000005,-0.42000000000000004],[-0.10562499999999998,-0.37537037037037035],[-0.11666666666666667,-0.36259259259259263],[-0.13218749999999999,-0.3714814814814815],[-0.14437500000000003,-0.37592592592592594],[-0.1297916666666667,-0.4155555555555555],[-0.12302083333333336,-0.41092592592592586],[-0.1391666666666667,-0.3987037037037037],[-0.16312500000000002,-0.3677777777777778],[-0.14958333333333335,-0.3316666666666667],[-0.13635416666666664,-0.305],[-0.12374999999999996,-0.3148148148148148],[-0.11510416666666666,-0.2983333333333334],[-0.11510416666666666,-0.2983333333333334],[-0.08406250000000005,-0.25],[-0.059062500000000046,-0.2168518518518519],[-0.057395833333333354,-0.14148148148148143],[-0.057395833333333354,-0.14148148148148143],[-0.029895833333333382,-0.11462962962962958],[-0.000833333333333286,-0.12537037037037035],[0.04572916666666664,-0.15203703703703708],[0.07447916666666667,-0.17259259259259258],[0.07447916666666667,-0.17259259259259258],[0.041562499999999974,-0.18851851851851853],[0.057187499999999974,-0.2037037037037037],[0.10187499999999995,-0.22888888888888892],[0.14656250000000004,-0.2644444444444445],[0.18041666666666673,-0.27814814814814814],[0.2195833333333333,-0.2975925925925926],[0.2171875,-0.3181481481481482],[0.1990624999999999,-0.29259259259259257],[0.18093750000000006,-0.267037037037037],[0.17614583333333325,-0.2692592592592592],[0.19145833333333329,-0.27814814814814814],[0.1609375,-0.27259259259259255],[0.11666666666666667,-0.25148148148148153],[0.09937500000000009,-0.2183333333333333],[0.09895833333333333,-0.19185185185185188],[0.07427083333333329,-0.19037037037037038],[0.0756249999999999,-0.19962962962962966],[0.08885416666666662,-0.22388888888888886],[0.11593749999999996,-0.23592592592592587],[0.1259375000000001,-0.22314814814814815],[0.14614583333333328,-0.19388888888888886],[0.16364583333333324,-0.17981481481481484],[0.19979166666666662,-0.13777777777777775],[0.20364583333333333,-0.14444444444444443],[0.1943749999999999,-0.1418518518518519],[0.2053124999999999,-0.12129629629629629],[0.20895833333333325,-0.12537037037037035],[0.21979166666666666,-0.09592592592592594],[0.1961458333333333,-0.0809259259259259],[0.19406249999999994,-0.0690740740740741],[0.17760416666666667,-0.07851851851851847],[0.17760416666666667,-0.07851851851851847],[0.16114583333333338,-0.08796296296296297],[0.1460416666666667,-0.13296296296296298],[0.13624999999999995,-0.1412962962962963],[0.1397916666666667,-0.13333333333333333],[0.13864583333333325,-0.11962962962962967],[0.13864583333333325,-0.11962962962962967],[0.14197916666666663,-0.06925925925925921],[0.12281250000000009,-0.036481481481481566],[0.12427083333333329,-0.0014814814814813973],[0.0990624999999999,0.08296296296296288],[0.07802083333333343,0.17222222222222222],[0.036458333333333336,0.19074074074074074],[-0.0125,0.1787037037037037],[-0.06499999999999997,0.19518518518518516],[-0.06499999999999997,0.19518518518518516],[-0.09989583333333331,0.169074074074074],[-0.09989583333333331,0.169074074074074],[-0.1248958333333333,0.1455555555555556],[-0.1248958333333333,0.1455555555555556],[-0.1866666666666667,0.08296296296296288],[-0.1866666666666667,0.08296296296296288],[-0.23864583333333336,-0.0005555555555554713],[-0.23864583333333336,-0.0005555555555554713],[-0.28708333333333336,-0.07370370370370373],[-0.28708333333333336,-0.07370370370370373],[-0.28104166666666663,-0.19092592592592597],[-0.2852083333333333,-0.3425925925925926],[-0.2757291666666667,-0.432962962962963],[-0.27229166666666665,-0.49296296296296294],[-0.2677083333333333,-0.5344444444444445],[-0.28093750000000006,-0.5588888888888889],[-0.28447916666666667,-0.617037037037037],[-0.2638541666666666,-0.6272222222222222],[-0.24781249999999996,-0.5509259259259259],[-0.24781249999999996,-0.5509259259259259],[-0.2391666666666667,-0.5248148148148147],[-0.2526041666666667,-0.5455555555555556],[-0.2595833333333334,-0.4885185185185185],[-0.27770833333333333,-0.42388888888888887],[-0.3023958333333333,-0.3514814814814815],[-0.3177083333333333,-0.32462962962962966],[-0.3330208333333334,-0.2977777777777778],[-0.35093749999999996,-0.21666666666666667],[-0.3592708333333333,-0.15685185185185183],[-0.36697916666666663,-0.15388888888888894],[-0.37083333333333335,-0.1111111111111111],[-0.37083333333333335,-0.1111111111111111],[-0.35520833333333335,-0.0801851851851852],[-0.3358333333333333,-0.09259259259259259],[-0.29333333333333333,-0.08981481481481482],[-0.2508333333333333,-0.08703703703703704],[-0.21020833333333327,-0.09759259259259258],[-0.16958333333333328,-0.1081481481481481],[-0.15135416666666662,-0.15055555555555558],[-0.13312499999999997,-0.19296296296296295],[-0.09468749999999998,-0.2375925925925926],[-0.05625,-0.2822222222222222],[-0.03968750000000002,-0.3081481481481481],[-0.02312500000000005,-0.334074074074074],[-0.014791666666666713,-0.3466666666666666],[-0.005520833333333286,-0.3655555555555555],[-0.0013541666666666192,-0.3725925925925926],[0.00302083333333331,-0.3646296296296296],[0.014374999999999952,-0.3496296296296296],[0.03979166666666671,-0.3490740740740741],[0.03979166666666671,-0.3490740740740741],[0.016458333333333287,-0.37222222222222223],[0.021354166666666667,-0.3822222222222222],[0.00791666666666669,-0.3648148148148148],[-0.005520833333333286,-0.34740740740740744],[-0.005520833333333286,-0.34740740740740744],[0.005833333333333357,-0.34888888888888886],[0.016250000000000025,-0.3440740740740741],[-0.01572916666666669,-0.37333333333333335],[-0.025520833333333333,-0.387037037037037],[-0.051770833333333384,-0.392037037037037],[-0.09208333333333331,-0.38259259259259265],[-0.08489583333333334,-0.3816666666666667],[-0.10593750000000005,-0.39388888888888884],[-0.12156250000000005,-0.4009259259259259],[-0.13718750000000005,-0.40796296296296297],[-0.16531250000000006,-0.4264814814814815],[-0.19156249999999997,-0.4412962962962963],[-0.14333333333333337,-0.3861111111111111],[-0.15197916666666664,-0.372037037037037],[-0.14750000000000002,-0.3624074074074074],[-0.14854166666666668,-0.36148148148148146],[-0.15677083333333333,-0.3442592592592592],[-0.16135416666666663,-0.33351851851851855],[-0.16208333333333336,-0.3007407407407407],[-0.15458333333333332,-0.2705555555555556],[-0.15843750000000004,-0.2235185185185185],[-0.18177083333333333,-0.17888888888888893],[-0.23718750000000005,-0.17018518518518513],[-0.221875,-0.18870370370370365],[-0.21281249999999996,-0.20333333333333337],[-0.21281249999999996,-0.20333333333333337],[-0.19739583333333333,-0.20999999999999996],[-0.16124999999999995,-0.11500000000000005],[-0.16124999999999995,-0.11500000000000005],[-0.1438541666666667,-0.03888888888888889],[-0.11177083333333329,-0.003333333333333249],[-0.08843749999999997,0.023148148148148147],[-0.07916666666666666,0.04148148148148144],[-0.07916666666666666,0.04148148148148144],[-0.027187500000000024,0.0551851851851851],[0.033958333333333354,0.08148148148148149],[0.04802083333333336,0.1455555555555556],[0.04031250000000005,0.2007407407407407],[0.03177083333333333,0.2566666666666667],[0.01583333333333338,0.25500000000000006],[0.014999999999999977,0.27870370370370373],[0.015625,0.31370370370370365],[0.016770833333333356,0.3603703703703704],[0.03208333333333328,0.34814814814814815]]","[[-0.03218749999999997,-0.03611111111111111,0.00019999980926854732],[-0.03218749999999997,-0.03611111111111111,0.05909999990463177],[-0.022083333333333382,-0.03685185185185181,0.08239999961853073],[-0.022083333333333382,-0.03685185185185181,0.09850000000000136],[-0.011770833333333286,-0.03296296296296288,0.11589999961853437],[-0.011770833333333286,-0.03296296296296288,0.12419999980926377],[-0.002812500000000047,-0.026851851851851852,0.14849999999999852],[-0.002812500000000047,-0.026851851851851852,0.15500000000000114],[0.005729166666666666,-0.048333333333333374,0.1817999997139026],[0.005729166666666666,-0.048333333333333374,0.18850000000000477],[0.03885416666666662,-0.027037037037037078,0.2153999996185405],[0.03885416666666662,-0.027037037037037078,0.22350000000000136],[0.06302083333333333,-0.05,0.2468999996185346],[0.06302083333333333,-0.05,0.2528999996185348],[0.07989583333333337,-0.07574074074074069,0.2787999997138968],[0.07989583333333337,-0.07574074074074069,0.2856999998092675],[0.12416666666666672,-0.11018518518518519,0.3123999996185347],[0.12416666666666672,-0.11018518518518519,0.32009999990464166],[0.12822916666666656,-0.0962962962962963,0.3456999998092698],[0.12822916666666656,-0.0962962962962963,0.35239999961854096],[0.13177083333333334,-0.09277777777777782,0.38000000000000966],[0.13177083333333334,-0.09277777777777782,0.38739999961853755],[0.13854166666666667,-0.0772222222222222,0.413099999904631],[0.13854166666666667,-0.0772222222222222,0.420099999904636],[0.13427083333333342,-0.08555555555555554,0.4453999996185303],[0.13427083333333342,-0.08555555555555554,0.45209999990463245],[0.1118750000000001,-0.0003703703703704546,0.4788999996185339],[0.1118750000000001,-0.0003703703703704546,0.4863999996185413],[0.11666666666666667,0.10833333333333334,0.5123999996185375],[0.11666666666666667,0.10833333333333334,0.5195999999046421],[0.09895833333333333,0.11537037037037029,0.5455999999046384],[0.09895833333333333,0.11537037037037029,0.5526999998092634],[0.07041666666666657,0.18185185185185193,0.5788999996185282],[0.07041666666666657,0.18185185185185193,0.5875000000000057],[0.05916666666666662,0.1925925925925926,0.6129999999999995],[0.05916666666666662,0.1925925925925926,0.6200000000000045],[0.02166666666666662,0.21888888888888897,0.6455999999046327],[0.02166666666666662,0.21888888888888897,0.6523999996185381],[0.013645833333333357,0.22240740740740744,0.679000000000002],[0.013645833333333357,0.22240740740740744,0.6865999999046437],[-0.014999999999999977,0.22777777777777777,0.7138999996185333],[-0.014999999999999977,0.22777777777777777,0.7211999998092722],[-0.02000000000000005,0.20833333333333334,0.7455999999046412],[-0.02000000000000005,0.20833333333333334,0.752599999904632],[-0.0013541666666666192,0.18796296296296297,0.7777999997139062],[-0.0013541666666666192,0.18796296296296297,0.7853999996185337],[0.029999999999999954,0.09462962962962967,0.8125999999046343],[0.029999999999999954,0.09462962962962967,0.8198999996185279],[0.02520833333333338,-0.009629629629629714,0.8455000000000013],[0.02520833333333338,-0.009629629629629714,0.8520999999046381],[0.06124999999999995,-0.02814814814814823,0.8776999998092663],[0.06124999999999995,-0.02814814814814823,0.8851999998092737],[0.09510416666666661,-0.05814814814814811,0.9125999999046428],[0.09510416666666661,-0.05814814814814811,0.9198999996185364],[0.12197916666666657,-0.07537037037037035,0.9442999997139054],[0.12197916666666657,-0.07537037037037035,0.9512999997138962],[0.16739583333333338,-0.07907407407407405,0.9775999999046405],[0.16739583333333338,-0.07907407407407405,0.9852999997139023],[0.18864583333333323,-0.12962962962962962,1.0123999996185375],[0.18864583333333323,-0.12962962962962962,1.0195000000000078],[0.22864583333333333,-0.1440740740740741,1.0444999999999993],[0.22864583333333333,-0.1440740740740741,1.0517999997139071],[0.2334374999999999,-0.15351851851851847,1.0777999997139034],[0.2334374999999999,-0.15351851851851847,1.0859999999999985],[0.2265625,-0.12999999999999998,1.113500000000002],[0.2265625,-0.12999999999999998,1.1205999999046412],[0.2224999999999999,-0.13203703703703706,1.1445000000000078],[0.2224999999999999,-0.13203703703703706,1.151599999904633],[0.17052083333333337,-0.11537037037037039,1.1777999997138977],[0.17052083333333337,-0.11537037037037039,1.1885000000000048],[0.08729166666666661,-0.11574074074074074,1.213799999713899],[0.08729166666666661,-0.11574074074074074,1.2212999997139065],[0.007604166666666619,-0.09537037037037037,1.2443999996185369],[0.007604166666666619,-0.09537037037037037,1.2520000000000095],[-0.09416666666666665,-0.05814814814814811,1.2800999999046354],[-0.09416666666666665,-0.05814814814814811,1.2875999999046428],[-0.19906250000000003,-0.05759259259259263,1.3133999996185395],[-0.19906250000000003,-0.05759259259259263,1.3206999998092641],[-0.2755208333333333,0.000925925925925926,1.3466999998092746],[-0.2755208333333333,0.000925925925925926,1.3540999999046335],[-0.3572916666666667,0.012037037037037037,1.3796999998092758],[-0.3572916666666667,0.012037037037037037,1.3867999997139009],[-0.44562499999999994,0.0294444444444444,1.4133999996185338],[-0.44562499999999994,0.0294444444444444,1.4221999998092656],[-0.44562499999999994,0.0294444444444444,1.4268999996185414],[-0.44562499999999994,0.0294444444444444,1.445999999999998],[-0.5136458333333334,0.06814814814814807,1.4795000000000016],[-0.5136458333333334,0.06814814814814807,1.4860999999046385],[-0.5786458333333333,0.10851851851851856,1.5127999997139057],[-0.5786458333333333,0.10851851851851856,1.520699999809267],[-0.5627083333333334,0.11055555555555564,1.5468999996185318],[-0.5627083333333334,0.11055555555555564,1.5536999998092682],[-0.4984375,0.11685185185185189,1.5792999997138963],[-0.4984375,0.11685185185185189,1.5858999996185332],[-0.4262500000000001,0.10740740740740741,1.610899999618539],[-0.4262500000000001,0.10740740740740741,1.618699999809266],[-0.35104166666666664,0.12722222222222232,1.6460000000000008],[-0.35104166666666664,0.12722222222222232,1.652699999809272],[-0.27614583333333337,0.13944444444444437,1.6776999998092634],[-0.27614583333333337,0.13944444444444437,1.6846999998092684],[-0.20427083333333335,0.1359259259259259,1.7109999999999985],[-0.20427083333333335,0.1359259259259259,1.7188999996185288],[-0.11604166666666664,0.17388888888888884,1.7460999999046436],[-0.11604166666666664,0.17388888888888884,1.7528999996185348],[-0.04052083333333331,0.19277777777777783,1.7800999999046354],[-0.04052083333333331,0.19277777777777783,1.7868999996185408],[0.025625000000000023,0.19518518518518516,1.812899999618537],[0.025625000000000023,0.19518518518518516,1.8205000000000098],[0.09635416666666667,0.20092592592592592,1.846500000000006],[0.09635416666666667,0.20092592592592592,1.8537999997138996],[0.12666666666666657,0.23499999999999996,1.8776999998092663],[0.12666666666666657,0.23499999999999996,1.8847999997139055],[0.11916666666666677,0.24740740740740744,1.91419999980927],[0.11916666666666677,0.24740740740740744,1.9215000000000089],[0.10052083333333334,0.28666666666666657,1.9457999997138984],[0.10052083333333334,0.28666666666666657,1.952299999713901],[0.09947916666666666,0.2985185185185186,1.979299999713902],[0.09947916666666666,0.2985185185185186,1.9860000000000042],[0.10291666666666661,0.3329629629629629,2.013699999809276],[0.10291666666666661,0.3329629629629629,2.0227999997138966],[0.08812499999999991,0.38425925925925924,2.049099999904641],[0.08812499999999991,0.38425925925925924,2.056899999618537],[0.07062499999999995,0.39203703703703713,2.0826999998092646],[0.07062499999999995,0.39203703703703713,2.089899999618538],[0.08250000000000005,0.4294444444444444,2.116199999809268],[0.08250000000000005,0.4294444444444444,2.1237999997138957],[0.08104166666666662,0.44537037037037036,2.149000000000001],[0.08104166666666662,0.44537037037037036,2.156399999618529],[0.05437500000000005,0.4516666666666666,2.1827999997139074],[0.05437500000000005,0.4516666666666666,2.1901999998092663],[0.05437500000000005,0.4516666666666666,2.2005999999046395],[0.009062500000000048,0.4711111111111111,2.2343999996185318],[0.009062500000000048,0.4711111111111111,2.2423999996185415],[-0.02822916666666669,0.4987037037037036,2.2660000000000053],[-0.02822916666666669,0.4987037037037036,2.273699999809267],[-0.07229166666666664,0.5035185185185185,2.2988999996185413],[-0.07229166666666664,0.5035185185185185,2.3064999999999998],[-0.12604166666666666,0.5327777777777779,2.334000000000003],[-0.12604166666666666,0.5327777777777779,2.343500000000006],[-0.1898958333333333,0.5427777777777778,2.3663999996185368],[-0.1898958333333333,0.5427777777777778,2.3743999996185323],[-0.23239583333333336,0.49148148148148146,2.4072999997138993],[-0.23239583333333336,0.49148148148148146,2.4168999996185363],[-0.2789583333333333,0.44814814814814813,2.426799999713907],[-0.2789583333333333,0.44814814814814813,2.4435000000000002],[-0.3388541666666666,0.3979629629629629,2.4601999998092765],[-0.37302083333333336,0.3725925925925927,2.4817999997138998],[-0.3835416666666667,0.3738888888888888,2.4965000000000117],[-0.36916666666666664,0.36444444444444435,2.513699999809276],[-0.34489583333333335,0.3237037037037036,2.529299999713899],[-0.31520833333333337,0.2814814814814815,2.549099999904641],[-0.31520833333333337,0.2814814814814815,2.560199999809271],[-0.26760416666666664,0.24055555555555552,2.576899999618533],[-0.2205208333333334,0.21296296296296297,2.5940000000000083],[-0.1883333333333333,0.21574074074074073,2.6165999999046363],[-0.1883333333333333,0.21574074074074073,2.6267999997138958],[-0.14249999999999996,0.262037037037037,2.643799999713906],[-0.08166666666666664,0.2881481481481482,2.660199999809265],[-0.03125,0.23629629629629634,2.6768999996185414],[0.017083333333333308,0.16518518518518527,2.6965999999046346],[0.025833333333333285,0.1712962962962963,2.7132999997138967],[0.01864583333333331,0.20611111111111102,2.7310000000000088],[0.01864583333333331,0.20611111111111102,2.752099999904644],[0.044375000000000026,0.23740740740740748,2.7605999999046418],[0.042916666666666714,0.25018518518518523,2.7777999997139062],[0.060000000000000026,0.23851851851851844,2.7935000000000088],[0.08812499999999991,0.23722222222222225,2.810599999904639],[0.12833333333333338,0.18777777777777774,2.828799999713908],[0.11333333333333329,0.20666666666666672,2.84359999990464],[0.10083333333333329,0.3118518518518518,2.860199999809268],[0.08833333333333329,0.4170370370370371,2.8785000000000025],[0.11666666666666667,0.431111111111111,2.8935999999046373],[0.14500000000000005,0.44518518518518513,2.9110999999046356],[0.1349999999999999,0.4675925925925926,2.9268999996185414],[0.1375,0.490925925925926,2.9460999999046322],[0.13552083333333323,0.5231481481481481,2.9605000000000103],[0.12999999999999995,0.5790740740740742,2.979299999713902],[0.0990624999999999,0.6564814814814814,2.9935000000000116],[0.09291666666666672,0.6592592592592592,3.0146999998092667],[0.08083333333333324,0.6298148148148148,3.0296999998092673],[0.08083333333333324,0.6298148148148148,3.043599999904643],[0.0890625,0.5992592592592593,3.060199999809271],[0.0787499999999999,0.5770370370370371,3.0791999998092763],[0.0787499999999999,0.5831481481481481,3.09359999990464],[0.07854166666666676,0.5590740740740741,3.110500000000002],[0.09447916666666671,0.5466666666666667,3.1270000000000095],[0.08583333333333343,0.5738888888888889,3.1451999998092646],[0.06906249999999996,0.5388888888888889,3.160199999809265],[0.06906249999999996,0.5388888888888889,3.177099999904641],[0.058854166666666666,0.4962962962962963,3.196399999618535],[0.0578125,0.4801851851851851,3.2131999998092766],[0.0578125,0.4801851851851851,3.227000000000004],[0.05020833333333338,0.4831481481481481,3.2437999997139],[0.017916666666666713,0.4596296296296297,3.263399999618528],[0.014687500000000023,0.4631481481481482,3.2775999999046377],[0.010104166666666714,0.4449999999999999,3.293699999809263],[0.01114583333333338,0.4522222222222223,3.315899999618537],[0.002291666666666714,0.45018518518518524,3.331000000000003],[0.002291666666666714,0.45018518518518524,3.3437999997139087],[-0.01229166666666662,0.4324074074074074,3.360199999809268],[-0.015208333333333357,0.45314814814814824,3.383199999809264],[-0.050312499999999954,0.49962962962962953,3.398599999904633],[-0.050312499999999954,0.49962962962962953,3.4105999999046333],[-0.05416666666666667,0.5162962962962963,3.431199999809266],[-0.03875000000000005,0.5024074074074073,3.4468999996185374],[-0.01895833333333338,0.5161111111111112,3.461599999904635],[-0.00791666666666669,0.49611111111111106,3.480299999713907],[-0.016875000000000046,0.48648148148148157,3.494399999618537],[-0.03354166666666671,0.45740740740740743,3.5120999999046347],[-0.049583333333333354,0.427962962962963,3.527299999713904],[-0.06124999999999995,0.3661111111111112,3.5462999997139093],[-0.0515625,0.3416666666666667,3.5605000000000047],[-0.01885416666666669,0.3118518518518518,3.576999999999998],[-0.01114583333333338,0.3118518518518518,3.5965999999046403],[-0.01114583333333338,0.3118518518518518,3.610599999904636],[-0.019270833333333334,0.3146296296296296,3.627099999904644],[-0.019270833333333334,0.3146296296296296,3.646500000000003],[-0.027604166666666666,0.34370370370370373,3.660499999999999],[-0.0203125,0.3516666666666666,3.678199999809266],[-0.006666666666666643,0.37481481481481477,3.693799999713903],[0.010312499999999976,0.4209259259259258,3.7108999996185332],[0.028541666666666642,0.47314814814814815,3.7271999998092724],[0.057395833333333354,0.5300000000000001,3.744099999904634],[0.059687499999999956,0.5646296296296296,3.7601999998092737],[0.06458333333333334,0.5864814814814816,3.777399999618538],[0.09249999999999996,0.5740740740740741,3.7935000000000088],[0.10812499999999996,0.5644444444444444,3.8137999997139076],[0.1256249999999999,0.54,3.82959999990463],[0.12614583333333323,0.5155555555555555,3.847599999904631],[0.13135416666666658,0.4588888888888888,3.861599999904641],[0.15697916666666673,0.4246296296296295,3.8785000000000025],[0.18135416666666657,0.38425925925925924,3.893500000000003],[0.18937499999999996,0.3633333333333334,3.9103999996185337],[0.20260416666666667,0.3272222222222223,3.926799999713907],[0.22291666666666668,0.26185185185185184,3.9461999998092665],[0.19760416666666672,0.2594444444444445,3.9612999997139013],[0.1759375000000001,0.2566666666666667,3.978599999904631],[0.15260416666666668,0.24240740740740738,3.997399999618537],[0.1337500000000001,0.2712962962962963,4.014499999999998],[0.13572916666666662,0.25314814814814823,4.031000000000006],[0.11208333333333324,0.24888888888888885,4.048899999618541],[0.07760416666666667,0.2668518518518519,4.064299999713896],[0.07583333333333328,0.22814814814814824,4.079000000000008],[0.06864583333333343,0.2081481481481481,4.09359999990464],[0.05437500000000005,0.21740740740740735,4.1258999996185395],[0.05437500000000005,0.21740740740740735,4.134599999904637],[0.05947916666666669,0.22351851851851862,4.143699999809272],[0.07479166666666662,0.25703703703703695,4.160399999618534],[0.09010416666666667,0.2905555555555555,4.1806999998092635],[0.09572916666666677,0.25925925925925924,4.200299999713906],[0.09572916666666677,0.25925925925925924,4.215500000000006],[0.07770833333333324,0.28722222222222227,4.227000000000004],[0.07770833333333324,0.28722222222222227,4.247099999904634],[0.058541666666666714,0.28277777777777785,4.260399999618528],[0.058541666666666714,0.28277777777777785,4.277000000000001],[0.05437500000000005,0.24740740740740744,4.293699999809263],[0.05437500000000005,0.24740740740740744,4.3152999997139005],[0.04802083333333336,0.22814814814814824,4.3270999999046325],[0.04802083333333336,0.22814814814814824,4.3436999998092745],[0.06270833333333338,0.20092592592592592,4.36489999961853],[0.06270833333333338,0.20092592592592592,4.3770000000000095],[0.05437500000000005,0.15981481481481474,4.393699999809272],[0.05437500000000005,0.15981481481481474,4.414399999618539],[0.05135416666666662,0.10185185185185185,4.427199999809275],[0.05135416666666662,0.10185185185185185,4.443699999809269],[0.04854166666666669,0.028518518518518478,4.4601999998092765],[0.05656249999999995,-0.056851851851851834,4.4790999999046335],[0.042604166666666644,-0.06370370370370367,4.4937999997139],[0.042604166666666644,-0.06370370370370367,4.510599999904642],[0.02010416666666662,-0.08888888888888889,4.527099999904635],[0.021354166666666667,-0.12444444444444443,4.545699999809273],[0.014687500000000023,-0.13259259259259262,4.560399999618539],[-0.018333333333333358,-0.09648148148148153,4.576999999999998],[-0.040625,-0.08944444444444447,4.59359999990464],[-0.040625,-0.08944444444444447,4.618000000000009],[-0.058958333333333356,-0.08388888888888892,4.6270000000000095],[-0.06812499999999998,-0.09222222222222225,4.645599999904633],[-0.08166666666666664,-0.1014814814814815,4.660299999713899],[-0.08166666666666664,-0.1014814814814815,4.679199999809271],[-0.11395833333333331,-0.09703703703703699,4.693699999809269],[-0.11791666666666671,-0.10611111111111113,4.71050000000001],[-0.11052083333333336,-0.10907407407407403,4.730000000000004],[-0.1336458333333333,-0.10425925925925927,4.7457999997138955],[-0.1530208333333333,-0.11814814814814817,4.760399999618528],[-0.20093749999999996,-0.1772222222222222,4.779000000000011],[-0.20833333333333334,-0.20629629629629626,4.793699999809263],[-0.19666666666666663,-0.22000000000000003,4.810699999809273],[-0.20562499999999997,-0.20111111111111116,4.8270999999046325],[-0.20562499999999997,-0.20111111111111116,4.845899999618538],[-0.20604166666666662,-0.21074074074074076,4.860299999713902],[-0.21302083333333333,-0.2131481481481482,4.8770000000000095],[-0.24249999999999997,-0.23499999999999996,4.8965999999046375],[-0.2390625,-0.25759259259259265,4.911899999618541],[-0.20822916666666663,-0.2935185185185185,4.927099999904641],[-0.17739583333333328,-0.32944444444444443,4.946299999713901],[-0.12062499999999995,-0.3285185185185185,4.96259999990464],[-0.13406250000000006,-0.34370370370370373,4.979799999713904],[-0.14750000000000002,-0.3588888888888889,4.998599999904641],[-0.14750000000000002,-0.3588888888888889,5.010299999713908],[-0.1482291666666666,-0.38499999999999995,5.027399999618538],[-0.1345833333333334,-0.3901851851851852,5.049000000000007],[-0.11614583333333334,-0.40703703703703703,5.06439999961853],[-0.11552083333333331,-0.4196296296296297,5.080500000000001],[-0.10593750000000005,-0.42000000000000004,5.094599999904631],[-0.10562499999999998,-0.37537037037037035,5.115299999713898],[-0.11666666666666667,-0.36259259259259263,5.130199999809264],[-0.13218749999999999,-0.3714814814814815,5.145699999809267],[-0.14437500000000003,-0.37592592592592594,5.160399999618534],[-0.1297916666666667,-0.4155555555555555,5.181199999809266],[-0.12302083333333336,-0.41092592592592586,5.195799999713898],[-0.1391666666666667,-0.3987037037037037,5.210899999618533],[-0.16312500000000002,-0.3677777777777778,5.227199999809272],[-0.14958333333333335,-0.3316666666666667,5.243500000000012],[-0.13635416666666664,-0.305,5.262500000000003],[-0.12374999999999996,-0.3148148148148148,5.2805000000000035],[-0.11510416666666666,-0.2983333333333334,5.299699999809263],[-0.11510416666666666,-0.2983333333333334,5.310299999713905],[-0.08406250000000005,-0.25,5.327199999809267],[-0.059062500000000046,-0.2168518518518519,5.348799999713904],[-0.057395833333333354,-0.14148148148148143,5.365399999618532],[-0.057395833333333354,-0.14148148148148143,5.37689999961853],[-0.029895833333333382,-0.11462962962962958,5.393599999904637],[-0.000833333333333286,-0.12537037037037035,5.414399999618539],[0.04572916666666664,-0.15203703703703708,5.430500000000009],[0.07447916666666667,-0.17259259259259258,5.452399999618535],[0.07447916666666667,-0.17259259259259258,5.4601999998092765],[0.041562499999999974,-0.18851851851851853,5.476799999713904],[0.057187499999999974,-0.2037037037037037,5.495599999904641],[0.10187499999999995,-0.22888888888888892,5.510599999904642],[0.14656250000000004,-0.2644444444444445,5.5267999997139015],[0.18041666666666673,-0.27814814814814814,5.543500000000009],[0.2195833333333333,-0.2975925925925926,5.560199999809271],[0.2171875,-0.3181481481481482,5.57950000000001],[0.1990624999999999,-0.29259259259259257,5.595399999618536],[0.18093750000000006,-0.267037037037037,5.614799999713895],[0.17614583333333325,-0.2692592592592592,5.630099999904644],[0.19145833333333329,-0.27814814814814814,5.6447999997138965],[0.1609375,-0.27259259259259255,5.660099999904631],[0.11666666666666667,-0.25148148148148153,5.676899999618541],[0.09937500000000009,-0.2183333333333333,5.6935],[0.09895833333333333,-0.19185185185185188,5.711799999713904],[0.07427083333333329,-0.19037037037037038,5.727500000000006],[0.0756249999999999,-0.19962962962962966,5.744899999618539],[0.08885416666666662,-0.22388888888888886,5.760199999809274],[0.11593749999999996,-0.23592592592592587,5.778699999809277],[0.1259375000000001,-0.22314814814814815,5.793399999618529],[0.14614583333333328,-0.19388888888888886,5.813000000000002],[0.16364583333333324,-0.17981481481481484,5.82950000000001],[0.19979166666666662,-0.13777777777777775,5.8455999999046355],[0.20364583333333333,-0.14444444444444443,5.860199999809268],[0.1943749999999999,-0.1418518518518519,5.87689999961853],[0.2053124999999999,-0.12129629629629629,5.89409999990464],[0.20895833333333325,-0.12537037037037035,5.91209999990464],[0.21979166666666666,-0.09592592592592594,5.928699999809268],[0.1961458333333333,-0.0809259259259259,5.9465],[0.19406249999999994,-0.0690740740740741,5.962099999904638],[0.17760416666666667,-0.07851851851851847,5.980399999618541],[0.17760416666666667,-0.07851851851851847,5.994599999904636],[0.16114583333333338,-0.08796296296296297,6.010299999713908],[0.1460416666666667,-0.13296296296296298,6.026899999618536],[0.13624999999999995,-0.1412962962962963,6.043500000000009],[0.1397916666666667,-0.13333333333333333,6.060199999809271],[0.13864583333333325,-0.11962962962962967,6.076799999713899],[0.13864583333333325,-0.11962962962962967,6.09359999990464],[0.14197916666666663,-0.06925925925925921,6.110299999713902],[0.12281250000000009,-0.036481481481481566,6.126799999713896],[0.12427083333333329,-0.0014814814814813973,6.143599999904637],[0.0990624999999999,0.08296296296296288,6.160199999809265],[0.07802083333333343,0.17222222222222222,6.179099999904636],[0.036458333333333336,0.19074074074074074,6.193899999618537],[-0.0125,0.1787037037037037,6.212199999809272],[-0.06499999999999997,0.19518518518518516,6.227000000000004],[-0.06499999999999997,0.19518518518518516,6.247699999809271],[-0.09989583333333331,0.169074074074074,6.260299999713908],[-0.09989583333333331,0.169074074074074,6.276899999618536],[-0.1248958333333333,0.1455555555555556,6.293699999809263],[-0.1248958333333333,0.1455555555555556,6.314799999713898],[-0.1866666666666667,0.08296296296296288,6.326999999999998],[-0.1866666666666667,0.08296296296296288,6.343899999618529],[-0.23864583333333336,-0.0005555555555554713,6.365000000000009],[-0.23864583333333336,-0.0005555555555554713,6.3770000000000095],[-0.28708333333333336,-0.07370370370370373,6.393599999904637],[-0.28708333333333336,-0.07370370370370373,6.416000000000011],[-0.28104166666666663,-0.19092592592592597,6.427000000000007],[-0.2852083333333333,-0.3425925925925926,6.445599999904644],[-0.2757291666666667,-0.432962962962963,6.460299999713897],[-0.27229166666666665,-0.49296296296296294,6.479500000000002],[-0.2677083333333333,-0.5344444444444445,6.4957999997138955],[-0.28093750000000006,-0.5588888888888889,6.512099999904635],[-0.28447916666666667,-0.617037037037037,6.529799999713902],[-0.2638541666666666,-0.6272222222222222,6.544499999999999],[-0.24781249999999996,-0.5509259259259259,6.560299999713905],[-0.24781249999999996,-0.5509259259259259,6.576999999999998],[-0.2391666666666667,-0.5248148148148147,6.597599999904631],[-0.2526041666666667,-0.5455555555555556,6.6155000000000115],[-0.2595833333333334,-0.4885185185185185,6.630899999618535],[-0.27770833333333333,-0.42388888888888887,6.646399999618538],[-0.3023958333333333,-0.3514814814814815,6.660399999618534],[-0.3177083333333333,-0.32462962962962966,6.676899999618541],[-0.3330208333333334,-0.2977777777777778,6.694199999809271],[-0.35093749999999996,-0.21666666666666667,6.712000000000003],[-0.3592708333333333,-0.15685185185185183,6.727899999618529],[-0.36697916666666663,-0.15388888888888894,6.7450000000000045],[-0.37083333333333335,-0.1111111111111111,6.769699999809276],[-0.37083333333333335,-0.1111111111111111,6.7767999997139015],[-0.35520833333333335,-0.0801851851851852,6.793500000000009],[-0.3358333333333333,-0.09259259259259259,6.812099999904632],[-0.29333333333333333,-0.08981481481481482,6.827799999713903],[-0.2508333333333333,-0.08703703703703704,6.843399999618541],[-0.21020833333333327,-0.09759259259259258,6.860099999904634],[-0.16958333333333328,-0.1081481481481481,6.8770000000000095],[-0.15135416666666662,-0.15055555555555558,6.894299999713908],[-0.13312499999999997,-0.19296296296296295,6.912299999713909],[-0.09468749999999998,-0.2375925925925926,6.927299999713895],[-0.05625,-0.2822222222222222,6.944000000000003],[-0.03968750000000002,-0.3081481481481481,6.960399999618531],[-0.02312500000000005,-0.334074074074074,6.979299999713902],[-0.014791666666666713,-0.3466666666666666,6.993699999809266],[-0.005520833333333286,-0.3655555555555555,7.013799999713896],[-0.0013541666666666192,-0.3725925925925926,7.030299999713904],[0.00302083333333331,-0.3646296296296296,7.046199999809275],[0.014374999999999952,-0.3496296296296296,7.064299999713896],[0.03979166666666671,-0.3490740740740741,7.081699999809274],[0.03979166666666671,-0.3490740740740741,7.093500000000006],[0.016458333333333287,-0.37222222222222223,7.110299999713902],[0.021354166666666667,-0.3822222222222222,7.129199999809273],[0.00791666666666669,-0.3648148148148148,7.143699999809272],[-0.005520833333333286,-0.34740740740740744,7.160299999713899],[-0.005520833333333286,-0.34740740740740744,7.176799999713907],[0.005833333333333357,-0.34888888888888886,7.1935],[0.016250000000000025,-0.3440740740740741,7.214799999713904],[-0.01572916666666669,-0.37333333333333335,7.22969999980927],[-0.025520833333333333,-0.387037037037037,7.24589999961853],[-0.051770833333333384,-0.392037037037037,7.260799999713896],[-0.09208333333333331,-0.38259259259259265,7.278899999618531],[-0.08489583333333334,-0.3816666666666667,7.2941999998092655],[-0.10593750000000005,-0.39388888888888884,7.311000000000007],[-0.12156250000000005,-0.4009259259259259,7.328299999713906],[-0.13718750000000005,-0.40796296296296297,7.345500000000001],[-0.16531250000000006,-0.4264814814814815,7.360299999713902],[-0.19156249999999997,-0.4412962962962963,7.376799999713896],[-0.14333333333333337,-0.3861111111111111,7.393699999809272],[-0.15197916666666664,-0.372037037037037,7.414500000000004],[-0.14750000000000002,-0.3624074074074074,7.4315],[-0.14854166666666668,-0.36148148148148146,7.44739999961854],[-0.15677083333333333,-0.3442592592592592,7.462899999618529],[-0.16135416666666663,-0.33351851851851855,7.477099999904638],[-0.16208333333333336,-0.3007407407407407,7.493500000000012],[-0.15458333333333332,-0.2705555555555556,7.5138999996185305],[-0.15843750000000004,-0.2235185185185185,7.528799999713897],[-0.18177083333333333,-0.17888888888888893,7.545799999713907],[-0.23718750000000005,-0.17018518518518513,7.560399999618539],[-0.221875,-0.18870370370370365,7.576899999618533],[-0.21281249999999996,-0.20333333333333337,7.593500000000006],[-0.21281249999999996,-0.20333333333333337,7.610199999809268],[-0.19739583333333333,-0.20999999999999996,7.626799999713896],[-0.16124999999999995,-0.11500000000000005,7.643799999713906],[-0.16124999999999995,-0.11500000000000005,7.660199999809265],[-0.1438541666666667,-0.03888888888888889,7.676899999618541],[-0.11177083333333329,-0.003333333333333249,7.6935],[-0.08843749999999997,0.023148148148148147,7.713299999713897],[-0.07916666666666666,0.04148148148148144,7.730500000000006],[-0.07916666666666666,0.04148148148148144,7.746599999904632],[-0.027187500000000024,0.0551851851851851,7.760099999904639],[0.033958333333333354,0.08148148148148149,7.777099999904635],[0.04802083333333336,0.1455555555555556,7.793500000000009],[0.04031250000000005,0.2007407407407407,7.812599999904634],[0.03177083333333333,0.2566666666666667,7.826799999713899],[0.01583333333333338,0.25500000000000006,7.843399999618541],[0.014999999999999977,0.27870370370370373,7.860099999904634],[0.015625,0.31370370370370365,7.876799999713896],[0.016770833333333356,0.3603703703703704,7.893399999618538],[0.03208333333333328,0.34814814814814815,7.910099999904631]]","[0.00019999980926854732,0.05909999990463177,0.08239999961853073,0.09850000000000136,0.11589999961853437,0.12419999980926377,0.14849999999999852,0.15500000000000114,0.1817999997139026,0.18850000000000477,0.2153999996185405,0.22350000000000136,0.2468999996185346,0.2528999996185348,0.2787999997138968,0.2856999998092675,0.3123999996185347,0.32009999990464166,0.3456999998092698,0.35239999961854096,0.38000000000000966,0.38739999961853755,0.413099999904631,0.420099999904636,0.4453999996185303,0.45209999990463245,0.4788999996185339,0.4863999996185413,0.5123999996185375,0.5195999999046421,0.5455999999046384,0.5526999998092634,0.5788999996185282,0.5875000000000057,0.6129999999999995,0.6200000000000045,0.6455999999046327,0.6523999996185381,0.679000000000002,0.6865999999046437,0.7138999996185333,0.7211999998092722,0.7455999999046412,0.752599999904632,0.7777999997139062,0.7853999996185337,0.8125999999046343,0.8198999996185279,0.8455000000000013,0.8520999999046381,0.8776999998092663,0.8851999998092737,0.9125999999046428,0.9198999996185364,0.9442999997139054,0.9512999997138962,0.9775999999046405,0.9852999997139023,1.0123999996185375,1.0195000000000078,1.0444999999999993,1.0517999997139071,1.0777999997139034,1.0859999999999985,1.113500000000002,1.1205999999046412,1.1445000000000078,1.151599999904633,1.1777999997138977,1.1885000000000048,1.213799999713899,1.2212999997139065,1.2443999996185369,1.2520000000000095,1.2800999999046354,1.2875999999046428,1.3133999996185395,1.3206999998092641,1.3466999998092746,1.3540999999046335,1.3796999998092758,1.3867999997139009,1.4133999996185338,1.4221999998092656,1.4268999996185414,1.445999999999998,1.4795000000000016,1.4860999999046385,1.5127999997139057,1.520699999809267,1.5468999996185318,1.5536999998092682,1.5792999997138963,1.5858999996185332,1.610899999618539,1.618699999809266,1.6460000000000008,1.652699999809272,1.6776999998092634,1.6846999998092684,1.7109999999999985,1.7188999996185288,1.7460999999046436,1.7528999996185348,1.7800999999046354,1.7868999996185408,1.812899999618537,1.8205000000000098,1.846500000000006,1.8537999997138996,1.8776999998092663,1.8847999997139055,1.91419999980927,1.9215000000000089,1.9457999997138984,1.952299999713901,1.979299999713902,1.9860000000000042,2.013699999809276,2.0227999997138966,2.049099999904641,2.056899999618537,2.0826999998092646,2.089899999618538,2.116199999809268,2.1237999997138957,2.149000000000001,2.156399999618529,2.1827999997139074,2.1901999998092663,2.2005999999046395,2.2343999996185318,2.2423999996185415,2.2660000000000053,2.273699999809267,2.2988999996185413,2.3064999999999998,2.334000000000003,2.343500000000006,2.3663999996185368,2.3743999996185323,2.4072999997138993,2.4168999996185363,2.426799999713907,2.4435000000000002,2.4601999998092765,2.4817999997138998,2.4965000000000117,2.513699999809276,2.529299999713899,2.549099999904641,2.560199999809271,2.576899999618533,2.5940000000000083,2.6165999999046363,2.6267999997138958,2.643799999713906,2.660199999809265,2.6768999996185414,2.6965999999046346,2.7132999997138967,2.7310000000000088,2.752099999904644,2.7605999999046418,2.7777999997139062,2.7935000000000088,2.810599999904639,2.828799999713908,2.84359999990464,2.860199999809268,2.8785000000000025,2.8935999999046373,2.9110999999046356,2.9268999996185414,2.9460999999046322,2.9605000000000103,2.979299999713902,2.9935000000000116,3.0146999998092667,3.0296999998092673,3.043599999904643,3.060199999809271,3.0791999998092763,3.09359999990464,3.110500000000002,3.1270000000000095,3.1451999998092646,3.160199999809265,3.177099999904641,3.196399999618535,3.2131999998092766,3.227000000000004,3.2437999997139,3.263399999618528,3.2775999999046377,3.293699999809263,3.315899999618537,3.331000000000003,3.3437999997139087,3.360199999809268,3.383199999809264,3.398599999904633,3.4105999999046333,3.431199999809266,3.4468999996185374,3.461599999904635,3.480299999713907,3.494399999618537,3.5120999999046347,3.527299999713904,3.5462999997139093,3.5605000000000047,3.576999999999998,3.5965999999046403,3.610599999904636,3.627099999904644,3.646500000000003,3.660499999999999,3.678199999809266,3.693799999713903,3.7108999996185332,3.7271999998092724,3.744099999904634,3.7601999998092737,3.777399999618538,3.7935000000000088,3.8137999997139076,3.82959999990463,3.847599999904631,3.861599999904641,3.8785000000000025,3.893500000000003,3.9103999996185337,3.926799999713907,3.9461999998092665,3.9612999997139013,3.978599999904631,3.997399999618537,4.014499999999998,4.031000000000006,4.048899999618541,4.064299999713896,4.079000000000008,4.09359999990464,4.1258999996185395,4.134599999904637,4.143699999809272,4.160399999618534,4.1806999998092635,4.200299999713906,4.215500000000006,4.227000000000004,4.247099999904634,4.260399999618528,4.277000000000001,4.293699999809263,4.3152999997139005,4.3270999999046325,4.3436999998092745,4.36489999961853,4.3770000000000095,4.393699999809272,4.414399999618539,4.427199999809275,4.443699999809269,4.4601999998092765,4.4790999999046335,4.4937999997139,4.510599999904642,4.527099999904635,4.545699999809273,4.560399999618539,4.576999999999998,4.59359999990464,4.618000000000009,4.6270000000000095,4.645599999904633,4.660299999713899,4.679199999809271,4.693699999809269,4.71050000000001,4.730000000000004,4.7457999997138955,4.760399999618528,4.779000000000011,4.793699999809263,4.810699999809273,4.8270999999046325,4.845899999618538,4.860299999713902,4.8770000000000095,4.8965999999046375,4.911899999618541,4.927099999904641,4.946299999713901,4.96259999990464,4.979799999713904,4.998599999904641,5.010299999713908,5.027399999618538,5.049000000000007,5.06439999961853,5.080500000000001,5.094599999904631,5.115299999713898,5.130199999809264,5.145699999809267,5.160399999618534,5.181199999809266,5.195799999713898,5.210899999618533,5.227199999809272,5.243500000000012,5.262500000000003,5.2805000000000035,5.299699999809263,5.310299999713905,5.327199999809267,5.348799999713904,5.365399999618532,5.37689999961853,5.393599999904637,5.414399999618539,5.430500000000009,5.452399999618535,5.4601999998092765,5.476799999713904,5.495599999904641,5.510599999904642,5.5267999997139015,5.543500000000009,5.560199999809271,5.57950000000001,5.595399999618536,5.614799999713895,5.630099999904644,5.6447999997138965,5.660099999904631,5.676899999618541,5.6935,5.711799999713904,5.727500000000006,5.744899999618539,5.760199999809274,5.778699999809277,5.793399999618529,5.813000000000002,5.82950000000001,5.8455999999046355,5.860199999809268,5.87689999961853,5.89409999990464,5.91209999990464,5.928699999809268,5.9465,5.962099999904638,5.980399999618541,5.994599999904636,6.010299999713908,6.026899999618536,6.043500000000009,6.060199999809271,6.076799999713899,6.09359999990464,6.110299999713902,6.126799999713896,6.143599999904637,6.160199999809265,6.179099999904636,6.193899999618537,6.212199999809272,6.227000000000004,6.247699999809271,6.260299999713908,6.276899999618536,6.293699999809263,6.314799999713898,6.326999999999998,6.343899999618529,6.365000000000009,6.3770000000000095,6.393599999904637,6.416000000000011,6.427000000000007,6.445599999904644,6.460299999713897,6.479500000000002,6.4957999997138955,6.512099999904635,6.529799999713902,6.544499999999999,6.560299999713905,6.576999999999998,6.597599999904631,6.6155000000000115,6.630899999618535,6.646399999618538,6.660399999618534,6.676899999618541,6.694199999809271,6.712000000000003,6.727899999618529,6.7450000000000045,6.769699999809276,6.7767999997139015,6.793500000000009,6.812099999904632,6.827799999713903,6.843399999618541,6.860099999904634,6.8770000000000095,6.894299999713908,6.912299999713909,6.927299999713895,6.944000000000003,6.960399999618531,6.979299999713902,6.993699999809266,7.013799999713896,7.030299999713904,7.046199999809275,7.064299999713896,7.081699999809274,7.093500000000006,7.110299999713902,7.129199999809273,7.143699999809272,7.160299999713899,7.176799999713907,7.1935,7.214799999713904,7.22969999980927,7.24589999961853,7.260799999713896,7.278899999618531,7.2941999998092655,7.311000000000007,7.328299999713906,7.345500000000001,7.360299999713902,7.376799999713896,7.393699999809272,7.414500000000004,7.4315,7.44739999961854,7.462899999618529,7.477099999904638,7.493500000000012,7.5138999996185305,7.528799999713897,7.545799999713907,7.560399999618539,7.576899999618533,7.593500000000006,7.610199999809268,7.626799999713896,7.643799999713906,7.660199999809265,7.676899999618541,7.6935,7.713299999713897,7.730500000000006,7.746599999904632,7.760099999904639,7.777099999904635,7.793500000000009,7.812599999904634,7.826799999713899,7.843399999618541,7.860099999904634,7.876799999713896,7.893399999618538,7.910099999904631]","[1731993029308,1731993029356,1731993029380,1731993029396,1731993029413,1731993029422,1731993029446,1731993029452,1731993029479,1731993029486,1731993029513,1731993029521,1731993029544,1731993029550,1731993029576,1731993029583,1731993029610,1731993029617,1731993029643,1731993029650,1731993029677,1731993029685,1731993029710,1731993029717,1731993029743,1731993029749,1731993029776,1731993029784,1731993029810,1731993029817,1731993029843,1731993029850,1731993029876,1731993029885,1731993029910,1731993029917,1731993029943,1731993029950,1731993029976,1731993029984,1731993030011,1731993030019,1731993030043,1731993030050,1731993030075,1731993030083,1731993030110,1731993030117,1731993030143,1731993030149,1731993030175,1731993030182,1731993030210,1731993030217,1731993030242,1731993030249,1731993030275,1731993030282,1731993030310,1731993030317,1731993030342,1731993030349,1731993030375,1731993030383,1731993030411,1731993030418,1731993030442,1731993030449,1731993030475,1731993030486,1731993030511,1731993030519,1731993030542,1731993030549,1731993030577,1731993030585,1731993030611,1731993030618,1731993030644,1731993030651,1731993030677,1731993030684,1731993030711,1731993030719,1731993030724,1731993030743,1731993030777,1731993030783,1731993030810,1731993030818,1731993030844,1731993030851,1731993030877,1731993030883,1731993030908,1731993030916,1731993030943,1731993030950,1731993030975,1731993030982,1731993031008,1731993031016,1731993031043,1731993031050,1731993031077,1731993031084,1731993031110,1731993031118,1731993031144,1731993031151,1731993031175,1731993031182,1731993031211,1731993031219,1731993031243,1731993031250,1731993031277,1731993031283,1731993031311,1731993031320,1731993031346,1731993031354,1731993031380,1731993031387,1731993031414,1731993031421,1731993031446,1731993031454,1731993031480,1731993031487,1731993031498,1731993031532,1731993031540,1731993031563,1731993031571,1731993031596,1731993031604,1731993031631,1731993031641,1731993031664,1731993031672,1731993031705,1731993031714,1731993031724,1731993031741,1731993031757,1731993031779,1731993031794,1731993031811,1731993031827,1731993031846,1731993031857,1731993031874,1731993031891,1731993031914,1731993031924,1731993031941,1731993031957,1731993031974,1731993031994,1731993032011,1731993032028,1731993032049,1731993032058,1731993032075,1731993032091,1731993032108,1731993032126,1731993032141,1731993032157,1731993032176,1731993032191,1731993032208,1731993032224,1731993032243,1731993032258,1731993032277,1731993032291,1731993032312,1731993032327,1731993032341,1731993032357,1731993032376,1731993032391,1731993032408,1731993032424,1731993032442,1731993032457,1731993032474,1731993032494,1731993032511,1731993032524,1731993032541,1731993032561,1731993032575,1731993032591,1731993032613,1731993032628,1731993032641,1731993032657,1731993032681,1731993032696,1731993032708,1731993032729,1731993032744,1731993032759,1731993032778,1731993032792,1731993032809,1731993032825,1731993032844,1731993032858,1731993032874,1731993032894,1731993032908,1731993032924,1731993032944,1731993032958,1731993032975,1731993032991,1731993033008,1731993033024,1731993033041,1731993033057,1731993033075,1731993033091,1731993033111,1731993033127,1731993033145,1731993033159,1731993033176,1731993033191,1731993033208,1731993033224,1731993033243,1731993033259,1731993033276,1731993033295,1731993033312,1731993033328,1731993033346,1731993033362,1731993033376,1731993033391,1731993033423,1731993033432,1731993033441,1731993033458,1731993033478,1731993033498,1731993033513,1731993033524,1731993033544,1731993033558,1731993033574,1731993033591,1731993033613,1731993033624,1731993033641,1731993033662,1731993033674,1731993033691,1731993033712,1731993033724,1731993033741,1731993033757,1731993033776,1731993033791,1731993033808,1731993033824,1731993033843,1731993033858,1731993033874,1731993033891,1731993033915,1731993033924,1731993033943,1731993033958,1731993033976,1731993033991,1731993034008,1731993034027,1731993034043,1731993034058,1731993034076,1731993034091,1731993034108,1731993034124,1731993034143,1731993034158,1731993034174,1731993034194,1731993034209,1731993034224,1731993034244,1731993034260,1731993034277,1731993034296,1731993034308,1731993034325,1731993034346,1731993034362,1731993034378,1731993034392,1731993034413,1731993034427,1731993034443,1731993034458,1731993034479,1731993034493,1731993034508,1731993034525,1731993034541,1731993034560,1731993034578,1731993034597,1731993034608,1731993034624,1731993034646,1731993034663,1731993034674,1731993034691,1731993034712,1731993034728,1731993034750,1731993034757,1731993034774,1731993034793,1731993034808,1731993034824,1731993034841,1731993034857,1731993034877,1731993034893,1731993034912,1731993034927,1731993034942,1731993034957,1731993034974,1731993034991,1731993035009,1731993035025,1731993035042,1731993035057,1731993035076,1731993035091,1731993035110,1731993035127,1731993035143,1731993035157,1731993035174,1731993035191,1731993035209,1731993035226,1731993035244,1731993035259,1731993035278,1731993035292,1731993035308,1731993035324,1731993035341,1731993035357,1731993035374,1731993035391,1731993035408,1731993035424,1731993035441,1731993035457,1731993035476,1731993035491,1731993035509,1731993035524,1731993035545,1731993035558,1731993035574,1731993035591,1731993035612,1731993035624,1731993035641,1731993035662,1731993035674,1731993035691,1731993035713,1731993035724,1731993035743,1731993035758,1731993035777,1731993035793,1731993035809,1731993035827,1731993035842,1731993035858,1731993035874,1731993035895,1731993035913,1731993035928,1731993035944,1731993035958,1731993035974,1731993035991,1731993036009,1731993036025,1731993036042,1731993036067,1731993036074,1731993036091,1731993036109,1731993036125,1731993036141,1731993036157,1731993036174,1731993036192,1731993036210,1731993036225,1731993036241,1731993036258,1731993036277,1731993036291,1731993036311,1731993036328,1731993036343,1731993036362,1731993036379,1731993036391,1731993036408,1731993036426,1731993036441,1731993036458,1731993036474,1731993036491,1731993036512,1731993036527,1731993036543,1731993036558,1731993036576,1731993036591,1731993036608,1731993036626,1731993036643,1731993036658,1731993036674,1731993036691,1731993036712,1731993036729,1731993036745,1731993036760,1731993036774,1731993036791,1731993036811,1731993036826,1731993036843,1731993036858,1731993036874,1731993036891,1731993036907,1731993036924,1731993036941,1731993036957,1731993036974,1731993036991,1731993037011,1731993037028,1731993037044,1731993037057,1731993037074,1731993037091,1731993037110,1731993037124,1731993037141,1731993037157,1731993037174,1731993037191,1731993037207]","[[929.1,520.5],[929.1,520.5],[938.8,520.1],[938.8,520.1],[948.7,522.2],[948.7,522.2],[957.3,525.5],[957.3,525.5],[965.5,513.9],[965.5,513.9],[997.3,525.4],[997.3,525.4],[1020.5,513],[1020.5,513],[1036.7,499.1],[1036.7,499.1],[1079.2,480.5],[1079.2,480.5],[1083.1,488],[1083.1,488],[1086.5,489.9],[1086.5,489.9],[1093,498.3],[1093,498.3],[1088.9,493.8],[1088.9,493.8],[1067.4,539.8],[1067.4,539.8],[1072,598.5],[1072,598.5],[1055,602.3],[1055,602.3],[1027.6,638.2],[1027.6,638.2],[1016.8,644],[1016.8,644],[980.8,658.2],[980.8,658.2],[973.1,660.1],[973.1,660.1],[945.6,663],[945.6,663],[940.8,652.5],[940.8,652.5],[958.7,641.5],[958.7,641.5],[988.8,591.1],[988.8,591.1],[984.2,534.8],[984.2,534.8],[1018.8,524.8],[1018.8,524.8],[1051.3,508.6],[1051.3,508.6],[1077.1,499.3],[1077.1,499.3],[1120.7,497.3],[1120.7,497.3],[1141.1,470],[1141.1,470],[1179.5,462.2],[1179.5,462.2],[1184.1,457.1],[1184.1,457.1],[1177.5,469.8],[1177.5,469.8],[1173.6,468.7],[1173.6,468.7],[1123.7,477.7],[1123.7,477.7],[1043.8,477.5],[1043.8,477.5],[967.3,488.5],[967.3,488.5],[869.6,508.6],[869.6,508.6],[768.9,508.9],[768.9,508.9],[695.5,540.5],[695.5,540.5],[617,546.5],[617,546.5],[532.2,555.9],[532.2,555.9],[532.2,555.9],[532.2,555.9],[466.9,576.8],[466.9,576.8],[404.5,598.6],[404.5,598.6],[419.8,599.7],[419.8,599.7],[481.5,603.1],[481.5,603.1],[550.8,598],[550.8,598],[623,608.7],[623,608.7],[694.9,615.3],[694.9,615.3],[763.9,613.4],[763.9,613.4],[848.6,633.9],[848.6,633.9],[921.1,644.1],[921.1,644.1],[984.6,645.4],[984.6,645.4],[1052.5,648.5],[1052.5,648.5],[1081.6,666.9],[1081.6,666.9],[1074.4,673.6],[1074.4,673.6],[1056.5,694.8],[1056.5,694.8],[1055.5,701.2],[1055.5,701.2],[1058.8,719.8],[1058.8,719.8],[1044.6,747.5],[1044.6,747.5],[1027.8,751.7],[1027.8,751.7],[1039.2,771.9],[1039.2,771.9],[1037.8,780.5],[1037.8,780.5],[1012.2,783.9],[1012.2,783.9],[1012.2,783.9],[968.7,794.4],[968.7,794.4],[932.9,809.3],[932.9,809.3],[890.6,811.9],[890.6,811.9],[839,827.7],[839,827.7],[777.7,833.1],[777.7,833.1],[736.9,805.4],[736.9,805.4],[692.2,782],[692.2,782],[634.7,754.9],[601.9,741.2],[591.8,741.9],[605.6,736.8],[628.9,714.8],[657.4,692],[657.4,692],[703.1,669.9],[748.3,655],[779.2,656.5],[779.2,656.5],[823.2,681.5],[881.6,695.6],[930,667.6],[976.4,629.2],[984.8,632.5],[977.9,651.3],[977.9,651.3],[1002.6,668.2],[1001.2,675.1],[1017.6,668.8],[1044.6,668.1],[1083.2,641.4],[1068.8,651.6],[1056.8,708.4],[1044.8,765.2],[1072,772.8],[1099.2,780.4],[1089.6,792.5],[1092,805.1],[1090.1,822.5],[1084.8,852.7],[1055.1,894.5],[1049.2,896],[1037.6,880.1],[1037.6,880.1],[1045.5,863.6],[1035.6,851.6],[1035.6,854.9],[1035.4,841.9],[1050.7,835.2],[1042.4,849.9],[1026.3,831],[1026.3,831],[1016.5,808],[1015.5,799.3],[1015.5,799.3],[1008.2,800.9],[977.2,788.2],[974.1,790.1],[969.7,780.3],[970.7,784.2],[962.2,783.1],[962.2,783.1],[948.2,773.5],[945.4,784.7],[911.7,809.8],[911.7,809.8],[908,818.8],[922.8,811.3],[941.8,818.7],[952.4,807.9],[943.8,802.7],[927.8,787],[912.4,771.1],[901.2,737.7],[910.5,724.5],[941.9,708.4],[949.3,708.4],[949.3,708.4],[941.5,709.9],[941.5,709.9],[933.5,725.6],[940.5,729.9],[953.6,742.4],[969.9,767.3],[987.4,795.5],[1015.1,826.2],[1017.3,844.9],[1022,856.7],[1048.8,850],[1063.8,844.8],[1080.6,831.6],[1081.1,818.4],[1086.1,787.8],[1110.7,769.3],[1134.1,747.5],[1141.8,736.2],[1154.5,716.7],[1174,681.4],[1149.7,680.1],[1128.9,678.6],[1106.5,670.9],[1088.4,686.5],[1090.3,676.7],[1067.6,674.4],[1034.5,684.1],[1032.8,663.2],[1025.9,652.4],[1012.2,657.4],[1012.2,657.4],[1017.1,660.7],[1031.8,678.8],[1046.5,696.9],[1051.9,680],[1051.9,680],[1034.6,695.1],[1034.6,695.1],[1016.2,692.7],[1016.2,692.7],[1012.2,673.6],[1012.2,673.6],[1006.1,663.2],[1006.1,663.2],[1020.2,648.5],[1020.2,648.5],[1012.2,626.3],[1012.2,626.3],[1009.3,595],[1009.3,595],[1006.6,555.4],[1014.3,509.3],[1000.9,505.6],[1000.9,505.6],[979.3,492],[980.5,472.8],[974.1,468.4],[942.4,487.9],[921,491.7],[921,491.7],[903.4,494.7],[894.6,490.2],[881.6,485.2],[881.6,485.2],[850.6,487.6],[846.8,482.7],[853.9,481.1],[831.7,483.7],[813.1,476.2],[767.1,444.3],[760,428.6],[771.2,421.2],[762.6,431.4],[762.6,431.4],[762.2,426.2],[755.5,424.9],[727.2,413.1],[730.5,400.9],[760.1,381.5],[789.7,362.1],[844.2,362.6],[831.3,354.4],[818.4,346.2],[818.4,346.2],[817.7,332.1],[830.8,329.3],[848.5,320.2],[849.1,313.4],[858.3,313.2],[858.6,337.3],[848,344.2],[833.1,339.4],[821.4,337],[835.4,315.6],[841.9,318.1],[826.4,324.7],[803.4,341.4],[816.4,360.9],[829.1,375.3],[841.2,370],[849.5,378.9],[849.5,378.9],[879.3,405],[903.3,422.9],[904.9,463.6],[904.9,463.6],[931.3,478.1],[959.2,472.3],[1003.9,457.9],[1031.5,446.8],[1031.5,446.8],[999.9,438.2],[1014.9,430],[1057.8,416.4],[1100.7,397.2],[1133.2,389.8],[1170.8,379.3],[1168.5,368.2],[1151.1,382],[1133.7,395.8],[1129.1,394.6],[1143.8,389.8],[1114.5,392.8],[1072,404.2],[1055.4,422.1],[1055,436.4],[1031.3,437.2],[1032.6,432.2],[1045.3,419.1],[1071.3,412.6],[1080.9,419.5],[1100.3,435.3],[1117.1,442.9],[1151.8,465.6],[1155.5,462],[1146.6,463.4],[1157.1,474.5],[1160.6,472.3],[1171,488.2],[1148.3,496.3],[1146.3,502.7],[1130.5,497.6],[1130.5,497.6],[1114.7,492.5],[1100.2,468.2],[1090.8,463.7],[1094.2,468],[1093.1,475.4],[1093.1,475.4],[1096.3,502.6],[1077.9,520.3],[1079.3,539.2],[1055.1,584.8],[1034.9,633],[995,643],[948,636.5],[897.6,645.4],[897.6,645.4],[864.1,631.3],[864.1,631.3],[840.1,618.6],[840.1,618.6],[780.8,584.8],[780.8,584.8],[730.9,539.7],[730.9,539.7],[684.4,500.2],[684.4,500.2],[690.2,436.9],[686.2,355],[695.3,306.2],[698.6,273.8],[703,251.4],[690.3,238.2],[686.9,206.8],[706.7,201.3],[722.1,242.5],[722.1,242.5],[730.4,256.6],[717.5,245.4],[710.8,276.2],[693.4,311.1],[669.7,350.2],[655,364.7],[640.3,379.2],[623.1,423],[615.1,455.3],[607.7,456.9],[604,480],[604,480],[619,496.7],[637.6,490],[678.4,491.5],[719.2,493],[758.2,487.3],[797.2,481.6],[814.7,458.7],[832.2,435.8],[869.1,411.7],[906,387.6],[921.9,373.6],[937.8,359.6],[945.8,352.8],[954.7,342.6],[958.7,338.8],[962.9,343.1],[973.8,351.2],[998.2,351.5],[998.2,351.5],[975.8,339],[980.5,333.6],[967.6,343],[954.7,352.4],[954.7,352.4],[965.6,351.6],[975.6,354.2],[944.9,338.4],[935.5,331],[910.3,328.3],[871.6,333.4],[878.5,333.9],[858.3,327.3],[843.3,323.5],[828.3,319.7],[801.3,309.7],[776.1,301.7],[822.4,331.5],[814.1,339.1],[818.4,344.3],[817.4,344.8],[809.5,354.1],[805.1,359.9],[804.4,377.6],[811.6,393.9],[807.9,419.3],[785.5,443.4],[732.3,448.1],[747,438.1],[755.7,430.2],[755.7,430.2],[770.5,426.6],[805.2,477.9],[805.2,477.9],[821.9,519],[852.7,538.2],[875.1,552.5],[884,562.4],[884,562.4],[933.9,569.8],[992.6,584],[1006.1,618.6],[998.7,648.4],[990.5,678.6],[975.2,677.7],[974.4,690.5],[975,709.4],[976.1,734.6],[990.8,728]]","[-0.2,0.6000000000000001]","[0.2,0.6000000000000001]","[0.6000000000000001,0.6000000000000001]","[-0.6000000000000001,-0.2]","[-0.6000000000000001,-0.6000000000000001]","[-0.6000000000000001,0.2]","[-0.2,-0.2]","[0.2,-0.2]","[0.6000000000000001,-0.2]","[-0.2,-0.6000000000000001]","[0.2,-0.6000000000000001]","[0.6000000000000001,-0.6000000000000001]","[-0.2,0.2]","[0.2,0.2]","[0.6000000000000001,0.2]",0,0,0,0,1,1,Monitor,20,20,7,2,70,4,2,70,4
