inst1_resp.keys,inst1_resp.rt,calibrationMouse.x,calibrationMouse.y,calibrationMouse.leftButton,calibrationMouse.midButton,calibrationMouse.rightButton,calibrationClick.x,calibrationClick.y,calibrationClick.leftButton,calibrationClick.midButton,calibrationClick.rightButton,calibrationClick.clicked_name,trialsc.thisRepN,trialsc.thisTrialN,trialsc.thisN,trialsc.thisIndex,trialsc.ran,calibration_x,calibration_y,participant,session,date,expName,psychopyVersion,OS,frameRate,ScreenRes_pixels,Camera_pixels,mouse_2.x,mouse_2.y,mouse_2.leftButton,mouse_2.midButton,mouse_2.rightButton,mouse_2.time,mouse_2.clicked_name,mouse.x,mouse.y,mouse.leftButton,mouse.midButton,mouse.rightButton,mouse.time,mouse.clicked_name,Choice,Trial,TrialDuration,MOUSE_GAZE,ET_GAZE,ET_GAZE_x_T,time,unixTime,ET_GAZE_NF,Loc_Bus_label,Loc_Metro_label,Loc_RH_label,Loc_Cost_label,Loc_Travel_label,Loc_Comfort_label,Loc_Bus_cost,Loc_Metro_cost,Loc_RH_cost,Loc_Bus_travel,Loc_Metro_travel,Loc_RH_travel,Loc_Bus_comfort,Loc_Metro_comfort,Loc_RH_comfort,trials.thisRepN,trials.thisTrialN,trials.thisN,trials.thisIndex,trials.ran,Block,Device,RH_cost,RH_travel_time,RH_Comfort,metro_cost,metro_travel_time,metro_Comfort,Bus_cost,Bus_travel_time,Bus_Comfort
space,1.9845,-0.020833333,0.07037037,1,0,0,0.334375,0.666666667,1,0,0,calibration_square,0,0,0,18,1,0.33,0.67,47,001,2024-11-20_12h04.16.242,Attention_exp_legacy,2023.1.0,Win32,59.88023952,,,,,,,,,,,,,,,,,,,,,,,,,,,,,,,,,,,,,,,,,,,,,,,,,,,,,,,,
,,,,,,,0.333333333,-0.333333333,1,0,0,calibration_square,0,1,1,15,1,0.33,-0.33,47,001,2024-11-20_12h04.16.242,Attention_exp_legacy,2023.1.0,Win32,59.88023952,,,,,,,,,,,,,,,,,,,,,,,,,,,,,,,,,,,,,,,,,,,,,,,,,,,,,,,,
,,,,,,,-0.005208333,-0.67962963,1,0,0,calibration_square,0,2,2,9,1,0,-0.67,47,001,2024-11-20_12h04.16.242,Attention_exp_legacy,2023.1.0,Win32,59.88023952,,,,,,,,,,,,,,,,,,,,,,,,,,,,,,,,,,,,,,,,,,,,,,,,,,,,,,,,
,,,,,,,0.323958333,-0.664814815,1,0,0,calibration_square,0,3,3,14,1,0.33,-0.67,47,001,2024-11-20_12h04.16.242,Attention_exp_legacy,2023.1.0,Win32,59.88023952,,,,,,,,,,,,,,,,,,,,,,,,,,,,,,,,,,,,,,,,,,,,,,,,,,,,,,,,
,,,,,,,0.003125,-0.333333333,1,0,0,calibration_square,0,4,4,10,1,0,-0.33,47,001,2024-11-20_12h04.16.242,Attention_exp_legacy,2023.1.0,Win32,59.88023952,,,,,,,,,,,,,,,,,,,,,,,,,,,,,,,,,,,,,,,,,,,,,,,,,,,,,,,,
,,,,,,,0.334375,-0.001851852,1,0,0,calibration_square,0,5,5,16,1,0.33,0,47,001,2024-11-20_12h04.16.242,Attention_exp_legacy,2023.1.0,Win32,59.88023952,,,,,,,,,,,,,,,,,,,,,,,,,,,,,,,,,,,,,,,,,,,,,,,,,,,,,,,,
,,,,,,,-0.332291667,-0.32962963,1,0,0,calibration_square,0,6,6,5,1,-0.33,-0.33,47,001,2024-11-20_12h04.16.242,Attention_exp_legacy,2023.1.0,Win32,59.88023952,,,,,,,,,,,,,,,,,,,,,,,,,,,,,,,,,,,,,,,,,,,,,,,,,,,,,,,,
,,,,,,,-0.333333333,0.677777778,1,0,0,calibration_square,0,7,7,8,1,-0.33,0.67,47,001,2024-11-20_12h04.16.242,Attention_exp_legacy,2023.1.0,Win32,59.88023952,,,,,,,,,,,,,,,,,,,,,,,,,,,,,,,,,,,,,,,,,,,,,,,,,,,,,,,,
,,,,,,,-0.327083333,0.001851852,1,0,0,calibration_square,0,8,8,6,1,-0.33,0,47,001,2024-11-20_12h04.16.242,Attention_exp_legacy,2023.1.0,Win32,59.88023952,,,,,,,,,,,,,,,,,,,,,,,,,,,,,,,,,,,,,,,,,,,,,,,,,,,,,,,,
,,,,,,,-0.001041667,0.664814815,1,0,0,calibration_square,0,9,9,13,1,0,0.67,47,001,2024-11-20_12h04.16.242,Attention_exp_legacy,2023.1.0,Win32,59.88023952,,,,,,,,,,,,,,,,,,,,,,,,,,,,,,,,,,,,,,,,,,,,,,,,,,,,,,,,
,,,,,,,0.001041667,0.001851852,1,0,0,calibration_square,0,10,10,11,1,0,0,47,001,2024-11-20_12h04.16.242,Attention_exp_legacy,2023.1.0,Win32,59.88023952,,,,,,,,,,,,,,,,,,,,,,,,,,,,,,,,,,,,,,,,,,,,,,,,,,,,,,,,
,,,,,,,-0.663541667,-0.666666667,1,0,0,calibration_square,0,11,11,0,1,-0.67,-0.67,47,001,2024-11-20_12h04.16.242,Attention_exp_legacy,2023.1.0,Win32,59.88023952,,,,,,,,,,,,,,,,,,,,,,,,,,,,,,,,,,,,,,,,,,,,,,,,,,,,,,,,
,,,,,,,0.005208333,0.337037037,1,0,0,calibration_square,0,12,12,12,1,0,0.33,47,001,2024-11-20_12h04.16.242,Attention_exp_legacy,2023.1.0,Win32,59.88023952,,,,,,,,,,,,,,,,,,,,,,,,,,,,,,,,,,,,,,,,,,,,,,,,,,,,,,,,
,,,,,,,-0.671875,-0.001851852,1,0,0,calibration_square,0,13,13,2,1,-0.67,0,47,001,2024-11-20_12h04.16.242,Attention_exp_legacy,2023.1.0,Win32,59.88023952,,,,,,,,,,,,,,,,,,,,,,,,,,,,,,,,,,,,,,,,,,,,,,,,,,,,,,,,
,,,,,,,0.322916667,0.32962963,1,0,0,calibration_square,0,14,14,17,1,0.33,0.33,47,001,2024-11-20_12h04.16.242,Attention_exp_legacy,2023.1.0,Win32,59.88023952,,,,,,,,,,,,,,,,,,,,,,,,,,,,,,,,,,,,,,,,,,,,,,,,,,,,,,,,
,,,,,,,0.675,-0.674074074,1,0,0,calibration_square,0,15,15,20,1,0.67,-0.67,47,001,2024-11-20_12h04.16.242,Attention_exp_legacy,2023.1.0,Win32,59.88023952,,,,,,,,,,,,,,,,,,,,,,,,,,,,,,,,,,,,,,,,,,,,,,,,,,,,,,,,
,,,,,,,-0.328125,-0.666666667,1,0,0,calibration_square,0,16,16,4,1,-0.33,-0.67,47,001,2024-11-20_12h04.16.242,Attention_exp_legacy,2023.1.0,Win32,59.88023952,,,,,,,,,,,,,,,,,,,,,,,,,,,,,,,,,,,,,,,,,,,,,,,,,,,,,,,,
,,,,,,,0.670833333,0.666666667,1,0,0,calibration_square,0,17,17,19,1,0.67,0.67,47,001,2024-11-20_12h04.16.242,Attention_exp_legacy,2023.1.0,Win32,59.88023952,,,,,,,,,,,,,,,,,,,,,,,,,,,,,,,,,,,,,,,,,,,,,,,,,,,,,,,,
,,,,,,,-0.329166667,0.32962963,1,0,0,calibration_square,0,18,18,7,1,-0.33,0.33,47,001,2024-11-20_12h04.16.242,Attention_exp_legacy,2023.1.0,Win32,59.88023952,,,,,,,,,,,,,,,,,,,,,,,,,,,,,,,,,,,,,,,,,,,,,,,,,,,,,,,,
,,,,,,,-0.665625,0.337037037,1,0,0,calibration_square,0,19,19,3,1,-0.67,0.33,47,001,2024-11-20_12h04.16.242,Attention_exp_legacy,2023.1.0,Win32,59.88023952,,,,,,,,,,,,,,,,,,,,,,,,,,,,,,,,,,,,,,,,,,,,,,,,,,,,,,,,
,,,,,,,-0.679166667,-0.324074074,1,0,0,calibration_square,0,20,20,1,1,-0.67,-0.33,47,001,2024-11-20_12h04.16.242,Attention_exp_legacy,2023.1.0,Win32,59.88023952,,,,,,,,,,,,,,,,,,,,,,,,,,,,,,,,,,,,,,,,,,,,,,,,,,,,,,,,
,,,,,,,,,,,,,,,,,,,,47,001,2024-11-20_12h04.16.242,Attention_exp_legacy,2023.1.0,Win32,59.88023952,"[1920,1080]","[640,480]",[-0.016666666666666666],[-0.4962962962962963],[1],[0],[0],[1.7839000000953646],"[""StartButton""]",[-0.20625],[0.6129629629629629],[1],[0],[0],[3.313900000095373],"[""Bus_label""]",Bus_label,1,4.3348,"[[-0.026041666666666668,0.20185185185185187],[-0.026041666666666668,0.20185185185185187],[-0.026041666666666668,0.20185185185185187],[-0.026041666666666668,0.20185185185185187],[-0.026041666666666668,0.20185185185185187],[-0.026041666666666668,0.20185185185185187],[-0.026041666666666668,0.20185185185185187],[-0.026041666666666668,0.20185185185185187],[-0.026041666666666668,0.20185185185185187],[-0.026041666666666668,0.20185185185185187],[-0.026041666666666668,0.20185185185185187],[-0.026041666666666668,0.20185185185185187],[-0.026041666666666668,0.20185185185185187],[-0.026041666666666668,0.20185185185185187],[-0.026041666666666668,0.20185185185185187],[-0.026041666666666668,0.20185185185185187],[-0.026041666666666668,0.20185185185185187],[-0.026041666666666668,0.20185185185185187],[-0.026041666666666668,0.20185185185185187],[-0.026041666666666668,0.20185185185185187],[-0.026041666666666668,0.20185185185185187],[-0.026041666666666668,0.20185185185185187],[-0.026041666666666668,0.20185185185185187],[-0.026041666666666668,0.20185185185185187],[-0.026041666666666668,0.20185185185185187],[-0.026041666666666668,0.20185185185185187],[-0.026041666666666668,0.20185185185185187],[-0.026041666666666668,0.20185185185185187],[-0.026041666666666668,0.20185185185185187],[-0.026041666666666668,0.20185185185185187],[-0.026041666666666668,0.20185185185185187],[-0.026041666666666668,0.20185185185185187],[-0.026041666666666668,0.20185185185185187],[-0.026041666666666668,0.20185185185185187],[-0.026041666666666668,0.20185185185185187],[-0.026041666666666668,0.20185185185185187],[-0.026041666666666668,0.20185185185185187],[-0.026041666666666668,0.20185185185185187],[-0.026041666666666668,0.20185185185185187],[-0.026041666666666668,0.20185185185185187],[-0.026041666666666668,0.20185185185185187],[-0.026041666666666668,0.20185185185185187],[-0.026041666666666668,0.20185185185185187],[-0.026041666666666668,0.20185185185185187],[-0.026041666666666668,0.20185185185185187],[-0.026041666666666668,0.20185185185185187],[-0.026041666666666668,0.20185185185185187],[-0.026041666666666668,0.2],[-0.026041666666666668,0.19814814814814816],[-0.026041666666666668,0.19814814814814816],[-0.026041666666666668,0.1962962962962963],[-0.026041666666666668,0.1962962962962963],[-0.027083333333333334,0.1962962962962963],[-0.029166666666666667,0.19444444444444445],[-0.03333333333333333,0.19444444444444445],[-0.0375,0.18703703703703703],[-0.042708333333333334,0.18703703703703703],[-0.05,0.18518518518518517],[-0.065625,0.17962962962962964],[-0.07916666666666666,0.17777777777777778],[-0.090625,0.17222222222222222],[-0.103125,0.17037037037037037],[-0.115625,0.16296296296296298],[-0.128125,0.15185185185185185],[-0.13854166666666667,0.13518518518518519],[-0.14166666666666666,0.12222222222222222],[-0.14583333333333334,0.1037037037037037],[-0.14583333333333334,0.08518518518518518],[-0.14583333333333334,0.05925925925925926],[-0.14583333333333334,0.025925925925925925],[-0.14270833333333333,-0.024074074074074074],[-0.13541666666666666,-0.06111111111111111],[-0.12395833333333334,-0.09814814814814815],[-0.10833333333333334,-0.13518518518518519],[-0.090625,-0.17592592592592593],[-0.07291666666666667,-0.2111111111111111],[-0.05625,-0.2462962962962963],[-0.03333333333333333,-0.2777777777777778],[-0.00625,-0.31296296296296294],[0.003125,-0.3277777777777778],[0.023958333333333335,-0.34629629629629627],[0.04791666666666667,-0.3611111111111111],[0.08645833333333333,-0.3888888888888889],[0.11354166666666667,-0.40555555555555556],[0.134375,-0.4166666666666667],[0.15625,-0.4222222222222222],[0.17604166666666668,-0.42962962962962964],[0.21458333333333332,-0.44074074074074077],[0.22916666666666666,-0.4425925925925926],[0.2520833333333333,-0.4425925925925926],[0.27395833333333336,-0.4425925925925926],[0.296875,-0.4462962962962963],[0.32916666666666666,-0.4462962962962963],[0.346875,-0.4462962962962963],[0.36354166666666665,-0.4462962962962963],[0.38333333333333336,-0.4462962962962963],[0.40520833333333334,-0.4444444444444444],[0.428125,-0.43703703703703706],[0.4479166666666667,-0.42962962962962964],[0.4625,-0.4222222222222222],[0.48020833333333335,-0.40925925925925927],[0.4947916666666667,-0.39814814814814814],[0.5125,-0.37962962962962965],[0.5354166666666667,-0.35555555555555557],[0.5458333333333333,-0.34629629629629627],[0.5510416666666667,-0.34074074074074073],[0.5645833333333333,-0.32592592592592595],[0.571875,-0.31851851851851853],[0.575,-0.31296296296296294],[0.5770833333333333,-0.3037037037037037],[0.578125,-0.29814814814814816],[0.5791666666666667,-0.29074074074074074],[0.5822916666666667,-0.2851851851851852],[0.5833333333333334,-0.2759259259259259],[0.5854166666666667,-0.26666666666666666],[0.5854166666666667,-0.25],[0.5854166666666667,-0.24259259259259258],[0.5854166666666667,-0.2222222222222222],[0.5854166666666667,-0.1537037037037037],[0.5802083333333333,-0.10740740740740741],[0.5770833333333333,-0.08333333333333333],[0.5697916666666667,-0.05],[0.5666666666666667,-0.03518518518518519],[0.5645833333333333,-0.02962962962962963],[0.5604166666666667,-0.007407407407407408],[0.559375,0],[0.5583333333333333,0.016666666666666666],[0.5552083333333333,0.03148148148148148],[0.553125,0.04814814814814815],[0.5510416666666667,0.05925925925925926],[0.546875,0.07962962962962963],[0.5458333333333333,0.09074074074074075],[0.54375,0.1],[0.5416666666666666,0.10925925925925926],[0.5385416666666667,0.12037037037037036],[0.534375,0.13333333333333333],[0.5270833333333333,0.14814814814814814],[0.5145833333333333,0.16296296296296298],[0.4895833333333333,0.19444444444444445],[0.48125,0.2037037037037037],[0.45416666666666666,0.22592592592592592],[0.4354166666666667,0.24259259259259258],[0.4197916666666667,0.2537037037037037],[0.40208333333333335,0.26296296296296295],[0.3875,0.2722222222222222],[0.36875,0.2814814814814815],[0.35,0.28888888888888886],[0.33125,0.29444444444444445],[0.3072916666666667,0.30925925925925923],[0.2864583333333333,0.3148148148148148],[0.26666666666666666,0.32037037037037036],[0.24895833333333334,0.3277777777777778],[0.22916666666666666,0.3388888888888889],[0.21041666666666667,0.34814814814814815],[0.18333333333333332,0.3592592592592593],[0.16041666666666668,0.3685185185185185],[0.13854166666666667,0.37222222222222223],[0.11041666666666666,0.37962962962962965],[0.078125,0.3888888888888889],[0.035416666666666666,0.3907407407407407],[-0.005208333333333333,0.3907407407407407],[-0.04583333333333333,0.3907407407407407],[-0.08020833333333334,0.39444444444444443],[-0.10416666666666667,0.40185185185185185],[-0.12395833333333334,0.4148148148148148],[-0.140625,0.42407407407407405],[-0.15625,0.4388888888888889],[-0.16666666666666666,0.45555555555555555],[-0.17291666666666666,0.4648148148148148],[-0.17708333333333334,0.4722222222222222],[-0.18229166666666666,0.48518518518518516],[-0.18645833333333334,0.4962962962962963],[-0.18958333333333333,0.5092592592592593],[-0.19479166666666667,0.5259259259259259],[-0.19791666666666666,0.5333333333333333],[-0.20104166666666667,0.5481481481481482],[-0.20208333333333334,0.55],[-0.20208333333333334,0.5592592592592592],[-0.203125,0.5648148148148148],[-0.20416666666666666,0.5666666666666667],[-0.20416666666666666,0.5666666666666667],[-0.20416666666666666,0.5685185185185185],[-0.20520833333333333,0.5722222222222222],[-0.20520833333333333,0.5722222222222222],[-0.20520833333333333,0.5740740740740741],[-0.20625,0.5777777777777777],[-0.20625,0.5814814814814815],[-0.20625,0.5907407407407408],[-0.20625,0.5944444444444444],[-0.20625,0.6],[-0.20625,0.6055555555555555],[-0.20625,0.6074074074074074],[-0.20625,0.6111111111111112],[-0.20625,0.6129629629629629],[-0.20625,0.6129629629629629],[-0.20625,0.6129629629629629],[-0.20625,0.6129629629629629],[-0.20625,0.6129629629629629],[-0.20625,0.6129629629629629],[-0.20625,0.6129629629629629],[-0.20625,0.6129629629629629],[-0.20625,0.6129629629629629],[-0.20625,0.6129629629629629],[-0.20625,0.6129629629629629],[-0.20625,0.6129629629629629],[-0.20625,0.6129629629629629],[-0.20625,0.6129629629629629],[-0.20625,0.6129629629629629],[-0.20625,0.6129629629629629],[-0.20625,0.6129629629629629],[-0.20625,0.6129629629629629],[-0.20625,0.6129629629629629],[-0.20625,0.6129629629629629],[-0.20625,0.6129629629629629],[-0.20625,0.6129629629629629],[-0.20625,0.6129629629629629],[-0.20625,0.6129629629629629],[-0.20625,0.6129629629629629],[-0.20625,0.6129629629629629],[-0.20625,0.6129629629629629],[-0.20625,0.6129629629629629],[-0.20625,0.6129629629629629],[-0.20625,0.6129629629629629],[-0.20625,0.6129629629629629],[-0.20625,0.6129629629629629],[-0.20625,0.6129629629629629],[-0.20625,0.6129629629629629],[-0.20625,0.6129629629629629],[-0.20625,0.6129629629629629],[-0.20625,0.6129629629629629],[-0.20625,0.6129629629629629],[-0.20625,0.6129629629629629],[-0.20625,0.6129629629629629],[-0.20625,0.6129629629629629],[-0.20625,0.6129629629629629],[-0.20625,0.6129629629629629],[-0.20625,0.6129629629629629],[-0.20625,0.6129629629629629],[-0.20625,0.6129629629629629],[-0.20625,0.6129629629629629],[-0.20625,0.6129629629629629],[-0.20625,0.6129629629629629],[-0.20625,0.6129629629629629],[-0.20625,0.6129629629629629],[-0.20625,0.6129629629629629],[-0.20625,0.6129629629629629],[-0.20625,0.6129629629629629],[-0.20625,0.6129629629629629],[-0.20625,0.6129629629629629],[-0.20625,0.6129629629629629],[-0.20625,0.6129629629629629],[-0.20625,0.6129629629629629],[-0.20625,0.6129629629629629],[-0.20625,0.6129629629629629],[-0.20625,0.6129629629629629],[-0.20625,0.6129629629629629],[-0.20625,0.6129629629629629],[-0.20625,0.6129629629629629],[-0.20625,0.6129629629629629]]","[[-0.08020833333333334,-0.06259259259259262],[-0.08020833333333334,-0.06259259259259262],[-0.00791666666666669,0.18925925925925935],[0.04541666666666669,0.31666666666666665],[0.09406249999999995,0.5488888888888889],[0.14354166666666662,0.6537037037037037],[0.14354166666666662,0.6537037037037037],[0.1946875000000001,0.8387037037037036],[0.22906250000000009,0.9135185185185184],[0.22906250000000009,0.9135185185185184],[0.25656249999999997,0.9135185185185184],[0.25656249999999997,0.9135185185185184],[0.24697916666666658,0.8907407407407407],[0.24697916666666658,0.8907407407407407],[0.23302083333333337,0.8212962962962963],[0.23302083333333337,0.8212962962962963],[0.20895833333333325,0.7183333333333333],[0.14322916666666666,0.3905555555555555],[0.14322916666666666,0.3905555555555555],[0.07989583333333337,0.1625925925925925],[0.02374999999999995,-0.12962962962962962],[-0.011458333333333333,-0.33370370370370367],[-0.05604166666666662,-0.6201851851851852],[-0.07531249999999995,-0.7762962962962963],[-0.07958333333333331,-0.8475925925925926],[-0.07062499999999995,-0.9516666666666667],[-0.06854166666666663,-1.0320370370370369],[-0.057291666666666664,-1.06],[-0.057187499999999974,-1.0781481481481483],[-0.04895833333333333,-1.0699999999999998],[-0.0390625,-1.0346296296296298],[-0.019375000000000024,-1.0385185185185184],[0.0068750000000000235,-1.0574074074074074],[0.035208333333333286,-1.0416666666666667],[0.035208333333333286,-1.0416666666666667],[0.05322916666666669,-1.0412962962962962],[0.05322916666666669,-1.0412962962962962],[0.08031249999999991,-1],[0.08541666666666667,-0.9774074074074073],[0.06177083333333329,-1.0074074074074073],[0.040625,-1.0185185185185186],[0.024479166666666666,-1.0446296296296296],[0.003541666666666643,-1.0485185185185186],[-0.022395833333333334,-1.016851851851852],[-0.0609375,-0.9935185185185185],[-0.09145833333333328,-1.010185185185185],[-0.1330208333333334,-1.031851851851852],[-0.16979166666666667,-1.0285185185185184],[-0.18250000000000005,-0.9785185185185185],[-0.16677083333333337,-0.9101851851851852],[-0.15104166666666666,-0.8418518518518519],[-0.13708333333333336,-0.7509259259259259],[-0.1360416666666667,-0.6814814814814815],[-0.12447916666666667,-0.6314814814814815],[-0.10562499999999998,-0.5518518518518518],[-0.0860416666666667,-0.47833333333333333],[-0.0860416666666667,-0.47833333333333333],[-0.05541666666666671,-0.3998148148148148],[-0.04385416666666669,-0.33666666666666667],[-0.051979166666666646,-0.2903703703703704],[-0.05333333333333338,-0.26481481481481484],[-0.06333333333333328,-0.2375925925925926],[-0.06802083333333328,-0.2337037037037037],[-0.04520833333333331,-0.23129629629629625],[-0.04208333333333331,-0.22296296296296292],[-0.04208333333333331,-0.22296296296296292],[-0.04864583333333338,-0.23185185185185184],[-0.07145833333333336,-0.21388888888888888],[-0.07145833333333336,-0.21388888888888888],[-0.08833333333333329,-0.19666666666666666],[-0.0936458333333333,-0.17981481481481484],[-0.09249999999999996,-0.1661111111111111],[-0.08875000000000005,-0.13537037037037042],[-0.07635416666666663,-0.10629629629629625],[-0.07083333333333333,-0.09055555555555551],[-0.08312499999999995,-0.07981481481481485],[-0.09437500000000003,-0.06407407407407412],[-0.09093749999999995,-0.02759259259259255],[-0.07760416666666667,0.00722222222222218],[-0.07322916666666662,0.03425925925925926],[-0.07322916666666662,0.03425925925925926],[-0.08458333333333339,0.04055555555555551],[-0.08458333333333339,0.04055555555555551],[-0.07416666666666671,0.05944444444444449],[-0.05,0.08944444444444435],[-0.020833333333333332,0.1361111111111111],[0.019270833333333334,0.19018518518518526],[0.052083333333333336,0.2449999999999999],[0.052083333333333336,0.2449999999999999],[0.08614583333333338,0.2755555555555555],[0.11479166666666671,0.3199999999999999],[0.14072916666666657,0.3448148148148149],[0.1736458333333334,0.35259259259259257],[0.2234375,0.3838888888888888],[0.2234375,0.3838888888888888],[0.2490624999999999,0.3925925925925926],[0.2618750000000001,0.4046296296296296],[0.2618750000000001,0.4046296296296296],[0.2696875000000001,0.4],[0.27531249999999996,0.3675925925925926],[0.2868750000000001,0.32259259259259265],[0.3030208333333334,0.3435185185185185],[0.3298958333333334,0.330925925925926],[0.3460416666666667,0.3138888888888889],[0.35822916666666677,0.3224074074074075],[0.35822916666666677,0.3224074074074075],[0.37374999999999997,0.28722222222222227],[0.38270833333333343,0.26962962962962966],[0.38135416666666655,0.2412962962962962],[0.3765625,0.20703703703703696],[0.38343749999999993,0.17796296296296302],[0.39520833333333344,0.17222222222222222],[0.39520833333333344,0.17222222222222222],[0.3881249999999999,0.0868518518518518],[0.3710416666666667,0.025185185185185227],[0.3646874999999999,-0.032037037037036954],[0.3646874999999999,-0.032037037037036954],[0.37437500000000007,-0.07981481481481485],[0.37510416666666657,-0.051666666666666625],[0.3870833333333332,-0.04407407407407399],[0.39604166666666674,-0.0801851851851852],[0.4084374999999999,-0.11037037037037041],[0.4084374999999999,-0.11037037037037041],[0.4201041666666666,-0.09759259259259258],[0.4201041666666666,-0.09759259259259258],[0.4314583333333334,-0.0940740740740741],[0.4314583333333334,-0.0940740740740741],[0.46281249999999996,-0.07796296296296301],[0.46281249999999996,-0.07796296296296301],[0.4977083333333333,-0.08296296296296299],[0.4977083333333333,-0.08296296296296299],[0.5236458333333334,-0.07740740740740742],[0.5236458333333334,-0.07740740740740742],[0.5335416666666667,-0.08129629629629626],[0.5335416666666667,-0.08129629629629626],[0.5337500000000001,-0.10648148148148148],[0.5337500000000001,-0.10648148148148148],[0.5383333333333333,-0.12166666666666665],[0.5403125000000001,-0.1270370370370371],[0.5422916666666666,-0.13240740740740742],[0.5211458333333333,-0.147037037037037],[0.49270833333333336,-0.15833333333333333],[0.4744791666666667,-0.14685185185185187],[0.44427083333333334,-0.13537037037037042],[0.44427083333333334,-0.13537037037037042],[0.43302083333333335,-0.1294444444444444],[0.42177083333333343,-0.1235185185185185],[0.42729166666666674,-0.12259259259259257],[0.42843749999999997,-0.1316666666666667],[0.4405208333333334,-0.11314814814814819],[0.4405208333333334,-0.11314814814814819],[0.4275000000000001,-0.11537037037037039],[0.42291666666666666,-0.14148148148148143],[0.43468749999999995,-0.1257407407407407],[0.43468749999999995,-0.1257407407407407],[0.4076041666666666,-0.15055555555555558],[0.4076041666666666,-0.15055555555555558],[0.4002083333333334,-0.16129629629629633],[0.3631249999999999,-0.1985185185185185],[0.30750000000000005,-0.23296296296296298],[0.2504166666666668,-0.2733333333333334],[0.20031249999999995,-0.31351851851851853],[0.16208333333333325,-0.3322222222222222],[0.15520833333333334,-0.31592592592592594],[0.12447916666666667,-0.3418518518518519],[0.06937499999999991,-0.3918518518518519],[0.05593750000000005,-0.42907407407407405],[0.04364583333333331,-0.4438888888888889],[0.04812500000000005,-0.42833333333333334],[0.08104166666666662,-0.39388888888888884],[0.1040625000000001,-0.3811111111111111],[0.11375000000000005,-0.35351851851851845],[0.09145833333333328,-0.3768518518518518],[0.06145833333333333,-0.4075925925925926],[0.050312499999999954,-0.3907407407407407],[0.050416666666666644,-0.4227777777777778],[0.050416666666666644,-0.4227777777777778],[0.02302083333333336,-0.39592592592592596],[-0.003333333333333381,-0.39648148148148155],[-0.03260416666666662,-0.4020370370370371],[-0.07177083333333331,-0.4292592592592593],[-0.1063541666666667,-0.44240740740740736],[-0.1345833333333334,-0.4705555555555556],[-0.1345833333333334,-0.4705555555555556],[-0.12854166666666664,-0.46703703703703703],[-0.13812500000000003,-0.4714814814814815],[-0.13687499999999997,-0.47000000000000003],[-0.13927083333333337,-0.45203703703703707],[-0.13125,-0.4564814814814815],[-0.13395833333333335,-0.4646296296296296],[-0.13395833333333335,-0.4646296296296296],[-0.146875,-0.47759259259259257],[-0.13927083333333337,-0.47074074074074074],[-0.1296875,-0.46703703703703703],[-0.12291666666666666,-0.4668518518518519],[-0.12135416666666667,-0.47555555555555556],[-0.10270833333333336,-0.4831481481481481],[-0.10583333333333336,-0.48870370370370364],[-0.10583333333333336,-0.48870370370370364],[-0.10125000000000005,-0.482962962962963],[-0.08656250000000003,-0.4770370370370371],[-0.07604166666666666,-0.4818518518518518],[-0.049479166666666664,-0.48574074074074075],[-0.049479166666666664,-0.48574074074074075],[-0.046875,-0.49666666666666665],[-0.044062499999999956,-0.4872222222222223],[-0.03843749999999998,-0.4742592592592593],[-0.052187500000000026,-0.46648148148148144],[-0.06593749999999995,-0.45870370370370367],[-0.05510416666666664,-0.44055555555555553],[-0.05510416666666664,-0.44055555555555553],[-0.05687500000000002,-0.45129629629629625],[-0.07010416666666662,-0.4609259259259259],[-0.07677083333333339,-0.46166666666666667],[-0.07677083333333339,-0.46166666666666667],[-0.084375,-0.4570370370370371],[-0.08218749999999998,-0.45759259259259266],[-0.08218749999999998,-0.45759259259259266],[-0.07687499999999996,-0.4677777777777778],[-0.084375,-0.4885185185185185],[-0.08677083333333328,-0.4911111111111111],[-0.07677083333333339,-0.48],[-0.07395833333333333,-0.49129629629629634],[-0.06395833333333331,-0.4631481481481482],[-0.04729166666666664,-0.46518518518518515],[-0.041770833333333354,-0.4655555555555555],[-0.035312499999999976,-0.47129629629629627],[-0.029895833333333382,-0.4807407407407408],[-0.029895833333333382,-0.4807407407407408],[-0.02312500000000005,-0.4853703703703704],[-0.003541666666666643,-0.4794444444444444],[-0.01416666666666669,-0.4801851851851852],[-0.01416666666666669,-0.4801851851851852],[-0.042604166666666644,-0.5248148148148147],[-0.06531250000000005,-0.5662962962962963],[-0.06531250000000005,-0.5662962962962963],[-0.08260416666666662,-0.6183333333333333],[-0.10874999999999997,-0.625],[-0.12947916666666662,-0.6262962962962962],[-0.1498958333333333,-0.6312962962962962],[-0.17718750000000003,-0.6320370370370371],[-0.20583333333333337,-0.6375925925925926],[-0.23447916666666668,-0.6431481481481481],[-0.2247916666666666,-0.6564814814814814],[-0.20968749999999994,-0.6396296296296295],[-0.20687500000000003,-0.6033333333333334],[-0.20687500000000003,-0.6033333333333334],[-0.21145833333333333,-0.5824074074074074],[-0.21145833333333333,-0.5824074074074074],[-0.20197916666666665,-0.5822222222222222],[-0.20197916666666665,-0.5822222222222222],[-0.19427083333333334,-0.5838888888888889],[-0.19937499999999997,-0.6377777777777778],[-0.19937499999999997,-0.6377777777777778],[-0.2107291666666666,-0.6775925925925925],[-0.2107291666666666,-0.6775925925925925],[-0.1929166666666667,-0.5835185185185185],[-0.1929166666666667,-0.5835185185185185],[-0.18072916666666666,-0.5020370370370371]]","[[-0.08020833333333334,-0.06259259259259262,0.0002000002861137773],[-0.08020833333333334,-0.06259259259259262,0.05240000009537482],[-0.00791666666666669,0.18925925925925935,0.06830000019074589],[0.04541666666666669,0.31666666666666665,0.08500000000000796],[0.09406249999999995,0.5488888888888889,0.10250000000000625],[0.14354166666666662,0.6537037037037037,0.11899999999999977],[0.14354166666666662,0.6537037037037037,0.13490000009537084],[0.1946875000000001,0.8387037037037036,0.1517000002861124],[0.22906250000000009,0.9135185185185184,0.17320000028610139],[0.22906250000000009,0.9135185185185184,0.18500000000000227],[0.25656249999999997,0.9135185185185184,0.20159999990464428],[0.25656249999999997,0.9135185185185184,0.21830000019073736],[0.24697916666666658,0.8907407407407407,0.23499999999999943],[0.24697916666666658,0.8907407407407407,0.25159999990464144],[0.23302083333333337,0.8212962962962963,0.2684000000953688],[0.23302083333333337,0.8212962962962963,0.28520000028611037],[0.20895833333333325,0.7183333333333333,0.3017000002861039],[0.14322916666666666,0.3905555555555555,0.3340000000000032],[0.14322916666666666,0.3905555555555555,0.34199999999999875],[0.07989583333333337,0.1625925925925925,0.352400000095372],[0.02374999999999995,-0.12962962962962962,0.36830000019074305],[-0.011458333333333333,-0.33370370370370367,0.3894999999999982],[-0.05604166666666662,-0.6201851851851852,0.40490000009536686],[-0.07531249999999995,-0.7762962962962963,0.4183000001907402],[-0.07958333333333331,-0.8475925925925926,0.434900000095368],[-0.07062499999999995,-0.9516666666666667,0.4535999999046396],[-0.06854166666666663,-1.0320370370370369,0.46840000009537164],[-0.057291666666666664,-1.06,0.48490000009536516],[-0.057187499999999974,-1.0781481481481483,0.5019000000953753],[-0.04895833333333333,-1.0699999999999998,0.5182000002861002],[-0.0390625,-1.0346296296296298,0.5349000000953765],[-0.019375000000000024,-1.0385185185185184,0.5515999999046386],[0.0068750000000000235,-1.0574074074074074,0.5683000001907459],[0.035208333333333286,-1.0416666666666667,0.5850999999046422],[0.035208333333333286,-1.0416666666666667,0.6015999999046358],[0.05322916666666669,-1.0412962962962962,0.6185000000000116],[0.05322916666666669,-1.0412962962962962,0.6350000000000051],[0.08031249999999991,-1,0.6515999999046329],[0.08541666666666667,-0.9774074074074073,0.6689000000953769],[0.06177083333333329,-1.0074074074074073,0.684900000095368],[0.040625,-1.0185185185185186,0.70150000000001],[0.024479166666666666,-1.0446296296296296,0.7182000002861031],[0.003541666666666643,-1.0485185185185186,0.7358000001907357],[-0.022395833333333334,-1.016851851851852,0.7557000002861116],[-0.0609375,-0.9935185185185185,0.7698000001907417],[-0.09145833333333328,-1.010185185185185,0.7849000000953765],[-0.1330208333333334,-1.031851851851852,0.8037000002861134],[-0.16979166666666667,-1.0285185185185184,0.8205000000000098],[-0.18250000000000005,-0.9785185185185185,0.835000000000008],[-0.16677083333333337,-0.9101851851851852,0.8515999999046358],[-0.15104166666666666,-0.8418518518518519,0.8712000002861089],[-0.13708333333333336,-0.7509259259259259,0.8868000001907461],[-0.1360416666666667,-0.6814814814814815,0.9058000001907374],[-0.12447916666666667,-0.6314814814814815,0.9215000000000089],[-0.10562499999999998,-0.5518518518518518,0.9354000000953704],[-0.0860416666666667,-0.47833333333333333,0.9518000001907438],[-0.0860416666666667,-0.47833333333333333,0.9684000000953716],[-0.05541666666666671,-0.3998148148148148,0.9893000001907382],[-0.04385416666666669,-0.33666666666666667,1.0040999999046392],[-0.051979166666666646,-0.2903703703703704,1.0194000000953736],[-0.05333333333333338,-0.26481481481481484,1.0350999999046309],[-0.06333333333333328,-0.2375925925925926,1.0539000000953678],[-0.06802083333333328,-0.2337037037037037,1.0685000000000002],[-0.04520833333333331,-0.23129629629629625,1.0850999999046422],[-0.04208333333333331,-0.22296296296296292,1.103599999904631],[-0.04208333333333331,-0.22296296296296292,1.1184000000953773],[-0.04864583333333338,-0.23185185185185184,1.1350999999046394],[-0.07145833333333336,-0.21388888888888888,1.155700000286103],[-0.07145833333333336,-0.21388888888888888,1.1684000000953745],[-0.08833333333333329,-0.19666666666666666,1.1850999999046365],[-0.0936458333333333,-0.17981481481481484,1.2045000000000101],[-0.09249999999999996,-0.1661111111111111,1.2188000001907398],[-0.08875000000000005,-0.13537037037037042,1.2349999999999994],[-0.07635416666666663,-0.10629629629629625,1.2517000002861067],[-0.07083333333333333,-0.09055555555555551,1.2712000002861004],[-0.08312499999999995,-0.07981481481481485,1.2870999999046404],[-0.09437500000000003,-0.06407407407407412,1.303599999904634],[-0.09093749999999995,-0.02759259259259255,1.3230000000000075],[-0.07760416666666667,0.00722222222222218,1.3374000000953714],[-0.07322916666666662,0.03425925925925926,1.3518000001907353],[-0.07322916666666662,0.03425925925925926,1.3684000000953773],[-0.08458333333333339,0.04055555555555551,1.3893000001907438],[-0.08458333333333339,0.04055555555555551,1.401599999904633],[-0.07416666666666671,0.05944444444444449,1.4185000000000088],[-0.05,0.08944444444444435,1.4389000000953729],[-0.020833333333333332,0.1361111111111111,1.4535000000000053],[0.019270833333333334,0.19018518518518526,1.4684000000953716],[0.052083333333333336,0.2449999999999999,1.4917000002861016],[0.052083333333333336,0.2449999999999999,1.5017000002861067],[0.08614583333333338,0.2755555555555555,1.518500000000003],[0.11479166666666671,0.3199999999999999,1.5369000000953719],[0.14072916666666657,0.3448148148148149,1.5555999999046435],[0.1736458333333334,0.35259259259259257,1.5700000000000074],[0.2234375,0.3838888888888888,1.5858000001907442],[0.2234375,0.3838888888888888,1.607599999904636],[0.2490624999999999,0.3925925925925926,1.6185000000000116],[0.2618750000000001,0.4046296296296296,1.6398000001907462],[0.2618750000000001,0.4046296296296296,1.6518000001907325],[0.2696875000000001,0.4,1.6714000000953746],[0.27531249999999996,0.3675925925925926,1.6880999999046367],[0.2868750000000001,0.32259259259259265,1.7039000000953735],[0.3030208333333334,0.3435185185185185,1.722999999999999],[0.3298958333333334,0.330925925925926,1.737000000000009],[0.3460416666666667,0.3138888888888889,1.7545000000000073],[0.35822916666666677,0.3224074074074075,1.7734999999999985],[0.35822916666666677,0.3224074074074075,1.7853000001907446],[0.37374999999999997,0.28722222222222227,1.8018000001907382],[0.38270833333333343,0.26962962962962966,1.8185000000000002],[0.38135416666666655,0.2412962962962962,1.8378000001907395],[0.3765625,0.20703703703703696,1.8565000000000111],[0.38343749999999993,0.17796296296296302,1.8719000000953656],[0.39520833333333344,0.17222222222222222,1.8914000000953735],[0.39520833333333344,0.17222222222222222,1.9018000001907325],[0.3881249999999999,0.0868518518518518,1.9185000000000088],[0.3710416666666667,0.025185185185185227,1.9370999999046319],[0.3646874999999999,-0.032037037037036954,1.957800000190744],[0.3646874999999999,-0.032037037037036954,1.9684000000953716],[0.37437500000000007,-0.07981481481481485,1.9852000002861132],[0.37510416666666657,-0.051666666666666625,2.0038000001907363],[0.3870833333333332,-0.04407407407407399,2.0230999999046304],[0.39604166666666674,-0.0801851851851852,2.03730000019074],[0.4084374999999999,-0.11037037037037041,2.064599999904644],[0.4084374999999999,-0.11037037037037041,2.0774000000953663],[0.4201041666666666,-0.09759259259259258,2.0870000000000033],[0.4201041666666666,-0.09759259259259258,2.110200000286113],[0.4314583333333334,-0.0940740740740741,2.1207000002861065],[0.4314583333333334,-0.0940740740740741,2.138300000190739],[0.46281249999999996,-0.07796296296296301,2.1517000002861124],[0.46281249999999996,-0.07796296296296301,2.16830000019074],[0.4977083333333333,-0.08296296296296299,2.1920999999046415],[0.4977083333333333,-0.08296296296296299,2.2042000002861073],[0.5236458333333334,-0.07740740740740742,2.21859999990464],[0.5236458333333334,-0.07740740740740742,2.2349999999999994],[0.5335416666666667,-0.08129629629629626,2.2565000000000026],[0.5335416666666667,-0.08129629629629626,2.268400000095369],[0.5337500000000001,-0.10648148148148148,2.285099999904631],[0.5337500000000001,-0.10648148148148148,2.3074000000953703],[0.5383333333333333,-0.12166666666666665,2.318400000095366],[0.5403125000000001,-0.1270370370370371,2.3374000000953714],[0.5422916666666666,-0.13240740740740742,2.355400000095372],[0.5211458333333333,-0.147037037037037,2.3704000000953727],[0.49270833333333336,-0.15833333333333333,2.387500000000003],[0.4744791666666667,-0.14685185185185187,2.4044999999999987],[0.44427083333333334,-0.13537037037037042,2.4187000002861083],[0.44427083333333334,-0.13537037037037042,2.4350000000000023],[0.43302083333333335,-0.1294444444444444,2.451999999999998],[0.42177083333333343,-0.1235185185185185,2.4702000002861126],[0.42729166666666674,-0.12259259259259257,2.4849999999999994],[0.42843749999999997,-0.1316666666666667,2.5017000002861067],[0.4405208333333334,-0.11314814814814819,2.5208000001907465],[0.4405208333333334,-0.11314814814814819,2.535099999904631],[0.4275000000000001,-0.11537037037037039,2.551800000190738],[0.42291666666666666,-0.14148148148148143,2.568400000095366],[0.43468749999999995,-0.1257407407407407,2.5897000002861006],[0.43468749999999995,-0.1257407407407407,2.6018000001907353],[0.4076041666666666,-0.15055555555555558,2.6185999999046317],[0.4076041666666666,-0.15055555555555558,2.6388000001907415],[0.4002083333333334,-0.16129629629629633,2.6519000000953667],[0.3631249999999999,-0.1985185185185185,2.66830000019074],[0.30750000000000005,-0.23296296296296298,2.6850000000000023],[0.2504166666666668,-0.2733333333333334,2.7049000000953782],[0.20031249999999995,-0.31351851851851853,2.721200000286103],[0.16208333333333325,-0.3322222222222222,2.735599999904636],[0.15520833333333334,-0.31592592592592594,2.7517000002861067],[0.12447916666666667,-0.3418518518518519,2.7700999999046303],[0.06937499999999991,-0.3918518518518519,2.785099999904631],[0.05593750000000005,-0.42907407407407405,2.8045000000000044],[0.04364583333333331,-0.4438888888888889,2.8208000001907436],[0.04812500000000005,-0.42833333333333334,2.835000000000008],[0.08104166666666662,-0.39388888888888884,2.8519000000953696],[0.1040625000000001,-0.3811111111111111,2.8684000000953773],[0.11375000000000005,-0.35351851851851845,2.8892000002861096],[0.09145833333333328,-0.3768518518518518,2.904900000095367],[0.06145833333333333,-0.4075925925925926,2.9202000002861013],[0.050312499999999954,-0.3907407407407407,2.9350000000000023],[0.050416666666666644,-0.4227777777777778,2.959300000190737],[0.050416666666666644,-0.4227777777777778,2.96859999990464],[0.02302083333333336,-0.39592592592592596,2.9853000001907333],[-0.003333333333333381,-0.39648148148148155,3.0065000000000026],[-0.03260416666666662,-0.4020370370370371,3.022200000286105],[-0.07177083333333331,-0.4292592592592593,3.036300000190735],[-0.1063541666666667,-0.44240740740740736,3.0522000002861063],[-0.1345833333333334,-0.4705555555555556,3.0745000000000005],[-0.1345833333333334,-0.4705555555555556,3.0849000000953737],[-0.12854166666666664,-0.46703703703703703,3.101700000286101],[-0.13812500000000003,-0.4714814814814815,3.1184000000953773],[-0.13687499999999997,-0.47000000000000003,3.1374000000953686],[-0.13927083333333337,-0.45203703703703707,3.1535999999046425],[-0.13125,-0.4564814814814815,3.170800000190738],[-0.13395833333333335,-0.4646296296296296,3.1928000001907435],[-0.13395833333333335,-0.4646296296296296,3.2017000002861096],[-0.146875,-0.47759259259259257,3.21859999990464],[-0.13927083333333337,-0.47074074074074074,3.2349999999999994],[-0.1296875,-0.46703703703703703,3.2549000000953754],[-0.12291666666666666,-0.4668518518518519,3.268500000000003],[-0.12135416666666667,-0.47555555555555556,3.289900000095372],[-0.10270833333333336,-0.4831481481481481,3.3055999999046435],[-0.10583333333333336,-0.48870370370370364,3.3240999999046323],[-0.10583333333333336,-0.48870370370370364,3.3349000000953737],[-0.10125000000000005,-0.482962962962963,3.351700000286101],[-0.08656250000000003,-0.4770370370370371,3.3682000002861088],[-0.07604166666666666,-0.4818518518518518,3.384900000095371],[-0.049479166666666664,-0.48574074074074075,3.407599999904633],[-0.049479166666666664,-0.48574074074074075,3.418200000286106],[-0.046875,-0.49666666666666665,3.434900000095368],[-0.044062499999999956,-0.4872222222222223,3.45150000000001],[-0.03843749999999998,-0.4742592592592593,3.468200000286103],[-0.052187500000000026,-0.46648148148148144,3.484900000095365],[-0.06593749999999995,-0.45870370370370367,3.501800000190741],[-0.05510416666666664,-0.44055555555555553,3.518800000190737],[-0.05510416666666664,-0.44055555555555553,3.5348000001907423],[-0.05687500000000002,-0.45129629629629625,3.5515999999046386],[-0.07010416666666662,-0.4609259259259259,3.5720000000000027],[-0.07677083333333339,-0.46166666666666667,3.5892000002861124],[-0.07677083333333339,-0.46166666666666667,3.6015999999046358],[-0.084375,-0.4570370370370371,3.618300000190743],[-0.08218749999999998,-0.45759259259259266,3.639700000286112],[-0.08218749999999998,-0.45759259259259266,3.651599999904633],[-0.07687499999999996,-0.4677777777777778,3.668200000286106],[-0.084375,-0.4885185185185185,3.6873000001907457],[-0.08677083333333328,-0.4911111111111111,3.7050999999046326],[-0.07677083333333339,-0.48,3.7209000000953694],[-0.07395833333333333,-0.49129629629629634,3.7362000002861038],[-0.06395833333333331,-0.4631481481481482,3.754099999904639],[-0.04729166666666664,-0.46518518518518515,3.768500000000003],[-0.041770833333333354,-0.4655555555555555,3.785099999904631],[-0.035312499999999976,-0.47129629629629627,3.805400000095375],[-0.029895833333333382,-0.4807407407407408,3.823599999904644],[-0.029895833333333382,-0.4807407407407408,3.8348000001907394],[-0.02312500000000005,-0.4853703703703704,3.8515000000000015],[-0.003541666666666643,-0.4794444444444444,3.8682000002861088],[-0.01416666666666669,-0.4801851851851852,3.8863000001907437],[-0.01416666666666669,-0.4801851851851852,3.9014999999999986],[-0.042604166666666644,-0.5248148148148147,3.918200000286106],[-0.06531250000000005,-0.5662962962962963,3.9350000000000023],[-0.06531250000000005,-0.5662962962962963,3.9515999999046443],[-0.08260416666666662,-0.6183333333333333,3.968200000286103],[-0.10874999999999997,-0.625,3.9850999999046337],[-0.12947916666666662,-0.6262962962962962,4.003599999904637],[-0.1498958333333333,-0.6312962962962962,4.019700000286107],[-0.17718750000000003,-0.6320370370370371,4.034800000190742],[-0.20583333333333337,-0.6375925925925926,4.051500000000004],[-0.23447916666666668,-0.6431481481481481,4.068200000286112],[-0.2247916666666666,-0.6564814814814814,4.084900000095374],[-0.20968749999999994,-0.6396296296296295,4.105700000286106],[-0.20687500000000003,-0.6033333333333334,4.121500000000012],[-0.20687500000000003,-0.6033333333333334,4.134900000095371],[-0.21145833333333333,-0.5824074074074074,4.151599999904633],[-0.21145833333333333,-0.5824074074074074,4.168200000286106],[-0.20197916666666665,-0.5822222222222222,4.184900000095368],[-0.20197916666666665,-0.5822222222222222,4.20150000000001],[-0.19427083333333334,-0.5838888888888889,4.218300000190737],[-0.19937499999999997,-0.6377777777777778,4.238800000190736],[-0.19937499999999997,-0.6377777777777778,4.251599999904641],[-0.2107291666666666,-0.6775925925925925,4.273599999904633],[-0.2107291666666666,-0.6775925925925925,4.285000000000011],[-0.1929166666666667,-0.5835185185185185,4.301500000000004],[-0.1929166666666667,-0.5835185185185185,4.318200000286112],[-0.18072916666666666,-0.5020370370370371,4.334800000190739]]","[0.0002000002861137773,0.05240000009537482,0.06830000019074589,0.08500000000000796,0.10250000000000625,0.11899999999999977,0.13490000009537084,0.1517000002861124,0.17320000028610139,0.18500000000000227,0.20159999990464428,0.21830000019073736,0.23499999999999943,0.25159999990464144,0.2684000000953688,0.28520000028611037,0.3017000002861039,0.3340000000000032,0.34199999999999875,0.352400000095372,0.36830000019074305,0.3894999999999982,0.40490000009536686,0.4183000001907402,0.434900000095368,0.4535999999046396,0.46840000009537164,0.48490000009536516,0.5019000000953753,0.5182000002861002,0.5349000000953765,0.5515999999046386,0.5683000001907459,0.5850999999046422,0.6015999999046358,0.6185000000000116,0.6350000000000051,0.6515999999046329,0.6689000000953769,0.684900000095368,0.70150000000001,0.7182000002861031,0.7358000001907357,0.7557000002861116,0.7698000001907417,0.7849000000953765,0.8037000002861134,0.8205000000000098,0.835000000000008,0.8515999999046358,0.8712000002861089,0.8868000001907461,0.9058000001907374,0.9215000000000089,0.9354000000953704,0.9518000001907438,0.9684000000953716,0.9893000001907382,1.0040999999046392,1.0194000000953736,1.0350999999046309,1.0539000000953678,1.0685000000000002,1.0850999999046422,1.103599999904631,1.1184000000953773,1.1350999999046394,1.155700000286103,1.1684000000953745,1.1850999999046365,1.2045000000000101,1.2188000001907398,1.2349999999999994,1.2517000002861067,1.2712000002861004,1.2870999999046404,1.303599999904634,1.3230000000000075,1.3374000000953714,1.3518000001907353,1.3684000000953773,1.3893000001907438,1.401599999904633,1.4185000000000088,1.4389000000953729,1.4535000000000053,1.4684000000953716,1.4917000002861016,1.5017000002861067,1.518500000000003,1.5369000000953719,1.5555999999046435,1.5700000000000074,1.5858000001907442,1.607599999904636,1.6185000000000116,1.6398000001907462,1.6518000001907325,1.6714000000953746,1.6880999999046367,1.7039000000953735,1.722999999999999,1.737000000000009,1.7545000000000073,1.7734999999999985,1.7853000001907446,1.8018000001907382,1.8185000000000002,1.8378000001907395,1.8565000000000111,1.8719000000953656,1.8914000000953735,1.9018000001907325,1.9185000000000088,1.9370999999046319,1.957800000190744,1.9684000000953716,1.9852000002861132,2.0038000001907363,2.0230999999046304,2.03730000019074,2.064599999904644,2.0774000000953663,2.0870000000000033,2.110200000286113,2.1207000002861065,2.138300000190739,2.1517000002861124,2.16830000019074,2.1920999999046415,2.2042000002861073,2.21859999990464,2.2349999999999994,2.2565000000000026,2.268400000095369,2.285099999904631,2.3074000000953703,2.318400000095366,2.3374000000953714,2.355400000095372,2.3704000000953727,2.387500000000003,2.4044999999999987,2.4187000002861083,2.4350000000000023,2.451999999999998,2.4702000002861126,2.4849999999999994,2.5017000002861067,2.5208000001907465,2.535099999904631,2.551800000190738,2.568400000095366,2.5897000002861006,2.6018000001907353,2.6185999999046317,2.6388000001907415,2.6519000000953667,2.66830000019074,2.6850000000000023,2.7049000000953782,2.721200000286103,2.735599999904636,2.7517000002861067,2.7700999999046303,2.785099999904631,2.8045000000000044,2.8208000001907436,2.835000000000008,2.8519000000953696,2.8684000000953773,2.8892000002861096,2.904900000095367,2.9202000002861013,2.9350000000000023,2.959300000190737,2.96859999990464,2.9853000001907333,3.0065000000000026,3.022200000286105,3.036300000190735,3.0522000002861063,3.0745000000000005,3.0849000000953737,3.101700000286101,3.1184000000953773,3.1374000000953686,3.1535999999046425,3.170800000190738,3.1928000001907435,3.2017000002861096,3.21859999990464,3.2349999999999994,3.2549000000953754,3.268500000000003,3.289900000095372,3.3055999999046435,3.3240999999046323,3.3349000000953737,3.351700000286101,3.3682000002861088,3.384900000095371,3.407599999904633,3.418200000286106,3.434900000095368,3.45150000000001,3.468200000286103,3.484900000095365,3.501800000190741,3.518800000190737,3.5348000001907423,3.5515999999046386,3.5720000000000027,3.5892000002861124,3.6015999999046358,3.618300000190743,3.639700000286112,3.651599999904633,3.668200000286106,3.6873000001907457,3.7050999999046326,3.7209000000953694,3.7362000002861038,3.754099999904639,3.768500000000003,3.785099999904631,3.805400000095375,3.823599999904644,3.8348000001907394,3.8515000000000015,3.8682000002861088,3.8863000001907437,3.9014999999999986,3.918200000286106,3.9350000000000023,3.9515999999046443,3.968200000286103,3.9850999999046337,4.003599999904637,4.019700000286107,4.034800000190742,4.051500000000004,4.068200000286112,4.084900000095374,4.105700000286106,4.121500000000012,4.134900000095371,4.151599999904633,4.168200000286106,4.184900000095368,4.20150000000001,4.218300000190737,4.238800000190736,4.251599999904641,4.273599999904633,4.285000000000011,4.301500000000004,4.318200000286112,4.334800000190739]","[1732075511767,1732075511809,1732075511825,1732075511842,1732075511860,1732075511876,1732075511892,1732075511909,1732075511930,1732075511942,1732075511959,1732075511975,1732075511992,1732075512009,1732075512025,1732075512042,1732075512059,1732075512091,1732075512099,1732075512109,1732075512125,1732075512146,1732075512162,1732075512175,1732075512192,1732075512211,1732075512225,1732075512242,1732075512259,1732075512275,1732075512292,1732075512309,1732075512325,1732075512342,1732075512359,1732075512375,1732075512392,1732075512409,1732075512426,1732075512442,1732075512459,1732075512475,1732075512493,1732075512513,1732075512527,1732075512542,1732075512561,1732075512578,1732075512592,1732075512609,1732075512628,1732075512644,1732075512663,1732075512679,1732075512692,1732075512709,1732075512725,1732075512746,1732075512761,1732075512776,1732075512792,1732075512811,1732075512825,1732075512842,1732075512861,1732075512875,1732075512892,1732075512913,1732075512925,1732075512942,1732075512961,1732075512976,1732075512992,1732075513009,1732075513028,1732075513044,1732075513061,1732075513080,1732075513094,1732075513109,1732075513125,1732075513146,1732075513159,1732075513176,1732075513196,1732075513210,1732075513225,1732075513249,1732075513259,1732075513275,1732075513294,1732075513313,1732075513327,1732075513343,1732075513365,1732075513376,1732075513397,1732075513409,1732075513428,1732075513445,1732075513461,1732075513480,1732075513494,1732075513512,1732075513531,1732075513542,1732075513559,1732075513576,1732075513595,1732075513614,1732075513629,1732075513648,1732075513659,1732075513676,1732075513694,1732075513715,1732075513725,1732075513742,1732075513761,1732075513780,1732075513794,1732075513822,1732075513834,1732075513844,1732075513867,1732075513878,1732075513895,1732075513909,1732075513925,1732075513949,1732075513961,1732075513976,1732075513992,1732075514014,1732075514025,1732075514042,1732075514064,1732075514075,1732075514094,1732075514112,1732075514127,1732075514144,1732075514162,1732075514176,1732075514192,1732075514209,1732075514227,1732075514242,1732075514259,1732075514278,1732075514292,1732075514309,1732075514325,1732075514347,1732075514359,1732075514376,1732075514396,1732075514409,1732075514425,1732075514442,1732075514462,1732075514478,1732075514493,1732075514509,1732075514527,1732075514542,1732075514562,1732075514578,1732075514592,1732075514609,1732075514626,1732075514646,1732075514662,1732075514677,1732075514692,1732075514716,1732075514726,1732075514742,1732075514763,1732075514779,1732075514793,1732075514809,1732075514831,1732075514842,1732075514859,1732075514875,1732075514894,1732075514911,1732075514928,1732075514950,1732075514959,1732075514976,1732075514992,1732075515012,1732075515025,1732075515047,1732075515063,1732075515081,1732075515092,1732075515109,1732075515125,1732075515142,1732075515165,1732075515175,1732075515192,1732075515209,1732075515225,1732075515242,1732075515259,1732075515276,1732075515292,1732075515309,1732075515329,1732075515346,1732075515359,1732075515375,1732075515397,1732075515409,1732075515425,1732075515444,1732075515462,1732075515478,1732075515493,1732075515511,1732075515525,1732075515542,1732075515562,1732075515581,1732075515592,1732075515609,1732075515625,1732075515643,1732075515659,1732075515675,1732075515692,1732075515709,1732075515725,1732075515742,1732075515761,1732075515777,1732075515792,1732075515809,1732075515825,1732075515842,1732075515863,1732075515879,1732075515892,1732075515909,1732075515925,1732075515942,1732075515959,1732075515975,1732075515996,1732075516009,1732075516031,1732075516042,1732075516059,1732075516075,1732075516092]","[[883,506.2],[883,506.2],[952.4,642.2],[1003.6,711],[1050.3,836.4],[1097.8,893],[1097.8,893],[1146.9,992.9],[1179.9,1033.3],[1179.9,1033.3],[1206.3,1033.3],[1206.3,1033.3],[1197.1,1021],[1197.1,1021],[1183.7,983.5],[1183.7,983.5],[1160.6,927.9],[1097.5,750.9],[1097.5,750.9],[1036.7,627.8],[982.8,470],[949,359.8],[906.2,205.1],[887.7,120.8],[883.6,82.3],[892.2,26.1],[894.2,-17.3],[905,-32.4],[905.1,-42.2],[913,-37.8],[922.5,-18.7],[941.4,-20.8],[966.6,-31],[993.8,-22.5],[993.8,-22.5],[1011.1,-22.3],[1011.1,-22.3],[1037.1,0],[1042,12.2],[1019.3,-4],[999,-10],[983.5,-24.1],[963.4,-26.2],[938.5,-9.1],[901.5,3.5],[872.2,-5.5],[832.3,-17.2],[797,-15.4],[784.8,11.6],[799.9,48.5],[815,85.4],[828.4,134.5],[829.4,172],[840.5,199],[858.6,242],[877.4,281.7],[877.4,281.7],[906.8,324.1],[917.9,358.2],[910.1,383.2],[908.8,397],[899.2,411.7],[894.7,413.8],[916.6,415.1],[919.6,419.6],[919.6,419.6],[913.3,414.8],[891.4,424.5],[891.4,424.5],[875.2,433.8],[870.1,442.9],[871.2,450.3],[874.8,466.9],[886.7,482.6],[892,491.1],[880.2,496.9],[869.4,505.4],[872.7,525.1],[885.5,543.9],[889.7,558.5],[889.7,558.5],[878.8,561.9],[878.8,561.9],[888.8,572.1],[912,588.3],[940,613.5],[978.5,642.7],[1010,672.3],[1010,672.3],[1042.7,688.8],[1070.2,712.8],[1095.1,726.2],[1126.7,730.4],[1174.5,747.3],[1174.5,747.3],[1199.1,752],[1211.4,758.5],[1211.4,758.5],[1218.9,756],[1224.3,738.5],[1235.4,714.2],[1250.9,725.5],[1276.7,718.7],[1292.2,709.5],[1303.9,714.1],[1303.9,714.1],[1318.8,695.1],[1327.4,685.6],[1326.1,670.3],[1321.5,651.8],[1328.1,636.1],[1339.4,633],[1339.4,633],[1332.6,586.9],[1316.2,553.6],[1310.1,522.7],[1310.1,522.7],[1319.4,496.9],[1320.1,512.1],[1331.6,516.2],[1340.2,496.7],[1352.1,480.4],[1352.1,480.4],[1363.3,487.3],[1363.3,487.3],[1374.2,489.2],[1374.2,489.2],[1404.3,497.9],[1404.3,497.9],[1437.8,495.2],[1437.8,495.2],[1462.7,498.2],[1462.7,498.2],[1472.2,496.1],[1472.2,496.1],[1472.4,482.5],[1472.4,482.5],[1476.8,474.3],[1478.7,471.4],[1480.6,468.5],[1460.3,460.6],[1433,454.5],[1415.5,460.7],[1386.5,466.9],[1386.5,466.9],[1375.7,470.1],[1364.9,473.3],[1370.2,473.8],[1371.3,468.9],[1382.9,478.9],[1382.9,478.9],[1370.4,477.7],[1366,463.6],[1377.3,472.1],[1377.3,472.1],[1351.3,458.7],[1351.3,458.7],[1344.2,452.9],[1308.6,432.8],[1255.2,414.2],[1200.4,392.4],[1152.3,370.7],[1115.6,360.6],[1109,369.4],[1079.5,355.4],[1026.6,328.4],[1013.7,308.3],[1001.9,300.3],[1006.2,308.7],[1037.8,327.3],[1059.9,334.2],[1069.2,349.1],[1047.8,336.5],[1019,319.9],[1008.3,329],[1008.4,311.7],[1008.4,311.7],[982.1,326.2],[956.8,325.9],[928.7,322.9],[891.1,308.2],[857.9,301.1],[830.8,285.9],[830.8,285.9],[836.6,287.8],[827.4,285.4],[828.6,286.2],[826.3,295.9],[834,293.5],[831.4,289.1],[831.4,289.1],[819,282.1],[826.3,285.8],[835.5,287.8],[842,287.9],[843.5,283.2],[861.4,279.1],[858.4,276.1],[858.4,276.1],[862.8,279.2],[876.9,282.4],[887,279.8],[912.5,277.7],[912.5,277.7],[915,271.8],[917.7,276.9],[923.1,283.9],[909.9,288.1],[896.7,292.3],[907.1,302.1],[907.1,302.1],[905.4,296.3],[892.7,291.1],[886.3,290.7],[886.3,290.7],[879,293.2],[881.1,292.9],[881.1,292.9],[886.2,287.4],[879,276.2],[876.7,274.8],[886.3,280.8],[889,274.7],[898.6,289.9],[914.6,288.8],[919.9,288.6],[926.1,285.5],[931.3,280.4],[931.3,280.4],[937.8,277.9],[956.6,281.1],[946.4,280.7],[946.4,280.7],[919.1,256.6],[897.3,234.2],[897.3,234.2],[880.7,206.1],[855.6,202.5],[835.7,201.8],[816.1,199.1],[789.9,198.7],[762.4,195.7],[734.9,192.7],[744.2,185.5],[758.7,194.6],[761.4,214.2],[761.4,214.2],[757,225.5],[757,225.5],[766.1,225.6],[766.1,225.6],[773.5,224.7],[768.6,195.6],[768.6,195.6],[757.7,174.1],[757.7,174.1],[774.8,224.9],[774.8,224.9],[786.5,268.9]]","[-0.2,0.6000000000000001]","[0.2,0.6000000000000001]","[0.6000000000000001,0.6000000000000001]","[-0.6000000000000001,-0.2]","[-0.6000000000000001,0.2]","[-0.6000000000000001,-0.6000000000000001]","[-0.2,-0.2]","[0.2,-0.2]","[0.6000000000000001,-0.2]","[-0.2,0.2]","[0.2,0.2]","[0.6000000000000001,0.2]","[-0.2,-0.6000000000000001]","[0.2,-0.6000000000000001]","[0.6000000000000001,-0.6000000000000001]",0,0,0,0,1,2,Monitor,15,20,8,3,70,4,3,60,4
,,,,,,,,,,,,,,,,,,,,47,001,2024-11-20_12h04.16.242,Attention_exp_legacy,2023.1.0,Win32,59.88023952,,,,,,,,,,[-0.15104166666666666],[0.5944444444444444],[1],[0],[0],[1.4317000002860993],"[""Bus_label""]",Bus_label,2,2.4514,"[[-0.20625,0.6129629629629629],[-0.20625,0.6129629629629629],[-0.20625,0.6129629629629629],[-0.20625,0.6129629629629629],[-0.20625,0.6129629629629629],[-0.20625,0.6129629629629629],[-0.20625,0.6129629629629629],[-0.20625,0.6129629629629629],[-0.20625,0.6129629629629629],[-0.20625,0.6129629629629629],[-0.20625,0.6129629629629629],[-0.20625,0.6129629629629629],[-0.20625,0.6129629629629629],[-0.20625,0.6129629629629629],[-0.20625,0.6129629629629629],[-0.20625,0.6129629629629629],[-0.20625,0.6129629629629629],[-0.20625,0.6129629629629629],[-0.20625,0.6129629629629629],[-0.20625,0.6129629629629629],[-0.20625,0.6129629629629629],[-0.20625,0.6129629629629629],[-0.20625,0.6129629629629629],[-0.20625,0.6129629629629629],[-0.20625,0.6129629629629629],[-0.20625,0.6129629629629629],[-0.20625,0.6129629629629629],[-0.20625,0.6129629629629629],[-0.20625,0.6129629629629629],[-0.20625,0.6129629629629629],[-0.20625,0.6129629629629629],[-0.20625,0.6129629629629629],[-0.20625,0.6129629629629629],[-0.20625,0.6129629629629629],[-0.20625,0.6129629629629629],[-0.20625,0.6129629629629629],[-0.20625,0.6129629629629629],[-0.20625,0.6129629629629629],[-0.20625,0.6129629629629629],[-0.20625,0.6129629629629629],[-0.20625,0.6129629629629629],[-0.20625,0.6129629629629629],[-0.20625,0.6129629629629629],[-0.20520833333333333,0.6129629629629629],[-0.20416666666666666,0.6129629629629629],[-0.20208333333333334,0.6129629629629629],[-0.2,0.6111111111111112],[-0.196875,0.6111111111111112],[-0.19270833333333334,0.6092592592592593],[-0.1875,0.6092592592592593],[-0.18333333333333332,0.6092592592592593],[-0.17604166666666668,0.6074074074074074],[-0.171875,0.6055555555555555],[-0.16875,0.6037037037037037],[-0.16666666666666666,0.6037037037037037],[-0.1625,0.6037037037037037],[-0.159375,0.6018518518518519],[-0.15625,0.6018518518518519],[-0.15208333333333332,0.6],[-0.14895833333333333,0.6],[-0.14895833333333333,0.6],[-0.14583333333333334,0.6],[-0.14479166666666668,0.6],[-0.14166666666666666,0.6],[-0.13958333333333334,0.6],[-0.13958333333333334,0.6],[-0.13854166666666667,0.6],[-0.13854166666666667,0.6],[-0.13854166666666667,0.6],[-0.13854166666666667,0.6],[-0.13854166666666667,0.6],[-0.13854166666666667,0.6],[-0.13854166666666667,0.6],[-0.13854166666666667,0.6],[-0.13854166666666667,0.6],[-0.13854166666666667,0.6],[-0.140625,0.6],[-0.14583333333333334,0.5981481481481481],[-0.14895833333333333,0.5981481481481481],[-0.15104166666666666,0.5944444444444444],[-0.15104166666666666,0.5944444444444444],[-0.15104166666666666,0.5944444444444444],[-0.15104166666666666,0.5944444444444444],[-0.15104166666666666,0.5944444444444444],[-0.15104166666666666,0.5944444444444444],[-0.15104166666666666,0.5944444444444444],[-0.15104166666666666,0.5944444444444444],[-0.15104166666666666,0.5944444444444444],[-0.15104166666666666,0.5944444444444444],[-0.15104166666666666,0.5944444444444444],[-0.15104166666666666,0.5944444444444444],[-0.15104166666666666,0.5944444444444444],[-0.15104166666666666,0.5944444444444444],[-0.15104166666666666,0.5944444444444444],[-0.15104166666666666,0.5944444444444444],[-0.15104166666666666,0.5944444444444444],[-0.15104166666666666,0.5944444444444444],[-0.15104166666666666,0.5944444444444444],[-0.15104166666666666,0.5944444444444444],[-0.15104166666666666,0.5944444444444444],[-0.15104166666666666,0.5944444444444444],[-0.15104166666666666,0.5944444444444444],[-0.15104166666666666,0.5944444444444444],[-0.15104166666666666,0.5944444444444444],[-0.15104166666666666,0.5944444444444444],[-0.15104166666666666,0.5944444444444444],[-0.15104166666666666,0.5944444444444444],[-0.15104166666666666,0.5944444444444444],[-0.15104166666666666,0.5944444444444444],[-0.15104166666666666,0.5944444444444444],[-0.15104166666666666,0.5944444444444444],[-0.15104166666666666,0.5944444444444444],[-0.15104166666666666,0.5944444444444444],[-0.15104166666666666,0.5944444444444444],[-0.15104166666666666,0.5944444444444444],[-0.15104166666666666,0.5944444444444444],[-0.15104166666666666,0.5944444444444444],[-0.15104166666666666,0.5944444444444444],[-0.15104166666666666,0.5944444444444444],[-0.15104166666666666,0.5944444444444444],[-0.15104166666666666,0.5944444444444444],[-0.15104166666666666,0.5944444444444444],[-0.15104166666666666,0.5944444444444444],[-0.15104166666666666,0.5944444444444444],[-0.15104166666666666,0.5944444444444444],[-0.15104166666666666,0.5944444444444444],[-0.15104166666666666,0.5944444444444444],[-0.15104166666666666,0.5944444444444444],[-0.15104166666666666,0.5944444444444444],[-0.15104166666666666,0.5944444444444444],[-0.15104166666666666,0.5944444444444444],[-0.15104166666666666,0.5944444444444444],[-0.15104166666666666,0.5944444444444444],[-0.15104166666666666,0.5944444444444444],[-0.15104166666666666,0.5944444444444444],[-0.15104166666666666,0.5944444444444444],[-0.15104166666666666,0.5944444444444444],[-0.15104166666666666,0.5944444444444444],[-0.15104166666666666,0.5944444444444444],[-0.15104166666666666,0.5944444444444444],[-0.15104166666666666,0.5944444444444444],[-0.15104166666666666,0.5944444444444444],[-0.15104166666666666,0.5944444444444444],[-0.15104166666666666,0.5944444444444444],[-0.15104166666666666,0.5944444444444444],[-0.15104166666666666,0.5944444444444444],[-0.15104166666666666,0.5944444444444444],[-0.15104166666666666,0.5944444444444444]]","[[-0.13447916666666668,-0.43037037037037035],[-0.12989583333333338,-0.4051851851851852],[-0.11312500000000002,-0.37703703703703706],[-0.09604166666666672,-0.38370370370370366],[-0.09135416666666671,-0.40314814814814814],[-0.0780208333333333,-0.3875925925925926],[-0.0780208333333333,-0.3875925925925926],[-0.08187500000000002,-0.3785185185185185],[-0.0811458333333333,-0.4381481481481482],[-0.0626041666666667,-0.4757407407407407],[-0.06760416666666665,-0.5166666666666667],[-0.06989583333333335,-0.5744444444444444],[-0.08302083333333338,-0.6190740740740741],[-0.10208333333333333,-0.6918518518518519],[-0.11104166666666669,-0.7546296296296297],[-0.11104166666666669,-0.7546296296296297],[-0.11614583333333334,-0.8046296296296296],[-0.11614583333333334,-0.8046296296296296],[-0.1345833333333334,-0.8742592592592593],[-0.15270833333333336,-0.9416666666666667],[-0.1648958333333333,-0.9394444444444444],[-0.18802083333333333,-0.9474074074074075],[-0.1844791666666667,-0.9592592592592593],[-0.18958333333333333,-0.9625925925925926],[-0.2013541666666666,-0.9838888888888888],[-0.21937500000000001,-0.9800000000000001],[-0.23364583333333327,-0.967962962962963],[-0.2367708333333333,-0.9616666666666666],[-0.2454166666666667,-0.9607407407407407],[-0.25406249999999997,-0.9598148148148147],[-0.2529166666666666,-0.9651851851851853],[-0.2517708333333334,-0.9705555555555556],[-0.2517708333333334,-0.9705555555555556],[-0.24770833333333328,-0.9562962962962962],[-0.26281249999999995,-0.9442592592592592],[-0.2726041666666667,-0.9194444444444444],[-0.28104166666666663,-0.8853703703703704],[-0.28104166666666663,-0.8853703703703704],[-0.2595833333333334,-0.8538888888888889],[-0.24312499999999998,-0.8203703703703704],[-0.21364583333333337,-0.7857407407407407],[-0.16364583333333335,-0.725925925925926],[-0.12864583333333332,-0.6777777777777778],[-0.0936458333333333,-0.6296296296296297],[-0.10062500000000002,-0.6311111111111112],[-0.08989583333333329,-0.634074074074074],[-0.0671875,-0.6361111111111111],[-0.0671875,-0.6361111111111111],[-0.04750000000000002,-0.6305555555555555],[-0.04750000000000002,-0.6305555555555555],[-0.049374999999999974,-0.6098148148148148],[-0.049374999999999974,-0.6098148148148148],[-0.04895833333333333,-0.6064814814814815],[-0.04895833333333333,-0.6064814814814815],[-0.06802083333333328,-0.6025925925925926],[-0.06802083333333328,-0.6025925925925926],[-0.10760416666666663,-0.6238888888888888],[-0.10760416666666663,-0.6238888888888888],[-0.14874999999999997,-0.6362962962962964],[-0.17635416666666662,-0.677962962962963],[-0.17635416666666662,-0.677962962962963],[-0.17281249999999998,-0.6542592592592593],[-0.16760416666666664,-0.634074074074074],[-0.17156250000000003,-0.6203703703703703],[-0.16781250000000003,-0.6181481481481482],[-0.1892708333333334,-0.6609259259259259],[-0.1892708333333334,-0.6609259259259259],[-0.21062500000000003,-0.6825925925925926],[-0.19885416666666664,-0.6731481481481482],[-0.18708333333333335,-0.6637037037037037],[-0.18708333333333335,-0.7022222222222222],[-0.20062500000000003,-0.7114814814814815],[-0.24479166666666666,-0.7568518518518518],[-0.28479166666666667,-0.7783333333333333],[-0.30281250000000004,-0.8148148148148148],[-0.32687499999999997,-0.8566666666666667],[-0.32687499999999997,-0.8566666666666667],[-0.3195833333333333,-0.8555555555555555],[-0.32062499999999994,-0.8437037037037037],[-0.33531249999999996,-0.8635185185185186],[-0.33791666666666664,-0.8824074074074074],[-0.3485416666666667,-0.8485185185185184],[-0.35,-0.8257407407407407],[-0.31791666666666674,-0.7846296296296296],[-0.29020833333333335,-0.7601851851851852],[-0.2700000000000001,-0.6896296296296296],[-0.24312499999999998,-0.6148148148148148],[-0.2407291666666667,-0.6072222222222222],[-0.2560416666666666,-0.6085185185185186],[-0.2560416666666666,-0.6085185185185186],[-0.2553125,-0.6270370370370371],[-0.26666666666666666,-0.6464814814814815],[-0.2359375,-0.616111111111111],[-0.22250000000000003,-0.6064814814814815],[-0.2045833333333333,-0.6025925925925926],[-0.2045833333333333,-0.6025925925925926],[-0.21218750000000006,-0.6220370370370369],[-0.22374999999999995,-0.6596296296296296],[-0.23802083333333332,-0.7362962962962963],[-0.21656249999999996,-0.7137037037037036],[-0.21104166666666668,-0.7331481481481481],[-0.20927083333333332,-0.7531481481481481],[-0.20031249999999995,-0.742037037037037],[-0.21208333333333335,-0.7944444444444444],[-0.22666666666666668,-0.8031481481481482],[-0.24729166666666663,-0.8107407407407408],[-0.21906249999999997,-0.8083333333333333],[-0.22531249999999994,-0.7766666666666666],[-0.22531249999999994,-0.7766666666666666],[-0.23854166666666668,-0.7179629629629629],[-0.27010416666666665,-0.725925925925926],[-0.25729166666666664,-0.6848148148148149],[-0.2582291666666666,-0.6174074074074074],[-0.2751041666666667,-0.5644444444444444],[-0.29354166666666665,-0.5583333333333333],[-0.30104166666666665,-0.5640740740740741],[-0.30104166666666665,-0.5640740740740741],[-0.296875,-0.5764814814814815],[-0.3288541666666667,-0.5707407407407408],[-0.3296875,-0.5922222222222222],[-0.30583333333333335,-0.6155555555555555],[-0.2989583333333333,-0.6087037037037036],[-0.28927083333333337,-0.6298148148148148],[-0.2820833333333333,-0.6646296296296296],[-0.2501041666666667,-0.6818518518518518],[-0.21656249999999996,-0.6522222222222221],[-0.18645833333333334,-0.6451851851851852],[-0.16802083333333329,-0.6314814814814815],[-0.12625000000000006,-0.6253703703703704],[-0.08947916666666664,-0.6351851851851852],[-0.07468750000000005,-0.6205555555555556],[-0.035520833333333356,-0.5825925925925927],[-0.005104166666666643,-0.5209259259259259],[0.027708333333333356,-0.47537037037037033],[0.04125000000000002,-0.45185185185185184],[0.04125000000000002,-0.45185185185185184],[0.05427083333333336,-0.4933333333333333],[0.05427083333333336,-0.4933333333333333],[0.06625000000000002,-0.49018518518518517],[0.07979166666666657,-0.4955555555555556],[0.09479166666666666,-0.4903703703703704],[0.10947916666666657,-0.47740740740740745],[0.12374999999999996,-0.477962962962963],[0.11947916666666672,-0.5161111111111111],[0.1209374999999999,-0.5668518518518519],[0.11760416666666676,-0.6001851851851853],[0.12114583333333329,-0.6572222222222222],[0.1252083333333334,-0.6492592592592593]]","[[-0.13447916666666668,-0.43037037037037035,0.00009999990463427366],[-0.12989583333333338,-0.4051851851851852,0.019599999904642118],[-0.11312500000000002,-0.37703703703703706,0.03529999971389941],[-0.09604166666666672,-0.38370370370370366,0.053699999809268206],[-0.09135416666666671,-0.40314814814814814,0.07009999990464166],[-0.0780208333333333,-0.3875925925925926,0.09729999971389702],[-0.0780208333333333,-0.3875925925925926,0.10829999971390691],[-0.08187500000000002,-0.3785185185185185,0.12029999971390737],[-0.0811458333333333,-0.4381481481481482,0.1336999998092665],[-0.0626041666666667,-0.4757407407407407,0.1511999998092648],[-0.06760416666666665,-0.5166666666666667,0.1664999999999992],[-0.06989583333333335,-0.5744444444444444,0.1830999999046412],[-0.08302083333333338,-0.6190740740740741,0.199699999809269],[-0.10208333333333333,-0.6918518518518519,0.2169000000953787],[-0.11104166666666669,-0.7546296296296297,0.23309999990463837],[-0.11104166666666669,-0.7546296296296297,0.24969999980926616],[-0.11614583333333334,-0.8046296296296296,0.26640000009537346],[-0.11614583333333334,-0.8046296296296296,0.2830999999046355],[-0.1345833333333334,-0.8742592592592593,0.2997999997138976],[-0.15270833333333336,-0.9416666666666667,0.3162999997139053],[-0.1648958333333333,-0.9394444444444444,0.3330999999046327],[-0.18802083333333333,-0.9474074074074075,0.34990000009537425],[-0.1844791666666667,-0.9592592592592593,0.3664000000953678],[-0.18958333333333333,-0.9625925925925926,0.38309999990462984],[-0.2013541666666666,-0.9838888888888888,0.4000000000000057],[-0.21937500000000001,-0.9800000000000001,0.41640000009536493],[-0.23364583333333327,-0.967962962962963,0.4330999999046412],[-0.2367708333333333,-0.9616666666666666,0.452299999713901],[-0.2454166666666667,-0.9607407407407407,0.4667999997138992],[-0.25406249999999997,-0.9598148148148147,0.4830000000000041],[-0.2529166666666666,-0.9651851851851853,0.49969999980926616],[-0.2517708333333334,-0.9705555555555556,0.516599999904642],[-0.2517708333333334,-0.9705555555555556,0.5330999999046355],[-0.24770833333333328,-0.9562962962962962,0.5497999997138976],[-0.26281249999999995,-0.9442592592592592,0.5679999999999978],[-0.2726041666666667,-0.9194444444444444,0.5852999997138966],[-0.28104166666666663,-0.8853703703703704,0.5996999998092747],[-0.28104166666666663,-0.8853703703703704,0.6164000000953678],[-0.2595833333333334,-0.8538888888888889,0.6330999999046298],[-0.24312499999999998,-0.8203703703703704,0.6527999997139062],[-0.21364583333333337,-0.7857407407407407,0.669400000095365],[-0.16364583333333335,-0.725925925925926,0.6830000000000069],[-0.12864583333333332,-0.6777777777777778,0.6997999997139033],[-0.0936458333333333,-0.6296296296296297,0.7192999997138969],[-0.10062500000000002,-0.6311111111111112,0.733699999809275],[-0.08989583333333329,-0.634074074074074,0.7509000000953705],[-0.0671875,-0.6361111111111111,0.769900000095376],[-0.0671875,-0.6361111111111111,0.7831999998092698],[-0.04750000000000002,-0.6305555555555555,0.7999999999999972],[-0.04750000000000002,-0.6305555555555555,0.8200999999046417],[-0.049374999999999974,-0.6098148148148148,0.8334000000953665],[-0.049374999999999974,-0.6098148148148148,0.8500000000000085],[-0.04895833333333333,-0.6064814814814815,0.8719999999999999],[-0.04895833333333333,-0.6064814814814815,0.8831999998092641],[-0.06802083333333328,-0.6025925925925926,0.9000000000000057],[-0.06802083333333328,-0.6025925925925926,0.9164999999999992],[-0.10760416666666663,-0.6238888888888888,0.9395000000000095],[-0.10760416666666663,-0.6238888888888888,0.9499000000953686],[-0.14874999999999997,-0.6362962962962964,0.9665999999046306],[-0.17635416666666662,-0.677962962962963,0.9900999999046434],[-0.17635416666666662,-0.677962962962963,0.9999000000953657],[-0.17281249999999998,-0.6542592592592593,1.0167999997138963],[-0.16760416666666664,-0.634074074074074,1.0331999998092698],[-0.17156250000000003,-0.6203703703703703,1.0540999999046363],[-0.16781250000000003,-0.6181481481481482,1.0700000000000074],[-0.1892708333333334,-0.6609259259259259,1.0850999999046422],[-0.1892708333333334,-0.6609259259259259,1.1000000000000085],[-0.21062500000000003,-0.6825925925925926,1.1164000000953678],[-0.19885416666666664,-0.6731481481481482,1.1331999998092641],[-0.18708333333333335,-0.6637037037037037,1.15009999990464],[-0.18708333333333335,-0.7022222222222222,1.168199999809275],[-0.20062500000000003,-0.7114814814814815,1.183000000000007],[-0.24479166666666666,-0.7568518518518518,1.199699999809269],[-0.28479166666666667,-0.7783333333333333,1.2164000000953763],[-0.30281250000000004,-0.8148148148148148,1.233000000000004],[-0.32687499999999997,-0.8566666666666667,1.2531999998092687],[-0.32687499999999997,-0.8566666666666667,1.2695000000000078],[-0.3195833333333333,-0.8555555555555555,1.283299999713904],[-0.32062499999999994,-0.8437037037037037,1.3022999997138953],[-0.33531249999999996,-0.8635185185185186,1.3205000000000098],[-0.33791666666666664,-0.8824074074074074,1.3350999999046422],[-0.3485416666666667,-0.8485185185185184,1.3530000000000086],[-0.35,-0.8257407407407407,1.3682999997138978],[-0.31791666666666674,-0.7846296296296296,1.3830000000000098],[-0.29020833333333335,-0.7601851851851852,1.3996999998092718],[-0.2700000000000001,-0.6896296296296296,1.417900000095372],[-0.24312499999999998,-0.6148148148148148,1.433400000095375],[-0.2407291666666667,-0.6072222222222222,1.450400000095371],[-0.2560416666666666,-0.6085185185185186,1.4662999997138968],[-0.2560416666666666,-0.6085185185185186,1.4857999997139046],[-0.2553125,-0.6270370370370371,1.4996999998092662],[-0.26666666666666666,-0.6464814814814815,1.5164000000953735],[-0.2359375,-0.616111111111111,1.5362999997139042],[-0.22250000000000003,-0.6064814814814815,1.553599999904634],[-0.2045833333333333,-0.6025925925925926,1.5694000000953707],[-0.2045833333333333,-0.6025925925925926,1.5830999999046327],[-0.21218750000000006,-0.6220370370370369,1.599799999713909],[-0.22374999999999995,-0.6596296296296296,1.6162999997139025],[-0.23802083333333332,-0.7362962962962963,1.6330000000000098],[-0.21656249999999996,-0.7137037037037036,1.6525999999046377],[-0.21104166666666668,-0.7331481481481481,1.668199999809275],[-0.20927083333333332,-0.7531481481481481,1.683000000000007],[-0.20031249999999995,-0.742037037037037,1.6997999997139033],[-0.21208333333333335,-0.7944444444444444,1.7162999997138968],[-0.22666666666666668,-0.8031481481481482,1.7335000000000065],[-0.24729166666666663,-0.8107407407407408,1.7537999997139053],[-0.21906249999999997,-0.8083333333333333,1.7705999999046327],[-0.22531249999999994,-0.7766666666666666,1.7896999998092724],[-0.22531249999999994,-0.7766666666666666,1.7996999998092633],[-0.23854166666666668,-0.7179629629629629,1.8164000000953706],[-0.27010416666666665,-0.725925925925926,1.8360999999046328],[-0.25729166666666664,-0.6848148148148149,1.8539999999999992],[-0.2582291666666666,-0.6174074074074074,1.8696999998092707],[-0.2751041666666667,-0.5644444444444444,1.8855000000000075],[-0.29354166666666665,-0.5583333333333333,1.9014000000953786],[-0.30104166666666665,-0.5640740740740741,1.9220999999046313],[-0.30104166666666665,-0.5640740740740741,1.9330999999046412],[-0.296875,-0.5764814814814815,1.949699999809269],[-0.3288541666666667,-0.5707407407407408,1.9669999999999987],[-0.3296875,-0.5922222222222222,1.985599999904636],[-0.30583333333333335,-0.6155555555555555,2.002599999904632],[-0.2989583333333333,-0.6087037037037036,2.0167999997138963],[-0.28927083333333337,-0.6298148148148148,2.0334000000953694],[-0.2820833333333333,-0.6646296296296296,2.0496999998092633],[-0.2501041666666667,-0.6818518518518518,2.0679000000953778],[-0.21656249999999996,-0.6522222222222221,2.085000000000008],[-0.18645833333333334,-0.6451851851851852,2.0996999998092747],[-0.16802083333333329,-0.6314814814814815,2.1162999997139025],[-0.12625000000000006,-0.6253703703703704,2.1330000000000098],[-0.08947916666666664,-0.6351851851851852,2.1499000000953714],[-0.07468750000000005,-0.6205555555555556,2.1680000000000064],[-0.035520833333333356,-0.5825925925925927,2.184599999904634],[-0.005104166666666643,-0.5209259259259259,2.199699999809269],[0.027708333333333356,-0.47537037037037033,2.2165000000000106],[0.04125000000000002,-0.45185185185185184,2.233299999713907],[0.04125000000000002,-0.45185185185185184,2.2497999997139004],[0.05427083333333336,-0.4933333333333333,2.266599999904642],[0.05427083333333336,-0.4933333333333333,2.2830999999046355],[0.06625000000000002,-0.49018518518518517,2.2997999997138976],[0.07979166666666657,-0.4955555555555556,2.3186999998092688],[0.09479166666666666,-0.4903703703703704,2.3337999997139036],[0.10947916666666657,-0.47740740740740745,2.3541999998092678],[0.12374999999999996,-0.477962962962963,2.3692999997139026],[0.11947916666666672,-0.5161111111111111,2.38309999990463],[0.1209374999999999,-0.5668518518518519,2.3995999999046376],[0.11760416666666676,-0.6001851851851853,2.416499999999999],[0.12114583333333329,-0.6572222222222222,2.4331999998092755],[0.1252083333333334,-0.6492592592592593,2.4514000000953757]]","[0.00009999990463427366,0.019599999904642118,0.03529999971389941,0.053699999809268206,0.07009999990464166,0.09729999971389702,0.10829999971390691,0.12029999971390737,0.1336999998092665,0.1511999998092648,0.1664999999999992,0.1830999999046412,0.199699999809269,0.2169000000953787,0.23309999990463837,0.24969999980926616,0.26640000009537346,0.2830999999046355,0.2997999997138976,0.3162999997139053,0.3330999999046327,0.34990000009537425,0.3664000000953678,0.38309999990462984,0.4000000000000057,0.41640000009536493,0.4330999999046412,0.452299999713901,0.4667999997138992,0.4830000000000041,0.49969999980926616,0.516599999904642,0.5330999999046355,0.5497999997138976,0.5679999999999978,0.5852999997138966,0.5996999998092747,0.6164000000953678,0.6330999999046298,0.6527999997139062,0.669400000095365,0.6830000000000069,0.6997999997139033,0.7192999997138969,0.733699999809275,0.7509000000953705,0.769900000095376,0.7831999998092698,0.7999999999999972,0.8200999999046417,0.8334000000953665,0.8500000000000085,0.8719999999999999,0.8831999998092641,0.9000000000000057,0.9164999999999992,0.9395000000000095,0.9499000000953686,0.9665999999046306,0.9900999999046434,0.9999000000953657,1.0167999997138963,1.0331999998092698,1.0540999999046363,1.0700000000000074,1.0850999999046422,1.1000000000000085,1.1164000000953678,1.1331999998092641,1.15009999990464,1.168199999809275,1.183000000000007,1.199699999809269,1.2164000000953763,1.233000000000004,1.2531999998092687,1.2695000000000078,1.283299999713904,1.3022999997138953,1.3205000000000098,1.3350999999046422,1.3530000000000086,1.3682999997138978,1.3830000000000098,1.3996999998092718,1.417900000095372,1.433400000095375,1.450400000095371,1.4662999997138968,1.4857999997139046,1.4996999998092662,1.5164000000953735,1.5362999997139042,1.553599999904634,1.5694000000953707,1.5830999999046327,1.599799999713909,1.6162999997139025,1.6330000000000098,1.6525999999046377,1.668199999809275,1.683000000000007,1.6997999997139033,1.7162999997138968,1.7335000000000065,1.7537999997139053,1.7705999999046327,1.7896999998092724,1.7996999998092633,1.8164000000953706,1.8360999999046328,1.8539999999999992,1.8696999998092707,1.8855000000000075,1.9014000000953786,1.9220999999046313,1.9330999999046412,1.949699999809269,1.9669999999999987,1.985599999904636,2.002599999904632,2.0167999997138963,2.0334000000953694,2.0496999998092633,2.0679000000953778,2.085000000000008,2.0996999998092747,2.1162999997139025,2.1330000000000098,2.1499000000953714,2.1680000000000064,2.184599999904634,2.199699999809269,2.2165000000000106,2.233299999713907,2.2497999997139004,2.266599999904642,2.2830999999046355,2.2997999997138976,2.3186999998092688,2.3337999997139036,2.3541999998092678,2.3692999997139026,2.38309999990463,2.3995999999046376,2.416499999999999,2.4331999998092755,2.4514000000953757]","[1732075517111,1732075517128,1732075517144,1732075517163,1732075517179,1732075517206,1732075517217,1732075517229,1732075517243,1732075517260,1732075517275,1732075517292,1732075517309,1732075517326,1732075517342,1732075517359,1732075517375,1732075517392,1732075517409,1732075517425,1732075517442,1732075517459,1732075517475,1732075517492,1732075517509,1732075517525,1732075517542,1732075517561,1732075517576,1732075517592,1732075517609,1732075517625,1732075517642,1732075517659,1732075517677,1732075517694,1732075517709,1732075517725,1732075517742,1732075517762,1732075517778,1732075517792,1732075517809,1732075517828,1732075517843,1732075517860,1732075517879,1732075517892,1732075517909,1732075517929,1732075517942,1732075517959,1732075517981,1732075517992,1732075518009,1732075518025,1732075518048,1732075518059,1732075518075,1732075518099,1732075518109,1732075518126,1732075518142,1732075518163,1732075518179,1732075518194,1732075518209,1732075518225,1732075518242,1732075518259,1732075518277,1732075518292,1732075518309,1732075518325,1732075518342,1732075518362,1732075518378,1732075518392,1732075518411,1732075518429,1732075518444,1732075518462,1732075518477,1732075518492,1732075518509,1732075518527,1732075518542,1732075518559,1732075518575,1732075518595,1732075518609,1732075518625,1732075518645,1732075518662,1732075518678,1732075518692,1732075518709,1732075518725,1732075518742,1732075518761,1732075518777,1732075518792,1732075518809,1732075518825,1732075518842,1732075518863,1732075518879,1732075518899,1732075518909,1732075518925,1732075518945,1732075518963,1732075518979,1732075518994,1732075519010,1732075519031,1732075519042,1732075519059,1732075519076,1732075519094,1732075519111,1732075519126,1732075519142,1732075519158,1732075519177,1732075519194,1732075519209,1732075519225,1732075519242,1732075519259,1732075519277,1732075519293,1732075519309,1732075519325,1732075519342,1732075519359,1732075519375,1732075519392,1732075519409,1732075519428,1732075519443,1732075519463,1732075519478,1732075519492,1732075519508,1732075519525,1732075519542,1732075519560]","[[830.9,307.6],[835.3,321.2],[851.4,336.4],[867.8,332.8],[872.3,322.3],[885.1,330.7],[885.1,330.7],[881.4,335.6],[882.1,303.4],[899.9,283.1],[895.1,261],[892.9,229.8],[880.3,205.7],[862,166.4],[853.4,132.5],[853.4,132.5],[848.5,105.5],[848.5,105.5],[830.8,67.9],[813.4,31.5],[801.7,32.7],[779.5,28.4],[782.9,22],[778,20.2],[766.7,8.7],[749.4,10.8],[735.7,17.3],[732.7,20.7],[724.4,21.2],[716.1,21.7],[717.2,18.8],[718.3,15.9],[718.3,15.9],[722.2,23.6],[707.7,30.1],[698.3,43.5],[690.2,61.9],[690.2,61.9],[710.8,78.9],[726.6,97],[754.9,115.7],[802.9,148],[836.5,174],[870.1,200],[863.4,199.2],[873.7,197.6],[895.5,196.5],[895.5,196.5],[914.4,199.5],[914.4,199.5],[912.6,210.7],[912.6,210.7],[913,212.5],[913,212.5],[894.7,214.6],[894.7,214.6],[856.7,203.1],[856.7,203.1],[817.2,196.4],[790.7,173.9],[790.7,173.9],[794.1,186.7],[799.1,197.6],[795.3,205],[798.9,206.2],[778.3,183.1],[778.3,183.1],[757.8,171.4],[769.1,176.5],[780.4,181.6],[780.4,160.8],[767.4,155.8],[725,131.3],[686.6,119.7],[669.3,100],[646.2,77.4],[646.2,77.4],[653.2,78],[652.2,84.4],[638.1,73.7],[635.6,63.5],[625.4,81.8],[624,94.1],[654.8,116.3],[681.4,129.5],[700.8,167.6],[726.6,208],[728.9,212.1],[714.2,211.4],[714.2,211.4],[714.9,201.4],[704,190.9],[733.5,207.3],[746.4,212.5],[763.6,214.6],[763.6,214.6],[756.3,204.1],[745.2,183.8],[731.5,142.4],[752.1,154.6],[757.4,144.1],[759.1,133.3],[767.7,139.3],[756.4,111],[742.4,106.3],[722.6,102.2],[749.7,103.5],[743.7,120.6],[743.7,120.6],[731,152.3],[700.7,148],[713,170.2],[712.1,206.6],[695.9,235.2],[678.2,238.5],[671,235.4],[671,235.4],[675,228.7],[644.3,231.8],[643.5,220.2],[666.4,207.6],[673,211.3],[682.3,199.9],[689.2,181.1],[719.9,171.8],[752.1,187.8],[781,191.6],[798.7,199],[838.8,202.3],[874.1,197],[888.3,204.9],[925.9,225.4],[955.1,258.7],[986.6,283.3],[999.6,296],[999.6,296],[1012.1,273.6],[1012.1,273.6],[1023.6,275.3],[1036.6,272.4],[1051,275.2],[1065.1,282.2],[1078.8,281.9],[1074.7,261.3],[1076.1,233.9],[1072.9,215.9],[1076.3,185.1],[1080.2,189.4]]","[-0.2,0.6000000000000001]","[0.2,0.6000000000000001]","[0.6000000000000001,0.6000000000000001]","[-0.6000000000000001,-0.6000000000000001]","[-0.6000000000000001,-0.2]","[-0.6000000000000001,0.2]","[-0.2,-0.6000000000000001]","[0.2,-0.6000000000000001]","[0.6000000000000001,-0.6000000000000001]","[-0.2,-0.2]","[0.2,-0.2]","[0.6000000000000001,-0.2]","[-0.2,0.2]","[0.2,0.2]","[0.6000000000000001,0.2]",0,1,1,1,1,2,Monitor,20,20,7,3,70,6,3,60,3
