inst1_resp.keys,inst1_resp.rt,calibrationMouse.x,calibrationMouse.y,calibrationMouse.leftButton,calibrationMouse.midButton,calibrationMouse.rightButton,calibrationClick.x,calibrationClick.y,calibrationClick.leftButton,calibrationClick.midButton,calibrationClick.rightButton,calibrationClick.clicked_name,trialsc.thisRepN,trialsc.thisTrialN,trialsc.thisN,trialsc.thisIndex,trialsc.ran,calibration_x,calibration_y,participant,session,date,expName,psychopyVersion,OS,frameRate,ScreenRes_pixels,Camera_pixels,mouse_2.x,mouse_2.y,mouse_2.leftButton,mouse_2.midButton,mouse_2.rightButton,mouse_2.time,mouse_2.clicked_name,mouse.x,mouse.y,mouse.leftButton,mouse.midButton,mouse.rightButton,mouse.time,mouse.clicked_name,Choice,Trial,TrialDuration,MOUSE_GAZE,ET_GAZE,ET_GAZE_x_T,time,unixTime,ET_GAZE_NF,Loc_Bus_label,Loc_Metro_label,Loc_RH_label,Loc_Cost_label,Loc_Travel_label,Loc_Comfort_label,Loc_Bus_cost,Loc_Metro_cost,Loc_RH_cost,Loc_Bus_travel,Loc_Metro_travel,Loc_RH_travel,Loc_Bus_comfort,Loc_Metro_comfort,Loc_RH_comfort,trials.thisRepN,trials.thisTrialN,trials.thisN,trials.thisIndex,trials.ran,Block,Device,RH_cost,RH_travel_time,RH_Comfort,metro_cost,metro_travel_time,metro_Comfort,Bus_cost,Bus_travel_time,Bus_Comfort
space,2.3557,0.036458333,0.274074074,1,0,0,0.670833333,-0.666666667,1,0,0,calibration_square,0,0,0,20,1,0.67,-0.67,04,001,2024-11-19_14h25.16.453,Attention_exp_legacy,2023.1.0,Win32,60.24096386,,,,,,,,,,,,,,,,,,,,,,,,,,,,,,,,,,,,,,,,,,,,,,,,,,,,,,,,
,,,,,,,-0.666666667,-0.666666667,1,0,0,calibration_square,0,1,1,0,1,-0.67,-0.67,04,001,2024-11-19_14h25.16.453,Attention_exp_legacy,2023.1.0,Win32,60.24096386,,,,,,,,,,,,,,,,,,,,,,,,,,,,,,,,,,,,,,,,,,,,,,,,,,,,,,,,
,,,,,,,0.005208333,0.335185185,1,0,0,calibration_square,0,2,2,12,1,0,0.33,04,001,2024-11-19_14h25.16.453,Attention_exp_legacy,2023.1.0,Win32,60.24096386,,,,,,,,,,,,,,,,,,,,,,,,,,,,,,,,,,,,,,,,,,,,,,,,,,,,,,,,
,,,,,,,-0.33125,-0.325925926,1,0,0,calibration_square,0,3,3,5,1,-0.33,-0.33,04,001,2024-11-19_14h25.16.453,Attention_exp_legacy,2023.1.0,Win32,60.24096386,,,,,,,,,,,,,,,,,,,,,,,,,,,,,,,,,,,,,,,,,,,,,,,,,,,,,,,,
,,,,,,,-0.341666667,0.333333333,1,0,0,,0,4,4,7,1,-0.33,0.33,04,001,2024-11-19_14h25.16.453,Attention_exp_legacy,2023.1.0,Win32,60.24096386,,,,,,,,,,,,,,,,,,,,,,,,,,,,,,,,,,,,,,,,,,,,,,,,,,,,,,,,
,,,,,,,-0.330208333,0.009259259,1,0,0,calibration_square,0,5,5,6,1,-0.33,0,04,001,2024-11-19_14h25.16.453,Attention_exp_legacy,2023.1.0,Win32,60.24096386,,,,,,,,,,,,,,,,,,,,,,,,,,,,,,,,,,,,,,,,,,,,,,,,,,,,,,,,
,,,,,,,-0.661458333,-0.001851852,1,0,0,calibration_square,0,6,6,2,1,-0.67,0,04,001,2024-11-19_14h25.16.453,Attention_exp_legacy,2023.1.0,Win32,60.24096386,,,,,,,,,,,,,,,,,,,,,,,,,,,,,,,,,,,,,,,,,,,,,,,,,,,,,,,,
,,,,,,,-0.672916667,-0.318518519,1,0,0,,0,7,7,1,1,-0.67,-0.33,04,001,2024-11-19_14h25.16.453,Attention_exp_legacy,2023.1.0,Win32,60.24096386,,,,,,,,,,,,,,,,,,,,,,,,,,,,,,,,,,,,,,,,,,,,,,,,,,,,,,,,
,,,,,,,-0.001041667,0.012962963,1,0,0,,0,8,8,11,1,0,0,04,001,2024-11-19_14h25.16.453,Attention_exp_legacy,2023.1.0,Win32,60.24096386,,,,,,,,,,,,,,,,,,,,,,,,,,,,,,,,,,,,,,,,,,,,,,,,,,,,,,,,
,,,,,,,0.338541667,-0.005555556,1,0,0,calibration_square,0,9,9,16,1,0.33,0,04,001,2024-11-19_14h25.16.453,Attention_exp_legacy,2023.1.0,Win32,60.24096386,,,,,,,,,,,,,,,,,,,,,,,,,,,,,,,,,,,,,,,,,,,,,,,,,,,,,,,,
,,,,,,,0.3375,0.325925926,1,0,0,calibration_square,0,10,10,17,1,0.33,0.33,04,001,2024-11-19_14h25.16.453,Attention_exp_legacy,2023.1.0,Win32,60.24096386,,,,,,,,,,,,,,,,,,,,,,,,,,,,,,,,,,,,,,,,,,,,,,,,,,,,,,,,
,,,,,,,0.334375,-0.666666667,1,0,0,calibration_square,0,11,11,14,1,0.33,-0.67,04,001,2024-11-19_14h25.16.453,Attention_exp_legacy,2023.1.0,Win32,60.24096386,,,,,,,,,,,,,,,,,,,,,,,,,,,,,,,,,,,,,,,,,,,,,,,,,,,,,,,,
,,,,,,,0.664583333,0.696296296,1,0,0,,0,12,12,19,1,0.67,0.67,04,001,2024-11-19_14h25.16.453,Attention_exp_legacy,2023.1.0,Win32,60.24096386,,,,,,,,,,,,,,,,,,,,,,,,,,,,,,,,,,,,,,,,,,,,,,,,,,,,,,,,
,,,,,,,-0.669791667,0.331481481,1,0,0,calibration_square,0,13,13,3,1,-0.67,0.33,04,001,2024-11-19_14h25.16.453,Attention_exp_legacy,2023.1.0,Win32,60.24096386,,,,,,,,,,,,,,,,,,,,,,,,,,,,,,,,,,,,,,,,,,,,,,,,,,,,,,,,
,,,,,,,0.322916667,-0.322222222,1,0,0,calibration_square,0,14,14,15,1,0.33,-0.33,04,001,2024-11-19_14h25.16.453,Attention_exp_legacy,2023.1.0,Win32,60.24096386,,,,,,,,,,,,,,,,,,,,,,,,,,,,,,,,,,,,,,,,,,,,,,,,,,,,,,,,
,,,,,,,0.005208333,-0.337037037,1,0,0,calibration_square,0,15,15,10,1,0,-0.33,04,001,2024-11-19_14h25.16.453,Attention_exp_legacy,2023.1.0,Win32,60.24096386,,,,,,,,,,,,,,,,,,,,,,,,,,,,,,,,,,,,,,,,,,,,,,,,,,,,,,,,
,,,,,,,-0.339583333,0.672222222,1,0,0,calibration_square,0,16,16,8,1,-0.33,0.67,04,001,2024-11-19_14h25.16.453,Attention_exp_legacy,2023.1.0,Win32,60.24096386,,,,,,,,,,,,,,,,,,,,,,,,,,,,,,,,,,,,,,,,,,,,,,,,,,,,,,,,
,,,,,,,0.002083333,-0.666666667,1,0,0,calibration_square,0,17,17,9,1,0,-0.67,04,001,2024-11-19_14h25.16.453,Attention_exp_legacy,2023.1.0,Win32,60.24096386,,,,,,,,,,,,,,,,,,,,,,,,,,,,,,,,,,,,,,,,,,,,,,,,,,,,,,,,
,,,,,,,-0.321875,-0.674074074,1,0,0,calibration_square,0,18,18,4,1,-0.33,-0.67,04,001,2024-11-19_14h25.16.453,Attention_exp_legacy,2023.1.0,Win32,60.24096386,,,,,,,,,,,,,,,,,,,,,,,,,,,,,,,,,,,,,,,,,,,,,,,,,,,,,,,,
,,,,,,,0.003125,0.67037037,1,0,0,calibration_square,0,19,19,13,1,0,0.67,04,001,2024-11-19_14h25.16.453,Attention_exp_legacy,2023.1.0,Win32,60.24096386,,,,,,,,,,,,,,,,,,,,,,,,,,,,,,,,,,,,,,,,,,,,,,,,,,,,,,,,
,,,,,,,0.33125,0.675925926,1,0,0,calibration_square,0,20,20,18,1,0.33,0.67,04,001,2024-11-19_14h25.16.453,Attention_exp_legacy,2023.1.0,Win32,60.24096386,,,,,,,,,,,,,,,,,,,,,,,,,,,,,,,,,,,,,,,,,,,,,,,,,,,,,,,,
,,,,,,,,,,,,,,,,,,,,04,001,2024-11-19_14h25.16.453,Attention_exp_legacy,2023.1.0,Win32,60.24096386,"[1920,1080]","[640,480]",[0.016666666666666666],[-0.4981481481481482],[1],[0],[0],[6.04840000009537],"[""StartButton""]",[0.15520833333333334],[0.43333333333333335],[1],[0],[0],[4.304000000000002],"[""Metro_label""]",Metro_label,1,5.3156,"[[0.016666666666666666,-0.5],[0.016666666666666666,-0.5],[0.016666666666666666,-0.5],[0.016666666666666666,-0.5],[0.016666666666666666,-0.5],[0.016666666666666666,-0.5],[0.017708333333333333,-0.5],[0.019791666666666666,-0.4962962962962963],[0.020833333333333332,-0.49074074074074076],[0.022916666666666665,-0.48703703703703705],[0.026041666666666668,-0.47962962962962963],[0.028125,-0.4759259259259259],[0.029166666666666667,-0.4722222222222222],[0.03125,-0.4703703703703704],[0.03229166666666667,-0.4666666666666667],[0.034375,-0.4648148148148148],[0.034375,-0.4648148148148148],[0.036458333333333336,-0.46111111111111114],[0.0375,-0.45925925925925926],[0.0375,-0.45925925925925926],[0.03854166666666667,-0.4537037037037037],[0.03958333333333333,-0.45185185185185184],[0.040625,-0.44814814814814813],[0.042708333333333334,-0.4444444444444444],[0.04375,-0.44074074074074077],[0.04375,-0.43703703703703706],[0.04583333333333333,-0.43148148148148147],[0.04895833333333333,-0.4222222222222222],[0.051041666666666666,-0.4166666666666667],[0.05416666666666667,-0.4074074074074074],[0.05520833333333333,-0.39814814814814814],[0.058333333333333334,-0.38333333333333336],[0.06041666666666667,-0.37222222222222223],[0.06145833333333333,-0.36666666666666664],[0.06354166666666666,-0.3611111111111111],[0.06458333333333334,-0.3574074074074074],[0.06458333333333334,-0.35555555555555557],[0.06458333333333334,-0.35555555555555557],[0.065625,-0.3537037037037037],[0.065625,-0.35],[0.06770833333333333,-0.34074074074074073],[0.06979166666666667,-0.3351851851851852],[0.07083333333333333,-0.3277777777777778],[0.07291666666666667,-0.31666666666666665],[0.07604166666666666,-0.30185185185185187],[0.07916666666666666,-0.29074074074074074],[0.08229166666666667,-0.2759259259259259],[0.08541666666666667,-0.25925925925925924],[0.0875,-0.23333333333333334],[0.08854166666666667,-0.21296296296296297],[0.08854166666666667,-0.18888888888888888],[0.08854166666666667,-0.14074074074074075],[0.08854166666666667,-0.13148148148148148],[0.08854166666666667,-0.1111111111111111],[0.084375,-0.09259259259259259],[0.08125,-0.08333333333333333],[0.08020833333333334,-0.07962962962962963],[0.07916666666666666,-0.07407407407407407],[0.078125,-0.07222222222222222],[0.07708333333333334,-0.07037037037037037],[0.07708333333333334,-0.07037037037037037],[0.07708333333333334,-0.07037037037037037],[0.07708333333333334,-0.07037037037037037],[0.07604166666666666,-0.07037037037037037],[0.075,-0.07037037037037037],[0.07395833333333333,-0.07037037037037037],[0.071875,-0.07037037037037037],[0.06979166666666667,-0.07407407407407407],[0.06875,-0.07592592592592592],[0.06770833333333333,-0.07777777777777778],[0.06666666666666667,-0.07962962962962963],[0.065625,-0.08333333333333333],[0.06354166666666666,-0.08703703703703704],[0.0625,-0.09259259259259259],[0.0625,-0.0962962962962963],[0.06041666666666667,-0.10185185185185185],[0.059375,-0.10555555555555556],[0.058333333333333334,-0.1111111111111111],[0.058333333333333334,-0.1111111111111111],[0.058333333333333334,-0.11296296296296296],[0.058333333333333334,-0.11296296296296296],[0.058333333333333334,-0.11296296296296296],[0.058333333333333334,-0.11296296296296296],[0.058333333333333334,-0.11296296296296296],[0.058333333333333334,-0.11296296296296296],[0.058333333333333334,-0.11296296296296296],[0.058333333333333334,-0.11296296296296296],[0.058333333333333334,-0.11296296296296296],[0.058333333333333334,-0.11296296296296296],[0.058333333333333334,-0.11296296296296296],[0.058333333333333334,-0.11296296296296296],[0.058333333333333334,-0.11296296296296296],[0.058333333333333334,-0.11296296296296296],[0.058333333333333334,-0.11296296296296296],[0.058333333333333334,-0.11296296296296296],[0.058333333333333334,-0.11296296296296296],[0.058333333333333334,-0.11296296296296296],[0.058333333333333334,-0.11296296296296296],[0.058333333333333334,-0.11296296296296296],[0.058333333333333334,-0.11296296296296296],[0.058333333333333334,-0.11296296296296296],[0.058333333333333334,-0.11296296296296296],[0.058333333333333334,-0.11296296296296296],[0.058333333333333334,-0.11296296296296296],[0.058333333333333334,-0.11296296296296296],[0.058333333333333334,-0.11296296296296296],[0.058333333333333334,-0.11296296296296296],[0.058333333333333334,-0.11296296296296296],[0.058333333333333334,-0.11296296296296296],[0.058333333333333334,-0.11296296296296296],[0.058333333333333334,-0.11296296296296296],[0.058333333333333334,-0.11296296296296296],[0.058333333333333334,-0.11296296296296296],[0.058333333333333334,-0.11296296296296296],[0.058333333333333334,-0.11481481481481481],[0.059375,-0.11481481481481481],[0.06145833333333333,-0.11481481481481481],[0.0625,-0.11481481481481481],[0.06458333333333334,-0.11481481481481481],[0.06666666666666667,-0.11296296296296296],[0.06979166666666667,-0.1111111111111111],[0.07083333333333333,-0.1111111111111111],[0.07395833333333333,-0.10925925925925926],[0.07708333333333334,-0.10740740740740741],[0.07916666666666666,-0.10740740740740741],[0.08229166666666667,-0.1037037037037037],[0.0875,-0.10185185185185185],[0.09270833333333334,-0.1],[0.1,-0.0962962962962963],[0.10416666666666667,-0.09444444444444444],[0.109375,-0.09074074074074075],[0.115625,-0.08888888888888889],[0.12083333333333333,-0.08703703703703704],[0.12291666666666666,-0.08518518518518518],[0.12708333333333333,-0.08333333333333333],[0.12916666666666668,-0.08148148148148149],[0.13333333333333333,-0.07962962962962963],[0.13854166666666667,-0.07962962962962963],[0.14479166666666668,-0.07592592592592592],[0.15520833333333334,-0.06851851851851852],[0.1625,-0.06851851851851852],[0.16979166666666667,-0.06111111111111111],[0.17604166666666668,-0.05925925925925926],[0.18229166666666666,-0.05740740740740741],[0.18854166666666666,-0.053703703703703705],[0.19479166666666667,-0.05185185185185185],[0.2,-0.04814814814814815],[0.20520833333333333,-0.046296296296296294],[0.21145833333333333,-0.044444444444444446],[0.21770833333333334,-0.040740740740740744],[0.22708333333333333,-0.03518518518518519],[0.2375,-0.03148148148148148],[0.24270833333333333,-0.02962962962962963],[0.24791666666666667,-0.02962962962962963],[0.2520833333333333,-0.027777777777777776],[0.25625,-0.027777777777777776],[0.25833333333333336,-0.027777777777777776],[0.259375,-0.025925925925925925],[0.259375,-0.025925925925925925],[0.259375,-0.025925925925925925],[0.259375,-0.025925925925925925],[0.259375,-0.025925925925925925],[0.259375,-0.025925925925925925],[0.259375,-0.025925925925925925],[0.259375,-0.025925925925925925],[0.259375,-0.025925925925925925],[0.25625,-0.03333333333333333],[0.253125,-0.040740740740740744],[0.25,-0.04814814814814815],[0.24583333333333332,-0.05555555555555555],[0.24270833333333333,-0.06296296296296296],[0.23958333333333334,-0.06851851851851852],[0.23541666666666666,-0.07777777777777778],[0.234375,-0.08333333333333333],[0.22916666666666666,-0.09444444444444444],[0.22708333333333333,-0.09814814814814815],[0.22604166666666667,-0.10185185185185185],[0.22395833333333334,-0.10925925925925926],[0.22291666666666668,-0.1111111111111111],[0.221875,-0.11296296296296296],[0.22083333333333333,-0.11666666666666667],[0.21875,-0.12407407407407407],[0.21666666666666667,-0.12777777777777777],[0.21458333333333332,-0.13333333333333333],[0.21354166666666666,-0.1388888888888889],[0.21041666666666667,-0.14629629629629629],[0.20833333333333334,-0.15185185185185185],[0.20416666666666666,-0.1648148148148148],[0.203125,-0.1685185185185185],[0.20208333333333334,-0.17407407407407408],[0.20104166666666667,-0.17777777777777778],[0.2,-0.17962962962962964],[0.2,-0.17962962962962964],[0.2,-0.1814814814814815],[0.2,-0.1814814814814815],[0.2,-0.1814814814814815],[0.2,-0.1814814814814815],[0.2,-0.1814814814814815],[0.2,-0.1814814814814815],[0.2,-0.1814814814814815],[0.2,-0.1814814814814815],[0.2,-0.1814814814814815],[0.2,-0.1814814814814815],[0.2,-0.1814814814814815],[0.2,-0.1814814814814815],[0.2,-0.1814814814814815],[0.2,-0.1814814814814815],[0.2,-0.1814814814814815],[0.19895833333333332,-0.1648148148148148],[0.19375,-0.1259259259259259],[0.19166666666666668,-0.11481481481481481],[0.18958333333333333,-0.07777777777777778],[0.18645833333333334,-0.05],[0.18333333333333332,-0.025925925925925925],[0.17916666666666667,-0.007407407407407408],[0.17604166666666668,0.014814814814814815],[0.175,0.03148148148148148],[0.17291666666666666,0.05],[0.17291666666666666,0.06666666666666667],[0.17291666666666666,0.07962962962962963],[0.17291666666666666,0.09074074074074075],[0.17291666666666666,0.1],[0.17291666666666666,0.11481481481481481],[0.17291666666666666,0.12407407407407407],[0.17291666666666666,0.13703703703703704],[0.17291666666666666,0.14814814814814814],[0.17291666666666666,0.15925925925925927],[0.17291666666666666,0.17407407407407408],[0.17291666666666666,0.18703703703703703],[0.17291666666666666,0.2037037037037037],[0.17291666666666666,0.21481481481481482],[0.17291666666666666,0.22592592592592592],[0.17604166666666668,0.24444444444444444],[0.178125,0.25555555555555554],[0.18020833333333333,0.27037037037037037],[0.18229166666666666,0.2833333333333333],[0.18541666666666667,0.3037037037037037],[0.1875,0.32037037037037036],[0.18854166666666666,0.3314814814814815],[0.18854166666666666,0.3388888888888889],[0.18854166666666666,0.34629629629629627],[0.18854166666666666,0.3537037037037037],[0.18854166666666666,0.3592592592592593],[0.1875,0.36666666666666664],[0.18333333333333332,0.37777777777777777],[0.17708333333333334,0.3907407407407407],[0.17604166666666668,0.39444444444444443],[0.17083333333333334,0.4074074074074074],[0.16770833333333332,0.4148148148148148],[0.16458333333333333,0.4203703703703704],[0.16354166666666667,0.4222222222222222],[0.16145833333333334,0.42592592592592593],[0.15729166666666666,0.42962962962962964],[0.15520833333333334,0.43333333333333335],[0.15520833333333334,0.43333333333333335],[0.15520833333333334,0.43333333333333335],[0.15520833333333334,0.43333333333333335],[0.15520833333333334,0.43333333333333335],[0.15520833333333334,0.43333333333333335],[0.15520833333333334,0.43333333333333335],[0.15520833333333334,0.43333333333333335],[0.15520833333333334,0.43333333333333335],[0.15520833333333334,0.43333333333333335],[0.15520833333333334,0.43333333333333335],[0.15520833333333334,0.43333333333333335],[0.15520833333333334,0.43333333333333335],[0.15520833333333334,0.43333333333333335],[0.15520833333333334,0.43333333333333335],[0.15520833333333334,0.43333333333333335],[0.15520833333333334,0.43333333333333335],[0.15520833333333334,0.43333333333333335],[0.15520833333333334,0.43333333333333335],[0.15520833333333334,0.43333333333333335],[0.15520833333333334,0.43333333333333335],[0.15520833333333334,0.43333333333333335],[0.15520833333333334,0.43333333333333335],[0.15520833333333334,0.43333333333333335],[0.15520833333333334,0.43333333333333335],[0.15416666666666667,0.42962962962962964],[0.15416666666666667,0.4222222222222222],[0.15208333333333332,0.4185185185185185],[0.15104166666666666,0.4111111111111111],[0.15104166666666666,0.40555555555555556],[0.15,0.40185185185185185],[0.14895833333333333,0.39814814814814814],[0.14895833333333333,0.39814814814814814],[0.14791666666666667,0.39444444444444443],[0.14791666666666667,0.39444444444444443],[0.14791666666666667,0.3925925925925926],[0.14791666666666667,0.3907407407407407],[0.146875,0.3888888888888889],[0.146875,0.387037037037037],[0.146875,0.3851851851851852],[0.146875,0.3851851851851852],[0.146875,0.3851851851851852],[0.14583333333333334,0.38333333333333336],[0.14583333333333334,0.38333333333333336],[0.14583333333333334,0.38333333333333336],[0.14583333333333334,0.3814814814814815],[0.14583333333333334,0.37962962962962965],[0.14583333333333334,0.37962962962962965],[0.14583333333333334,0.37962962962962965],[0.14583333333333334,0.37777777777777777],[0.14583333333333334,0.37777777777777777],[0.14583333333333334,0.37592592592592594],[0.14583333333333334,0.37407407407407406],[0.14479166666666668,0.37222222222222223],[0.14479166666666668,0.37037037037037035],[0.14479166666666668,0.37037037037037035],[0.14479166666666668,0.36666666666666664],[0.14479166666666668,0.36666666666666664],[0.14479166666666668,0.3648148148148148],[0.14375,0.362962962962963],[0.14375,0.362962962962963],[0.14375,0.3611111111111111],[0.14375,0.3611111111111111],[0.14375,0.3592592592592593],[0.14270833333333333,0.3574074074074074]]","[[-0.06937500000000002,0.4479629629629629],[-0.06937500000000002,0.4479629629629629],[-0.059895833333333336,0.4411111111111112],[-0.08416666666666663,0.46333333333333343],[-0.09093749999999995,0.4648148148148148],[-0.06177083333333329,0.4294444444444444],[-0.06177083333333329,0.4294444444444444],[-0.06135416666666664,0.4264814814814814],[-0.0515625,0.43555555555555564],[-0.04760416666666671,0.4759259259259259],[-0.04760416666666671,0.4759259259259259],[-0.03218749999999997,0.49907407407407406],[0.005208333333333333,0.5055555555555555],[0.02041666666666669,0.5001851851851852],[0.022916666666666665,0.5222222222222223],[0.04874999999999995,0.4677777777777778],[0.07614583333333323,0.4401851851851853],[0.06364583333333336,0.4492592592592593],[0.05520833333333333,0.4366666666666666],[0.08562500000000005,0.4094444444444445],[0.12312500000000005,0.36944444444444446],[0.15031249999999996,0.3933333333333333],[0.14718749999999994,0.34092592592592597],[0.15875000000000009,0.2681481481481481],[0.15875000000000009,0.2681481481481481],[0.17458333333333323,0.23574074074074067],[0.16020833333333329,0.2627777777777777],[0.1502083333333334,0.25574074074074077],[0.13739583333333344,0.24574074074074082],[0.13739583333333344,0.24574074074074082],[0.16510416666666666,0.25388888888888894],[0.16239583333333343,0.2548148148148149],[0.11166666666666672,0.27611111111111114],[0.08364583333333328,0.2044444444444444],[0.06906249999999996,0.20092592592592592],[0.03218749999999997,0.19537037037037036],[0.03218749999999997,0.19537037037037036],[0.00947916666666669,0.19425925925925921],[0.00947916666666669,0.19425925925925921],[-0.016354166666666715,0.18314814814814812],[-0.02958333333333331,0.17962962962962964],[-0.07083333333333333,0.19037037037037027],[-0.11499999999999998,0.21370370370370367],[-0.15239583333333329,0.17462962962962955],[-0.15677083333333333,0.14370370370370375],[-0.15812499999999996,0.15425925925925918],[-0.16791666666666671,0.18518518518518517],[-0.14802083333333335,0.2324074074074074],[-0.16208333333333336,0.20703703703703696],[-0.15104166666666666,0.17037037037037037],[-0.13406250000000006,0.16629629629629622],[-0.1,0.08037037037037033],[-0.08812500000000002,-0.010740740740740657],[-0.07552083333333333,-0.04314814814814806],[-0.04562499999999995,-0.05092592592592592],[-0.04791666666666667,-0.08777777777777773],[-0.05531250000000002,-0.09462962962962967],[-0.06447916666666664,-0.04944444444444453],[-0.05583333333333336,-0.053148148148148125],[-0.03083333333333336,-0.026481481481481398],[-0.05562499999999997,-0.012962962962962963],[-0.05562499999999997,-0.012962962962962963],[-0.03312499999999995,0.0764814814814814],[-0.03312499999999995,0.0764814814814814],[0.007083333333333286,0.10722222222222218],[0.007083333333333286,0.10722222222222218],[0.027395833333333286,0.15314814814814823],[0.027395833333333286,0.15314814814814823],[0.04791666666666667,0.16370370370370366],[0.04791666666666667,0.16370370370370366],[0.04624999999999998,0.18629629629629635],[0.04624999999999998,0.18629629629629635],[0.07270833333333329,0.17796296296296302],[0.07270833333333329,0.17796296296296302],[0.09874999999999995,0.1294444444444444],[0.1056250000000001,0.1346296296296297],[0.1056250000000001,0.1346296296296297],[0.09802083333333324,0.13481481481481472],[0.09802083333333324,0.13481481481481472],[0.10968749999999995,0.12462962962962955],[0.10968749999999995,0.12462962962962955],[0.10104166666666667,0.09222222222222214],[0.10104166666666667,0.09222222222222214],[0.0865624999999999,0.12370370370370362],[0.0865624999999999,0.12370370370370362],[0.09041666666666662,0.12092592592592584],[0.08520833333333329,0.13574074074074066],[0.11635416666666672,0.16166666666666657],[0.13291666666666657,0.16814814814814807],[0.14916666666666673,0.17796296296296302],[0.16677083333333323,0.18296296296296288],[0.2039583333333333,0.23962962962962958],[0.2778125000000001,0.29814814814814816],[0.3256249999999999,0.4075925925925926],[0.36447916666666674,0.4948148148148149],[0.4188541666666666,0.6109259259259259],[0.4703125,0.6966666666666668],[0.5151041666666667,0.7927777777777778],[0.540625,0.8740740740740741],[0.5766666666666665,0.9337037037037038],[0.5940624999999999,0.9911111111111112],[0.6190625,0.9875925925925925],[0.6134375000000001,0.9727777777777777],[0.6334374999999999,0.9231481481481482],[0.6282291666666666,0.901111111111111],[0.6077083333333334,0.924814814814815],[0.5895833333333333,0.9562962962962964],[0.5519791666666668,0.9475925925925927],[0.5519791666666668,0.9475925925925927],[0.53625,0.9112962962962962],[0.53625,0.9112962962962962],[0.5303124999999999,0.8814814814814815],[0.5341666666666666,0.856851851851852],[0.5323958333333333,0.8411111111111111],[0.5323958333333333,0.8411111111111111],[0.47000000000000003,0.7892592592592593],[0.4015625,0.7185185185185186],[0.37177083333333344,0.6266666666666666],[0.33583333333333343,0.48296296296296287],[0.30187499999999995,0.33000000000000007],[0.30187499999999995,0.33000000000000007],[0.2819791666666667,0.22111111111111106],[0.25760416666666663,0.15166666666666662],[0.21197916666666666,0.12333333333333338],[0.1734375,0.09092592592592597],[0.1306250000000001,0.07481481481481478],[0.1306250000000001,0.07481481481481478],[0.1330208333333334,0.07370370370370362],[0.12604166666666666,0.10999999999999996],[0.12604166666666666,0.10999999999999996],[0.12260416666666671,0.1124074074074075],[0.12666666666666657,0.09185185185185189],[0.12666666666666657,0.09185185185185189],[0.12312500000000005,0.10444444444444441],[0.1304166666666667,0.11537037037037029],[0.11010416666666671,0.15407407407407417],[0.11302083333333333,0.144074074074074],[0.08552083333333324,0.12296296296296293],[0.042499999999999954,0.08740740740740749],[0.03697916666666667,0.08000000000000008],[0.034062500000000044,0.05537037037037033],[-0.006562499999999953,0.030740740740740784],[-0.03916666666666669,0.024629629629629547],[-0.05375000000000003,0.03555555555555564],[-0.05375000000000003,0.03555555555555564],[-0.07916666666666666,0.04814814814814815],[-0.08218749999999998,0.011481481481481566],[-0.08479166666666664,0.027777777777777776],[-0.05947916666666669,0.0198148148148149],[-0.0453125,0.044444444444444446],[-0.0453125,0.044444444444444446],[-0.02635416666666662,0.0455555555555556],[-0.022291666666666644,0.022777777777777692],[0.010000000000000024,0.038703703703703664],[0.02677083333333338,0.05907407407407403],[0.03114583333333331,0.03851851851851843],[0.03114583333333331,0.03851851851851843],[0.04833333333333331,0.03759259259259251],[0.05145833333333331,0.0712962962962963],[0.05531250000000002,0.06148148148148157],[0.06343749999999998,0.08814814814814818],[0.07989583333333337,0.09962962962962954],[0.06947916666666672,0.12759259259259256],[0.0806250000000001,0.14370370370370375],[0.09677083333333343,0.13907407407407413],[0.06385416666666661,0.1175925925925926],[0.08864583333333324,0.12111111111111107],[0.07614583333333323,0.08888888888888889],[0.08479166666666677,0.046481481481481526],[0.0806250000000001,0.025925925925925925],[0.07614583333333323,0.043703703703703745],[0.06156250000000003,0.06518518518518526],[0.057083333333333285,0.07314814814814814],[0.06489583333333329,0.125],[0.07395833333333333,0.13111111111111104],[0.1287499999999999,0.15999999999999995],[0.12114583333333329,0.18296296296296288],[0.14343750000000005,0.2448148148148149],[0.16572916666666657,0.3066666666666667],[0.17999999999999997,0.36277777777777775],[0.18552083333333325,0.3418518518518519],[0.22010416666666663,0.30388888888888893],[0.24479166666666666,0.28481481481481474],[0.24479166666666666,0.28481481481481474],[0.2520833333333333,0.23481481481481473],[0.26927083333333335,0.2638888888888889],[0.2897916666666667,0.28703703703703703],[0.2960416666666667,0.2935185185185185],[0.3140625,0.26500000000000007],[0.3140625,0.26500000000000007],[0.31229166666666663,0.2598148148148147],[0.31229166666666663,0.2598148148148147],[0.2860416666666666,0.19796296296296292],[0.2860416666666666,0.19796296296296292],[0.31197916666666664,0.1983333333333334],[0.31197916666666664,0.1983333333333334],[0.3198958333333332,0.22240740740740744],[0.3198958333333332,0.22240740740740744],[0.30583333333333323,0.23370370370370377],[0.28395833333333326,0.27259259259259266],[0.28395833333333326,0.27259259259259266],[0.25770833333333343,0.24870370370370362],[0.25770833333333343,0.24870370370370362],[0.2384375000000001,0.22444444444444453],[0.22447916666666667,0.175],[0.22447916666666667,0.175],[0.17510416666666656,0.17962962962962964],[0.18093750000000006,0.15203703703703708],[0.18760416666666657,0.17814814814814822],[0.1818749999999999,0.16944444444444445],[0.1818749999999999,0.16944444444444445],[0.1560416666666666,0.13833333333333342],[0.15875000000000009,0.0948148148148149],[0.17041666666666658,0.042407407407407366],[0.17531249999999995,0.019444444444444445],[0.20041666666666677,0.007037037037036953],[0.22791666666666663,0.01574074074074074],[0.22791666666666663,0.01574074074074074],[0.2490624999999999,-0.008703703703703788],[0.2361458333333334,-0.02962962962962963],[0.2462500000000001,-0.058333333333333334],[0.2361458333333334,-0.060555555555555536],[0.24802083333333325,-0.06814814814814817],[0.253125,-0.05592592592592591],[0.2462500000000001,-0.03833333333333342],[0.24177083333333324,-0.014629629629629588],[0.2101041666666667,-0.0011111111111111532],[0.1828125,-0.008703703703703788],[0.18010416666666676,-0.025],[0.19833333333333342,-0.03981481481481482],[0.21020833333333327,-0.019259259259259216],[0.18239583333333323,-0.02962962962962963],[0.15458333333333343,-0.04000000000000004],[0.15458333333333343,-0.04000000000000004],[0.14270833333333333,-0.06222222222222226],[0.1349999999999999,-0.09648148148148153],[0.12489583333333343,-0.1368518518518518],[0.13958333333333334,-0.14240740740740737],[0.16114583333333338,-0.12518518518518523],[0.13937499999999994,-0.127962962962963],[0.0953125,-0.12685185185185185],[0.09562499999999995,-0.1425925925925926],[0.12510416666666657,-0.1425925925925926],[0.12510416666666657,-0.1425925925925926],[0.1428124999999999,-0.15833333333333333],[0.16010416666666671,-0.1653703703703704],[0.16010416666666671,-0.1653703703703704],[0.18270833333333342,-0.16166666666666668],[0.18791666666666676,-0.17981481481481484],[0.18791666666666676,-0.17981481481481484],[0.1727083333333333,-0.22777777777777777],[0.1727083333333333,-0.22777777777777777],[0.1525000000000001,-0.2733333333333334],[0.17395833333333333,-0.2874074074074074],[0.20125000000000004,-0.30333333333333334],[0.20583333333333323,-0.34296296296296297],[0.2163541666666667,-0.3990740740740741],[0.2256249999999999,-0.39666666666666667],[0.24854166666666658,-0.39759259259259255],[0.23583333333333342,-0.3640740740740741],[0.24052083333333343,-0.3087037037037037],[0.24052083333333343,-0.3087037037037037],[0.27677083333333335,-0.2192592592592592],[0.2919791666666666,-0.06833333333333329],[0.2919791666666666,-0.06833333333333329],[0.29656250000000006,-0.08037037037037033],[0.3054166666666667,-0.027407407407407325],[0.31062500000000004,0.05259259259259255],[0.3511458333333332,0.09129629629629621],[0.33697916666666666,0.15351851851851847],[0.2924999999999999,0.2064814814814815],[0.2861458333333334,0.23777777777777773],[0.3129166666666668,0.26222222222222225],[0.29572916666666677,0.2442592592592592],[0.27072916666666674,0.1603703703703704],[0.26020833333333326,0.22592592592592592],[0.23958333333333334,0.22833333333333325],[0.22374999999999995,0.2175925925925926],[0.22374999999999995,0.2175925925925926],[0.14104166666666676,0.2146296296296296],[0.14187500000000006,0.1588888888888888],[0.1603125000000001,0.10962962962962972],[0.17302083333333323,0.0485185185185186],[0.1423958333333334,-0.00592592592592601],[0.11979166666666667,-0.05703703703703706],[0.11979166666666667,-0.05703703703703706],[0.1462500000000001,-0.11500000000000005],[0.17447916666666666,-0.17518518518518522],[0.20270833333333324,-0.23537037037037042],[0.20270833333333324,-0.23537037037037042],[0.20593750000000005,-0.27259259259259255],[0.2421875,-0.27518518518518525],[0.2626041666666666,-0.29129629629629633],[0.2626041666666666,-0.29129629629629633],[0.26239583333333344,-0.29000000000000004],[0.26541666666666663,-0.28962962962962957],[0.27197916666666655,-0.30759259259259264],[0.27854166666666674,-0.3255555555555556],[0.27614583333333326,-0.30185185185185187],[0.2453125,-0.2874074074074074],[0.2453125,-0.2874074074074074],[0.21447916666666675,-0.2729629629629629],[0.21447916666666675,-0.2729629629629629],[0.20822916666666677,-0.3248148148148148],[0.20666666666666675,-0.3257407407407407],[0.20239583333333327,-0.3103703703703704],[0.1896874999999999,-0.3235185185185185],[0.17062499999999994,-0.34500000000000003],[0.15822916666666675,-0.3479629629629629],[0.16729166666666656,-0.3483333333333334],[0.16729166666666656,-0.3483333333333334],[0.15489583333333337,-0.37518518518518523],[0.15489583333333337,-0.37518518518518523],[0.16906249999999995,-0.3787037037037037],[0.16906249999999995,-0.3787037037037037],[0.17708333333333334,-0.4007407407407407],[0.17708333333333334,-0.4007407407407407],[0.17760416666666667,-0.3618518518518518]]","[[-0.06937500000000002,0.4479629629629629,0.00040000009536811376],[-0.06937500000000002,0.4479629629629629,0.05130000019073577],[-0.059895833333333336,0.4411111111111112,0.060800000190731396],[-0.08416666666666663,0.46333333333333343,0.0774000000953663],[-0.09093749999999995,0.4648148148148148,0.09409999990463547],[-0.06177083333333329,0.4294444444444444,0.11090000009536993],[-0.06177083333333329,0.4294444444444444,0.13280000019073412],[-0.06135416666666664,0.4264814814814814,0.1443000001907322],[-0.0515625,0.43555555555555564,0.1616999998092652],[-0.04760416666666671,0.4759259259259259,0.18419999980926605],[-0.04760416666666671,0.4759259259259259,0.19669999980926178],[-0.03218749999999997,0.49907407407407406,0.21119999980926707],[0.005208333333333333,0.5055555555555555,0.23009999990463115],[0.02041666666666669,0.5001851851851852,0.2490999999046295],[0.022916666666666665,0.5222222222222223,0.2626999998092643],[0.04874999999999995,0.4677777777777778,0.27769999980926485],[0.07614583333333323,0.4401851851851853,0.2940999999046312],[0.06364583333333336,0.4492592592592593,0.31409999990463433],[0.05520833333333333,0.4366666666666666,0.3290999999046349],[0.08562500000000005,0.4094444444444445,0.3461999998092651],[0.12312500000000005,0.36944444444444446,0.3610999999046314],[0.15031249999999996,0.3933333333333333,0.3805999999046321],[0.14718749999999994,0.34092592592592597,0.39630000019073464],[0.15875000000000009,0.2681481481481481,0.413099999904631],[0.15875000000000009,0.2681481481481481,0.43059999990462927],[0.17458333333333323,0.23574074074074067,0.44440000009537073],[0.16020833333333329,0.2627777777777777,0.4636999998092648],[0.1502083333333334,0.25574074074074077,0.4775999999046334],[0.13739583333333344,0.24574074074074082,0.4964999999999975],[0.13739583333333344,0.24574074074074082,0.5109000000953685],[0.16510416666666666,0.25388888888888894,0.5279000000953644],[0.16239583333333343,0.2548148148148149,0.5443000001907379],[0.11166666666666672,0.27611111111111114,0.5649999999999977],[0.08364583333333328,0.2044444444444444,0.5813000001907369],[0.06906249999999996,0.20092592592592592,0.5971999998092627],[0.03218749999999997,0.19537037037037036,0.6160999999046339],[0.03218749999999997,0.19537037037037036,0.6281999998092616],[0.00947916666666669,0.19425925925925921,0.6440999999046326],[0.00947916666666669,0.19425925925925921,0.6611999998092628],[-0.016354166666666715,0.18314814814814812,0.6813000001907312],[-0.02958333333333331,0.17962962962962964,0.6965999999046346],[-0.07083333333333333,0.19037037037037027,0.7150999999046306],[-0.11499999999999998,0.21370370370370367,0.7325999999046289],[-0.15239583333333329,0.17462962962962955,0.7481999998092661],[-0.15677083333333333,0.14370370370370375,0.76259999990463],[-0.15812499999999996,0.15425925925925918,0.7775999999046306],[-0.16791666666666671,0.18518518518518517,0.7966999998092632],[-0.14802083333333335,0.2324074074074074,0.8109999999999999],[-0.16208333333333336,0.20703703703703696,0.8275999999046348],[-0.15104166666666666,0.17037037037037037,0.844300000190735],[-0.13406250000000006,0.16629629629629622,0.8641999998092658],[-0.1,0.08037037037037033,0.8804999999999978],[-0.08812500000000002,-0.010740740740740657,0.8945000000000007],[-0.07552083333333333,-0.04314814814814806,0.9109000000953671],[-0.04562499999999995,-0.05092592592592592,0.9309000000953702],[-0.04791666666666667,-0.08777777777777773,0.9460999999046322],[-0.05531250000000002,-0.09462962962962967,0.9609000000953714],[-0.06447916666666664,-0.04944444444444453,0.9775999999046334],[-0.05583333333333336,-0.053148148148148125,0.9973000001907408],[-0.03083333333333336,-0.026481481481481398,1.0109000000953685],[-0.05562499999999997,-0.012962962962962963,1.0274999999999963],[-0.05562499999999997,-0.012962962962962963,1.0440999999046383],[-0.03312499999999995,0.0764814814814814,1.060699999809266],[-0.03312499999999995,0.0764814814814814,1.0819000000953665],[0.007083333333333286,0.10722222222222218,1.0941999998092697],[0.007083333333333286,0.10722222222222218,1.1109000000953628],[0.027395833333333286,0.15314814814814823,1.134999999999998],[0.027395833333333286,0.15314814814814823,1.1443000001907322],[0.04791666666666667,0.16370370370370366,1.1609000000953742],[0.04791666666666667,0.16370370370370366,1.1818000001907407],[0.04624999999999998,0.18629629629629635,1.194499999999998],[0.04624999999999998,0.18629629629629635,1.2110999999046257],[0.07270833333333329,0.17796296296296302,1.2338000001907332],[0.07270833333333329,0.17796296296296302,1.2443000001907407],[0.09874999999999995,0.1294444444444444,1.2610000000000028],[0.1056250000000001,0.1346296296296297,1.282199999809258],[0.1056250000000001,0.1346296296296297,1.2943000001907379],[0.09802083333333324,0.13481481481481472,1.3109000000953657],[0.09802083333333324,0.13481481481481472,1.3274999999999935],[0.10968749999999995,0.12462962962962955,1.35019999980927],[0.10968749999999995,0.12462962962962955,1.3606999998092633],[0.10104166666666667,0.09222222222222214,1.3775000000000048],[0.10104166666666667,0.09222222222222214,1.3940999999046326],[0.0865624999999999,0.12370370370370362,1.41080000019074],[0.0865624999999999,0.12370370370370362,1.4275999999046363],[0.09041666666666662,0.12092592592592584,1.4440999999046298],[0.08520833333333329,0.13574074074074066,1.460800000190737],[0.11635416666666672,0.16166666666666657,1.4774000000953649],[0.13291666666666657,0.16814814814814807,1.4954999999999998],[0.14916666666666673,0.17796296296296302,1.5108000001907342],[0.16677083333333323,0.18296296296296288,1.5276999998092649],[0.2039583333333333,0.23962962962962958,1.5444000000953721],[0.2778125000000001,0.29814814814814816,1.562099999904639],[0.3256249999999999,0.4075925925925926,1.5805999999046279],[0.36447916666666674,0.4948148148148149,1.5970000000000013],[0.4188541666666666,0.6109259259259259,1.6120999999046361],[0.4703125,0.6966666666666668,1.6275000000000048],[0.5151041666666667,0.7927777777777778,1.644599999904635],[0.540625,0.8740740740740741,1.6606999998092604],[0.5766666666666665,0.9337037037037038,1.6774000000953677],[0.5940624999999999,0.9911111111111112,1.6940999999046298],[0.6190625,0.9875925925925925,1.7110999999046257],[0.6134375000000001,0.9727777777777777,1.7288000001907378],[0.6334374999999999,0.9231481481481482,1.744099999904627],[0.6282291666666666,0.901111111111111,1.7608000001907342],[0.6077083333333334,0.924814814814815,1.779900000095374],[0.5895833333333333,0.9562962962962964,1.7945000000000064],[0.5519791666666668,0.9475925925925927,1.810699999809266],[0.5519791666666668,0.9475925925925927,1.8274999999999935],[0.53625,0.9112962962962962,1.849099999904631],[0.53625,0.9112962962962962,1.8606999998092633],[0.5303124999999999,0.8814814814814815,1.8775000000000048],[0.5341666666666666,0.856851851851852,1.8940999999046326],[0.5323958333333333,0.8411111111111111,1.91080000019074],[0.5323958333333333,0.8411111111111111,1.9299000000953654],[0.47000000000000003,0.7892592592592593,1.9444000000953636],[0.4015625,0.7185185185185186,1.9610000000000056],[0.37177083333333344,0.6266666666666666,1.9775999999046334],[0.33583333333333343,0.48296296296296287,1.995900000095368],[0.30187499999999995,0.33000000000000007,2.0109000000953685],[0.30187499999999995,0.33000000000000007,2.027699999809265],[0.2819791666666667,0.22111111111111106,2.047000000000004],[0.25760416666666663,0.15166666666666662,2.061400000095368],[0.21197916666666666,0.12333333333333338,2.077699999809262],[0.1734375,0.09092592592592597,2.0941999998092697],[0.1306250000000001,0.07481481481481478,2.1129000000953724],[0.1306250000000001,0.07481481481481478,2.127900000095373],[0.1330208333333334,0.07370370370370362,2.144300000190732],[0.12604166666666666,0.10999999999999996,2.16269999980927],[0.12604166666666666,0.10999999999999996,2.1776999998092705],[0.12260416666666671,0.1124074074074075,2.194499999999998],[0.12666666666666657,0.09185185185185189,2.215199999809265],[0.12666666666666657,0.09185185185185189,2.227800000190733],[0.12312500000000005,0.10444444444444441,2.2443000001907407],[0.1304166666666667,0.11537037037037029,2.2609000000953685],[0.11010416666666671,0.15407407407407417,2.2800999999046283],[0.11302083333333333,0.144074074074074,2.2945999999046265],[0.08552083333333324,0.12296296296296293,2.3109000000953657],[0.042499999999999954,0.08740740740740749,2.329900000095371],[0.03697916666666667,0.08000000000000008,2.3459000000953623],[0.034062500000000044,0.05537037037037033,2.360900000095363],[-0.006562499999999953,0.030740740740740784,2.377599999904639],[-0.03916666666666669,0.024629629629629547,2.398300000190737],[-0.05375000000000003,0.03555555555555564,2.4136999998092605],[-0.05375000000000003,0.03555555555555564,2.427800000190736],[-0.07916666666666666,0.04814814814814815,2.4443000001907293],[-0.08218749999999998,0.011481481481481566,2.463000000000001],[-0.08479166666666664,0.027777777777777776,2.4775999999046334],[-0.05947916666666669,0.0198148148148149,2.4943000001907407],[-0.0453125,0.044444444444444446,2.514099999904637],[-0.0453125,0.044444444444444446,2.52780000019073],[-0.02635416666666662,0.0455555555555556,2.544300000190738],[-0.022291666666666644,0.022777777777777692,2.563599999904632],[0.010000000000000024,0.038703703703703664,2.579900000095371],[0.02677083333333338,0.05907407407407403,2.5944000000953693],[0.03114583333333331,0.03851851851851843,2.616499999999995],[0.03114583333333331,0.03851851851851843,2.628300000190741],[0.04833333333333331,0.03759259259259251,2.6445000000000007],[0.05145833333333331,0.0712962962962963,2.661599999904631],[0.05531250000000002,0.06148148148148157,2.677800000190736],[0.06343749999999998,0.08814814814814818,2.69409999990463],[0.07989583333333337,0.09962962962962954,2.711599999904628],[0.06947916666666672,0.12759259259259256,2.727499999999999],[0.0806250000000001,0.14370370370370375,2.745599999904634],[0.09677083333333343,0.13907407407407413,2.7608000001907342],[0.06385416666666661,0.1175925925925926,2.779900000095374],[0.08864583333333324,0.12111111111111107,2.7949000000953603],[0.07614583333333323,0.08888888888888889,2.811],[0.08479166666666677,0.046481481481481526,2.8275999999046277],[0.0806250000000001,0.025925925925925925,2.846099999904631],[0.07614583333333323,0.043703703703703745,2.860900000095363],[0.06156250000000003,0.06518518518518526,2.877599999904639],[0.057083333333333285,0.07314814814814814,2.894300000190732],[0.06489583333333329,0.125,2.91269999980927],[0.07395833333333333,0.13111111111111104,2.9291999998092635],[0.1287499999999999,0.15999999999999995,2.945900000095371],[0.12114583333333329,0.18296296296296288,2.9654000000953644],[0.14343750000000005,0.2448148148148149,2.979999999999997],[0.16572916666666657,0.3066666666666667,2.9943000001907407],[0.17999999999999997,0.36277777777777775,3.0145999999046253],[0.18552083333333325,0.3418518518518519,3.031099999904633],[0.22010416666666663,0.30388888888888893,3.046300000190733],[0.24479166666666666,0.28481481481481474,3.0704000000953684],[0.24479166666666666,0.28481481481481474,3.0775999999046277],[0.2520833333333333,0.23481481481481473,3.094300000190735],[0.26927083333333335,0.2638888888888889,3.110900000095363],[0.2897916666666667,0.28703703703703703,3.130999999999993],[0.2960416666666667,0.2935185185185185,3.1458000001907394],[0.3140625,0.26500000000000007,3.1609999999999943],[0.3140625,0.26500000000000007,3.177800000190736],[0.31229166666666663,0.2598148148148147,3.1986999998092713],[0.31229166666666663,0.2598148148148147,3.2110999999046257],[0.2860416666666666,0.19796296296296292,3.2275999999046334],[0.2860416666666666,0.19796296296296292,3.244199999809261],[0.31197916666666664,0.1983333333333334,3.260699999809269],[0.31197916666666664,0.1983333333333334,3.277400000095362],[0.3198958333333332,0.22240740740740744,3.2941999998092584],[0.3198958333333332,0.22240740740740744,3.3108000001907314],[0.30583333333333323,0.23370370370370377,3.3274999999999935],[0.28395833333333326,0.27259259259259266,3.349199999809265],[0.28395833333333326,0.27259259259259266,3.3608000001907286],[0.25770833333333343,0.24870370370370362,3.3774000000953706],[0.25770833333333343,0.24870370370370362,3.394300000190732],[0.2384375000000001,0.22444444444444453,3.41080000019074],[0.22447916666666667,0.175,3.4335999999046365],[0.22447916666666667,0.175,3.44409999990463],[0.17510416666666656,0.17962962962962964,3.460800000190737],[0.18093750000000006,0.15203703703703708,3.4779000000953673],[0.18760416666666657,0.17814814814814822,3.497800000190729],[0.1818749999999999,0.16944444444444445,3.5138000001907344],[0.1818749999999999,0.16944444444444445,3.52780000019073],[0.1560416666666666,0.13833333333333342,3.544300000190738],[0.15875000000000009,0.0948148148148149,3.5645999999046367],[0.17041666666666658,0.042407407407407366,3.5804999999999936],[0.17531249999999995,0.019444444444444445,3.5959999999999965],[0.20041666666666677,0.007037037037036953,3.6114999999999995],[0.22791666666666663,0.01574074074074074,3.6330000000000027],[0.22791666666666663,0.01574074074074074,3.644300000190732],[0.2490624999999999,-0.008703703703703788,3.6609999999999943],[0.2361458333333334,-0.02962962962962963,3.6780999999046387],[0.2462500000000001,-0.058333333333333334,3.6964999999999932],[0.2361458333333334,-0.060555555555555536,3.7114000000953737],[0.24802083333333325,-0.06814814814814817,3.7294999999999945],[0.253125,-0.05592592592592591,3.7471999998092613],[0.2462500000000001,-0.03833333333333342,3.763599999904635],[0.24177083333333324,-0.014629629629629588,3.7798000001907397],[0.2101041666666667,-0.0011111111111111532,3.797699999809261],[0.1828125,-0.008703703703703788,3.814],[0.18010416666666676,-0.025,3.8310999999046302],[0.19833333333333342,-0.03981481481481482,3.849199999809265],[0.21020833333333327,-0.019259259259259216,3.863599999904629],[0.18239583333333323,-0.02962962962962963,3.8795999999046344],[0.15458333333333343,-0.04000000000000004,3.8959000000953736],[0.15458333333333343,-0.04000000000000004,3.9144999999999968],[0.14270833333333333,-0.06222222222222226,3.9275999999046363],[0.1349999999999999,-0.09648148148148153,3.9443000001907293],[0.12489583333333343,-0.1368518518518518,3.963400000095369],[0.13958333333333334,-0.14240740740740737,3.97930000019074],[0.16114583333333338,-0.12518518518518523,3.9943000001907407],[0.13937499999999994,-0.127962962962963,4.0109000000953685],[0.0953125,-0.12685185185185185,4.03169999980927],[0.09562499999999995,-0.1425925925925926,4.0475000000000065],[0.12510416666666657,-0.1425925925925926,4.062699999809261],[0.12510416666666657,-0.1425925925925926,4.0774999999999935],[0.1428124999999999,-0.15833333333333333,4.096900000095367],[0.16010416666666671,-0.1653703703703704,4.114699999809268],[0.16010416666666671,-0.1653703703703704,4.128099999904627],[0.18270833333333342,-0.16166666666666668,4.149300000190728],[0.18791666666666676,-0.17981481481481484,4.165400000095367],[0.18791666666666676,-0.17981481481481484,4.177599999904636],[0.1727083333333333,-0.22777777777777777,4.198699999809271],[0.1727083333333333,-0.22777777777777777,4.211400000095374],[0.1525000000000001,-0.2733333333333334,4.227699999809268],[0.17395833333333333,-0.2874074074074074,4.247599999904629],[0.20125000000000004,-0.30333333333333334,4.2635000000000005],[0.20583333333333323,-0.34296296296296297,4.279999999999994],[0.2163541666666667,-0.3990740740740741,4.295999999999999],[0.2256249999999999,-0.39666666666666667,4.313599999904632],[0.24854166666666658,-0.39759259259259255,4.3293000001907345],[0.23583333333333342,-0.3640740740740741,4.344400000095369],[0.24052083333333343,-0.3087037037037037,4.360900000095363],[0.24052083333333343,-0.3087037037037037,4.377400000095371],[0.27677083333333335,-0.2192592592592592,4.394099999904633],[0.2919791666666666,-0.06833333333333329,4.410999999999994],[0.2919791666666666,-0.06833333333333329,4.428599999904627],[0.29656250000000006,-0.08037037037037033,4.44409999990463],[0.3054166666666667,-0.027407407407407325,4.460699999809272],[0.31062500000000004,0.05259259259259255,4.479999999999997],[0.3511458333333332,0.09129629629629621,4.496699999809259],[0.33697916666666666,0.15351851851851847,4.5109000000953685],[0.2924999999999999,0.2064814814814815,4.5290000000000035],[0.2861458333333334,0.23777777777777773,4.547099999904638],[0.3129166666666668,0.26222222222222225,4.561099999904634],[0.29572916666666677,0.2442592592592592,4.577400000095373],[0.27072916666666674,0.1603703703703704,4.5966999998092675],[0.26020833333333326,0.22592592592592592,4.612800000190738],[0.23958333333333334,0.22833333333333325,4.629699999809269],[0.22374999999999995,0.2175925925925926,4.64659999990463],[0.22374999999999995,0.2175925925925926,4.664099999904629],[0.14104166666666676,0.2146296296296296,4.677599999904636],[0.14187500000000006,0.1588888888888888,4.695400000095368],[0.1603125000000001,0.10962962962962972,4.714099999904626],[0.17302083333333323,0.0485185185185186,4.729800000190728],[0.1423958333333334,-0.00592592592592601,4.747099999904627],[0.11979166666666667,-0.05703703703703706,4.765999999999998],[0.11979166666666667,-0.05703703703703706,4.777499999999996],[0.1462500000000001,-0.11500000000000005,4.794400000095379],[0.17447916666666666,-0.17518518518518522,4.813800000190739],[0.20270833333333324,-0.23537037037037042,4.834199999809272],[0.20270833333333324,-0.23537037037037042,4.844300000190742],[0.20593750000000005,-0.27259259259259255,4.861000000000004],[0.2421875,-0.27518518518518525,4.878400000095368],[0.2626041666666666,-0.29129629629629633,4.90009999990464],[0.2626041666666666,-0.29129629629629633,4.910800000190747],[0.26239583333333344,-0.29000000000000004,4.927500000000009],[0.26541666666666663,-0.28962962962962957,4.946699999809269],[0.27197916666666655,-0.30759259259259264,4.963300000190742],[0.27854166666666674,-0.3255555555555556,4.979599999904636],[0.27614583333333326,-0.30185185185185187,4.997500000000002],[0.2453125,-0.2874074074074074,5.018099999904635],[0.2453125,-0.2874074074074074,5.0364000000953695],[0.21447916666666675,-0.2729629629629629,5.051900000095372],[0.21447916666666675,-0.2729629629629629,5.064699999809278],[0.20822916666666677,-0.3248148148148148,5.077500000000001],[0.20666666666666675,-0.3257407407407407,5.095900000095369],[0.20239583333333327,-0.3103703703703704,5.113800000190736],[0.1896874999999999,-0.3235185185185185,5.128],[0.17062499999999994,-0.34500000000000003,5.144500000000008],[0.15822916666666675,-0.3479629629629629,5.1606999998092675],[0.16729166666666656,-0.3483333333333334,5.181199999809266],[0.16729166666666656,-0.3483333333333334,5.194099999904637],[0.15489583333333337,-0.37518518518518523,5.211199999809267],[0.15489583333333337,-0.37518518518518523,5.227699999809275],[0.16906249999999995,-0.3787037037037037,5.244199999809268],[0.16906249999999995,-0.3787037037037037,5.265400000095369],[0.17708333333333334,-0.4007407407407407,5.277500000000003],[0.17708333333333334,-0.4007407407407407,5.2941999998092655],[0.17760416666666667,-0.3618518518518518,5.315599999904634]]","[0.00040000009536811376,0.05130000019073577,0.060800000190731396,0.0774000000953663,0.09409999990463547,0.11090000009536993,0.13280000019073412,0.1443000001907322,0.1616999998092652,0.18419999980926605,0.19669999980926178,0.21119999980926707,0.23009999990463115,0.2490999999046295,0.2626999998092643,0.27769999980926485,0.2940999999046312,0.31409999990463433,0.3290999999046349,0.3461999998092651,0.3610999999046314,0.3805999999046321,0.39630000019073464,0.413099999904631,0.43059999990462927,0.44440000009537073,0.4636999998092648,0.4775999999046334,0.4964999999999975,0.5109000000953685,0.5279000000953644,0.5443000001907379,0.5649999999999977,0.5813000001907369,0.5971999998092627,0.6160999999046339,0.6281999998092616,0.6440999999046326,0.6611999998092628,0.6813000001907312,0.6965999999046346,0.7150999999046306,0.7325999999046289,0.7481999998092661,0.76259999990463,0.7775999999046306,0.7966999998092632,0.8109999999999999,0.8275999999046348,0.844300000190735,0.8641999998092658,0.8804999999999978,0.8945000000000007,0.9109000000953671,0.9309000000953702,0.9460999999046322,0.9609000000953714,0.9775999999046334,0.9973000001907408,1.0109000000953685,1.0274999999999963,1.0440999999046383,1.060699999809266,1.0819000000953665,1.0941999998092697,1.1109000000953628,1.134999999999998,1.1443000001907322,1.1609000000953742,1.1818000001907407,1.194499999999998,1.2110999999046257,1.2338000001907332,1.2443000001907407,1.2610000000000028,1.282199999809258,1.2943000001907379,1.3109000000953657,1.3274999999999935,1.35019999980927,1.3606999998092633,1.3775000000000048,1.3940999999046326,1.41080000019074,1.4275999999046363,1.4440999999046298,1.460800000190737,1.4774000000953649,1.4954999999999998,1.5108000001907342,1.5276999998092649,1.5444000000953721,1.562099999904639,1.5805999999046279,1.5970000000000013,1.6120999999046361,1.6275000000000048,1.644599999904635,1.6606999998092604,1.6774000000953677,1.6940999999046298,1.7110999999046257,1.7288000001907378,1.744099999904627,1.7608000001907342,1.779900000095374,1.7945000000000064,1.810699999809266,1.8274999999999935,1.849099999904631,1.8606999998092633,1.8775000000000048,1.8940999999046326,1.91080000019074,1.9299000000953654,1.9444000000953636,1.9610000000000056,1.9775999999046334,1.995900000095368,2.0109000000953685,2.027699999809265,2.047000000000004,2.061400000095368,2.077699999809262,2.0941999998092697,2.1129000000953724,2.127900000095373,2.144300000190732,2.16269999980927,2.1776999998092705,2.194499999999998,2.215199999809265,2.227800000190733,2.2443000001907407,2.2609000000953685,2.2800999999046283,2.2945999999046265,2.3109000000953657,2.329900000095371,2.3459000000953623,2.360900000095363,2.377599999904639,2.398300000190737,2.4136999998092605,2.427800000190736,2.4443000001907293,2.463000000000001,2.4775999999046334,2.4943000001907407,2.514099999904637,2.52780000019073,2.544300000190738,2.563599999904632,2.579900000095371,2.5944000000953693,2.616499999999995,2.628300000190741,2.6445000000000007,2.661599999904631,2.677800000190736,2.69409999990463,2.711599999904628,2.727499999999999,2.745599999904634,2.7608000001907342,2.779900000095374,2.7949000000953603,2.811,2.8275999999046277,2.846099999904631,2.860900000095363,2.877599999904639,2.894300000190732,2.91269999980927,2.9291999998092635,2.945900000095371,2.9654000000953644,2.979999999999997,2.9943000001907407,3.0145999999046253,3.031099999904633,3.046300000190733,3.0704000000953684,3.0775999999046277,3.094300000190735,3.110900000095363,3.130999999999993,3.1458000001907394,3.1609999999999943,3.177800000190736,3.1986999998092713,3.2110999999046257,3.2275999999046334,3.244199999809261,3.260699999809269,3.277400000095362,3.2941999998092584,3.3108000001907314,3.3274999999999935,3.349199999809265,3.3608000001907286,3.3774000000953706,3.394300000190732,3.41080000019074,3.4335999999046365,3.44409999990463,3.460800000190737,3.4779000000953673,3.497800000190729,3.5138000001907344,3.52780000019073,3.544300000190738,3.5645999999046367,3.5804999999999936,3.5959999999999965,3.6114999999999995,3.6330000000000027,3.644300000190732,3.6609999999999943,3.6780999999046387,3.6964999999999932,3.7114000000953737,3.7294999999999945,3.7471999998092613,3.763599999904635,3.7798000001907397,3.797699999809261,3.814,3.8310999999046302,3.849199999809265,3.863599999904629,3.8795999999046344,3.8959000000953736,3.9144999999999968,3.9275999999046363,3.9443000001907293,3.963400000095369,3.97930000019074,3.9943000001907407,4.0109000000953685,4.03169999980927,4.0475000000000065,4.062699999809261,4.0774999999999935,4.096900000095367,4.114699999809268,4.128099999904627,4.149300000190728,4.165400000095367,4.177599999904636,4.198699999809271,4.211400000095374,4.227699999809268,4.247599999904629,4.2635000000000005,4.279999999999994,4.295999999999999,4.313599999904632,4.3293000001907345,4.344400000095369,4.360900000095363,4.377400000095371,4.394099999904633,4.410999999999994,4.428599999904627,4.44409999990463,4.460699999809272,4.479999999999997,4.496699999809259,4.5109000000953685,4.5290000000000035,4.547099999904638,4.561099999904634,4.577400000095373,4.5966999998092675,4.612800000190738,4.629699999809269,4.64659999990463,4.664099999904629,4.677599999904636,4.695400000095368,4.714099999904626,4.729800000190728,4.747099999904627,4.765999999999998,4.777499999999996,4.794400000095379,4.813800000190739,4.834199999809272,4.844300000190742,4.861000000000004,4.878400000095368,4.90009999990464,4.910800000190747,4.927500000000009,4.946699999809269,4.963300000190742,4.979599999904636,4.997500000000002,5.018099999904635,5.0364000000953695,5.051900000095372,5.064699999809278,5.077500000000001,5.095900000095369,5.113800000190736,5.128,5.144500000000008,5.1606999998092675,5.181199999809266,5.194099999904637,5.211199999809267,5.227699999809275,5.244199999809268,5.265400000095369,5.277500000000003,5.2941999998092655,5.315599999904634]","[1731997570285,1731997570326,1731997570336,1731997570352,1731997570369,1731997570386,1731997570408,1731997570419,1731997570437,1731997570459,1731997570472,1731997570486,1731997570505,1731997570524,1731997570538,1731997570553,1731997570569,1731997570589,1731997570604,1731997570621,1731997570636,1731997570655,1731997570671,1731997570688,1731997570706,1731997570719,1731997570739,1731997570752,1731997570771,1731997570786,1731997570803,1731997570819,1731997570840,1731997570856,1731997570872,1731997570891,1731997570903,1731997570919,1731997570936,1731997570956,1731997570971,1731997570990,1731997571007,1731997571023,1731997571037,1731997571053,1731997571072,1731997571086,1731997571103,1731997571119,1731997571139,1731997571155,1731997571169,1731997571186,1731997571206,1731997571221,1731997571236,1731997571252,1731997571272,1731997571286,1731997571302,1731997571319,1731997571336,1731997571357,1731997571369,1731997571386,1731997571410,1731997571419,1731997571436,1731997571457,1731997571469,1731997571486,1731997571509,1731997571519,1731997571536,1731997571557,1731997571569,1731997571586,1731997571602,1731997571625,1731997571636,1731997571652,1731997571669,1731997571686,1731997571703,1731997571719,1731997571736,1731997571752,1731997571770,1731997571786,1731997571803,1731997571819,1731997571837,1731997571855,1731997571872,1731997571887,1731997571902,1731997571919,1731997571936,1731997571952,1731997571969,1731997571986,1731997572004,1731997572019,1731997572036,1731997572055,1731997572069,1731997572086,1731997572102,1731997572124,1731997572136,1731997572152,1731997572169,1731997572186,1731997572205,1731997572219,1731997572236,1731997572252,1731997572271,1731997572286,1731997572303,1731997572322,1731997572336,1731997572353,1731997572369,1731997572388,1731997572403,1731997572419,1731997572438,1731997572453,1731997572469,1731997572490,1731997572503,1731997572519,1731997572536,1731997572555,1731997572569,1731997572586,1731997572605,1731997572621,1731997572636,1731997572652,1731997572673,1731997572689,1731997572703,1731997572719,1731997572738,1731997572752,1731997572769,1731997572789,1731997572803,1731997572819,1731997572838,1731997572855,1731997572869,1731997572891,1731997572903,1731997572919,1731997572936,1731997572953,1731997572969,1731997572986,1731997573002,1731997573020,1731997573036,1731997573055,1731997573070,1731997573086,1731997573103,1731997573121,1731997573136,1731997573152,1731997573169,1731997573188,1731997573204,1731997573221,1731997573240,1731997573255,1731997573269,1731997573289,1731997573306,1731997573321,1731997573345,1731997573352,1731997573369,1731997573386,1731997573406,1731997573421,1731997573436,1731997573453,1731997573474,1731997573486,1731997573502,1731997573519,1731997573536,1731997573552,1731997573569,1731997573586,1731997573602,1731997573624,1731997573636,1731997573652,1731997573669,1731997573686,1731997573708,1731997573719,1731997573736,1731997573753,1731997573773,1731997573789,1731997573803,1731997573819,1731997573840,1731997573855,1731997573871,1731997573886,1731997573908,1731997573919,1731997573936,1731997573953,1731997573971,1731997573986,1731997574004,1731997574022,1731997574038,1731997574055,1731997574073,1731997574089,1731997574106,1731997574124,1731997574138,1731997574155,1731997574171,1731997574189,1731997574203,1731997574219,1731997574238,1731997574254,1731997574269,1731997574286,1731997574307,1731997574322,1731997574338,1731997574352,1731997574372,1731997574390,1731997574403,1731997574424,1731997574440,1731997574453,1731997574474,1731997574486,1731997574503,1731997574522,1731997574538,1731997574555,1731997574571,1731997574589,1731997574604,1731997574619,1731997574636,1731997574652,1731997574669,1731997574686,1731997574704,1731997574719,1731997574736,1731997574755,1731997574772,1731997574786,1731997574804,1731997574822,1731997574836,1731997574852,1731997574872,1731997574888,1731997574905,1731997574922,1731997574939,1731997574953,1731997574970,1731997574989,1731997575005,1731997575022,1731997575041,1731997575052,1731997575069,1731997575089,1731997575109,1731997575119,1731997575136,1731997575153,1731997575175,1731997575186,1731997575202,1731997575222,1731997575238,1731997575254,1731997575272,1731997575293,1731997575311,1731997575327,1731997575340,1731997575352,1731997575371,1731997575389,1731997575403,1731997575419,1731997575436,1731997575456,1731997575469,1731997575486,1731997575503,1731997575519,1731997575540,1731997575552,1731997575569,1731997575590]","[[893.4,781.9],[893.4,781.9],[902.5,778.2],[879.2,790.2],[872.7,791],[900.7,771.9],[900.7,771.9],[901.1,770.3],[910.5,775.2],[914.3,797],[914.3,797],[929.1,809.5],[965,813],[979.6,810.1],[982,822],[1006.8,792.6],[1033.1,777.7],[1021.1,782.6],[1013,775.8],[1042.2,761.1],[1078.2,739.5],[1104.3,752.4],[1101.3,724.1],[1112.4,684.8],[1112.4,684.8],[1127.6,667.3],[1113.8,681.9],[1104.2,678.1],[1091.9,672.7],[1091.9,672.7],[1118.5,677.1],[1115.9,677.6],[1067.2,689.1],[1040.3,650.4],[1026.3,648.5],[990.9,645.5],[990.9,645.5],[969.1,644.9],[969.1,644.9],[944.3,638.9],[931.6,637],[892,642.8],[849.6,655.4],[813.7,634.3],[809.5,617.6],[808.2,623.3],[798.8,640],[817.9,665.5],[804.4,651.8],[815,632],[831.3,629.8],[864,583.4],[875.4,534.2],[887.5,516.7],[916.2,512.5],[914,492.6],[906.9,488.9],[898.1,513.3],[906.4,511.3],[930.4,525.7],[906.6,533],[906.6,533],[928.2,581.3],[928.2,581.3],[966.8,597.9],[966.8,597.9],[986.3,622.7],[986.3,622.7],[1006,628.4],[1006,628.4],[1004.4,640.6],[1004.4,640.6],[1029.8,636.1],[1029.8,636.1],[1054.8,609.9],[1061.4,612.7],[1061.4,612.7],[1054.1,612.8],[1054.1,612.8],[1065.3,607.3],[1065.3,607.3],[1057,589.8],[1057,589.8],[1043.1,606.8],[1043.1,606.8],[1046.8,605.3],[1041.8,613.3],[1071.7,627.3],[1087.6,630.8],[1103.2,636.1],[1120.1,638.8],[1155.8,669.4],[1226.7,701],[1272.6,760.1],[1309.9,807.2],[1362.1,869.9],[1411.5,916.2],[1454.5,968.1],[1479,1012],[1513.6,1044.2],[1530.3,1075.2],[1554.3,1073.3],[1548.9,1065.3],[1568.1,1038.5],[1563.1,1026.6],[1543.4,1039.4],[1526,1056.4],[1489.9,1051.7],[1489.9,1051.7],[1474.8,1032.1],[1474.8,1032.1],[1469.1,1016],[1472.8,1002.7],[1471.1,994.2],[1471.1,994.2],[1411.2,966.2],[1345.5,928],[1316.9,878.4],[1282.4,800.8],[1249.8,718.2],[1249.8,718.2],[1230.7,659.4],[1207.3,621.9],[1163.5,606.6],[1126.5,589.1],[1085.4,580.4],[1085.4,580.4],[1087.7,579.8],[1081,599.4],[1081,599.4],[1077.7,600.7],[1081.6,589.6],[1081.6,589.6],[1078.2,596.4],[1085.2,602.3],[1065.7,623.2],[1068.5,617.8],[1042.1,606.4],[1000.8,587.2],[995.5,583.2],[992.7,569.9],[953.7,556.6],[922.4,553.3],[908.4,559.2],[908.4,559.2],[884,566],[881.1,546.2],[878.6,555],[902.9,550.7],[916.5,564],[916.5,564],[934.7,564.6],[938.6,552.3],[969.6,560.9],[985.7,571.9],[989.9,560.8],[989.9,560.8],[1006.4,560.3],[1009.4,578.5],[1013.1,573.2],[1020.9,587.6],[1036.7,593.8],[1026.7,608.9],[1037.4,617.6],[1052.9,615.1],[1021.3,603.5],[1045.1,605.4],[1033.1,588],[1041.4,565.1],[1037.4,554],[1033.1,563.6],[1019.1,575.2],[1014.8,579.5],[1022.3,607.5],[1031,610.8],[1083.6,626.4],[1076.3,638.8],[1097.7,672.2],[1119.1,705.6],[1132.8,735.9],[1138.1,724.6],[1171.3,704.1],[1195,693.8],[1195,693.8],[1202,666.8],[1218.5,682.5],[1238.2,695],[1244.2,698.5],[1261.5,683.1],[1261.5,683.1],[1259.8,680.3],[1259.8,680.3],[1234.6,646.9],[1234.6,646.9],[1259.5,647.1],[1259.5,647.1],[1267.1,660.1],[1267.1,660.1],[1253.6,666.2],[1232.6,687.2],[1232.6,687.2],[1207.4,674.3],[1207.4,674.3],[1188.9,661.2],[1175.5,634.5],[1175.5,634.5],[1128.1,637],[1133.7,622.1],[1140.1,636.2],[1134.6,631.5],[1134.6,631.5],[1109.8,614.7],[1112.4,591.2],[1123.6,562.9],[1128.3,550.5],[1152.4,543.8],[1178.8,548.5],[1178.8,548.5],[1199.1,535.3],[1186.7,524],[1196.4,508.5],[1186.7,507.3],[1198.1,503.2],[1203,509.8],[1196.4,519.3],[1192.1,532.1],[1161.7,539.4],[1135.5,535.3],[1132.9,526.5],[1150.4,518.5],[1161.8,529.6],[1135.1,524],[1108.4,518.4],[1108.4,518.4],[1097,506.4],[1089.6,487.9],[1079.9,466.1],[1094,463.1],[1114.7,472.4],[1093.8,470.9],[1051.5,471.5],[1051.8,463],[1080.1,463],[1080.1,463],[1097.1,454.5],[1113.7,450.7],[1113.7,450.7],[1135.4,452.7],[1140.4,442.9],[1140.4,442.9],[1125.8,417],[1125.8,417],[1106.4,392.4],[1127,384.8],[1153.2,376.2],[1157.6,354.8],[1167.7,324.5],[1176.6,325.8],[1198.6,325.3],[1186.4,343.4],[1190.9,373.3],[1190.9,373.3],[1225.7,421.6],[1240.3,503.1],[1240.3,503.1],[1244.7,496.6],[1253.2,525.2],[1258.2,568.4],[1297.1,589.3],[1283.5,622.9],[1240.8,651.5],[1234.7,668.4],[1260.4,681.6],[1243.9,671.9],[1219.9,626.6],[1209.8,662],[1190,663.3],[1174.8,657.5],[1174.8,657.5],[1095.4,655.9],[1096.2,625.8],[1113.9,599.2],[1126.1,566.2],[1096.7,536.8],[1075,509.2],[1075,509.2],[1100.4,477.9],[1127.5,445.4],[1154.6,412.9],[1154.6,412.9],[1157.7,392.8],[1192.5,391.4],[1212.1,382.7],[1212.1,382.7],[1211.9,383.4],[1214.8,383.6],[1221.1,373.9],[1227.4,364.2],[1225.1,377],[1195.5,384.8],[1195.5,384.8],[1165.9,392.6],[1165.9,392.6],[1159.9,364.6],[1158.4,364.1],[1154.3,372.4],[1142.1,365.3],[1123.8,353.7],[1111.9,352.1],[1120.6,351.9],[1120.6,351.9],[1108.7,337.4],[1108.7,337.4],[1122.3,335.5],[1122.3,335.5],[1130,323.6],[1130,323.6],[1130.5,344.6]]","[-0.142,0.42599999999999993]","[0.142,0.42599999999999993]","[0.42599999999999993,0.42599999999999993]","[-0.42599999999999993,0.142]","[-0.42599999999999993,-0.142]","[-0.42599999999999993,-0.42599999999999993]","[-0.142,0.142]","[0.142,0.142]","[0.42599999999999993,0.142]","[-0.142,-0.142]","[0.142,-0.142]","[0.42599999999999993,-0.142]","[-0.142,-0.42599999999999993]","[0.142,-0.42599999999999993]","[0.42599999999999993,-0.42599999999999993]",0,0,0,0,1,1,Laptop,20,20,7,2,70,4,2,70,4
