inst1_resp.keys,inst1_resp.rt,calibrationMouse.x,calibrationMouse.y,calibrationMouse.leftButton,calibrationMouse.midButton,calibrationMouse.rightButton,calibrationClick.x,calibrationClick.y,calibrationClick.leftButton,calibrationClick.midButton,calibrationClick.rightButton,calibrationClick.clicked_name,trialsc.thisRepN,trialsc.thisTrialN,trialsc.thisN,trialsc.thisIndex,trialsc.ran,calibration_x,calibration_y,participant,session,date,expName,psychopyVersion,OS,frameRate,ScreenRes_pixels,Camera_pixels,mouse_2.x,mouse_2.y,mouse_2.leftButton,mouse_2.midButton,mouse_2.rightButton,mouse_2.time,mouse_2.clicked_name,mouse.x,mouse.y,mouse.leftButton,mouse.midButton,mouse.rightButton,mouse.time,mouse.clicked_name,Choice,Trial,TrialDuration,MOUSE_GAZE,ET_GAZE,ET_GAZE_x_T,time,unixTime,ET_GAZE_NF,Loc_Bus_label,Loc_Metro_label,Loc_RH_label,Loc_Cost_label,Loc_Travel_label,Loc_Comfort_label,Loc_Bus_cost,Loc_Metro_cost,Loc_RH_cost,Loc_Bus_travel,Loc_Metro_travel,Loc_RH_travel,Loc_Bus_comfort,Loc_Metro_comfort,Loc_RH_comfort,trials.thisRepN,trials.thisTrialN,trials.thisN,trials.thisIndex,trials.ran,Block,Device,RH_cost,RH_travel_time,RH_Comfort,metro_cost,metro_travel_time,metro_Comfort,Bus_cost,Bus_travel_time,Bus_Comfort
space,10.8533,-0.027083333,-0.096296296,1,0,0,-0.004166667,0.322222222,1,0,0,calibration_square,0,0,0,12,1,0,0.33,16,001,2024-11-19_15h53.09.296,Attention_exp_legacy,2023.1.0,Win32,59.88023952,,,,,,,,,,,,,,,,,,,,,,,,,,,,,,,,,,,,,,,,,,,,,,,,,,,,,,,,
,,,,,,,0.322916667,0.009259259,1,0,0,calibration_square,0,1,1,16,1,0.33,0,16,001,2024-11-19_15h53.09.296,Attention_exp_legacy,2023.1.0,Win32,59.88023952,,,,,,,,,,,,,,,,,,,,,,,,,,,,,,,,,,,,,,,,,,,,,,,,,,,,,,,,
,,,,,,,0.334375,0.32037037,1,0,0,calibration_square,0,2,2,17,1,0.33,0.33,16,001,2024-11-19_15h53.09.296,Attention_exp_legacy,2023.1.0,Win32,59.88023952,,,,,,,,,,,,,,,,,,,,,,,,,,,,,,,,,,,,,,,,,,,,,,,,,,,,,,,,
,,,,,,,0.336458333,-0.340740741,1,0,0,,0,3,3,15,1,0.33,-0.33,16,001,2024-11-19_15h53.09.296,Attention_exp_legacy,2023.1.0,Win32,59.88023952,,,,,,,,,,,,,,,,,,,,,,,,,,,,,,,,,,,,,,,,,,,,,,,,,,,,,,,,
,,,,,,,-0.001041667,-0.338888889,1,0,0,calibration_square,0,4,4,10,1,0,-0.33,16,001,2024-11-19_15h53.09.296,Attention_exp_legacy,2023.1.0,Win32,59.88023952,,,,,,,,,,,,,,,,,,,,,,,,,,,,,,,,,,,,,,,,,,,,,,,,,,,,,,,,
,,,,,,,-0.665625,-0.316666667,1,0,0,,0,5,5,1,1,-0.67,-0.33,16,001,2024-11-19_15h53.09.296,Attention_exp_legacy,2023.1.0,Win32,59.88023952,,,,,,,,,,,,,,,,,,,,,,,,,,,,,,,,,,,,,,,,,,,,,,,,,,,,,,,,
,,,,,,,-0.332291667,-0.666666667,1,0,0,calibration_square,0,6,6,4,1,-0.33,-0.67,16,001,2024-11-19_15h53.09.296,Attention_exp_legacy,2023.1.0,Win32,59.88023952,,,,,,,,,,,,,,,,,,,,,,,,,,,,,,,,,,,,,,,,,,,,,,,,,,,,,,,,
,,,,,,,-0.672916667,-0.001851852,1,0,0,calibration_square,0,7,7,2,1,-0.67,0,16,001,2024-11-19_15h53.09.296,Attention_exp_legacy,2023.1.0,Win32,59.88023952,,,,,,,,,,,,,,,,,,,,,,,,,,,,,,,,,,,,,,,,,,,,,,,,,,,,,,,,
,,,,,,,0.013541667,0.674074074,1,0,0,,0,8,8,13,1,0,0.67,16,001,2024-11-19_15h53.09.296,Attention_exp_legacy,2023.1.0,Win32,59.88023952,,,,,,,,,,,,,,,,,,,,,,,,,,,,,,,,,,,,,,,,,,,,,,,,,,,,,,,,
,,,,,,,-0.665625,-0.67962963,1,0,0,calibration_square,0,9,9,0,1,-0.67,-0.67,16,001,2024-11-19_15h53.09.296,Attention_exp_legacy,2023.1.0,Win32,59.88023952,,,,,,,,,,,,,,,,,,,,,,,,,,,,,,,,,,,,,,,,,,,,,,,,,,,,,,,,
,,,,,,,0.676041667,-0.668518519,1,0,0,calibration_square,0,10,10,20,1,0.67,-0.67,16,001,2024-11-19_15h53.09.296,Attention_exp_legacy,2023.1.0,Win32,59.88023952,,,,,,,,,,,,,,,,,,,,,,,,,,,,,,,,,,,,,,,,,,,,,,,,,,,,,,,,
,,,,,,,0.007291667,-0.694444444,1,0,0,,0,11,11,9,1,0,-0.67,16,001,2024-11-19_15h53.09.296,Attention_exp_legacy,2023.1.0,Win32,59.88023952,,,,,,,,,,,,,,,,,,,,,,,,,,,,,,,,,,,,,,,,,,,,,,,,,,,,,,,,
,,,,,,,0.326041667,0.657407407,1,0,0,,0,12,12,18,1,0.33,0.67,16,001,2024-11-19_15h53.09.296,Attention_exp_legacy,2023.1.0,Win32,59.88023952,,,,,,,,,,,,,,,,,,,,,,,,,,,,,,,,,,,,,,,,,,,,,,,,,,,,,,,,
,,,,,,,0.667708333,0.674074074,1,0,0,calibration_square,0,13,13,19,1,0.67,0.67,16,001,2024-11-19_15h53.09.296,Attention_exp_legacy,2023.1.0,Win32,59.88023952,,,,,,,,,,,,,,,,,,,,,,,,,,,,,,,,,,,,,,,,,,,,,,,,,,,,,,,,
,,,,,,,0.332291667,-0.664814815,1,0,0,calibration_square,0,14,14,14,1,0.33,-0.67,16,001,2024-11-19_15h53.09.296,Attention_exp_legacy,2023.1.0,Win32,59.88023952,,,,,,,,,,,,,,,,,,,,,,,,,,,,,,,,,,,,,,,,,,,,,,,,,,,,,,,,
,,,,,,,-0.669791667,0.322222222,1,0,0,calibration_square,0,15,15,3,1,-0.67,0.33,16,001,2024-11-19_15h53.09.296,Attention_exp_legacy,2023.1.0,Win32,59.88023952,,,,,,,,,,,,,,,,,,,,,,,,,,,,,,,,,,,,,,,,,,,,,,,,,,,,,,,,
,,,,,,,-0.329166667,0.675925926,1,0,0,calibration_square,0,16,16,8,1,-0.33,0.67,16,001,2024-11-19_15h53.09.296,Attention_exp_legacy,2023.1.0,Win32,59.88023952,,,,,,,,,,,,,,,,,,,,,,,,,,,,,,,,,,,,,,,,,,,,,,,,,,,,,,,,
,,,,,,,-0.336458333,0.005555556,1,0,0,calibration_square,0,17,17,6,1,-0.33,0,16,001,2024-11-19_15h53.09.296,Attention_exp_legacy,2023.1.0,Win32,59.88023952,,,,,,,,,,,,,,,,,,,,,,,,,,,,,,,,,,,,,,,,,,,,,,,,,,,,,,,,
,,,,,,,-0.321875,-0.338888889,1,0,0,calibration_square,0,18,18,5,1,-0.33,-0.33,16,001,2024-11-19_15h53.09.296,Attention_exp_legacy,2023.1.0,Win32,59.88023952,,,,,,,,,,,,,,,,,,,,,,,,,,,,,,,,,,,,,,,,,,,,,,,,,,,,,,,,
,,,,,,,0.008333333,0.007407407,1,0,0,calibration_square,0,19,19,11,1,0,0,16,001,2024-11-19_15h53.09.296,Attention_exp_legacy,2023.1.0,Win32,59.88023952,,,,,,,,,,,,,,,,,,,,,,,,,,,,,,,,,,,,,,,,,,,,,,,,,,,,,,,,
,,,,,,,-0.341666667,0.351851852,1,0,0,,0,20,20,7,1,-0.33,0.33,16,001,2024-11-19_15h53.09.296,Attention_exp_legacy,2023.1.0,Win32,59.88023952,,,,,,,,,,,,,,,,,,,,,,,,,,,,,,,,,,,,,,,,,,,,,,,,,,,,,,,,
,,,,,,,,,,,,,,,,,,,,16,001,2024-11-19_15h53.09.296,Attention_exp_legacy,2023.1.0,Win32,59.88023952,"[1920,1080]","[640,480]","[-0.03958333333333333,-0.026041666666666668]","[-0.3814814814814815,-0.4962962962962963]","[1,1]","[0,0]","[0,0]","[1.413799999713902,1.9626999998092671]","[""StartButton""]",[0.06875],[0.15925925925925927],[1],[0],[0],[9.074000000000005],"[""Metro_label""]",Metro_label,1,10.0874,"[[0.12604166666666666,-0.1685185185185185],[0.12604166666666666,-0.15925925925925927],[0.12604166666666666,-0.15925925925925927],[0.12604166666666666,-0.15555555555555556],[0.12604166666666666,-0.15555555555555556],[0.12604166666666666,-0.15555555555555556],[0.12604166666666666,-0.15555555555555556],[0.125,-0.15555555555555556],[0.125,-0.15555555555555556],[0.125,-0.15555555555555556],[0.125,-0.15555555555555556],[0.125,-0.15555555555555556],[0.125,-0.15555555555555556],[0.125,-0.15555555555555556],[0.12395833333333334,-0.15555555555555556],[0.12395833333333334,-0.15555555555555556],[0.12395833333333334,-0.15555555555555556],[0.12395833333333334,-0.15555555555555556],[0.12395833333333334,-0.15555555555555556],[0.12395833333333334,-0.15555555555555556],[0.12395833333333334,-0.15555555555555556],[0.12395833333333334,-0.15555555555555556],[0.12395833333333334,-0.15555555555555556],[0.12395833333333334,-0.15555555555555556],[0.12395833333333334,-0.15555555555555556],[0.12395833333333334,-0.15555555555555556],[0.12395833333333334,-0.15555555555555556],[0.12395833333333334,-0.15555555555555556],[0.12395833333333334,-0.15555555555555556],[0.12395833333333334,-0.15555555555555556],[0.12395833333333334,-0.15555555555555556],[0.12395833333333334,-0.15555555555555556],[0.12395833333333334,-0.15555555555555556],[0.12395833333333334,-0.15555555555555556],[0.12395833333333334,-0.15555555555555556],[0.12395833333333334,-0.15555555555555556],[0.12395833333333334,-0.15555555555555556],[0.12395833333333334,-0.15555555555555556],[0.12395833333333334,-0.15555555555555556],[0.12395833333333334,-0.15555555555555556],[0.12395833333333334,-0.15555555555555556],[0.12395833333333334,-0.15555555555555556],[0.12395833333333334,-0.15555555555555556],[0.12395833333333334,-0.15555555555555556],[0.12395833333333334,-0.15555555555555556],[0.12395833333333334,-0.15555555555555556],[0.12395833333333334,-0.15555555555555556],[0.12395833333333334,-0.15555555555555556],[0.12395833333333334,-0.15555555555555556],[0.12395833333333334,-0.15555555555555556],[0.12395833333333334,-0.15555555555555556],[0.12395833333333334,-0.15555555555555556],[0.12395833333333334,-0.15555555555555556],[0.12395833333333334,-0.15555555555555556],[0.12291666666666666,-0.15555555555555556],[0.12291666666666666,-0.14814814814814814],[0.11875,-0.12962962962962962],[0.11666666666666667,-0.11851851851851852],[0.11354166666666667,-0.1037037037037037],[0.11041666666666666,-0.08888888888888889],[0.10625,-0.07407407407407407],[0.103125,-0.06481481481481481],[0.096875,-0.05],[0.09166666666666666,-0.03888888888888889],[0.0875,-0.03148148148148148],[0.08229166666666667,-0.020370370370370372],[0.078125,-0.011111111111111112],[0.07395833333333333,-0.003703703703703704],[0.065625,0.005555555555555556],[0.06145833333333333,0.011111111111111112],[0.058333333333333334,0.014814814814814815],[0.057291666666666664,0.016666666666666666],[0.05625,0.020370370370370372],[0.05520833333333333,0.022222222222222223],[0.05520833333333333,0.022222222222222223],[0.05416666666666667,0.024074074074074074],[0.05416666666666667,0.024074074074074074],[0.053125,0.025925925925925925],[0.053125,0.027777777777777776],[0.053125,0.027777777777777776],[0.053125,0.027777777777777776],[0.052083333333333336,0.02962962962962963],[0.051041666666666666,0.02962962962962963],[0.04791666666666667,0.022222222222222223],[0.04583333333333333,0.001851851851851852],[0.04479166666666667,-0.027777777777777776],[0.04479166666666667,-0.05555555555555555],[0.04479166666666667,-0.08148148148148149],[0.04479166666666667,-0.10185185185185185],[0.04479166666666667,-0.11666666666666667],[0.04479166666666667,-0.12222222222222222],[0.04583333333333333,-0.12962962962962962],[0.046875,-0.13703703703703704],[0.04791666666666667,-0.1425925925925926],[0.04791666666666667,-0.14444444444444443],[0.04791666666666667,-0.14814814814814814],[0.04791666666666667,-0.15],[0.04791666666666667,-0.15],[0.04791666666666667,-0.15],[0.04791666666666667,-0.15],[0.04791666666666667,-0.15],[0.04791666666666667,-0.15],[0.04791666666666667,-0.15],[0.04791666666666667,-0.15],[0.046875,-0.14629629629629629],[0.046875,-0.14444444444444443],[0.046875,-0.14074074074074075],[0.046875,-0.1388888888888889],[0.04479166666666667,-0.13518518518518519],[0.04375,-0.13333333333333333],[0.040625,-0.1259259259259259],[0.03854166666666667,-0.12222222222222222],[0.035416666666666666,-0.1111111111111111],[0.03333333333333333,-0.10925925925925926],[0.03229166666666667,-0.10740740740740741],[0.03229166666666667,-0.10740740740740741],[0.03229166666666667,-0.10740740740740741],[0.03229166666666667,-0.10555555555555556],[0.03125,-0.10555555555555556],[0.03125,-0.10555555555555556],[0.029166666666666667,-0.10555555555555556],[0.029166666666666667,-0.10740740740740741],[0.028125,-0.10925925925925926],[0.026041666666666668,-0.11296296296296296],[0.023958333333333335,-0.11666666666666667],[0.021875,-0.12407407407407407],[0.019791666666666666,-0.12777777777777777],[0.015625,-0.13703703703703704],[0.014583333333333334,-0.1388888888888889],[0.013541666666666667,-0.14444444444444443],[0.0125,-0.14814814814814814],[0.011458333333333333,-0.15],[0.009375,-0.15555555555555556],[0.008333333333333333,-0.15925925925925927],[0.00625,-0.16296296296296298],[0.005208333333333333,-0.1685185185185185],[0.005208333333333333,-0.1685185185185185],[0.003125,-0.17222222222222222],[0.0020833333333333333,-0.17222222222222222],[0,-0.17222222222222222],[-0.003125,-0.17407407407407408],[-0.007291666666666667,-0.17407407407407408],[-0.007291666666666667,-0.17592592592592593],[-0.007291666666666667,-0.17592592592592593],[-0.008333333333333333,-0.17592592592592593],[-0.008333333333333333,-0.17592592592592593],[-0.009375,-0.17962962962962964],[-0.009375,-0.19074074074074074],[-0.009375,-0.19444444444444445],[-0.009375,-0.19444444444444445],[-0.009375,-0.19444444444444445],[-0.009375,-0.19444444444444445],[-0.009375,-0.19444444444444445],[-0.009375,-0.19444444444444445],[-0.009375,-0.19444444444444445],[-0.009375,-0.19444444444444445],[-0.009375,-0.19444444444444445],[-0.007291666666666667,-0.19444444444444445],[-0.003125,-0.19444444444444445],[-0.0010416666666666667,-0.19444444444444445],[-0.0010416666666666667,-0.19444444444444445],[0,-0.19444444444444445],[0,-0.19444444444444445],[0,-0.19444444444444445],[0,-0.19444444444444445],[0,-0.19444444444444445],[0,-0.19444444444444445],[0,-0.19444444444444445],[0,-0.19444444444444445],[0,-0.19444444444444445],[0,-0.19444444444444445],[0,-0.19444444444444445],[0,-0.19444444444444445],[0,-0.19444444444444445],[0,-0.19444444444444445],[-0.003125,-0.19074074074074074],[-0.010416666666666666,-0.18518518518518517],[-0.022916666666666665,-0.17962962962962964],[-0.03958333333333333,-0.17037037037037037],[-0.05625,-0.16296296296296298],[-0.07916666666666666,-0.15],[-0.10520833333333333,-0.14074074074074075],[-0.12708333333333333,-0.12962962962962962],[-0.14375,-0.12037037037037036],[-0.153125,-0.11666666666666667],[-0.15729166666666666,-0.11296296296296296],[-0.15729166666666666,-0.11296296296296296],[-0.15833333333333333,-0.1111111111111111],[-0.159375,-0.10925925925925926],[-0.16145833333333334,-0.10740740740740741],[-0.16145833333333334,-0.10740740740740741],[-0.1625,-0.10740740740740741],[-0.16458333333333333,-0.10555555555555556],[-0.16458333333333333,-0.1037037037037037],[-0.165625,-0.1037037037037037],[-0.16666666666666666,-0.10185185185185185],[-0.16666666666666666,-0.10185185185185185],[-0.16666666666666666,-0.10185185185185185],[-0.16666666666666666,-0.10185185185185185],[-0.16666666666666666,-0.10185185185185185],[-0.16666666666666666,-0.10185185185185185],[-0.16666666666666666,-0.1],[-0.16666666666666666,-0.0962962962962963],[-0.16666666666666666,-0.09444444444444444],[-0.165625,-0.08888888888888889],[-0.16354166666666667,-0.08703703703703704],[-0.159375,-0.08333333333333333],[-0.15208333333333332,-0.08148148148148149],[-0.14375,-0.08148148148148149],[-0.11875,-0.08148148148148149],[-0.09375,-0.08148148148148149],[-0.06770833333333333,-0.08148148148148149],[-0.041666666666666664,-0.08148148148148149],[-0.015625,-0.08148148148148149],[0.009375,-0.08148148148148149],[0.030208333333333334,-0.08148148148148149],[0.04791666666666667,-0.08148148148148149],[0.06145833333333333,-0.08148148148148149],[0.07083333333333333,-0.08148148148148149],[0.07916666666666666,-0.08148148148148149],[0.0875,-0.08333333333333333],[0.090625,-0.08333333333333333],[0.09583333333333334,-0.08333333333333333],[0.096875,-0.08333333333333333],[0.096875,-0.08333333333333333],[0.096875,-0.08333333333333333],[0.096875,-0.08333333333333333],[0.09791666666666667,-0.08333333333333333],[0.09791666666666667,-0.08333333333333333],[0.09895833333333333,-0.08333333333333333],[0.1,-0.08333333333333333],[0.10208333333333333,-0.08333333333333333],[0.10208333333333333,-0.08333333333333333],[0.103125,-0.08333333333333333],[0.103125,-0.08333333333333333],[0.103125,-0.08333333333333333],[0.103125,-0.08333333333333333],[0.10416666666666667,-0.08333333333333333],[0.10416666666666667,-0.08148148148148149],[0.10416666666666667,-0.07407407407407407],[0.10520833333333333,-0.06296296296296296],[0.10729166666666666,-0.053703703703703705],[0.10833333333333334,-0.03888888888888889],[0.109375,-0.014814814814814815],[0.11145833333333334,-0.007407407407407408],[0.11354166666666667,0.005555555555555556],[0.11666666666666667,0.014814814814814815],[0.121875,0.025925925925925925],[0.125,0.03518518518518519],[0.128125,0.040740740740740744],[0.13229166666666667,0.046296296296296294],[0.13645833333333332,0.05185185185185185],[0.13958333333333334,0.05555555555555555],[0.140625,0.05555555555555555],[0.14270833333333333,0.05740740740740741],[0.14270833333333333,0.05740740740740741],[0.14270833333333333,0.05740740740740741],[0.14270833333333333,0.05740740740740741],[0.14270833333333333,0.05740740740740741],[0.14270833333333333,0.05740740740740741],[0.14270833333333333,0.05740740740740741],[0.14270833333333333,0.05740740740740741],[0.14270833333333333,0.05740740740740741],[0.14270833333333333,0.05740740740740741],[0.14270833333333333,0.05740740740740741],[0.14270833333333333,0.05740740740740741],[0.14270833333333333,0.05740740740740741],[0.14375,0.053703703703703705],[0.14166666666666666,0.046296296296296294],[0.14166666666666666,0.044444444444444446],[0.13854166666666667,0.037037037037037035],[0.13541666666666666,0.02962962962962963],[0.134375,0.025925925925925925],[0.13229166666666667,0.022222222222222223],[0.13125,0.020370370370370372],[0.13125,0.018518518518518517],[0.13125,0.018518518518518517],[0.13125,0.018518518518518517],[0.13125,0.018518518518518517],[0.13020833333333334,0.016666666666666666],[0.13020833333333334,0.016666666666666666],[0.13020833333333334,0.016666666666666666],[0.13020833333333334,0.016666666666666666],[0.12916666666666668,0.014814814814814815],[0.12916666666666668,0.014814814814814815],[0.12916666666666668,0.014814814814814815],[0.12916666666666668,0.014814814814814815],[0.12916666666666668,0.014814814814814815],[0.12916666666666668,0.014814814814814815],[0.12916666666666668,0.014814814814814815],[0.12916666666666668,0.014814814814814815],[0.12916666666666668,0.014814814814814815],[0.12916666666666668,0.012962962962962963],[0.12916666666666668,0.012962962962962963],[0.12916666666666668,0.012962962962962963],[0.12916666666666668,0.012962962962962963],[0.12916666666666668,0.012962962962962963],[0.12916666666666668,0.012962962962962963],[0.12916666666666668,0.012962962962962963],[0.12916666666666668,0.012962962962962963],[0.12916666666666668,0.012962962962962963],[0.12916666666666668,0.012962962962962963],[0.12916666666666668,0.012962962962962963],[0.12916666666666668,0.012962962962962963],[0.128125,0.012962962962962963],[0.128125,0.012962962962962963],[0.128125,0.016666666666666666],[0.128125,0.020370370370370372],[0.128125,0.022222222222222223],[0.128125,0.022222222222222223],[0.128125,0.022222222222222223],[0.12708333333333333,0.024074074074074074],[0.12708333333333333,0.024074074074074074],[0.12708333333333333,0.024074074074074074],[0.12708333333333333,0.024074074074074074],[0.12708333333333333,0.024074074074074074],[0.12708333333333333,0.024074074074074074],[0.12604166666666666,0.024074074074074074],[0.125,0.024074074074074074],[0.12395833333333334,0.024074074074074074],[0.12291666666666666,0.024074074074074074],[0.11770833333333333,0.024074074074074074],[0.11041666666666666,0.018518518518518517],[0.10416666666666667,0.012962962962962963],[0.096875,0.007407407407407408],[0.09166666666666666,0],[0.08958333333333333,-0.014814814814814815],[0.08854166666666667,-0.027777777777777776],[0.08854166666666667,-0.04259259259259259],[0.08854166666666667,-0.05185185185185185],[0.08854166666666667,-0.05555555555555555],[0.08854166666666667,-0.05555555555555555],[0.08854166666666667,-0.05555555555555555],[0.08854166666666667,-0.05555555555555555],[0.08854166666666667,-0.05555555555555555],[0.08854166666666667,-0.05555555555555555],[0.08854166666666667,-0.05740740740740741],[0.08854166666666667,-0.06666666666666667],[0.08854166666666667,-0.08333333333333333],[0.08854166666666667,-0.10740740740740741],[0.08854166666666667,-0.11666666666666667],[0.08854166666666667,-0.13148148148148148],[0.08854166666666667,-0.14444444444444443],[0.08854166666666667,-0.1537037037037037],[0.08958333333333333,-0.15925925925925927],[0.08958333333333333,-0.1648148148148148],[0.090625,-0.1648148148148148],[0.090625,-0.1648148148148148],[0.090625,-0.1648148148148148],[0.090625,-0.1648148148148148],[0.090625,-0.1648148148148148],[0.090625,-0.1648148148148148],[0.090625,-0.1648148148148148],[0.090625,-0.1648148148148148],[0.090625,-0.1648148148148148],[0.090625,-0.1648148148148148],[0.090625,-0.1648148148148148],[0.090625,-0.1648148148148148],[0.090625,-0.1648148148148148],[0.090625,-0.1648148148148148],[0.090625,-0.1648148148148148],[0.090625,-0.16666666666666666],[0.090625,-0.16666666666666666],[0.090625,-0.16666666666666666],[0.090625,-0.16666666666666666],[0.090625,-0.16666666666666666],[0.090625,-0.16666666666666666],[0.090625,-0.16666666666666666],[0.090625,-0.16666666666666666],[0.090625,-0.16666666666666666],[0.090625,-0.16666666666666666],[0.090625,-0.16666666666666666],[0.090625,-0.16666666666666666],[0.090625,-0.16666666666666666],[0.090625,-0.16666666666666666],[0.090625,-0.16666666666666666],[0.090625,-0.16666666666666666],[0.090625,-0.16666666666666666],[0.090625,-0.16666666666666666],[0.090625,-0.16666666666666666],[0.090625,-0.16666666666666666],[0.090625,-0.16666666666666666],[0.090625,-0.16666666666666666],[0.090625,-0.16666666666666666],[0.090625,-0.16666666666666666],[0.090625,-0.16666666666666666],[0.090625,-0.16666666666666666],[0.090625,-0.16666666666666666],[0.090625,-0.16666666666666666],[0.090625,-0.16666666666666666],[0.090625,-0.16666666666666666],[0.090625,-0.16666666666666666],[0.090625,-0.16666666666666666],[0.090625,-0.16666666666666666],[0.090625,-0.16666666666666666],[0.090625,-0.16666666666666666],[0.090625,-0.16666666666666666],[0.090625,-0.16666666666666666],[0.090625,-0.16666666666666666],[0.090625,-0.16666666666666666],[0.090625,-0.16666666666666666],[0.090625,-0.16666666666666666],[0.090625,-0.16666666666666666],[0.090625,-0.16666666666666666],[0.090625,-0.16666666666666666],[0.090625,-0.16666666666666666],[0.090625,-0.16666666666666666],[0.090625,-0.16666666666666666],[0.090625,-0.16666666666666666],[0.090625,-0.16666666666666666],[0.090625,-0.16666666666666666],[0.090625,-0.16666666666666666],[0.090625,-0.16666666666666666],[0.090625,-0.16666666666666666],[0.090625,-0.16666666666666666],[0.090625,-0.16666666666666666],[0.090625,-0.16666666666666666],[0.090625,-0.16666666666666666],[0.090625,-0.16666666666666666],[0.090625,-0.16666666666666666],[0.090625,-0.16666666666666666],[0.090625,-0.16666666666666666],[0.090625,-0.16666666666666666],[0.090625,-0.16666666666666666],[0.090625,-0.16666666666666666],[0.090625,-0.16666666666666666],[0.090625,-0.16666666666666666],[0.090625,-0.16666666666666666],[0.090625,-0.16666666666666666],[0.090625,-0.16666666666666666],[0.090625,-0.16666666666666666],[0.090625,-0.16666666666666666],[0.090625,-0.16666666666666666],[0.090625,-0.16666666666666666],[0.090625,-0.16666666666666666],[0.090625,-0.16666666666666666],[0.090625,-0.16666666666666666],[0.090625,-0.16666666666666666],[0.090625,-0.16666666666666666],[0.090625,-0.16666666666666666],[0.090625,-0.16666666666666666],[0.090625,-0.16666666666666666],[0.090625,-0.16666666666666666],[0.090625,-0.16666666666666666],[0.090625,-0.16666666666666666],[0.090625,-0.16666666666666666],[0.090625,-0.16666666666666666],[0.090625,-0.16666666666666666],[0.090625,-0.16666666666666666],[0.090625,-0.16666666666666666],[0.090625,-0.16666666666666666],[0.090625,-0.16666666666666666],[0.090625,-0.16666666666666666],[0.090625,-0.16666666666666666],[0.090625,-0.16666666666666666],[0.090625,-0.16666666666666666],[0.090625,-0.16666666666666666],[0.090625,-0.16666666666666666],[0.08020833333333334,-0.15555555555555556],[0.06979166666666667,-0.13333333333333333],[0.06354166666666666,-0.12222222222222222],[0.059375,-0.1111111111111111],[0.057291666666666664,-0.09259259259259259],[0.057291666666666664,-0.06851851851851852],[0.0625,-0.03518518518518519],[0.06979166666666667,-0.003703703703703704],[0.07291666666666667,0.018518518518518517],[0.07291666666666667,0.04259259259259259],[0.07291666666666667,0.05740740740740741],[0.07291666666666667,0.07037037037037037],[0.07291666666666667,0.07962962962962963],[0.07291666666666667,0.09444444444444444],[0.07291666666666667,0.1],[0.07291666666666667,0.10555555555555556],[0.071875,0.11296296296296296],[0.071875,0.11481481481481481],[0.07083333333333333,0.11666666666666667],[0.06979166666666667,0.12037037037037036],[0.06979166666666667,0.12407407407407407],[0.06979166666666667,0.1259259259259259],[0.06875,0.12962962962962962],[0.06875,0.12962962962962962],[0.06875,0.12962962962962962],[0.06875,0.12962962962962962],[0.06875,0.12962962962962962],[0.06875,0.12962962962962962],[0.06875,0.12962962962962962],[0.06875,0.12962962962962962],[0.06875,0.12962962962962962],[0.06875,0.12962962962962962],[0.06875,0.12962962962962962],[0.06875,0.12962962962962962],[0.06875,0.12962962962962962],[0.06875,0.12962962962962962],[0.06875,0.12962962962962962],[0.06875,0.12962962962962962],[0.06875,0.12962962962962962],[0.06875,0.12962962962962962],[0.06875,0.12962962962962962],[0.06875,0.12962962962962962],[0.06875,0.12962962962962962],[0.06875,0.12962962962962962],[0.06875,0.12962962962962962],[0.06875,0.12962962962962962],[0.06875,0.12962962962962962],[0.06875,0.12962962962962962],[0.06875,0.12962962962962962],[0.06875,0.12962962962962962],[0.06875,0.12962962962962962],[0.06875,0.12962962962962962],[0.06875,0.12962962962962962],[0.06875,0.12962962962962962],[0.06875,0.12962962962962962],[0.06875,0.12962962962962962],[0.06875,0.12962962962962962],[0.06875,0.12962962962962962],[0.06875,0.12962962962962962],[0.06875,0.12962962962962962],[0.06875,0.12962962962962962],[0.06875,0.12962962962962962],[0.06875,0.12962962962962962],[0.06875,0.13333333333333333],[0.06875,0.1388888888888889],[0.06875,0.14444444444444443],[0.06875,0.15],[0.06875,0.15185185185185185],[0.06875,0.15555555555555556],[0.06875,0.1574074074074074],[0.06875,0.15925925925925927],[0.06875,0.15925925925925927],[0.06875,0.15925925925925927],[0.06875,0.15925925925925927],[0.06875,0.15925925925925927],[0.06875,0.15925925925925927],[0.06875,0.15925925925925927],[0.06875,0.15925925925925927],[0.06875,0.15925925925925927],[0.06875,0.15925925925925927],[0.06875,0.15925925925925927],[0.06875,0.15925925925925927],[0.06875,0.15925925925925927],[0.06875,0.15925925925925927],[0.06875,0.15925925925925927],[0.06875,0.15925925925925927],[0.06875,0.15925925925925927],[0.06875,0.15925925925925927],[0.06875,0.15925925925925927],[0.06875,0.15925925925925927],[0.06875,0.15925925925925927],[0.06875,0.15925925925925927],[0.06875,0.15925925925925927],[0.06875,0.15925925925925927],[0.06979166666666667,0.13148148148148148],[0.06979166666666667,0.0962962962962963],[0.06979166666666667,0.06296296296296296],[0.06979166666666667,0.037037037037037035],[0.06770833333333333,0.018518518518518517],[0.06770833333333333,0.014814814814814815],[0.06770833333333333,0.012962962962962963],[0.06770833333333333,0.012962962962962963],[0.06770833333333333,0.012962962962962963],[0.06770833333333333,0.012962962962962963],[0.06770833333333333,0.012962962962962963],[0.06770833333333333,0.012962962962962963],[0.06770833333333333,0.012962962962962963],[0.06770833333333333,0.012962962962962963],[0.06770833333333333,0.012962962962962963],[0.06770833333333333,0.012962962962962963],[0.06770833333333333,0.012962962962962963],[0.06770833333333333,0.012962962962962963],[0.06770833333333333,0.012962962962962963],[0.06770833333333333,0.012962962962962963],[0.06770833333333333,0.012962962962962963],[0.06770833333333333,0.012962962962962963],[0.06770833333333333,0.012962962962962963],[0.06770833333333333,0.012962962962962963],[0.06770833333333333,0.012962962962962963],[0.06770833333333333,0.012962962962962963],[0.06770833333333333,0.012962962962962963],[0.06770833333333333,0.012962962962962963],[0.06770833333333333,0.012962962962962963],[0.06770833333333333,0.012962962962962963],[0.06770833333333333,0.012962962962962963],[0.06770833333333333,0.012962962962962963],[0.06770833333333333,0.012962962962962963],[0.06770833333333333,0.012962962962962963],[0.06770833333333333,0.012962962962962963],[0.06770833333333333,0.012962962962962963],[0.06770833333333333,0.012962962962962963],[0.06770833333333333,0.012962962962962963],[0.06770833333333333,0.012962962962962963],[0.06770833333333333,0.012962962962962963],[0.06770833333333333,0.012962962962962963],[0.06770833333333333,0.012962962962962963],[0.06770833333333333,0.012962962962962963],[0.06770833333333333,0.012962962962962963],[0.06770833333333333,0.012962962962962963],[0.06770833333333333,0.012962962962962963],[0.06770833333333333,0.012962962962962963],[0.06770833333333333,0.012962962962962963],[0.06770833333333333,0.012962962962962963],[0.06770833333333333,0.012962962962962963],[0.06770833333333333,0.012962962962962963]]","[[0.16510416666666666,0.1625925925925925],[0.16510416666666666,0.1625925925925925],[0.12531249999999997,0.15907407407407403],[0.11708333333333343,0.16574074074074074],[0.10031249999999996,0.13425925925925927],[0.07625000000000005,0.1307407407407408],[0.06906249999999996,0.13907407407407413],[0.06906249999999996,0.13907407407407413],[0.04812500000000005,0.10833333333333334],[0.010104166666666714,0.12296296296296293],[-0.05520833333333333,0.1257407407407407],[-0.11927083333333334,0.14629629629629629],[-0.1544791666666666,0.1411111111111112],[-0.1544791666666666,0.1411111111111112],[-0.14718749999999994,0.13870370370370366],[-0.13781249999999995,0.1300000000000001],[-0.12374999999999996,0.15611111111111103],[-0.07562500000000003,0.16648148148148145],[-0.10677083333333333,0.15685185185185194],[-0.1375,0.17185185185185176],[-0.12635416666666663,0.17629629629629637],[-0.12635416666666663,0.17629629629629637],[-0.11291666666666664,0.17907407407407416],[-0.11291666666666664,0.17907407407407416],[-0.09447916666666671,0.17685185185185184],[-0.12854166666666664,0.1985185185185186],[-0.12854166666666664,0.1985185185185186],[-0.10718749999999998,0.21518518518518526],[-0.11822916666666666,0.21648148148148144],[-0.128125,0.20407407407407416],[-0.19427083333333334,0.18407407407407403],[-0.17916666666666667,0.18981481481481483],[-0.18791666666666665,0.17814814814814822],[-0.18562500000000004,0.16537037037037028],[-0.18458333333333338,0.12629629629629638],[-0.18968750000000004,0.06944444444444445],[-0.15854166666666672,0.02759259259259255],[-0.17552083333333332,-0.037037037037037035],[-0.1736458333333334,-0.05703703703703706],[-0.1736458333333334,-0.05703703703703706],[-0.20260416666666667,-0.075],[-0.20260416666666667,-0.075],[-0.15333333333333338,-0.08703703703703704],[-0.15333333333333338,-0.08703703703703704],[-0.14333333333333337,-0.11962962962962967],[-0.14333333333333337,-0.11962962962962967],[-0.11489583333333328,-0.12629629629629627],[-0.11489583333333328,-0.12629629629629627],[-0.11197916666666667,-0.1618518518518518],[-0.11197916666666667,-0.1618518518518518],[-0.10072916666666672,-0.15870370370370368],[-0.06854166666666663,-0.12481481481481477],[-0.06864583333333331,-0.11925925925925922],[-0.05489583333333338,-0.12037037037037036],[-0.05489583333333338,-0.12037037037037036],[-0.02385416666666664,-0.08499999999999996],[-0.02385416666666664,-0.08499999999999996],[0.011249999999999953,-0.05277777777777778],[0.011249999999999953,-0.05277777777777778],[0.025729166666666713,-0.026111111111111154],[0.036145833333333384,-0.010185185185185186],[0.025625000000000023,0.003333333333333249],[0.06291666666666665,0.055000000000000084],[0.1146874999999999,0.09981481481481477],[0.1243750000000001,0.11555555555555551],[0.18947916666666675,0.127962962962963],[0.234375,0.17611111111111116],[0.2439583333333334,0.15851851851851856],[0.26875,0.15018518518518523],[0.26875,0.15018518518518523],[0.22927083333333323,0.1331481481481481],[0.18635416666666677,0.1300000000000001],[0.1638541666666666,0.13055555555555556],[0.10458333333333343,0.11999999999999991],[0.05604166666666662,0.11537037037037029],[0.0296875,0.12222222222222222],[-0.03083333333333336,0.14574074074074084],[-0.08510416666666672,0.152962962962963],[-0.1140625,0.1737037037037036],[-0.16572916666666668,0.18481481481481474],[-0.17864583333333334,0.2270370370370371],[-0.17437499999999997,0.30407407407407416],[-0.14447916666666671,0.2911111111111112],[-0.14447916666666671,0.2911111111111112],[-0.09802083333333336,0.2770370370370371],[-0.08062499999999997,0.25870370370370377],[-0.08875000000000005,0.23481481481481473],[-0.11458333333333333,0.1955555555555556],[-0.10895833333333335,0.1844444444444445],[-0.12885416666666671,0.19314814814814807],[-0.07468750000000005,0.1479629629629629],[-0.034687499999999954,0.09314814814814806],[0.017708333333333333,-0.018148148148148063],[0.034062500000000044,-0.05925925925925926],[0.0390625,-0.03481481481481473],[0.04770833333333328,0.008148148148148106],[0.07552083333333333,0.02370370370370362],[0.11364583333333324,0.0455555555555556],[0.12999999999999995,0.06574074074074074],[0.15333333333333338,0.05351851851851848],[0.10572916666666667,0.10203703703703708],[0.10604166666666662,0.13907407407407413],[0.08802083333333334,0.21444444444444435],[0.07229166666666677,0.29907407407407405],[0.0740624999999999,0.2831481481481481],[0.0740624999999999,0.2831481481481481],[0.06875,0.27074074074074084],[0.05385416666666672,0.2994444444444445],[0.029062499999999977,0.27388888888888885],[0.0078125,0.23333333333333334],[-0.0012500000000000473,0.20481481481481487],[0.025312499999999953,0.17981481481481484],[0.016666666666666666,0.15129629629629637],[0.016666666666666666,0.15129629629629637],[-0.019375000000000024,0.06574074074074074],[-0.01593749999999995,-0.03629629629629634],[-0.01593749999999995,-0.03629629629629634],[-0.06822916666666666,-0.06555555555555552],[-0.06822916666666666,-0.06555555555555552],[-0.07854166666666665,-0.10537037037037032],[-0.08510416666666672,-0.12925925925925927],[-0.09750000000000002,-0.12037037037037036],[-0.09750000000000002,-0.12037037037037036],[-0.09031250000000005,-0.13240740740740742],[-0.09031250000000005,-0.13240740740740742],[-0.10291666666666661,-0.15962962962962962],[-0.10291666666666661,-0.15962962962962962],[-0.12322916666666663,-0.1712962962962963],[-0.12322916666666663,-0.1712962962962963],[-0.15427083333333336,-0.16722222222222224],[-0.12312500000000005,-0.11240740740740739],[-0.13052083333333328,-0.03092592592592601],[-0.13052083333333328,-0.03092592592592601],[-0.14052083333333332,-0.01648148148148144],[-0.16124999999999995,-0.003703703703703704],[-0.12989583333333338,-0.0014814814814813973],[-0.10187499999999995,0.005370370370370328],[-0.09635416666666667,0.034074074074074034],[-0.06854166666666663,0.07351851851851861],[-0.06479166666666672,0.08666666666666659],[-0.007708333333333309,0.12129629629629629],[-0.01395833333333331,0.10907407407407403],[-0.017499999999999953,0.08259259259259263],[0.01083333333333331,0.09833333333333337],[0.024166666666666715,0.09000000000000004],[0.021041666666666715,0.08574074074074066],[0.03093750000000005,0.09703703703703699],[0.025833333333333285,0.09092592592592597],[0.025833333333333285,0.09092592592592597],[0.02781250000000005,0.09055555555555551],[0.041979166666666616,0.10833333333333334],[0.041979166666666616,0.10833333333333334],[0.022604166666666713,0.11092592592592589],[0.030729166666666665,0.14462962962962966],[0.06187499999999998,0.1603703703703704],[0.09479166666666666,0.18851851851851845],[0.14135416666666673,0.20055555555555546],[0.15812499999999996,0.21129629629629634],[0.15812499999999996,0.21129629629629634],[0.1696875000000001,0.225],[0.1696875000000001,0.225],[0.1951041666666666,0.26851851851851855],[0.17177083333333343,0.25574074074074077],[0.17177083333333343,0.25574074074074077],[0.1540625000000001,0.24370370370370376],[0.1540625000000001,0.24370370370370376],[0.12229166666666676,0.23296296296296287],[0.12229166666666676,0.23296296296296287],[0.11104166666666657,0.22555555555555548],[0.11104166666666657,0.22555555555555548],[0.07010416666666662,0.24444444444444444],[0.03218749999999997,0.23462962962962972],[-0.03718750000000005,0.2551851851851851],[-0.06135416666666664,0.2514814814814814],[-0.08854166666666667,0.2418518518518519],[-0.10750000000000005,0.2074074074074074],[-0.10750000000000005,0.2074074074074074],[-0.1234375,0.230925925925926],[-0.1234375,0.230925925925926],[-0.15437500000000004,0.23537037037037042],[-0.15437500000000004,0.23537037037037042],[-0.1319791666666667,0.2294444444444444],[-0.13291666666666668,0.21722222222222215],[-0.13291666666666668,0.21722222222222215],[-0.14479166666666668,0.20962962962962972],[-0.1388541666666666,0.20203703703703707],[-0.11812499999999998,0.2175925925925926],[-0.13854166666666667,0.23648148148148157],[-0.15593750000000003,0.22666666666666663],[-0.1811458333333333,0.21999999999999992],[-0.16156250000000003,0.2146296296296296],[-0.12791666666666662,0.2116666666666666],[-0.12791666666666662,0.2116666666666666],[-0.18354166666666671,0.20481481481481487],[-0.20927083333333332,0.19240740740740736],[-0.22625000000000003,0.17981481481481484],[-0.24145833333333327,0.1698148148148149],[-0.2594791666666667,0.1359259259259259],[-0.2594791666666667,0.1359259259259259],[-0.22999999999999995,0.13185185185185194],[-0.20864583333333328,0.14092592592592595],[-0.20864583333333328,0.14092592592592595],[-0.19406249999999994,0.1544444444444444],[-0.24416666666666664,0.14462962962962966],[-0.2703125,0.14462962962962966],[-0.24593750000000003,0.13851851851851843],[-0.19427083333333334,0.1425925925925926],[-0.1710416666666667,0.13129629629629624],[-0.1492708333333333,0.1368518518518518],[-0.13010416666666663,0.14148148148148143],[-0.1452083333333333,0.12407407407407407],[-0.17145833333333335,0.11611111111111119],[-0.19437500000000002,0.10851851851851856],[-0.16895833333333338,0.08037037037037033],[-0.15625,0.06574074074074074],[-0.13291666666666668,0.06277777777777774],[-0.14583333333333334,0.06777777777777783],[-0.13791666666666663,0.08129629629629626],[-0.15208333333333332,0.08037037037037033],[-0.1610416666666667,0.06925925925925921],[-0.1498958333333333,0.05814814814814811],[-0.09239583333333339,0.04222222222222214],[-0.08374999999999998,0.03740740740740749],[-0.07166666666666661,0.05685185185185194],[-0.07989583333333337,0.062037037037037036],[-0.09406249999999995,0.0668518518518519],[-0.12427083333333329,0.052407407407407326],[-0.0875,0.05962962962962971],[-0.05510416666666664,0.07666666666666662],[-0.028750000000000022,0.09407407407407399],[-0.09104166666666665,0.09611111111111106],[-0.07322916666666662,0.11222222222222226],[-0.07322916666666662,0.11222222222222226],[-0.12312500000000005,0.14055555555555552],[-0.115625,0.1587037037037038],[-0.115625,0.1587037037037038],[-0.07552083333333333,0.16777777777777783],[-0.07552083333333333,0.16777777777777783],[-0.03843749999999998,0.18333333333333332],[0.01416666666666669,0.2212962962962963],[0.000416666666666643,0.2390740740740741],[0.036666666666666715,0.21740740740740735],[0.05166666666666669,0.23055555555555557],[0.14916666666666673,0.26888888888888896],[0.14916666666666673,0.26888888888888896],[0.1265625,0.2892592592592593],[0.2163541666666667,0.28722222222222227],[0.24072916666666658,0.31055555555555564],[0.25187499999999996,0.31925925925925924],[0.25635416666666655,0.31296296296296294],[0.23125,0.31259259259259253],[0.22906250000000009,0.2964814814814815],[0.1806250000000001,0.3140740740740741],[0.16749999999999995,0.30166666666666664],[0.12937500000000005,0.2698148148148149],[0.13114583333333343,0.21481481481481482],[0.13708333333333325,0.1588888888888888],[0.1321875000000001,0.12722222222222232],[0.12156250000000005,0.10111111111111115],[0.11791666666666671,0.07814814814814823],[0.13427083333333342,0.008703703703703788],[0.11229166666666662,0.01722222222222214],[0.11229166666666662,0.01722222222222214],[0.10031249999999996,0.010370370370370412],[0.08416666666666663,0.008148148148148106],[0.11614583333333334,0.005185185185185101],[0.10750000000000005,0.0544444444444444],[0.10270833333333323,0.10481481481481486],[0.09562499999999995,0.10611111111111103],[0.09562499999999995,0.10611111111111103],[0.08166666666666676,0.11611111111111119],[0.078125,0.10055555555555547],[0.06979166666666667,0.1227777777777777],[0.07979166666666657,0.09425925925925922],[0.09072916666666657,0.0838888888888888],[0.10520833333333333,0.06574074074074074],[0.08135416666666657,0.05018518518518523],[0.06749999999999995,0.032037037037036954],[0.06749999999999995,0.032037037037036954],[0.0515625,0.01722222222222214],[0.0515625,0.01722222222222214],[0.059791666666666646,0.014629629629629588],[0.059791666666666646,0.014629629629629588],[0.06510416666666667,0.011666666666666582],[0.06510416666666667,0.011666666666666582],[0.059791666666666646,0.011296296296296339],[0.059791666666666646,0.011296296296296339],[0.06770833333333333,-0.003888888888888931],[0.06770833333333333,-0.003888888888888931],[0.09708333333333338,-0.002777777777777778],[0.09708333333333338,-0.002777777777777778],[0.10291666666666661,-0.011296296296296339],[0.10906250000000005,-0.028888888888888933],[0.12447916666666667,-0.03925925925925934],[0.128125,-0.07092592592592595],[0.128125,-0.07092592592592595],[0.12999999999999995,-0.10703703703703706],[0.12999999999999995,-0.10703703703703706],[0.11791666666666671,-0.15833333333333333],[0.08677083333333328,-0.21574074074074073],[0.05666666666666664,-0.22666666666666663],[0.03968750000000002,-0.20870370370370367],[-0.0009374999999999763,-0.2183333333333333],[0.0003124999999999526,-0.22407407407407406],[-0.022812499999999975,-0.20537037037037034],[-0.022812499999999975,-0.20537037037037034],[-0.03760416666666669,-0.2131481481481482],[-0.02781250000000005,-0.2096296296296296],[-0.02312500000000005,-0.20388888888888893],[-0.029062499999999977,-0.15111111111111114],[-0.024270833333333287,-0.10203703703703708],[0.03093750000000005,-0.030000000000000086],[0.020937500000000022,-0.03611111111111111],[0.04135416666666671,-0.059814814814814835],[0.010208333333333286,-0.0816666666666667],[0.020624999999999952,-0.07462962962962966],[0.0037500000000000237,-0.07462962962962966],[0.008020833333333382,-0.04814814814814815],[0.008020833333333382,-0.04814814814814815],[0.016354166666666715,-0.007777777777777862],[-0.009687499999999953,0.004074074074074159],[0.004479166666666619,-0.008148148148148106],[-0.02010416666666662,-0.04592592592592584],[-0.02010416666666662,-0.04592592592592584],[-0.007395833333333357,-0.007407407407407408],[0.014374999999999952,0.030555555555555555],[0.060104166666666715,0.06870370370370374],[0.0578125,0.0837037037037038],[0.06625000000000002,0.09574074074074082],[0.08052083333333329,0.075],[0.07489583333333343,0.03518518518518519],[0.10802083333333339,0.01518518518518527],[0.12531249999999997,0.002962962962963005],[0.11812500000000009,0.018888888888888972],[0.12895833333333329,0.01055555555555564],[0.11739583333333338,0.019444444444444445],[0.07854166666666676,0.03462962962962971],[0.11135416666666677,-0.000925925925925926],[0.10989583333333333,-0.002962962962963005],[0.09885416666666676,-0.013888888888888888],[0.09885416666666676,-0.013888888888888888],[0.08250000000000005,-0.010740740740740657],[0.06947916666666672,-0.020185185185185143],[0.035208333333333286,-0.024629629629629547],[0.05520833333333333,-0.0338888888888888],[0.08458333333333339,-0.036481481481481566],[0.08458333333333339,-0.036481481481481566],[0.07979166666666657,-0.039074074074074115],[0.11156249999999991,-0.06981481481481479],[0.08125,-0.050370370370370454],[0.09968750000000005,-0.018333333333333292],[0.09760416666666671,0.007592592592592635],[0.08635416666666676,0.020555555555555598],[0.09052083333333343,0.023148148148148147],[0.11218750000000005,0.06740740740740736],[0.11218750000000005,0.06740740740740736],[0.09145833333333328,0.07074074074074083],[0.052187500000000026,0.043703703703703745],[0.016354166666666715,0.03629629629629634],[0.014374999999999952,0.041666666666666664],[0.019583333333333286,0.041111111111111195],[-0.016250000000000025,0.03888888888888889],[-0.016145833333333335,0.0588888888888888],[0.02791666666666662,0.08111111111111102],[0.0625,0.10388888888888893],[0.09677083333333343,0.09240740740740737],[0.13531250000000009,0.030000000000000086],[0.16604166666666675,0.027407407407407325],[0.21260416666666657,-0.012777777777777735],[0.22906250000000009,-0.056851851851851834],[0.234375,-0.09296296296296294],[0.2841666666666666,-0.14203703703703702],[0.30187499999999995,-0.19240740740740736],[0.28125,-0.25629629629629624],[0.2930208333333333,-0.34314814814814815],[0.2595833333333334,-0.4255555555555556],[0.23114583333333344,-0.4607407407407408],[0.21229166666666663,-0.5120370370370371],[0.2319791666666667,-0.5051851851851852],[0.22312500000000005,-0.524074074074074],[0.21770833333333334,-0.5692592592592592],[0.18552083333333325,-0.6068518518518519],[0.15656249999999997,-0.6248148148148148],[0.1851041666666667,-0.612037037037037],[0.16802083333333329,-0.5748148148148148],[0.16802083333333329,-0.5748148148148148],[0.18854166666666666,-0.5051851851851852],[0.2118750000000001,-0.43648148148148147],[0.22020833333333342,-0.3705555555555556],[0.19791666666666666,-0.3146296296296296],[0.1853125000000001,-0.24074074074074073],[0.19020833333333323,-0.13203703703703706],[0.1890625,-0.04425925925925922],[0.18468749999999995,0.02388888888888885],[0.16791666666666671,0.08296296296296288],[0.16635416666666672,0.13962962962962958],[0.16333333333333327,0.1735185185185186],[0.13791666666666677,0.22240740740740744],[0.13791666666666677,0.22240740740740744],[0.11770833333333333,0.25759259259259265],[0.11770833333333333,0.25759259259259265],[0.09822916666666662,0.2766666666666666],[0.09822916666666662,0.2766666666666666],[0.12374999999999996,0.29259259259259257],[0.12374999999999996,0.29259259259259257],[0.10677083333333333,0.2803703703703703],[0.10677083333333333,0.2803703703703703],[0.11708333333333343,0.30462962962962964],[0.11708333333333343,0.30462962962962964],[0.12062499999999995,0.31666666666666665],[0.1271874999999999,0.33425925925925926],[0.11145833333333334,0.3227777777777777],[0.11083333333333342,0.325],[0.11447916666666676,0.3101851851851852],[0.11500000000000009,0.29740740740740745],[0.11500000000000009,0.29740740740740745],[0.121875,0.2777777777777778],[0.121875,0.2777777777777778],[0.0821875000000001,0.26425925925925936],[0.07604166666666666,0.2733333333333334],[0.059375,0.2524074074074073],[0.06322916666666671,0.25277777777777777],[0.03739583333333331,0.23851851851851844],[0.013541666666666667,0.22740740740740734],[-0.025416666666666643,0.20259259259259255],[-0.04489583333333336,0.21055555555555563],[-0.057083333333333285,0.22462962962962954],[-0.057083333333333285,0.22462962962962954],[-0.07302083333333335,0.22444444444444453],[-0.08229166666666667,0.2294444444444444],[-0.08802083333333334,0.21592592592592597],[-0.0889583333333333,0.2022222222222223],[-0.10364583333333334,0.1794444444444444],[-0.11333333333333329,0.15555555555555556],[-0.10562499999999998,0.15592592592592602],[-0.08916666666666669,0.15129629629629637],[-0.08333333333333333,0.12259259259259268],[-0.08250000000000005,0.11481481481481481],[-0.07770833333333335,0.12759259259259256],[-0.07322916666666662,0.14981481481481476],[-0.0734375,0.17555555555555546],[-0.08135416666666669,0.20611111111111102],[-0.09020833333333336,0.23407407407407405],[-0.09375,0.2553703703703703],[-0.09635416666666667,0.27925925925925915],[-0.11166666666666672,0.32166666666666677],[-0.1264583333333333,0.3640740740740741],[-0.14031250000000003,0.37481481481481477],[-0.1544791666666666,0.37777777777777777],[-0.15885416666666666,0.3911111111111112],[-0.15854166666666672,0.4009259259259259],[-0.15822916666666664,0.3955555555555556],[-0.1547916666666667,0.38796296296296295],[-0.15656249999999997,0.38574074074074066],[-0.15395833333333328,0.3890740740740741],[-0.15395833333333328,0.3890740740740741],[-0.14114583333333333,0.39351851851851855],[-0.128125,0.38499999999999995],[-0.11833333333333336,0.39537037037037037],[-0.10541666666666671,0.3677777777777778],[-0.10229166666666671,0.32981481481481484],[-0.08968750000000002,0.29314814814814805],[-0.0704166666666667,0.26722222222222214],[-0.05333333333333338,0.24611111111111106],[-0.03156249999999995,0.23148148148148148],[-0.01416666666666669,0.21129629629629634],[0.002499999999999976,0.16814814814814807],[0.011666666666666714,0.13407407407407404],[0.028125,0.09185185185185189],[0.04770833333333328,0.075],[0.0609375,0.04277777777777782],[0.04125000000000002,0.009814814814814731],[0.04125000000000002,0.009814814814814731],[0.04125000000000002,-0.009444444444444486],[0.028437499999999952,-0.030740740740740784],[0.019375000000000024,-0.03685185185185181],[0.019375000000000024,-0.03685185185185181],[0.020833333333333332,-0.06148148148148146],[0.029166666666666667,-0.07370370370370373],[0.029166666666666667,-0.07370370370370373],[0.01229166666666662,-0.06814814814814817],[0.030520833333333285,-0.06277777777777774],[0.042499999999999954,-0.05240740740740743],[0.043958333333333384,-0.026481481481481398],[0.07947916666666661,-0.011481481481481566],[0.08958333333333333,0.004259259259259175],[0.10864583333333329,0.0022222222222223064],[0.1146874999999999,-0.01055555555555564],[0.09104166666666676,0.012037037037037037],[0.05499999999999995,0.030555555555555555],[0.05510416666666664,0.031111111111111027],[0.02010416666666662,0.03185185185185194],[-0.014895833333333285,0.03259259259259263],[-0.03260416666666662,0.03296296296296288],[-0.03260416666666662,0.03296296296296288],[-0.0609375,0.043703703703703745],[-0.09697916666666669,0.03740740740740749],[-0.10364583333333334,0.07185185185185176],[-0.12083333333333333,0.08314814814814811],[-0.08312499999999995,0.10740740740740741],[-0.04541666666666669,0.1316666666666667],[-0.04020833333333336,0.12444444444444452],[-0.035000000000000024,0.11722222222222214],[-0.030104166666666644,0.10962962962962972],[-0.025625000000000023,0.10222222222222231],[0.001145833333333357,0.102962962962963],[0.034687499999999954,0.11074074074074065],[0.0171875,0.09537037037037037],[0.021041666666666715,0.08481481481481473],[0.005520833333333286,0.04666666666666675],[-0.010000000000000024,0.00851851851851856],[0.011770833333333286,0.022037037037036994],[0.027291666666666714,0.022037037037036994],[0.043124999999999976,0.02240740740740745],[0.043124999999999976,0.02240740740740745],[0.035208333333333286,0.04592592592592584],[0.004999999999999952,0.06129629629629634],[-0.00604166666666662,0.053703703703703705],[0.008437500000000023,0.048333333333333374],[0.008437500000000023,0.048333333333333374],[0.021979166666666692,0.06777777777777783],[0.021979166666666692,0.06777777777777783],[0.012187500000000047,0.057777777777777865],[0.012187500000000047,0.057777777777777865],[-0.00604166666666662,0.046481481481481526],[-0.00604166666666662,0.046481481481481526],[-0.019791666666666666,0.03814814814814819],[-0.019791666666666666,0.03814814814814819],[-0.01885416666666669,0.0235185185185186],[-0.01885416666666669,0.0235185185185186],[-0.03125,0.010370370370370412],[-0.010000000000000024,-0.006481481481481481],[0.011041666666666691,-0.0235185185185186],[0.01593749999999995,-0.03037037037037033],[0.017499999999999953,-0.04055555555555551],[0.017499999999999953,-0.04055555555555551],[0.027187500000000024,-0.05462962962962963],[0.027187500000000024,-0.05462962962962963],[0.04593750000000003,-0.04333333333333329],[0.07302083333333324,-0.03222222222222218],[0.08354166666666671,-0.03259259259259263],[0.09197916666666663,-0.014259259259259343],[0.10385416666666672,-0.006111111111111027],[0.11812500000000009,-0.041111111111111195],[0.11062500000000004,-0.09037037037037039],[0.10010416666666658,-0.11574074074074074],[0.09291666666666672,-0.13777777777777775],[0.09291666666666672,-0.13777777777777775],[0.0728125000000001,-0.14240740740740737],[0.05562499999999997,-0.15777777777777777],[0.03854166666666667,-0.17166666666666663],[0.04020833333333336,-0.18870370370370365],[0.035520833333333356,-0.20462962962962963],[0.03989583333333328,-0.20111111111111116],[0.03197916666666671,-0.17388888888888884],[0.029999999999999954,-0.1366666666666667],[0.04812500000000005,-0.10833333333333334],[0.0625,-0.08129629629629626],[0.0625,-0.08129629629629626],[0.06468750000000002,-0.06944444444444445],[0.08083333333333324,-0.05851851851851856],[0.09697916666666657,-0.04759259259259268],[0.07697916666666677,-0.06814814814814817],[0.07354166666666657,-0.0690740740740741],[0.0709374999999999,-0.08074074074074078],[0.071875,-0.0727777777777778],[0.09322916666666667,-0.05537037037037033],[0.08854166666666667,-0.07074074074074072],[0.10031249999999996,-0.08222222222222218],[0.12833333333333338,-0.09537037037037037],[0.13739583333333344,-0.09500000000000001],[0.1484375,-0.10166666666666663],[0.16333333333333327,-0.06981481481481479],[0.14354166666666662,-0.0668518518518519],[0.13875000000000004,-0.07000000000000002],[0.13416666666666663,-0.09648148148148153],[0.14458333333333329,-0.1175925925925926],[0.14322916666666666,-0.09722222222222222],[0.12916666666666668,-0.0794444444444444],[0.12979166666666658,-0.07925925925925928],[0.1304166666666667,-0.07907407407407405],[0.12322916666666663,-0.08222222222222218],[0.12322916666666663,-0.08222222222222218],[0.13385416666666666,-0.1014814814814815],[0.13385416666666666,-0.1014814814814815],[0.15302083333333344,-0.09814814814814815],[0.16854166666666662,-0.06277777777777774],[0.1803124999999999,-0.02370370370370362],[0.1727083333333333,0.005000000000000084],[0.1678124999999999,0.011666666666666582],[0.16291666666666677,0.018333333333333292],[0.1540625000000001,0.01444444444444436],[0.14718749999999994,0.01055555555555564],[0.14458333333333329,0.039629629629629584],[0.1408333333333334,0.07333333333333338],[0.1408333333333334,0.07333333333333338],[0.1400000000000001,0.09518518518518514],[0.1400000000000001,0.09518518518518514],[0.13270833333333343,0.0837037037037038],[0.11833333333333323,0.06777777777777783],[0.10395833333333329,0.05185185185185185],[0.12072916666666676,0.050370370370370454],[0.12291666666666666,0.04518518518518514]]","[[0.16510416666666666,0.1625925925925925,0.00029999971389571556],[0.16510416666666666,0.1625925925925925,0.05659999990462694],[0.12531249999999997,0.15907407407407403,0.06850000000000023],[0.11708333333333343,0.16574074074074074,0.08529999971389657],[0.10031249999999996,0.13425925925925927,0.1017999997138972],[0.07625000000000005,0.1307407407407408,0.12040000009536556],[0.06906249999999996,0.13907407407407413,0.13509999990463228],[0.06906249999999996,0.13907407407407413,0.15479999971389447],[0.04812500000000005,0.10833333333333334,0.16840000009536737],[0.010104166666666714,0.12296296296296293,0.1869999999999976],[-0.05520833333333333,0.1257407407407407,0.20219999980925962],[-0.11927083333333334,0.14629629629629629,0.2201999998092603],[-0.1544791666666666,0.1411111111111112,0.23899999999999721],[-0.1544791666666666,0.1411111111111112,0.2556999998092593],[-0.14718749999999994,0.13870370370370366,0.2716999998092646],[-0.13781249999999995,0.1300000000000001,0.28509999990463086],[-0.12374999999999996,0.15611111111111103,0.3034000000953654],[-0.07562500000000003,0.16648148148148145,0.31840000009536595],[-0.10677083333333333,0.15685185185185194,0.335099999904628],[-0.1375,0.17185185185185176,0.3517999997138972],[-0.12635416666666663,0.17629629629629637,0.3684000000953631],[-0.12635416666666663,0.17629629629629637,0.3850999999046323],[-0.11291666666666664,0.17907407407407416,0.40190000009536675],[-0.11291666666666664,0.17907407407407416,0.4185999999046288],[-0.09447916666666671,0.17685185185185184,0.4351999998092637],[-0.12854166666666664,0.1985185185185186,0.4524000000953663],[-0.12854166666666664,0.1985185185185186,0.4684999999999988],[-0.10718749999999998,0.21518518518518526,0.4851999998092609],[-0.11822916666666666,0.21648148148148144,0.5017999997138958],[-0.128125,0.20407407407407416,0.5197999997138965],[-0.19427083333333334,0.18407407407407403,0.5350999999046309],[-0.17916666666666667,0.18981481481481483,0.5517999997138929],[-0.18791666666666665,0.17814814814814822,0.568400000095366],[-0.18562500000000004,0.16537037037037028,0.585099999904628],[-0.18458333333333338,0.12629629629629638,0.605400000095365],[-0.18968750000000004,0.06944444444444445,0.6219999999999999],[-0.15854166666666672,0.02759259259259255,0.6370999999046276],[-0.17552083333333332,-0.037037037037037035,0.6517999997138944],[-0.1736458333333334,-0.05703703703703706,0.6709999999999994],[-0.1736458333333334,-0.05703703703703706,0.6850999999046294],[-0.20260416666666667,-0.075,0.7019000000953639],[-0.20260416666666667,-0.075,0.7184000000953645],[-0.15333333333333338,-0.08703703703703704,0.7350999999046266],[-0.15333333333333338,-0.08703703703703704,0.7517999997138958],[-0.14333333333333337,-0.11962962962962967,0.768499999999996],[-0.14333333333333337,-0.11962962962962967,0.7850999999046309],[-0.11489583333333328,-0.12629629629629627,0.8019000000953653],[-0.11489583333333328,-0.12629629629629627,0.818400000095366],[-0.11197916666666667,-0.1618518518518518,0.835099999904628],[-0.11197916666666667,-0.1618518518518518,0.8519000000953625],[-0.10072916666666672,-0.15870370370370368,0.8684000000953631],[-0.06854166666666663,-0.12481481481481477,0.8854999999999933],[-0.06864583333333331,-0.11925925925925922,0.9016999998092601],[-0.05489583333333338,-0.12037037037037036,0.9201999998092631],[-0.05489583333333338,-0.12037037037037036,0.9384999999999977],[-0.02385416666666664,-0.08499999999999996,0.9521999998092596],[-0.02385416666666664,-0.08499999999999996,0.9687999997138945],[0.011249999999999953,-0.05277777777777778,0.9894000000953653],[0.011249999999999953,-0.05277777777777778,1.0020999999046296],[0.025729166666666713,-0.026111111111111154,1.0186999998092645],[0.036145833333333384,-0.010185185185185186,1.0372999997138947],[0.025625000000000023,0.003333333333333249,1.0519000000953653],[0.06291666666666665,0.055000000000000084,1.0689000000953612],[0.1146874999999999,0.09981481481481477,1.0852999997138966],[0.1243750000000001,0.11555555555555551,1.1044999999999945],[0.18947916666666675,0.127962962962963,1.1194000000953608],[0.234375,0.17611111111111116,1.1351999998092595],[0.2439583333333334,0.15851851851851856,1.1519000000953667],[0.26875,0.15018518518518523,1.1749000000953629],[0.26875,0.15018518518518523,1.1850999999046294],[0.22927083333333323,0.1331481481481481,1.2019999999999982],[0.18635416666666677,0.1300000000000001,1.222299999713897],[0.1638541666666666,0.13055555555555556,1.2369000000953676],[0.10458333333333343,0.11999999999999991,1.2519999999999953],[0.05604166666666662,0.11537037037037029,1.2684000000953617],[0.0296875,0.12222222222222222,1.2870999999046262],[-0.03083333333333336,0.14574074074074084,1.301799999713893],[-0.08510416666666672,0.152962962962963,1.3186999998092617],[-0.1140625,0.1737037037037036,1.3389999999999986],[-0.16572916666666668,0.18481481481481474,1.3539999999999992],[-0.17864583333333334,0.2270370370370371,1.3704000000953656],[-0.17437499999999997,0.30407407407407416,1.3877999997138915],[-0.14447916666666671,0.2911111111111112,1.4021999998092625],[-0.14447916666666671,0.2911111111111112,1.418699999809263],[-0.09802083333333336,0.2770370370370371,1.435299999713898],[-0.08062499999999997,0.25870370370370377,1.4549999999999983],[-0.08875000000000005,0.23481481481481473,1.471499999999999],[-0.11458333333333333,0.1955555555555556,1.4851999998092609],[-0.10895833333333335,0.1844444444444445,1.5019999999999953],[-0.12885416666666671,0.19314814814814807,1.5220999999046327],[-0.07468750000000005,0.1479629629629629,1.5359999999999943],[-0.034687499999999954,0.09314814814814806,1.5519000000953653],[0.017708333333333333,-0.018148148148148063,1.5686999998092617],[0.034062500000000044,-0.05925925925925926,1.5875999999046329],[0.0390625,-0.03481481481481473,1.6019000000953625],[0.04770833333333328,0.008148148148148106,1.6202999997138932],[0.07552083333333333,0.02370370370370362,1.6394999999999982],[0.11364583333333324,0.0455555555555556,1.6554000000953621],[0.12999999999999995,0.06574074074074074,1.6714000000953675],[0.15333333333333338,0.05351851851851848,1.6869999999999976],[0.10572916666666667,0.10203703703703708,1.704499999999996],[0.10604166666666662,0.13907407407407413,1.718999999999994],[0.08802083333333334,0.21444444444444435,1.7352999997138951],[0.07229166666666677,0.29907407407407405,1.7517999997138958],[0.0740624999999999,0.2831481481481481,1.7746999998092647],[0.0740624999999999,0.2831481481481481,1.7852999997138923],[0.06875,0.27074074074074084,1.8020999999046268],[0.05385416666666672,0.2994444444444445,1.8240999999046323],[0.029062499999999977,0.27388888888888885,1.8389999999999986],[0.0078125,0.23333333333333334,1.853599999904631],[-0.0012500000000000473,0.20481481481481487,1.8710999999046294],[0.025312499999999953,0.17981481481481484,1.8889999999999958],[0.016666666666666666,0.15129629629629637,1.9054000000953621],[0.016666666666666666,0.15129629629629637,1.9185999999046288],[-0.019375000000000024,0.06574074074074074,1.935299999713898],[-0.01593749999999995,-0.03629629629629634,1.9549999999999983],[-0.01593749999999995,-0.03629629629629634,1.9684999999999988],[-0.06822916666666666,-0.06555555555555552,1.989299999713893],[-0.06822916666666666,-0.06555555555555552,2.0019999999999953],[-0.07854166666666665,-0.10537037037037032,2.018499999999996],[-0.08510416666666672,-0.12925925925925927,2.035199999809265],[-0.09750000000000002,-0.12037037037037036,2.0556999998092635],[-0.09750000000000002,-0.12037037037037036,2.0685999999046274],[-0.09031250000000005,-0.13240740740740742,2.0852999997138966],[-0.09031250000000005,-0.13240740740740742,2.1047999997138973],[-0.10291666666666661,-0.15962962962962962,2.118699999809259],[-0.10291666666666661,-0.15962962962962962,2.1352999997138937],[-0.12322916666666663,-0.1712962962962963,2.1555999999046307],[-0.12322916666666663,-0.1712962962962963,2.168599999904629],[-0.15427083333333336,-0.16722222222222224,2.1851999998092637],[-0.12312500000000005,-0.11240740740740739,2.205999999999996],[-0.13052083333333328,-0.03092592592592601,2.223099999904626],[-0.13052083333333328,-0.03092592592592601,2.235199999809261],[-0.14052083333333332,-0.01648148148148144,2.251900000095361],[-0.16124999999999995,-0.003703703703703704,2.270799999713894],[-0.12989583333333338,-0.0014814814814813973,2.285199999809265],[-0.10187499999999995,0.005370370370370328,2.3016999998092587],[-0.09635416666666667,0.034074074074074034,2.3225999999046323],[-0.06854166666666663,0.07351851851851861,2.3394000000953667],[-0.06479166666666672,0.08666666666666659,2.3547999997138973],[-0.007708333333333309,0.12129629629629629,2.3729000000953633],[-0.01395833333333331,0.10907407407407403,2.386900000095366],[-0.017499999999999953,0.08259259259259263,2.4022999997138967],[0.01083333333333331,0.09833333333333337,2.4184000000953674],[0.024166666666666715,0.09000000000000004,2.4375],[0.021041666666666715,0.08574074074074066,2.454900000095364],[0.03093750000000005,0.09703703703703699,2.471199999809265],[0.025833333333333285,0.09092592592592597,2.490099999904629],[0.025833333333333285,0.09092592592592597,2.501900000095361],[0.02781250000000005,0.09055555555555551,2.518499999999996],[0.041979166666666616,0.10833333333333334,2.535199999809265],[0.041979166666666616,0.10833333333333334,2.5519000000953653],[0.022604166666666713,0.11092592592592589,2.568400000095366],[0.030729166666666665,0.14462962962962966,2.5852999997138966],[0.06187499999999998,0.1603703703703704,2.601699999809263],[0.09479166666666666,0.18851851851851845,2.619900000095363],[0.14135416666666673,0.20055555555555546,2.6355999999046276],[0.15812499999999996,0.21129629629629634,2.654199999809265],[0.15812499999999996,0.21129629629629634,2.668599999904629],[0.1696875000000001,0.225,2.685299999713898],[0.1696875000000001,0.225,2.7017999997138915],[0.1951041666666666,0.26851851851851855,2.722999999999999],[0.17177083333333343,0.25574074074074077,2.741099999904627],[0.17177083333333343,0.25574074074074077,2.7517999997138958],[0.1540625000000001,0.24370370370370376,2.768499999999996],[0.1540625000000001,0.24370370370370376,2.785199999809265],[0.12229166666666676,0.23296296296296287,2.801799999713893],[0.12229166666666676,0.23296296296296287,2.818400000095366],[0.11104166666666657,0.22555555555555548,2.835099999904628],[0.11104166666666657,0.22555555555555548,2.851799999713897],[0.07010416666666662,0.24444444444444444,2.868400000095363],[0.03218749999999997,0.23462962962962972,2.8884000000953662],[-0.03718750000000005,0.2551851851851851,2.903499999999994],[-0.06135416666666664,0.2514814814814814,2.9184999999999945],[-0.08854166666666667,0.2418518518518519,2.937099999904632],[-0.10750000000000005,0.2074074074074074,2.957099999904628],[-0.10750000000000005,0.2074074074074074,2.9686999998092602],[-0.1234375,0.230925925925926,2.9854999999999947],[-0.1234375,0.230925925925926,3.0019999999999953],[-0.15437500000000004,0.23537037037037042,3.0224000000953666],[-0.15437500000000004,0.23537037037037042,3.0352999997138923],[-0.1319791666666667,0.2294444444444444,3.051799999713893],[-0.13291666666666668,0.21722222222222215,3.0686999998092617],[-0.13291666666666668,0.21722222222222215,3.088099999904628],[-0.14479166666666668,0.20962962962962972,3.102099999904631],[-0.1388541666666666,0.20203703703703707,3.1204000000953656],[-0.11812499999999998,0.2175925925925926,3.1354999999999933],[-0.13854166666666667,0.23648148148148157,3.1547999997138945],[-0.15593750000000003,0.22666666666666663,3.1709999999999994],[-0.1811458333333333,0.21999999999999992,3.1876999998092614],[-0.16156250000000003,0.2146296296296296,3.2035999999046325],[-0.12791666666666662,0.2116666666666666,3.2269000000953625],[-0.12791666666666662,0.2116666666666666,3.235299999713895],[-0.18354166666666671,0.20481481481481487,3.251900000095361],[-0.20927083333333332,0.19240740740740736,3.268900000095364],[-0.22625000000000003,0.17981481481481484,3.289900000095365],[-0.24145833333333327,0.1698148148148149,3.3055999999046293],[-0.2594791666666667,0.1359259259259259,3.3381999998092624],[-0.2594791666666667,0.1359259259259259,3.3559000000953674],[-0.22999999999999995,0.13185185185185194,3.368400000095363],[-0.20864583333333328,0.14092592592592595,3.3850999999046323],[-0.20864583333333328,0.14092592592592595,3.404999999999994],[-0.19406249999999994,0.1544444444444444,3.4187999997138974],[-0.24416666666666664,0.14462962962962966,3.4354000000953633],[-0.2703125,0.14462962962962966,3.451900000095364],[-0.24593750000000003,0.13851851851851843,3.4701999998092603],[-0.19427083333333334,0.1425925925925926,3.485299999713895],[-0.1710416666666667,0.13129629629629624,3.5019999999999953],[-0.1492708333333333,0.1368518518518518,3.5224000000953666],[-0.13010416666666663,0.14148148148148143,3.536999999999999],[-0.1452083333333333,0.12407407407407407,3.5539000000953678],[-0.17145833333333335,0.11611111111111119,3.5685000000000002],[-0.19437500000000002,0.10851851851851856,3.5882999997138967],[-0.16895833333333338,0.08037037037037033,3.6044999999999945],[-0.15625,0.06574074074074074,3.6195999999046293],[-0.13291666666666668,0.06277777777777774,3.6384999999999934],[-0.14583333333333334,0.06777777777777783,3.6519000000953667],[-0.13791666666666663,0.08129629629629626,3.6691999998092655],[-0.15208333333333332,0.08037037037037033,3.6851999998092637],[-0.1610416666666667,0.06925925925925921,3.7044000000953616],[-0.1498958333333333,0.05814814814814811,3.719799999713892],[-0.09239583333333339,0.04222222222222214,3.735900000095363],[-0.08374999999999998,0.03740740740740749,3.7564999999999955],[-0.07166666666666661,0.05685185185185194,3.771799999713892],[-0.07989583333333337,0.062037037037037036,3.785099999904631],[-0.09406249999999995,0.0668518518518519,3.8016999998092587],[-0.12427083333333329,0.052407407407407326,3.8185999999046274],[-0.0875,0.05962962962962971,3.837599999904633],[-0.05510416666666664,0.07666666666666662,3.851799999713897],[-0.028750000000000022,0.09407407407407399,3.868799999713893],[-0.09104166666666665,0.09611111111111106,3.888699999809262],[-0.07322916666666662,0.11222222222222226,3.9050999999046283],[-0.07322916666666662,0.11222222222222226,3.918599999904629],[-0.12312500000000005,0.14055555555555552,3.937199999809266],[-0.115625,0.1587037037037038,3.957900000095364],[-0.115625,0.1587037037037038,3.9684999999999917],[-0.07552083333333333,0.16777777777777783,3.9850999999046337],[-0.07552083333333333,0.16777777777777783,4.004900000095361],[-0.03843749999999998,0.18333333333333332,4.018699999809257],[0.01416666666666669,0.2212962962962963,4.037299999713895],[0.000416666666666643,0.2390740740740741,4.0545999999046245],[0.036666666666666715,0.21740740740740735,4.0711999998092665],[0.05166666666666669,0.23055555555555557,4.087999999999994],[0.14916666666666673,0.26888888888888896,4.108499999999992],[0.14916666666666673,0.26888888888888896,4.118599999904632],[0.1265625,0.2892592592592593,4.135400000095359],[0.2163541666666667,0.28722222222222227,4.152099999904635],[0.24072916666666658,0.31055555555555564,4.1722999997139],[0.25187499999999996,0.31925925925925924,4.187900000095368],[0.25635416666666655,0.31296296296296294,4.205099999904633],[0.23125,0.31259259259259253,4.224400000095358],[0.22906250000000009,0.2964814814814815,4.238099999904634],[0.1806250000000001,0.3140740740740741,4.251900000095361],[0.16749999999999995,0.30166666666666664,4.268500000000003],[0.12937500000000005,0.2698148148148149,4.288699999809268],[0.13114583333333343,0.21481481481481482,4.303799999713888],[0.13708333333333325,0.1588888888888888,4.3200999999046275],[0.1321875000000001,0.12722222222222232,4.335199999809262],[0.12156250000000005,0.10111111111111115,4.351699999809256],[0.11791666666666671,0.07814814814814823,4.368400000095363],[0.13427083333333342,0.008703703703703788,4.385699999809262],[0.11229166666666662,0.01722222222222214,4.402000000000001],[0.11229166666666662,0.01722222222222214,4.4184999999999945],[0.10031249999999996,0.010370370370370412,4.435000000000002],[0.08416666666666663,0.008148148148148106,4.454799999713899],[0.11614583333333334,0.005185185185185101,4.471499999999992],[0.10750000000000005,0.0544444444444444,4.487699999809266],[0.10270833333333323,0.10481481481481486,4.505900000095366],[0.09562499999999995,0.10611111111111103,4.524099999904635],[0.09562499999999995,0.10611111111111103,4.535199999809265],[0.08166666666666676,0.11611111111111119,4.5519999999999925],[0.078125,0.10055555555555547,4.571299999713901],[0.06979166666666667,0.1227777777777777,4.585299999713897],[0.07979166666666657,0.09425925925925922,4.603499999999997],[0.09072916666666657,0.0838888888888888,4.622],[0.10520833333333333,0.06574074074074074,4.636699999809267],[0.08135416666666657,0.05018518518518523,4.65529999971389],[0.06749999999999995,0.032037037037036954,4.6722999997139],[0.06749999999999995,0.032037037037036954,4.685000000000002],[0.0515625,0.01722222222222214,4.705500000000001],[0.0515625,0.01722222222222214,4.718499999999992],[0.059791666666666646,0.014629629629629588,4.735099999904634],[0.059791666666666646,0.014629629629629588,4.7516999998092615],[0.06510416666666667,0.011666666666666582,4.772099999904626],[0.06510416666666667,0.011666666666666582,4.784999999999997],[0.059791666666666646,0.011296296296296339,4.801799999713893],[0.059791666666666646,0.011296296296296339,4.8185999999046345],[0.06770833333333333,-0.003888888888888931,4.835099999904628],[0.06770833333333333,-0.003888888888888931,4.851699999809256],[0.09708333333333338,-0.002777777777777778,4.868499999999997],[0.09708333333333338,-0.002777777777777778,4.884999999999991],[0.10291666666666661,-0.011296296296296339,4.9017999997139015],[0.10906250000000005,-0.028888888888888933,4.92340000009537],[0.12447916666666667,-0.03925925925925934,4.9391999998092615],[0.128125,-0.07092592592592595,4.957199999809262],[0.128125,-0.07092592592592595,4.968499999999992],[0.12999999999999995,-0.10703703703703706,4.985099999904634],[0.12999999999999995,-0.10703703703703706,5.0016999998092615],[0.11791666666666671,-0.15833333333333333,5.018500000000003],[0.08677083333333328,-0.21574074074074073,5.035299999713899],[0.05666666666666664,-0.22666666666666663,5.053699999809268],[0.03968750000000002,-0.20870370370370367,5.072299999713891],[-0.0009374999999999763,-0.2183333333333333,5.088099999904628],[0.0003124999999999526,-0.22407407407407406,5.104199999809268],[-0.022812499999999975,-0.20537037037037034,5.123599999904627],[-0.022812499999999975,-0.20537037037037034,5.134999999999991],[-0.03760416666666669,-0.2131481481481482,5.152000000000001],[-0.02781250000000005,-0.2096296296296296,5.173599999904624],[-0.02312500000000005,-0.20388888888888893,5.189099999904627],[-0.029062499999999977,-0.15111111111111114,5.205099999904633],[-0.024270833333333287,-0.10203703703703708,5.222199999809263],[0.03093750000000005,-0.030000000000000086,5.2394999999999925],[0.020937500000000022,-0.03611111111111111,5.253599999904623],[0.04135416666666671,-0.059814814814814835,5.268500000000003],[0.010208333333333286,-0.0816666666666667,5.285099999904631],[0.020624999999999952,-0.07462962962962966,5.301699999809259],[0.0037500000000000237,-0.07462962962962966,5.319799999713894],[0.008020833333333382,-0.04814814814814815,5.345400000095367],[0.008020833333333382,-0.04814814814814815,5.352000000000004],[0.016354166666666715,-0.007777777777777862,5.368599999904632],[-0.009687499999999953,0.004074074074074159,5.388499999999993],[0.004479166666666619,-0.008148148148148106,5.403599999904628],[-0.02010416666666662,-0.04592592592592584,5.42040000009537],[-0.02010416666666662,-0.04592592592592584,5.435199999809257],[-0.007395833333333357,-0.007407407407407408,5.455599999904635],[0.014374999999999952,0.030555555555555555,5.470699999809256],[0.060104166666666715,0.06870370370370374,5.485199999809268],[0.0578125,0.0837037037037038,5.505299999713898],[0.06625000000000002,0.09574074074074082,5.521500000000003],[0.08052083333333329,0.075,5.537900000095362],[0.07489583333333343,0.03518518518518519,5.557299999713891],[0.10802083333333339,0.01518518518518527,5.572299999713891],[0.12531249999999997,0.002962962962963005,5.587299999713892],[0.11812500000000009,0.018888888888888972,5.603499999999997],[0.12895833333333329,0.01055555555555564,5.620499999999993],[0.11739583333333338,0.019444444444444445,5.63819999980926],[0.07854166666666676,0.03462962962962971,5.655599999904624],[0.11135416666666677,-0.000925925925925926,5.670699999809258],[0.10989583333333333,-0.002962962962963005,5.685199999809257],[0.09885416666666676,-0.013888888888888888,5.7084000000953665],[0.09885416666666676,-0.013888888888888888,5.7187999997138945],[0.08250000000000005,-0.010740740740740657,5.735299999713888],[0.06947916666666672,-0.020185185185185143,5.751900000095361],[0.035208333333333286,-0.024629629629629547,5.772799999713897],[0.05520833333333333,-0.0338888888888888,5.787900000095362],[0.08458333333333339,-0.036481481481481566,5.802299999713895],[0.08458333333333339,-0.036481481481481566,5.8245000000000005],[0.07979166666666657,-0.039074074074074115,5.834999999999994],[0.11156249999999991,-0.06981481481481479,5.852099999904624],[0.08125,-0.050370370370370454,5.868400000095363],[0.09968750000000005,-0.018333333333333292,5.884999999999991],[0.09760416666666671,0.007592592592592635,5.90340000009536],[0.08635416666666676,0.020555555555555598,5.920000000000002],[0.09052083333333343,0.023148148148148147,5.937199999809266],[0.11218750000000005,0.06740740740740736,5.953400000095371],[0.11218750000000005,0.06740740740740736,5.968400000095357],[0.09145833333333328,0.07074074074074083,5.985099999904634],[0.052187500000000026,0.043703703703703745,6.005599999904632],[0.016354166666666715,0.03629629629629634,6.021799999713892],[0.014374999999999952,0.041666666666666664,6.036900000095358],[0.019583333333333286,0.041111111111111195,6.053900000095368],[-0.016250000000000025,0.03888888888888889,6.072400000095371],[-0.016145833333333335,0.0588888888888888,6.0874999999999915],[0.02791666666666662,0.08111111111111102,6.103499999999997],[0.0625,0.10388888888888893,6.121099999904629],[0.09677083333333343,0.09240740740740737,6.138699999809262],[0.13531250000000009,0.030000000000000086,6.154199999809265],[0.16604166666666675,0.027407407407407325,6.168299999713895],[0.21260416666666657,-0.012777777777777735,6.185099999904622],[0.22906250000000009,-0.056851851851851834,6.201699999809264],[0.234375,-0.09296296296296294,6.219900000095365],[0.2841666666666666,-0.14203703703703702,6.234999999999999],[0.30187499999999995,-0.19240740740740736,6.252299999713898],[0.28125,-0.25629629629629624,6.27219999980926],[0.2930208333333333,-0.34314814814814815,6.287099999904626],[0.2595833333333334,-0.4255555555555556,6.303699999809268],[0.23114583333333344,-0.4607407407407408,6.320499999999996],[0.21229166666666663,-0.5120370370370371,6.335299999713897],[0.2319791666666667,-0.5051851851851852,6.351599999904636],[0.22312500000000005,-0.524074074074074,6.368299999713898],[0.21770833333333334,-0.5692592592592592,6.384999999999991],[0.18552083333333325,-0.6068518518518519,6.401900000095367],[0.15656249999999997,-0.6248148148148148,6.4236999998092585],[0.1851041666666667,-0.612037037037037,6.438599999904625],[0.16802083333333329,-0.5748148148148148,6.455400000095366],[0.16802083333333329,-0.5748148148148148,6.473500000000001],[0.18854166666666666,-0.5051851851851852,6.4879999999999995],[0.2118750000000001,-0.43648148148148147,6.501999999999995],[0.22020833333333342,-0.3705555555555556,6.518400000095369],[0.19791666666666666,-0.3146296296296296,6.535499999999999],[0.1853125000000001,-0.24074074074074073,6.551699999809259],[0.19020833333333323,-0.13203703703703706,6.568900000095368],[0.1890625,-0.04425925925925922,6.587599999904626],[0.18468749999999995,0.02388888888888885,6.601699999809256],[0.16791666666666671,0.08296296296296288,6.618299999713898],[0.16635416666666672,0.13962962962962958,6.634900000095371],[0.16333333333333327,0.1735185185185186,6.651699999809267],[0.13791666666666677,0.22240740740740744,6.66840000009536],[0.13791666666666677,0.22240740740740744,6.685099999904622],[0.11770833333333333,0.25759259259259265,6.701699999809264],[0.11770833333333333,0.25759259259259265,6.718400000095357],[0.09822916666666662,0.2766666666666666,6.735099999904634],[0.09822916666666662,0.2766666666666666,6.7516999998092615],[0.12374999999999996,0.29259259259259257,6.768500000000003],[0.12374999999999996,0.29259259259259257,6.784999999999997],[0.10677083333333333,0.2803703703703703,6.801699999809259],[0.10677083333333333,0.2803703703703703,6.818400000095366],[0.11708333333333343,0.30462962962962964,6.835099999904628],[0.11708333333333343,0.30462962962962964,6.851699999809256],[0.12062499999999995,0.31666666666666665,6.868299999713898],[0.1271874999999999,0.33425925925925926,6.886799999713901],[0.11145833333333334,0.3227777777777777,6.901599999904633],[0.11083333333333342,0.325,6.919400000095365],[0.11447916666666676,0.3101851851851852,6.935699999809259],[0.11500000000000009,0.29740740740740745,6.9539999999999935],[0.11500000000000009,0.29740740740740745,6.968400000095357],[0.121875,0.2777777777777778,6.985099999904634],[0.121875,0.2777777777777778,7.0016999998092615],[0.0821875000000001,0.26425925925925936,7.018500000000003],[0.07604166666666666,0.2733333333333334,7.035199999809265],[0.059375,0.2524074074074073,7.054799999713893],[0.06322916666666671,0.25277777777777777,7.068299999713901],[0.03739583333333331,0.23851851851851844,7.084999999999994],[0.013541666666666667,0.22740740740740734,7.101699999809256],[-0.025416666666666643,0.20259259259259255,7.118400000095363],[-0.04489583333333336,0.21055555555555563,7.136900000095366],[-0.057083333333333285,0.22462962962962954,7.158999999999992],[-0.057083333333333285,0.22462962962962954,7.16840000009536],[-0.07302083333333335,0.22444444444444453,7.185000000000002],[-0.08229166666666667,0.2294444444444444,7.201699999809264],[-0.08802083333333334,0.21592592592592597,7.21890000009536],[-0.0889583333333333,0.2022222222222223,7.234999999999999],[-0.10364583333333334,0.1794444444444444,7.253099999904634],[-0.11333333333333329,0.15555555555555556,7.269699999809262],[-0.10562499999999998,0.15592592592592602,7.285599999904633],[-0.08916666666666669,0.15129629629629637,7.301699999809259],[-0.08333333333333333,0.12259259259259268,7.322499999999991],[-0.08250000000000005,0.11481481481481481,7.337400000095357],[-0.07770833333333335,0.12759259259259256,7.354199999809268],[-0.07322916666666662,0.14981481481481476,7.368299999713898],[-0.0734375,0.17555555555555546,7.384999999999991],[-0.08135416666666669,0.20611111111111102,7.401599999904633],[-0.09020833333333336,0.23407407407407405,7.4191999998092655],[-0.09375,0.2553703703703703,7.435099999904622],[-0.09635416666666667,0.27925925925925915,7.4520999999046325],[-0.11166666666666672,0.32166666666666677,7.468599999904626],[-0.1264583333333333,0.3640740740740741,7.484900000095365],[-0.14031250000000003,0.37481481481481477,7.5016999998092615],[-0.1544791666666666,0.37777777777777777,7.518400000095369],[-0.15885416666666666,0.3911111111111112,7.536900000095358],[-0.15854166666666672,0.4009259259259259,7.551799999713893],[-0.15822916666666664,0.3955555555555556,7.568299999713901],[-0.1547916666666667,0.38796296296296295,7.588199999809262],[-0.15656249999999997,0.38574074074074066,7.60479999971389],[-0.15395833333333328,0.3890740740740741,7.6207999997138955],[-0.15395833333333328,0.3890740740740741,7.634999999999991],[-0.14114583333333333,0.39351851851851855,7.651599999904633],[-0.128125,0.38499999999999995,7.668299999713895],[-0.11833333333333336,0.39537037037037037,7.687400000095366],[-0.10541666666666671,0.3677777777777778,7.701799999713899],[-0.10229166666666671,0.32981481481481484,7.71890000009536],[-0.08968750000000002,0.29314814814814805,7.740199999809263],[-0.0704166666666667,0.26722222222222214,7.755499999999998],[-0.05333333333333338,0.24611111111111106,7.770299999713899],[-0.03156249999999995,0.23148148148148148,7.785799999713888],[-0.01416666666666669,0.21129629629629634,7.805400000095361],[0.002499999999999976,0.16814814814814807,7.820299999713896],[0.011666666666666714,0.13407407407407404,7.835199999809262],[0.028125,0.09185185185185189,7.854500000000002],[0.04770833333333328,0.075,7.868499999999997],[0.0609375,0.04277777777777782,7.8851999998092595],[0.04125000000000002,0.009814814814814731,7.907299999713899],[0.04125000000000002,0.009814814814814731,7.918599999904629],[0.04125000000000002,-0.009444444444444486,7.935199999809257],[0.028437499999999952,-0.030740740740740784,7.952900000095376],[0.019375000000000024,-0.03685185185185181,7.974900000095367],[0.019375000000000024,-0.03685185185185181,7.985299999713895],[0.020833333333333332,-0.06148148148148146,8.001900000095368],[0.029166666666666667,-0.07370370370370373,8.025799999713904],[0.029166666666666667,-0.07370370370370373,8.035199999809272],[0.01229166666666662,-0.06814814814814817,8.052],[0.030520833333333285,-0.06277777777777774,8.068299999713908],[0.042499999999999954,-0.05240740740740743,8.085],[0.043958333333333384,-0.026481481481481398,8.101599999904643],[0.07947916666666661,-0.011481481481481566,8.120799999713903],[0.08958333333333333,0.004259259259259175,8.136900000095373],[0.10864583333333329,0.0022222222222223064,8.15159999990464],[0.1146874999999999,-0.01055555555555564,8.168299999713902],[0.09104166666666676,0.012037037037037037,8.187900000095375],[0.05499999999999995,0.030555555555555555,8.20419999980927],[0.05510416666666664,0.031111111111111027,8.2212999997139],[0.02010416666666662,0.03185185185185194,8.239199999809266],[-0.014895833333333285,0.03259259259259263,8.25659999990463],[-0.03260416666666662,0.03296296296296288,8.274999999999999],[-0.03260416666666662,0.03296296296296288,8.285000000000004],[-0.0609375,0.043703703703703745,8.301699999809266],[-0.09697916666666669,0.03740740740740749,8.322900000095366],[-0.10364583333333334,0.07185185185185176,8.33819999980927],[-0.12083333333333333,0.08314814814814811,8.353099999904636],[-0.08312499999999995,0.10740740740740741,8.370799999713903],[-0.04541666666666669,0.1316666666666667,8.386500000000005],[-0.04020833333333336,0.12444444444444452,8.402000000000008],[-0.035000000000000024,0.11722222222222214,8.418500000000002],[-0.030104166666666644,0.10962962962962972,8.435400000095377],[-0.025625000000000023,0.10222222222222231,8.454400000095369],[0.001145833333333357,0.102962962962963,8.469699999809272],[0.034687499999999954,0.11074074074074065,8.485500000000009],[0.0171875,0.09537037037037037,8.501599999904634],[0.021041666666666715,0.08481481481481473,8.518400000095376],[0.005520833333333286,0.04666666666666675,8.535299999713907],[-0.010000000000000024,0.00851851851851856,8.553000000000004],[0.011770833333333286,0.022037037037036994,8.568400000095373],[0.027291666666666714,0.022037037037036994,8.586799999713897],[0.043124999999999976,0.02240740740740745,8.601699999809263],[0.043124999999999976,0.02240740740740745,8.61840000009537],[0.035208333333333286,0.04592592592592584,8.634999999999998],[0.004999999999999952,0.06129629629629634,8.651699999809274],[-0.00604166666666662,0.053703703703703705,8.672299999713907],[0.008437500000000023,0.048333333333333374,8.689699999809271],[0.008437500000000023,0.048333333333333374,8.701699999809271],[0.021979166666666692,0.06777777777777783,8.718400000095365],[0.021979166666666692,0.06777777777777783,8.740099999904636],[0.012187500000000047,0.057777777777777865,8.751900000095368],[0.012187500000000047,0.057777777777777865,8.76859999990463],[-0.00604166666666662,0.046481481481481526,8.785199999809272],[-0.00604166666666662,0.046481481481481526,8.805500000000002],[-0.019791666666666666,0.03814814814814819,8.818500000000007],[-0.019791666666666666,0.03814814814814819,8.83519999980927],[-0.01885416666666669,0.0235185185185186,8.856299999713904],[-0.01885416666666669,0.0235185185185186,8.868299999713905],[-0.03125,0.010370370370370412,8.884900000095378],[-0.010000000000000024,-0.006481481481481481,8.903500000000001],[0.011041666666666691,-0.0235185185185186,8.918299999713902],[0.01593749999999995,-0.03037037037037033,8.935199999809264],[0.017499999999999953,-0.04055555555555551,8.954799999713906],[0.017499999999999953,-0.04055555555555551,8.968400000095365],[0.027187500000000024,-0.05462962962962963,8.98509999990464],[0.027187500000000024,-0.05462962962962963,9.001699999809269],[0.04593750000000003,-0.04333333333333329,9.018400000095376],[0.07302083333333324,-0.03222222222222218,9.035299999713907],[0.08354166666666671,-0.03259259259259263,9.052299999713902],[0.09197916666666663,-0.014259259259259343,9.068900000095375],[0.10385416666666672,-0.006111111111111027,9.084900000095367],[0.11812500000000009,-0.041111111111111195,9.104599999904643],[0.11062500000000004,-0.09037037037037039,9.120599999904634],[0.10010416666666658,-0.11574074074074074,9.137999999999998],[0.09291666666666672,-0.13777777777777775,9.158199999809263],[0.09291666666666672,-0.13777777777777775,9.168400000095367],[0.0728125000000001,-0.14240740740740737,9.18509999990463],[0.05562499999999997,-0.15777777777777777,9.203599999904633],[0.03854166666666667,-0.17166666666666663,9.2182999997139],[0.04020833333333336,-0.18870370370370365,9.236900000095368],[0.035520833333333356,-0.20462962962962963,9.2545],[0.03989583333333328,-0.20111111111111116,9.268699999809265],[0.03197916666666671,-0.17388888888888884,9.285099999904638],[0.029999999999999954,-0.1366666666666667,9.305500000000002],[0.04812500000000005,-0.10833333333333334,9.323299999713903],[0.0625,-0.08129629629629626,9.339299999713909],[0.0625,-0.08129629629629626,9.357999999999997],[0.06468750000000002,-0.06944444444444445,9.368299999713905],[0.08083333333333324,-0.05851851851851856,9.384900000095378],[0.09697916666666657,-0.04759259259259268,9.403599999904635],[0.07697916666666677,-0.06814814814814817,9.420499999999997],[0.07354166666666657,-0.0690740740740741,9.437099999904639],[0.0709374999999999,-0.08074074074074078,9.45209999990464],[0.071875,-0.0727777777777778,9.47009999990464],[0.09322916666666667,-0.05537037037037033,9.486400000095365],[0.08854166666666667,-0.07074074074074072,9.50350000000001],[0.10031249999999996,-0.08222222222222218,9.520799999713908],[0.12833333333333338,-0.09537037037037037,9.536900000095365],[0.13739583333333344,-0.09500000000000001,9.5517999997139],[0.1484375,-0.10166666666666663,9.568299999713908],[0.16333333333333327,-0.06981481481481479,9.585],[0.14354166666666662,-0.0668518518518519,9.60340000009537],[0.13875000000000004,-0.07000000000000002,9.61950000000001],[0.13416666666666663,-0.09648148148148153,9.637400000095376],[0.14458333333333329,-0.1175925925925926,9.654799999713909],[0.14322916666666666,-0.09722222222222222,9.670199999809263],[0.12916666666666668,-0.0794444444444444,9.684900000095375],[0.12979166666666658,-0.07925925925925928,9.701599999904637],[0.1304166666666667,-0.07907407407407405,9.719299999713904],[0.12322916666666663,-0.08222222222222218,9.737099999904636],[0.12322916666666663,-0.08222222222222218,9.751699999809269],[0.13385416666666666,-0.1014814814814815,9.768400000095376],[0.13385416666666666,-0.1014814814814815,9.785000000000004],[0.15302083333333344,-0.09814814814814815,9.801699999809266],[0.16854166666666662,-0.06277777777777774,9.821199999809274],[0.1803124999999999,-0.02370370370370362,9.837400000095364],[0.1727083333333333,0.005000000000000084,9.851900000095377],[0.1678124999999999,0.011666666666666582,9.872199999809276],[0.16291666666666677,0.018333333333333292,9.886900000095373],[0.1540625000000001,0.01444444444444436,9.902000000000008],[0.14718749999999994,0.01055555555555564,9.92190000009537],[0.14458333333333329,0.039629629629629584,9.938499999999998],[0.1408333333333334,0.07333333333333338,9.954599999904637],[0.1408333333333334,0.07333333333333338,9.968400000095365],[0.1400000000000001,0.09518518518518514,9.98509999990464],[0.1400000000000001,0.09518518518518514,10.001699999809269],[0.13270833333333343,0.0837037037037038,10.01859999990463],[0.11833333333333323,0.06777777777777783,10.035299999713907],[0.10395833333333329,0.05185185185185185,10.051699999809266],[0.12072916666666676,0.050370370370370454,10.070699999809271],[0.12291666666666666,0.04518518518518514,10.087400000095364]]","[0.00029999971389571556,0.05659999990462694,0.06850000000000023,0.08529999971389657,0.1017999997138972,0.12040000009536556,0.13509999990463228,0.15479999971389447,0.16840000009536737,0.1869999999999976,0.20219999980925962,0.2201999998092603,0.23899999999999721,0.2556999998092593,0.2716999998092646,0.28509999990463086,0.3034000000953654,0.31840000009536595,0.335099999904628,0.3517999997138972,0.3684000000953631,0.3850999999046323,0.40190000009536675,0.4185999999046288,0.4351999998092637,0.4524000000953663,0.4684999999999988,0.4851999998092609,0.5017999997138958,0.5197999997138965,0.5350999999046309,0.5517999997138929,0.568400000095366,0.585099999904628,0.605400000095365,0.6219999999999999,0.6370999999046276,0.6517999997138944,0.6709999999999994,0.6850999999046294,0.7019000000953639,0.7184000000953645,0.7350999999046266,0.7517999997138958,0.768499999999996,0.7850999999046309,0.8019000000953653,0.818400000095366,0.835099999904628,0.8519000000953625,0.8684000000953631,0.8854999999999933,0.9016999998092601,0.9201999998092631,0.9384999999999977,0.9521999998092596,0.9687999997138945,0.9894000000953653,1.0020999999046296,1.0186999998092645,1.0372999997138947,1.0519000000953653,1.0689000000953612,1.0852999997138966,1.1044999999999945,1.1194000000953608,1.1351999998092595,1.1519000000953667,1.1749000000953629,1.1850999999046294,1.2019999999999982,1.222299999713897,1.2369000000953676,1.2519999999999953,1.2684000000953617,1.2870999999046262,1.301799999713893,1.3186999998092617,1.3389999999999986,1.3539999999999992,1.3704000000953656,1.3877999997138915,1.4021999998092625,1.418699999809263,1.435299999713898,1.4549999999999983,1.471499999999999,1.4851999998092609,1.5019999999999953,1.5220999999046327,1.5359999999999943,1.5519000000953653,1.5686999998092617,1.5875999999046329,1.6019000000953625,1.6202999997138932,1.6394999999999982,1.6554000000953621,1.6714000000953675,1.6869999999999976,1.704499999999996,1.718999999999994,1.7352999997138951,1.7517999997138958,1.7746999998092647,1.7852999997138923,1.8020999999046268,1.8240999999046323,1.8389999999999986,1.853599999904631,1.8710999999046294,1.8889999999999958,1.9054000000953621,1.9185999999046288,1.935299999713898,1.9549999999999983,1.9684999999999988,1.989299999713893,2.0019999999999953,2.018499999999996,2.035199999809265,2.0556999998092635,2.0685999999046274,2.0852999997138966,2.1047999997138973,2.118699999809259,2.1352999997138937,2.1555999999046307,2.168599999904629,2.1851999998092637,2.205999999999996,2.223099999904626,2.235199999809261,2.251900000095361,2.270799999713894,2.285199999809265,2.3016999998092587,2.3225999999046323,2.3394000000953667,2.3547999997138973,2.3729000000953633,2.386900000095366,2.4022999997138967,2.4184000000953674,2.4375,2.454900000095364,2.471199999809265,2.490099999904629,2.501900000095361,2.518499999999996,2.535199999809265,2.5519000000953653,2.568400000095366,2.5852999997138966,2.601699999809263,2.619900000095363,2.6355999999046276,2.654199999809265,2.668599999904629,2.685299999713898,2.7017999997138915,2.722999999999999,2.741099999904627,2.7517999997138958,2.768499999999996,2.785199999809265,2.801799999713893,2.818400000095366,2.835099999904628,2.851799999713897,2.868400000095363,2.8884000000953662,2.903499999999994,2.9184999999999945,2.937099999904632,2.957099999904628,2.9686999998092602,2.9854999999999947,3.0019999999999953,3.0224000000953666,3.0352999997138923,3.051799999713893,3.0686999998092617,3.088099999904628,3.102099999904631,3.1204000000953656,3.1354999999999933,3.1547999997138945,3.1709999999999994,3.1876999998092614,3.2035999999046325,3.2269000000953625,3.235299999713895,3.251900000095361,3.268900000095364,3.289900000095365,3.3055999999046293,3.3381999998092624,3.3559000000953674,3.368400000095363,3.3850999999046323,3.404999999999994,3.4187999997138974,3.4354000000953633,3.451900000095364,3.4701999998092603,3.485299999713895,3.5019999999999953,3.5224000000953666,3.536999999999999,3.5539000000953678,3.5685000000000002,3.5882999997138967,3.6044999999999945,3.6195999999046293,3.6384999999999934,3.6519000000953667,3.6691999998092655,3.6851999998092637,3.7044000000953616,3.719799999713892,3.735900000095363,3.7564999999999955,3.771799999713892,3.785099999904631,3.8016999998092587,3.8185999999046274,3.837599999904633,3.851799999713897,3.868799999713893,3.888699999809262,3.9050999999046283,3.918599999904629,3.937199999809266,3.957900000095364,3.9684999999999917,3.9850999999046337,4.004900000095361,4.018699999809257,4.037299999713895,4.0545999999046245,4.0711999998092665,4.087999999999994,4.108499999999992,4.118599999904632,4.135400000095359,4.152099999904635,4.1722999997139,4.187900000095368,4.205099999904633,4.224400000095358,4.238099999904634,4.251900000095361,4.268500000000003,4.288699999809268,4.303799999713888,4.3200999999046275,4.335199999809262,4.351699999809256,4.368400000095363,4.385699999809262,4.402000000000001,4.4184999999999945,4.435000000000002,4.454799999713899,4.471499999999992,4.487699999809266,4.505900000095366,4.524099999904635,4.535199999809265,4.5519999999999925,4.571299999713901,4.585299999713897,4.603499999999997,4.622,4.636699999809267,4.65529999971389,4.6722999997139,4.685000000000002,4.705500000000001,4.718499999999992,4.735099999904634,4.7516999998092615,4.772099999904626,4.784999999999997,4.801799999713893,4.8185999999046345,4.835099999904628,4.851699999809256,4.868499999999997,4.884999999999991,4.9017999997139015,4.92340000009537,4.9391999998092615,4.957199999809262,4.968499999999992,4.985099999904634,5.0016999998092615,5.018500000000003,5.035299999713899,5.053699999809268,5.072299999713891,5.088099999904628,5.104199999809268,5.123599999904627,5.134999999999991,5.152000000000001,5.173599999904624,5.189099999904627,5.205099999904633,5.222199999809263,5.2394999999999925,5.253599999904623,5.268500000000003,5.285099999904631,5.301699999809259,5.319799999713894,5.345400000095367,5.352000000000004,5.368599999904632,5.388499999999993,5.403599999904628,5.42040000009537,5.435199999809257,5.455599999904635,5.470699999809256,5.485199999809268,5.505299999713898,5.521500000000003,5.537900000095362,5.557299999713891,5.572299999713891,5.587299999713892,5.603499999999997,5.620499999999993,5.63819999980926,5.655599999904624,5.670699999809258,5.685199999809257,5.7084000000953665,5.7187999997138945,5.735299999713888,5.751900000095361,5.772799999713897,5.787900000095362,5.802299999713895,5.8245000000000005,5.834999999999994,5.852099999904624,5.868400000095363,5.884999999999991,5.90340000009536,5.920000000000002,5.937199999809266,5.953400000095371,5.968400000095357,5.985099999904634,6.005599999904632,6.021799999713892,6.036900000095358,6.053900000095368,6.072400000095371,6.0874999999999915,6.103499999999997,6.121099999904629,6.138699999809262,6.154199999809265,6.168299999713895,6.185099999904622,6.201699999809264,6.219900000095365,6.234999999999999,6.252299999713898,6.27219999980926,6.287099999904626,6.303699999809268,6.320499999999996,6.335299999713897,6.351599999904636,6.368299999713898,6.384999999999991,6.401900000095367,6.4236999998092585,6.438599999904625,6.455400000095366,6.473500000000001,6.4879999999999995,6.501999999999995,6.518400000095369,6.535499999999999,6.551699999809259,6.568900000095368,6.587599999904626,6.601699999809256,6.618299999713898,6.634900000095371,6.651699999809267,6.66840000009536,6.685099999904622,6.701699999809264,6.718400000095357,6.735099999904634,6.7516999998092615,6.768500000000003,6.784999999999997,6.801699999809259,6.818400000095366,6.835099999904628,6.851699999809256,6.868299999713898,6.886799999713901,6.901599999904633,6.919400000095365,6.935699999809259,6.9539999999999935,6.968400000095357,6.985099999904634,7.0016999998092615,7.018500000000003,7.035199999809265,7.054799999713893,7.068299999713901,7.084999999999994,7.101699999809256,7.118400000095363,7.136900000095366,7.158999999999992,7.16840000009536,7.185000000000002,7.201699999809264,7.21890000009536,7.234999999999999,7.253099999904634,7.269699999809262,7.285599999904633,7.301699999809259,7.322499999999991,7.337400000095357,7.354199999809268,7.368299999713898,7.384999999999991,7.401599999904633,7.4191999998092655,7.435099999904622,7.4520999999046325,7.468599999904626,7.484900000095365,7.5016999998092615,7.518400000095369,7.536900000095358,7.551799999713893,7.568299999713901,7.588199999809262,7.60479999971389,7.6207999997138955,7.634999999999991,7.651599999904633,7.668299999713895,7.687400000095366,7.701799999713899,7.71890000009536,7.740199999809263,7.755499999999998,7.770299999713899,7.785799999713888,7.805400000095361,7.820299999713896,7.835199999809262,7.854500000000002,7.868499999999997,7.8851999998092595,7.907299999713899,7.918599999904629,7.935199999809257,7.952900000095376,7.974900000095367,7.985299999713895,8.001900000095368,8.025799999713904,8.035199999809272,8.052,8.068299999713908,8.085,8.101599999904643,8.120799999713903,8.136900000095373,8.15159999990464,8.168299999713902,8.187900000095375,8.20419999980927,8.2212999997139,8.239199999809266,8.25659999990463,8.274999999999999,8.285000000000004,8.301699999809266,8.322900000095366,8.33819999980927,8.353099999904636,8.370799999713903,8.386500000000005,8.402000000000008,8.418500000000002,8.435400000095377,8.454400000095369,8.469699999809272,8.485500000000009,8.501599999904634,8.518400000095376,8.535299999713907,8.553000000000004,8.568400000095373,8.586799999713897,8.601699999809263,8.61840000009537,8.634999999999998,8.651699999809274,8.672299999713907,8.689699999809271,8.701699999809271,8.718400000095365,8.740099999904636,8.751900000095368,8.76859999990463,8.785199999809272,8.805500000000002,8.818500000000007,8.83519999980927,8.856299999713904,8.868299999713905,8.884900000095378,8.903500000000001,8.918299999713902,8.935199999809264,8.954799999713906,8.968400000095365,8.98509999990464,9.001699999809269,9.018400000095376,9.035299999713907,9.052299999713902,9.068900000095375,9.084900000095367,9.104599999904643,9.120599999904634,9.137999999999998,9.158199999809263,9.168400000095367,9.18509999990463,9.203599999904633,9.2182999997139,9.236900000095368,9.2545,9.268699999809265,9.285099999904638,9.305500000000002,9.323299999713903,9.339299999713909,9.357999999999997,9.368299999713905,9.384900000095378,9.403599999904635,9.420499999999997,9.437099999904639,9.45209999990464,9.47009999990464,9.486400000095365,9.50350000000001,9.520799999713908,9.536900000095365,9.5517999997139,9.568299999713908,9.585,9.60340000009537,9.61950000000001,9.637400000095376,9.65479999