inst1_resp.keys,inst1_resp.rt,calibrationMouse.x,calibrationMouse.y,calibrationMouse.leftButton,calibrationMouse.midButton,calibrationMouse.rightButton,calibrationClick.x,calibrationClick.y,calibrationClick.leftButton,calibrationClick.midButton,calibrationClick.rightButton,calibrationClick.clicked_name,trialsc.thisRepN,trialsc.thisTrialN,trialsc.thisN,trialsc.thisIndex,trialsc.ran,calibration_x,calibration_y,participant,session,date,expName,psychopyVersion,OS,frameRate,ScreenRes_pixels,Camera_pixels,mouse_2.x,mouse_2.y,mouse_2.leftButton,mouse_2.midButton,mouse_2.rightButton,mouse_2.time,mouse_2.clicked_name,mouse.x,mouse.y,mouse.leftButton,mouse.midButton,mouse.rightButton,mouse.time,mouse.clicked_name,Choice,Trial,TrialDuration,MOUSE_GAZE,ET_GAZE,ET_GAZE_x_T,time,unixTime,ET_GAZE_NF,Loc_Bus_label,Loc_Metro_label,Loc_RH_label,Loc_Cost_label,Loc_Travel_label,Loc_Comfort_label,Loc_Bus_cost,Loc_Metro_cost,Loc_RH_cost,Loc_Bus_travel,Loc_Metro_travel,Loc_RH_travel,Loc_Bus_comfort,Loc_Metro_comfort,Loc_RH_comfort,trials.thisRepN,trials.thisTrialN,trials.thisN,trials.thisIndex,trials.ran,Block,Device,RH_cost,RH_travel_time,RH_Comfort,metro_cost,metro_travel_time,metro_Comfort,Bus_cost,Bus_travel_time,Bus_Comfort
space,2.4844,0.047916667,-0.201851852,1,0,0,-0.325,-0.664814815,1,0,0,calibration_square,0,0,0,4,1,-0.33,-0.67,12,001,2024-11-21_11h00.15.789,Attention_exp_legacy,2023.1.0,Win32,60.24096386,,,,,,,,,,,,,,,,,,,,,,,,,,,,,,,,,,,,,,,,,,,,,,,,,,,,,,,,
,,,,,,,0.666666667,0.672222222,1,0,0,calibration_square,0,1,1,19,1,0.67,0.67,12,001,2024-11-21_11h00.15.789,Attention_exp_legacy,2023.1.0,Win32,60.24096386,,,,,,,,,,,,,,,,,,,,,,,,,,,,,,,,,,,,,,,,,,,,,,,,,,,,,,,,
,,,,,,,-0.333333333,0.331481481,1,0,0,calibration_square,0,2,2,7,1,-0.33,0.33,12,001,2024-11-21_11h00.15.789,Attention_exp_legacy,2023.1.0,Win32,60.24096386,,,,,,,,,,,,,,,,,,,,,,,,,,,,,,,,,,,,,,,,,,,,,,,,,,,,,,,,
,,,,,,,0.675,-0.664814815,1,0,0,calibration_square,0,3,3,20,1,0.67,-0.67,12,001,2024-11-21_11h00.15.789,Attention_exp_legacy,2023.1.0,Win32,60.24096386,,,,,,,,,,,,,,,,,,,,,,,,,,,,,,,,,,,,,,,,,,,,,,,,,,,,,,,,
,,,,,,,-0.669791667,-0.32037037,1,0,0,calibration_square,0,4,4,1,1,-0.67,-0.33,12,001,2024-11-21_11h00.15.789,Attention_exp_legacy,2023.1.0,Win32,60.24096386,,,,,,,,,,,,,,,,,,,,,,,,,,,,,,,,,,,,,,,,,,,,,,,,,,,,,,,,
,,,,,,,-0.328125,0.662962963,1,0,0,calibration_square,0,5,5,8,1,-0.33,0.67,12,001,2024-11-21_11h00.15.789,Attention_exp_legacy,2023.1.0,Win32,60.24096386,,,,,,,,,,,,,,,,,,,,,,,,,,,,,,,,,,,,,,,,,,,,,,,,,,,,,,,,
,,,,,,,0,-0.681481481,1,0,0,,0,6,6,9,1,0,-0.67,12,001,2024-11-21_11h00.15.789,Attention_exp_legacy,2023.1.0,Win32,60.24096386,,,,,,,,,,,,,,,,,,,,,,,,,,,,,,,,,,,,,,,,,,,,,,,,,,,,,,,,
,,,,,,,0.326041667,0.666666667,1,0,0,calibration_square,0,7,7,18,1,0.33,0.67,12,001,2024-11-21_11h00.15.789,Attention_exp_legacy,2023.1.0,Win32,60.24096386,,,,,,,,,,,,,,,,,,,,,,,,,,,,,,,,,,,,,,,,,,,,,,,,,,,,,,,,
,,,,,,,0,0,1,0,0,calibration_square,0,8,8,11,1,0,0,12,001,2024-11-21_11h00.15.789,Attention_exp_legacy,2023.1.0,Win32,60.24096386,,,,,,,,,,,,,,,,,,,,,,,,,,,,,,,,,,,,,,,,,,,,,,,,,,,,,,,,
,,,,,,,-0.673958333,-0.677777778,1,0,0,calibration_square,0,9,9,0,1,-0.67,-0.67,12,001,2024-11-21_11h00.15.789,Attention_exp_legacy,2023.1.0,Win32,60.24096386,,,,,,,,,,,,,,,,,,,,,,,,,,,,,,,,,,,,,,,,,,,,,,,,,,,,,,,,
,,,,,,,0.333333333,0.322222222,1,0,0,calibration_square,0,10,10,17,1,0.33,0.33,12,001,2024-11-21_11h00.15.789,Attention_exp_legacy,2023.1.0,Win32,60.24096386,,,,,,,,,,,,,,,,,,,,,,,,,,,,,,,,,,,,,,,,,,,,,,,,,,,,,,,,
,,,,,,,-0.005208333,-0.333333333,1,0,0,calibration_square,0,11,11,10,1,0,-0.33,12,001,2024-11-21_11h00.15.789,Attention_exp_legacy,2023.1.0,Win32,60.24096386,,,,,,,,,,,,,,,,,,,,,,,,,,,,,,,,,,,,,,,,,,,,,,,,,,,,,,,,
,,,,,,,0.333333333,-0.668518519,1,0,0,calibration_square,0,12,12,14,1,0.33,-0.67,12,001,2024-11-21_11h00.15.789,Attention_exp_legacy,2023.1.0,Win32,60.24096386,,,,,,,,,,,,,,,,,,,,,,,,,,,,,,,,,,,,,,,,,,,,,,,,,,,,,,,,
,,,,,,,-0.667708333,0.335185185,1,0,0,calibration_square,0,13,13,3,1,-0.67,0.33,12,001,2024-11-21_11h00.15.789,Attention_exp_legacy,2023.1.0,Win32,60.24096386,,,,,,,,,,,,,,,,,,,,,,,,,,,,,,,,,,,,,,,,,,,,,,,,,,,,,,,,
,,,,,,,-0.001041667,0.67037037,1,0,0,calibration_square,0,14,14,13,1,0,0.67,12,001,2024-11-21_11h00.15.789,Attention_exp_legacy,2023.1.0,Win32,60.24096386,,,,,,,,,,,,,,,,,,,,,,,,,,,,,,,,,,,,,,,,,,,,,,,,,,,,,,,,
,,,,,,,-0.667708333,0,1,0,0,calibration_square,0,15,15,2,1,-0.67,0,12,001,2024-11-21_11h00.15.789,Attention_exp_legacy,2023.1.0,Win32,60.24096386,,,,,,,,,,,,,,,,,,,,,,,,,,,,,,,,,,,,,,,,,,,,,,,,,,,,,,,,
,,,,,,,0.320833333,-0.001851852,1,0,0,calibration_square,0,16,16,16,1,0.33,0,12,001,2024-11-21_11h00.15.789,Attention_exp_legacy,2023.1.0,Win32,60.24096386,,,,,,,,,,,,,,,,,,,,,,,,,,,,,,,,,,,,,,,,,,,,,,,,,,,,,,,,
,,,,,,,-0.333333333,-0.325925926,1,0,0,calibration_square,0,17,17,5,1,-0.33,-0.33,12,001,2024-11-21_11h00.15.789,Attention_exp_legacy,2023.1.0,Win32,60.24096386,,,,,,,,,,,,,,,,,,,,,,,,,,,,,,,,,,,,,,,,,,,,,,,,,,,,,,,,
,,,,,,,0.3375,-0.325925926,1,0,0,calibration_square,0,18,18,15,1,0.33,-0.33,12,001,2024-11-21_11h00.15.789,Attention_exp_legacy,2023.1.0,Win32,60.24096386,,,,,,,,,,,,,,,,,,,,,,,,,,,,,,,,,,,,,,,,,,,,,,,,,,,,,,,,
,,,,,,,0.002083333,0.333333333,1,0,0,calibration_square,0,19,19,12,1,0,0.33,12,001,2024-11-21_11h00.15.789,Attention_exp_legacy,2023.1.0,Win32,60.24096386,,,,,,,,,,,,,,,,,,,,,,,,,,,,,,,,,,,,,,,,,,,,,,,,,,,,,,,,
,,,,,,,-0.341666667,0,1,0,0,,0,20,20,6,1,-0.33,0,12,001,2024-11-21_11h00.15.789,Attention_exp_legacy,2023.1.0,Win32,60.24096386,,,,,,,,,,,,,,,,,,,,,,,,,,,,,,,,,,,,,,,,,,,,,,,,,,,,,,,,
,,,,,,,,,,,,,,,,,,,,12,001,2024-11-21_11h00.15.789,Attention_exp_legacy,2023.1.0,Win32,60.24096386,"[1920,1080]","[640,480]",[-0.03229166666666667],[-0.4962962962962963],[1],[0],[0],[1.987099999904629],"[""StartButton""]",[0.11770833333333333],[0.4],[1],[0],[0],[5.488099999904634],"[""Metro_label""]",Metro_label,1,6.5004,"[[-0.015625,-0.3277777777777778],[-0.015625,-0.3277777777777778],[-0.015625,-0.3277777777777778],[-0.015625,-0.3277777777777778],[-0.015625,-0.3277777777777778],[-0.015625,-0.3277777777777778],[-0.015625,-0.3277777777777778],[-0.015625,-0.3277777777777778],[-0.015625,-0.3277777777777778],[-0.015625,-0.3277777777777778],[-0.015625,-0.3277777777777778],[-0.015625,-0.3277777777777778],[-0.015625,-0.3277777777777778],[-0.015625,-0.3277777777777778],[-0.015625,-0.3277777777777778],[-0.015625,-0.3277777777777778],[-0.015625,-0.3277777777777778],[-0.015625,-0.3277777777777778],[-0.015625,-0.3277777777777778],[-0.015625,-0.3277777777777778],[-0.015625,-0.3277777777777778],[-0.015625,-0.3277777777777778],[-0.015625,-0.3277777777777778],[-0.015625,-0.3277777777777778],[-0.015625,-0.3277777777777778],[-0.015625,-0.3277777777777778],[-0.015625,-0.3277777777777778],[-0.015625,-0.3277777777777778],[-0.015625,-0.3277777777777778],[-0.015625,-0.3277777777777778],[-0.015625,-0.3277777777777778],[-0.015625,-0.3277777777777778],[-0.015625,-0.3277777777777778],[-0.015625,-0.3277777777777778],[-0.015625,-0.3277777777777778],[-0.015625,-0.3277777777777778],[-0.015625,-0.3277777777777778],[-0.015625,-0.3277777777777778],[-0.015625,-0.3277777777777778],[-0.015625,-0.3277777777777778],[-0.015625,-0.3277777777777778],[-0.015625,-0.3277777777777778],[-0.015625,-0.3277777777777778],[-0.015625,-0.3277777777777778],[-0.015625,-0.3277777777777778],[-0.015625,-0.3277777777777778],[-0.015625,-0.3277777777777778],[-0.015625,-0.3277777777777778],[-0.015625,-0.3277777777777778],[-0.015625,-0.3277777777777778],[-0.015625,-0.3277777777777778],[-0.015625,-0.3277777777777778],[-0.015625,-0.3277777777777778],[-0.015625,-0.3277777777777778],[-0.015625,-0.3277777777777778],[-0.015625,-0.3277777777777778],[-0.015625,-0.3277777777777778],[-0.015625,-0.3277777777777778],[-0.015625,-0.3277777777777778],[-0.015625,-0.3277777777777778],[-0.015625,-0.3277777777777778],[-0.015625,-0.3277777777777778],[-0.015625,-0.3277777777777778],[-0.015625,-0.3277777777777778],[-0.015625,-0.3277777777777778],[-0.015625,-0.3277777777777778],[-0.015625,-0.3277777777777778],[-0.015625,-0.3277777777777778],[-0.015625,-0.3277777777777778],[-0.015625,-0.3277777777777778],[-0.015625,-0.3277777777777778],[-0.015625,-0.3277777777777778],[-0.015625,-0.3277777777777778],[-0.015625,-0.3277777777777778],[-0.015625,-0.3277777777777778],[-0.015625,-0.3277777777777778],[-0.015625,-0.3277777777777778],[-0.015625,-0.3277777777777778],[-0.015625,-0.3277777777777778],[-0.015625,-0.3277777777777778],[-0.015625,-0.3277777777777778],[-0.015625,-0.3277777777777778],[-0.015625,-0.3277777777777778],[-0.015625,-0.3277777777777778],[-0.015625,-0.3277777777777778],[-0.015625,-0.3277777777777778],[-0.015625,-0.3277777777777778],[-0.015625,-0.3277777777777778],[-0.015625,-0.3277777777777778],[-0.015625,-0.3277777777777778],[-0.015625,-0.3277777777777778],[-0.015625,-0.3277777777777778],[-0.015625,-0.3277777777777778],[-0.015625,-0.3277777777777778],[-0.015625,-0.3277777777777778],[-0.015625,-0.3277777777777778],[-0.015625,-0.3277777777777778],[-0.015625,-0.3277777777777778],[-0.015625,-0.3277777777777778],[-0.015625,-0.3277777777777778],[-0.015625,-0.3277777777777778],[-0.015625,-0.3277777777777778],[-0.015625,-0.3277777777777778],[-0.015625,-0.3277777777777778],[-0.015625,-0.3277777777777778],[-0.015625,-0.3277777777777778],[-0.015625,-0.3277777777777778],[-0.015625,-0.3277777777777778],[-0.015625,-0.3277777777777778],[-0.015625,-0.3277777777777778],[-0.015625,-0.3277777777777778],[-0.015625,-0.3277777777777778],[-0.015625,-0.3277777777777778],[-0.015625,-0.3277777777777778],[-0.015625,-0.3277777777777778],[-0.015625,-0.3277777777777778],[-0.015625,-0.3277777777777778],[-0.015625,-0.3277777777777778],[-0.015625,-0.3277777777777778],[-0.015625,-0.3277777777777778],[-0.015625,-0.3277777777777778],[-0.015625,-0.3277777777777778],[-0.015625,-0.3277777777777778],[-0.015625,-0.3277777777777778],[-0.015625,-0.3277777777777778],[-0.015625,-0.3277777777777778],[-0.015625,-0.3277777777777778],[-0.015625,-0.3277777777777778],[-0.015625,-0.3277777777777778],[-0.015625,-0.3277777777777778],[-0.015625,-0.3277777777777778],[-0.015625,-0.3277777777777778],[-0.015625,-0.3277777777777778],[-0.015625,-0.3277777777777778],[-0.015625,-0.3277777777777778],[-0.015625,-0.3277777777777778],[-0.015625,-0.3277777777777778],[-0.015625,-0.3277777777777778],[-0.015625,-0.3277777777777778],[-0.015625,-0.3277777777777778],[-0.015625,-0.3277777777777778],[-0.015625,-0.3277777777777778],[-0.015625,-0.3277777777777778],[-0.015625,-0.3277777777777778],[-0.015625,-0.3277777777777778],[-0.015625,-0.3277777777777778],[-0.015625,-0.3277777777777778],[-0.015625,-0.3277777777777778],[-0.015625,-0.3277777777777778],[-0.015625,-0.3277777777777778],[-0.015625,-0.3277777777777778],[-0.015625,-0.3277777777777778],[-0.015625,-0.3277777777777778],[-0.015625,-0.3277777777777778],[-0.015625,-0.3277777777777778],[-0.015625,-0.3277777777777778],[-0.015625,-0.3277777777777778],[-0.015625,-0.3277777777777778],[-0.015625,-0.3277777777777778],[-0.015625,-0.3277777777777778],[-0.015625,-0.3277777777777778],[-0.015625,-0.3277777777777778],[-0.015625,-0.3277777777777778],[-0.015625,-0.3277777777777778],[-0.015625,-0.3277777777777778],[-0.015625,-0.3277777777777778],[-0.015625,-0.3277777777777778],[-0.015625,-0.3277777777777778],[-0.015625,-0.3277777777777778],[-0.015625,-0.3277777777777778],[-0.015625,-0.3277777777777778],[-0.015625,-0.3277777777777778],[-0.015625,-0.3277777777777778],[-0.015625,-0.3277777777777778],[-0.015625,-0.3277777777777778],[-0.015625,-0.3277777777777778],[-0.015625,-0.3277777777777778],[-0.015625,-0.3277777777777778],[-0.015625,-0.3277777777777778],[-0.0020833333333333333,-0.3296296296296296],[0.003125,-0.3314814814814815],[0.022916666666666665,-0.34814814814814815],[0.03333333333333333,-0.3574074074074074],[0.04479166666666667,-0.3685185185185185],[0.058333333333333334,-0.3814814814814815],[0.07083333333333333,-0.3907407407407407],[0.09479166666666666,-0.40185185185185185],[0.10208333333333333,-0.4074074074074074],[0.11041666666666666,-0.412962962962963],[0.11666666666666667,-0.412962962962963],[0.121875,-0.412962962962963],[0.12916666666666668,-0.412962962962963],[0.13333333333333333,-0.40925925925925927],[0.13854166666666667,-0.40185185185185185],[0.14166666666666666,-0.3888888888888889],[0.146875,-0.37037037037037035],[0.15104166666666666,-0.34814814814814815],[0.15208333333333332,-0.3277777777777778],[0.15208333333333332,-0.3111111111111111],[0.15208333333333332,-0.2962962962962963],[0.15104166666666666,-0.2833333333333333],[0.14791666666666667,-0.26851851851851855],[0.146875,-0.26481481481481484],[0.14583333333333334,-0.2537037037037037],[0.14375,-0.2388888888888889],[0.14166666666666666,-0.22962962962962963],[0.13958333333333334,-0.21481481481481482],[0.13645833333333332,-0.19814814814814816],[0.13645833333333332,-0.1814814814814815],[0.13333333333333333,-0.1537037037037037],[0.13229166666666667,-0.1259259259259259],[0.13125,-0.08888888888888889],[0.13125,-0.046296296296296294],[0.13125,-0.001851851851851852],[0.13125,0.037037037037037035],[0.13125,0.08333333333333333],[0.13125,0.09814814814814815],[0.12916666666666668,0.14629629629629629],[0.128125,0.17222222222222222],[0.12604166666666666,0.2],[0.12291666666666666,0.2222222222222222],[0.121875,0.24074074074074073],[0.12083333333333333,0.25925925925925924],[0.11770833333333333,0.2777777777777778],[0.11770833333333333,0.28888888888888886],[0.11770833333333333,0.29814814814814816],[0.11770833333333333,0.30925925925925923],[0.11770833333333333,0.32222222222222224],[0.11770833333333333,0.337037037037037],[0.11770833333333333,0.35185185185185186],[0.11770833333333333,0.3648148148148148],[0.11770833333333333,0.37592592592592594],[0.11770833333333333,0.38333333333333336],[0.11770833333333333,0.3888888888888889],[0.11770833333333333,0.3962962962962963],[0.11770833333333333,0.4],[0.11770833333333333,0.4],[0.11770833333333333,0.4],[0.11770833333333333,0.4],[0.11770833333333333,0.4],[0.11770833333333333,0.4],[0.11770833333333333,0.4],[0.11770833333333333,0.4],[0.11770833333333333,0.4],[0.11770833333333333,0.4],[0.11770833333333333,0.4],[0.11770833333333333,0.4],[0.11770833333333333,0.4],[0.11770833333333333,0.4],[0.11770833333333333,0.4],[0.11770833333333333,0.4],[0.11770833333333333,0.4],[0.11770833333333333,0.4],[0.11770833333333333,0.4],[0.11770833333333333,0.4],[0.11770833333333333,0.4],[0.11770833333333333,0.4],[0.11770833333333333,0.4],[0.11770833333333333,0.4],[0.11770833333333333,0.4],[0.11770833333333333,0.4],[0.11770833333333333,0.4],[0.11770833333333333,0.4],[0.11770833333333333,0.4],[0.11770833333333333,0.4],[0.11770833333333333,0.4],[0.11770833333333333,0.4],[0.11770833333333333,0.4],[0.11770833333333333,0.4],[0.11770833333333333,0.4],[0.11770833333333333,0.4],[0.11770833333333333,0.4],[0.11770833333333333,0.4],[0.11770833333333333,0.4],[0.11770833333333333,0.4],[0.11770833333333333,0.4],[0.11770833333333333,0.4],[0.11770833333333333,0.4],[0.11770833333333333,0.4],[0.11770833333333333,0.4],[0.11770833333333333,0.4],[0.11770833333333333,0.4],[0.11770833333333333,0.4],[0.11770833333333333,0.4],[0.11770833333333333,0.4],[0.11770833333333333,0.4],[0.11770833333333333,0.4],[0.11770833333333333,0.4],[0.11770833333333333,0.4],[0.11770833333333333,0.4],[0.11770833333333333,0.4],[0.11770833333333333,0.4],[0.11770833333333333,0.4],[0.11770833333333333,0.4],[0.11770833333333333,0.4],[0.11770833333333333,0.4],[0.11770833333333333,0.4],[0.11770833333333333,0.4],[0.11770833333333333,0.4],[0.11770833333333333,0.4],[0.11770833333333333,0.4],[0.11770833333333333,0.4],[0.11770833333333333,0.4],[0.11770833333333333,0.4],[0.11770833333333333,0.4],[0.11770833333333333,0.4],[0.11770833333333333,0.4],[0.11770833333333333,0.4],[0.11770833333333333,0.4],[0.11770833333333333,0.4],[0.11770833333333333,0.4],[0.11770833333333333,0.4],[0.11770833333333333,0.4],[0.11770833333333333,0.4],[0.11770833333333333,0.4],[0.11770833333333333,0.4],[0.11770833333333333,0.4],[0.11770833333333333,0.4],[0.11770833333333333,0.4],[0.11770833333333333,0.4],[0.11770833333333333,0.4],[0.11770833333333333,0.4],[0.11770833333333333,0.4],[0.11770833333333333,0.4],[0.11770833333333333,0.4],[0.11770833333333333,0.4],[0.11770833333333333,0.4],[0.11770833333333333,0.4],[0.11770833333333333,0.4],[0.11770833333333333,0.4],[0.11770833333333333,0.4],[0.11770833333333333,0.4],[0.11770833333333333,0.4],[0.11770833333333333,0.4],[0.11770833333333333,0.4],[0.11770833333333333,0.4],[0.11770833333333333,0.4],[0.11770833333333333,0.4],[0.11770833333333333,0.4],[0.11770833333333333,0.4],[0.11770833333333333,0.4],[0.11770833333333333,0.4],[0.11770833333333333,0.4],[0.11770833333333333,0.4],[0.11770833333333333,0.4],[0.11770833333333333,0.4],[0.11770833333333333,0.4],[0.11770833333333333,0.4],[0.11770833333333333,0.4],[0.11770833333333333,0.4],[0.11770833333333333,0.4],[0.11770833333333333,0.4],[0.11770833333333333,0.4],[0.11770833333333333,0.4],[0.11770833333333333,0.4],[0.11770833333333333,0.4],[0.11770833333333333,0.4],[0.11770833333333333,0.4],[0.11770833333333333,0.4],[0.11770833333333333,0.4],[0.11770833333333333,0.4],[0.11770833333333333,0.4],[0.11770833333333333,0.4],[0.11770833333333333,0.4],[0.11770833333333333,0.4],[0.11770833333333333,0.4],[0.11770833333333333,0.4],[0.11770833333333333,0.4],[0.11770833333333333,0.4],[0.11770833333333333,0.4],[0.11770833333333333,0.4],[0.11770833333333333,0.4],[0.11770833333333333,0.4],[0.11770833333333333,0.4],[0.11770833333333333,0.4],[0.11770833333333333,0.4],[0.11770833333333333,0.4],[0.11770833333333333,0.4],[0.11770833333333333,0.4],[0.11770833333333333,0.4],[0.11770833333333333,0.4],[0.11770833333333333,0.4],[0.11770833333333333,0.4],[0.11770833333333333,0.4],[0.11770833333333333,0.4],[0.11770833333333333,0.4],[0.11770833333333333,0.4],[0.11770833333333333,0.4],[0.11770833333333333,0.4]]","[[0.04104166666666664,-0.12444444444444443],[0.04104166666666664,-0.12444444444444443],[0.034687499999999954,-0.12111111111111107],[0.034687499999999954,-0.12111111111111107],[0.010625000000000048,-0.11314814814814819],[-0.028437499999999952,-0.10388888888888893],[-0.025416666666666643,-0.1381481481481482],[-0.025416666666666643,-0.1381481481481482],[0.005624999999999976,-0.15648148148148147],[0.018229166666666668,-0.15907407407407403],[0.06697916666666662,-0.10037037037037035],[0.12947916666666662,-0.06518518518518517],[0.16760416666666675,-0.0816666666666667],[0.2015625,-0.04537037037037037],[0.23885416666666662,-0.07185185185185188],[0.26843750000000005,-0.10851851851851856],[0.31583333333333335,-0.16166666666666668],[0.3316666666666668,-0.16888888888888887],[0.3142708333333334,-0.1794444444444444],[0.31312499999999993,-0.1816666666666667],[0.3090625000000001,-0.22999999999999998],[0.28708333333333325,-0.26296296296296295],[0.27312500000000006,-0.27018518518518514],[0.2647916666666667,-0.2505555555555556],[0.28624999999999995,-0.23111111111111113],[0.30010416666666656,-0.18611111111111112],[0.3116666666666667,-0.13240740740740742],[0.3240624999999999,-0.11500000000000005],[0.2985416666666666,-0.10203703703703708],[0.2747916666666666,-0.10055555555555558],[0.25281250000000005,-0.08277777777777776],[0.2349999999999999,-0.056851851851851834],[0.25499999999999995,0.017592592592592594],[0.2693749999999999,0.06518518518518526],[0.2693749999999999,0.06518518518518526],[0.2617708333333333,0.072037037037037],[0.2838541666666667,0.05092592592592592],[0.30593750000000003,0.029814814814814856],[0.31666666666666665,0.04259259259259259],[0.31666666666666665,0.04259259259259259],[0.3398958333333333,0.07296296296296292],[0.3618750000000001,0.06962962962962967],[0.4025000000000001,0.08203703703703695],[0.3928124999999999,0.06518518518518526],[0.3453125,-0.0001851851851852273],[0.3318749999999999,-0.07999999999999997],[0.3189583333333334,-0.12185185185185188],[0.24656250000000005,-0.1566666666666667],[0.18916666666666657,-0.2125925925925926],[0.12052083333333338,-0.24018518518518517],[0.09083333333333338,-0.31611111111111106],[0.0943749999999999,-0.28888888888888886],[0.07833333333333338,-0.29685185185185187],[0.10645833333333338,-0.32037037037037036],[0.15479166666666658,-0.2822222222222222],[0.15479166666666658,-0.2822222222222222],[0.16906249999999995,-0.22962962962962963],[0.1664583333333333,-0.19092592592592597],[0.1664583333333333,-0.19092592592592597],[0.20052083333333334,-0.1655555555555555],[0.20052083333333334,-0.1655555555555555],[0.20499999999999996,-0.13481481481481483],[0.22468750000000004,-0.11166666666666669],[0.2439583333333334,-0.030740740740740784],[0.24562499999999995,-0.04129629629629621],[0.24854166666666658,-0.0448148148148149],[0.25729166666666664,-0.014074074074074116],[0.25416666666666665,-0.048333333333333374],[0.25104166666666666,-0.08259259259259263],[0.2334374999999999,-0.10648148148148148],[0.2509375000000001,-0.12388888888888884],[0.2939583333333334,-0.1242592592592593],[0.34177083333333325,-0.12629629629629627],[0.3658333333333334,-0.13351851851851856],[0.36749999999999994,-0.11333333333333331],[0.35875000000000007,-0.10537037037037032],[0.3485416666666666,-0.11944444444444445],[0.3397916666666667,-0.13240740740740742],[0.3498958333333334,-0.1242592592592593],[0.3913541666666667,-0.11259259259259262],[0.39812500000000006,-0.1175925925925926],[0.39395833333333335,-0.12388888888888884],[0.39395833333333335,-0.12388888888888884],[0.3870833333333332,-0.1411111111111111],[0.3385416666666667,-0.1368518518518518],[0.31218750000000006,-0.13629629629629633],[0.31218750000000006,-0.13629629629629633],[0.29416666666666674,-0.12740740740740744],[0.29416666666666674,-0.12740740740740744],[0.3246875000000001,-0.0705555555555556],[0.3246875000000001,-0.0705555555555556],[0.3294791666666666,-0.042407407407407366],[0.3294791666666666,-0.042407407407407366],[0.31281249999999994,-0.02629629629629638],[0.31281249999999994,-0.02629629629629638],[0.25239583333333326,0.01185185185185181],[0.25239583333333326,0.01185185185185181],[0.1943749999999999,0.10611111111111103],[0.12177083333333343,0.16351851851851842],[0.059687499999999956,0.225],[0.05531250000000002,0.24537037037037038],[0.052083333333333336,0.2777777777777778],[0.0734375,0.29870370370370364],[0.04802083333333336,0.3042592592592592],[0.02677083333333338,0.2994444444444445],[0.008124999999999953,0.2855555555555556],[0.04479166666666667,0.2388888888888889],[0.09187500000000005,0.16222222222222227],[0.09187500000000005,0.16222222222222227],[0.1787499999999999,0.1300000000000001],[0.24510416666666662,0.0838888888888888],[0.2760416666666667,0.01796296296296305],[0.2916666666666667,-0.06166666666666669],[0.3020833333333333,-0.1331481481481481],[0.3125,-0.20462962962962963],[0.3381249999999999,-0.22111111111111106],[0.3381249999999999,-0.22111111111111106],[0.3637500000000001,-0.2375925925925926],[0.37614583333333323,-0.24018518518518517],[0.3797916666666666,-0.26185185185185184],[0.35822916666666677,-0.2911111111111111],[0.3302083333333333,-0.31870370370370377],[0.3321875000000001,-0.3242592592592593],[0.3480208333333332,-0.3296296296296296],[0.3480208333333332,-0.3296296296296296],[0.3420833333333334,-0.33425925925925926],[0.3420833333333334,-0.33425925925925926],[0.29145833333333326,-0.31796296296296295],[0.2516666666666666,-0.2992592592592593],[0.2118750000000001,-0.28055555555555556],[0.1553124999999999,-0.22685185185185186],[0.13125,-0.18481481481481485],[0.1021874999999999,-0.12777777777777777],[0.08354166666666671,-0.07074074074074072],[0.06489583333333329,-0.013703703703703662],[0.05343749999999995,0.004814814814814857],[0.05343749999999995,0.004814814814814857],[0.044375000000000026,0.025925925925925925],[0.04468749999999998,0.06925925925925921],[0.036458333333333336,0.13185185185185194],[0.016666666666666666,0.15500000000000008],[0.008020833333333382,0.14166666666666666],[-0.024374999999999977,0.15907407407407403],[-0.044062499999999956,0.1655555555555555],[-0.06375000000000004,0.172037037037037],[-0.07885416666666671,0.12685185185185185],[-0.1234375,0.14814814814814814],[-0.16437499999999997,0.21388888888888888],[-0.16437499999999997,0.21388888888888888],[-0.15895833333333337,0.22907407407407415],[-0.15458333333333332,0.2131481481481482],[-0.13864583333333336,0.23666666666666658],[-0.06697916666666662,0.20981481481481473],[0.012083333333333357,0.1866666666666666],[0.012083333333333357,0.1866666666666666],[0.06427083333333337,0.1853703703703704],[0.12239583333333333,0.16796296296296304],[0.1759375000000001,0.2022222222222223],[0.23791666666666675,0.20833333333333334],[0.31302083333333336,0.3050000000000001],[0.3770833333333333,0.40907407407407403],[0.3770833333333333,0.40907407407407403],[0.39989583333333345,0.3616666666666666],[0.4544791666666666,0.33851851851851844],[0.4357291666666666,0.33425925925925926],[0.42843749999999997,0.3322222222222222],[0.42843749999999997,0.3322222222222222],[0.4515625,0.3135185185185184],[0.4658333333333334,0.30333333333333323],[0.4788541666666667,0.3037037037037037],[0.49187500000000006,0.30407407407407416],[0.5155208333333334,0.1881481481481482],[0.5155208333333334,0.1881481481481482],[0.5241666666666667,0.04407407407407399],[0.5663541666666667,0.052037037037037076],[0.5715625000000001,0.06611111111111119],[0.6089583333333333,0.10999999999999996],[0.6089583333333333,0.10999999999999996],[0.6275000000000001,0.1479629629629629],[0.6526041666666667,0.1772222222222223],[0.6526041666666667,0.1772222222222223],[0.6165625000000001,0.1685185185185185],[0.5441666666666668,0.18259259259259264],[0.4730208333333332,0.20685185185185193],[0.3954166666666666,0.2168518518518519],[0.3241666666666667,0.22555555555555548],[0.25593750000000004,0.2294444444444444],[0.25593750000000004,0.2294444444444444],[0.19572916666666676,0.2205555555555556],[0.19572916666666676,0.2205555555555556],[0.15614583333333343,0.2322222222222222],[0.09718749999999995,0.21648148148148144],[0.0013541666666666192,0.16148148148148156],[0.0013541666666666192,0.16148148148148156],[-0.01270833333333338,0.15],[0.042604166666666644,0.1359259259259259],[0.042604166666666644,0.1359259259259259],[0.04802083333333336,0.12370370370370362],[0.03250000000000005,0.10703703703703696],[0.03250000000000005,0.10703703703703696],[0.035625000000000046,0.09259259259259259],[0.07687499999999996,0.12888888888888894],[0.07687499999999996,0.12888888888888894],[0.07604166666666666,0.10703703703703696],[0.029062499999999977,0.06500000000000004],[-0.003125,0.10870370370370379],[-0.003125,0.10870370370370379],[0.024687500000000046,0.11092592592592589],[0.024687500000000046,0.11092592592592589],[0.04624999999999998,0.13518518518518519],[0.04624999999999998,0.13518518518518519],[0.02510416666666669,0.1301851851851851],[0.02510416666666669,0.1301851851851851],[0.03333333333333333,0.13240740740740742],[0.03333333333333333,0.13240740740740742],[0.050833333333333286,0.0911111111111112],[0.050833333333333286,0.0911111111111112],[0.07583333333333328,0.12907407407407415],[0.07583333333333328,0.12907407407407415],[0.05427083333333336,0.09037037037037028],[0.05427083333333336,0.09037037037037028],[0.06479166666666672,0.10111111111111115],[0.06479166666666672,0.10111111111111115],[0.10427083333333324,0.11092592592592589],[0.10427083333333324,0.11092592592592589],[0.1492708333333333,0.03685185185185181],[0.1492708333333333,0.03685185185185181],[0.15166666666666656,0.046296296296296294],[0.15166666666666656,0.046296296296296294],[0.14572916666666677,0.021481481481481525],[0.15291666666666662,-0.007037037037036953],[0.13177083333333334,-0.0787037037037037],[0.11291666666666676,-0.07888888888888893],[0.07802083333333343,-0.13555555555555554],[0.0515625,-0.16629629629629633],[0.0709374999999999,-0.2788888888888889],[0.050520833333333334,-0.36277777777777775],[0.022916666666666665,-0.4103703703703704],[0.0014583333333333095,-0.47092592592592597],[0.014999999999999977,-0.52],[0.02635416666666662,-0.5668518518518519],[0.07156250000000004,-0.5551851851851852],[0.07760416666666667,-0.6133333333333333],[0.08489583333333334,-0.645],[0.08489583333333334,-0.645],[0.09343750000000005,-0.692037037037037],[0.09343750000000005,-0.692037037037037],[0.06791666666666671,-0.6627777777777777],[0.0828125,-0.6068518518518519],[0.10260416666666666,-0.5855555555555555],[0.13229166666666667,-0.5790740740740741],[0.12385416666666677,-0.5698148148148148],[0.11739583333333338,-0.5837037037037037],[0.12468750000000005,-0.6322222222222221],[0.15958333333333338,-0.6388888888888888],[0.17802083333333343,-0.649074074074074],[0.19520833333333343,-0.6438888888888888],[0.2296875,-0.6307407407407408],[0.2537499999999999,-0.6677777777777778],[0.2537499999999999,-0.6677777777777778],[0.2773958333333333,-0.6862962962962963],[0.2530208333333334,-0.6840740740740741],[0.2530208333333334,-0.6840740740740741],[0.2256249999999999,-0.6751851851851852],[0.2165625000000001,-0.6038888888888889],[0.23968749999999991,-0.5325925925925926],[0.25020833333333337,-0.4685185185185185],[0.25927083333333345,-0.4274074074074074],[0.25927083333333345,-0.4274074074074074],[0.2677083333333333,-0.3992592592592593],[0.25927083333333345,-0.3853703703703704],[0.2484375,-0.362962962962963],[0.2179166666666667,-0.33925925925925926],[0.21989583333333323,-0.317037037037037],[0.24749999999999991,-0.27018518518518514],[0.26687500000000003,-0.2601851851851852],[0.26416666666666655,-0.25166666666666665],[0.27072916666666674,-0.2542592592592593],[0.2924999999999999,-0.2524074074074074],[0.2908333333333334,-0.2518518518518518],[0.2908333333333334,-0.2518518518518518],[0.28187499999999993,-0.2551851851851852],[0.2833333333333333,-0.23055555555555557],[0.3077083333333334,-0.19907407407407407],[0.32541666666666674,-0.16833333333333328],[0.2819791666666667,-0.20703703703703705],[0.23624999999999996,-0.24407407407407408],[0.18166666666666675,-0.275],[0.12999999999999995,-0.30888888888888894],[0.06343749999999998,-0.3168518518518519],[0.020937500000000022,-0.31055555555555553],[0.0234375,-0.2559259259259259],[0.018229166666666668,-0.2559259259259259],[0.006666666666666643,-0.2655555555555555],[-0.008541666666666715,-0.27907407407407403],[0.012812499999999952,-0.24814814814814815],[0.03875000000000005,-0.21203703703703702],[0.06343749999999998,-0.18055555555555555],[0.06270833333333338,-0.11370370370370367],[0.07687499999999996,-0.0727777777777778],[0.07687499999999996,-0.0727777777777778],[0.11989583333333324,-0.005555555555555556],[0.14489583333333325,0.060370370370370414],[0.19541666666666657,0.16944444444444445],[0.24677083333333344,0.26185185185185184],[0.30583333333333323,0.3296296296296296],[0.36687500000000006,0.3911111111111112],[0.3507291666666667,0.42851851851851847],[0.34885416666666674,0.39574074074074084],[0.3734375,0.47388888888888886],[0.3980208333333332,0.5520370370370371],[0.3651041666666667,0.4524074074074073],[0.2964583333333332,0.3264814814814814],[0.25510416666666674,0.2064814814814815],[0.18322916666666675,0.07462962962962955],[0.13937499999999994,0.061666666666666585],[0.10489583333333338,0.03166666666666671],[0.13322916666666676,0.01648148148148144],[0.15239583333333329,0.08481481481481473],[0.1912499999999999,-0.008333333333333333],[0.1912499999999999,-0.008333333333333333],[0.21541666666666662,-0.12999999999999998],[0.2375,-0.07370370370370373],[0.2634375000000001,0.06759259259259259],[0.2634375000000001,0.06759259259259259],[0.2681250000000001,0.0816666666666667],[0.2598958333333333,0.20962962962962972],[0.26281249999999995,0.17685185185185184],[0.26281249999999995,0.17685185185185184],[0.25635416666666655,0.16111111111111112],[0.23989583333333328,0.225],[0.22354166666666658,0.1925925925925926],[0.20760416666666662,0.17314814814814813],[0.21531250000000005,0.16833333333333328],[0.24958333333333324,0.15611111111111103],[0.2682291666666667,0.03333333333333333],[0.23937499999999995,0.03333333333333333],[0.2612499999999999,-0.05240740740740743],[0.24770833333333328,-0.06185185185185181],[0.24770833333333328,-0.06185185185185181],[0.23687500000000009,0.008333333333333333],[0.23687500000000009,0.008333333333333333],[0.23718750000000005,-0.06592592592592597],[0.23718750000000005,-0.06592592592592597],[0.24874999999999994,-0.0668518518518519],[0.24874999999999994,-0.0668518518518519],[0.2328125,-0.059814814814814835],[0.2328125,-0.059814814814814835],[0.2021874999999999,-0.024814814814814772],[0.2021874999999999,-0.024814814814814772],[0.17468750000000005,0.01574074074074074],[0.1703125,0.03592592592592588],[0.1806250000000001,0.025],[0.21395833333333342,0.03592592592592588],[0.24729166666666677,0.04685185185185177],[0.2663541666666667,-0.01518518518518527],[0.2842708333333334,-0.012407407407407492],[0.2842708333333334,-0.012407407407407492],[0.26322916666666674,-0.026666666666666623],[0.24927083333333327,-0.01722222222222214],[0.24104166666666677,-0.021851851851851768],[0.2621875000000001,-0.04814814814814815],[0.2705208333333334,-0.06925925925925921],[0.25020833333333337,-0.10722222222222218],[0.22854166666666675,-0.13092592592592592],[0.23875000000000005,-0.12925925925925927],[0.2196875000000001,-0.1427777777777778],[0.2033333333333334,-0.17481481481481478],[0.2033333333333334,-0.17481481481481478],[0.20510416666666675,-0.20111111111111116],[0.21479166666666671,-0.20722222222222217],[0.22447916666666667,-0.21333333333333332],[0.1875,-0.27462962962962967],[0.16302083333333334,-0.30907407407407406],[0.1671875,-0.3266666666666666],[0.1671875,-0.3266666666666666],[0.12572916666666673,-0.37962962962962965],[0.06739583333333338,-0.4581481481481481],[0.06739583333333338,-0.4581481481481481],[0.06145833333333333,-0.5162962962962964],[0.03270833333333331,-0.5625925925925926],[0.020729166666666642,-0.5787037037037037],[-0.01572916666666669,-0.6074074074074074],[-0.0203125,-0.6262962962962962],[-0.007604166666666619,-0.6212962962962963],[0.024166666666666715,-0.5992592592592593],[0.0328125,-0.5911111111111111],[0.0678124999999999,-0.5755555555555556],[0.0678124999999999,-0.5755555555555556]]","[[0.04104166666666664,-0.12444444444444443,0.00019999980926854732],[0.04104166666666664,-0.12444444444444443,0.05250000000000199],[0.034687499999999954,-0.12111111111111107,0.0694999999999979],[0.034687499999999954,-0.12111111111111107,0.08379999971389651],[0.010625000000000048,-0.11314814814814819,0.10050000000000381],[-0.028437499999999952,-0.10388888888888893,0.11719999980926588],[-0.025416666666666643,-0.1381481481481482,0.13649999999999807],[-0.025416666666666643,-0.1381481481481482,0.15050000000000097],[0.005624999999999976,-0.15648148148148147,0.16709999990463587],[0.018229166666666668,-0.15907407407407403,0.18379999971389793],[0.06697916666666662,-0.10037037037037035,0.20219999980926673],[0.12947916666666662,-0.06518518518518517,0.2171999998092673],[0.16760416666666675,-0.0816666666666667,0.2337999997138951],[0.2015625,-0.04537037037037037,0.25059999990462956],[0.23885416666666662,-0.07185185185185188,0.2670999999046302],[0.26843750000000005,-0.10851851851851856,0.28379999971389935],[0.31583333333333335,-0.16166666666666668,0.30449999999999733],[0.3316666666666668,-0.16888888888888887,0.3177999997138983],[0.3142708333333334,-0.1794444444444444,0.33369999980926224],[0.31312499999999993,-0.1816666666666667,0.3505000000000038],[0.3090625000000001,-0.22999999999999998,0.3670999999046316],[0.28708333333333325,-0.26296296296296295,0.3837999997139008],[0.27312500000000006,-0.27018518518518514,0.40190000009536675],[0.2647916666666667,-0.2505555555555556,0.41709999990463587],[0.28624999999999995,-0.23111111111111113,0.43379999971389793],[0.30010416666666656,-0.18611111111111112,0.4504999999999981],[0.3116666666666667,-0.13240740740740742,0.46869999980926735],[0.3240624999999999,-0.11500000000000005,0.4837999997138951],[0.2985416666666666,-0.10203703703703708,0.5044000000953659],[0.2747916666666666,-0.10055555555555558,0.5186999998092645],[0.25281250000000005,-0.08277777777777776,0.5364000000953695],[0.2349999999999999,-0.056851851851851834,0.5520999999046339],[0.25499999999999995,0.017592592592592594,0.5704000000953684],[0.2693749999999999,0.06518518518518526,0.5850999999046351],[0.2693749999999999,0.06518518518518526,0.6005000000000038],[0.2617708333333333,0.072037037037037,0.6171999998092659],[0.2838541666666667,0.05092592592592592,0.6337999997139008],[0.30593750000000003,0.029814814814814856,0.6504000000953667],[0.31666666666666665,0.04259259259259259,0.6676999998092654],[0.31666666666666665,0.04259259259259259,0.6837999997138979],[0.3398958333333333,0.07296296296296292,0.7004999999999981],[0.3618750000000001,0.06962962962962967,0.7190999999046355],[0.4025000000000001,0.08203703703703695,0.7336999998092679],[0.3928124999999999,0.06518518518518526,0.7504000000953681],[0.3453125,-0.0001851851851852273,0.7670999999046302],[0.3318749999999999,-0.07999999999999997,0.7841999998092675],[0.3189583333333334,-0.12185185185185188,0.8005999999046338],[0.24656250000000005,-0.1566666666666667,0.8170999999046344],[0.18916666666666657,-0.2125925925925926,0.8337999997138965],[0.12052083333333338,-0.24018518518518517,0.8512999997138948],[0.09083333333333338,-0.31611111111111106,0.8704999999999998],[0.0943749999999999,-0.28888888888888886,0.8859000000953685],[0.07833333333333338,-0.29685185185185187,0.9026999998092649],[0.10645833333333338,-0.32037037037037036,0.9170999999046359],[0.15479166666666658,-0.2822222222222222,0.934900000095368],[0.15479166666666658,-0.2822222222222222,0.9504999999999981],[0.16906249999999995,-0.22962962962962963,0.9671999998092673],[0.1664583333333333,-0.19092592592592597,0.9845999999046313],[0.1664583333333333,-0.19092592592592597,1.0016999998092686],[0.20052083333333334,-0.1655555555555555,1.0170999999046302],[0.20052083333333334,-0.1655555555555555,1.033699999809265],[0.20499999999999996,-0.13481481481481483,1.0504000000953653],[0.22468750000000004,-0.11166666666666669,1.0670999999046344],[0.2439583333333334,-0.030740740740740784,1.0837999997138965],[0.24562499999999995,-0.04129629629629621,1.1019000000953696],[0.24854166666666658,-0.0448148148148149,1.1170999999046316],[0.25729166666666664,-0.014074074074074116,1.134299999713896],[0.25416666666666665,-0.048333333333333374,1.1504000000953667],[0.25104166666666666,-0.08259259259259263,1.1670999999046359],[0.2334374999999999,-0.10648148148148148,1.1850000000000023],[0.2509375000000001,-0.12388888888888884,1.203400000095371],[0.2939583333333334,-0.1242592592592593,1.2174000000953669],[0.34177083333333325,-0.12629629629629627,1.233799999713895],[0.3658333333333334,-0.13351851851851856,1.2505999999046296],[0.36749999999999994,-0.11333333333333331,1.2670999999046302],[0.35875000000000007,-0.10537037037037032,1.2845999999046356],[0.3485416666666666,-0.11944444444444445,1.30290000009537],[0.3397916666666667,-0.13240740740740742,1.3174000000953683],[0.3498958333333334,-0.1242592592592593,1.3340000000000032],[0.3913541666666667,-0.11259259259259262,1.3504000000953695],[0.39812500000000006,-0.1175925925925926,1.3684999999999974],[0.39395833333333335,-0.12388888888888884,1.383900000095366],[0.39395833333333335,-0.12388888888888884,1.4004000000953667],[0.3870833333333332,-0.1411111111111111,1.4170999999046359],[0.3385416666666667,-0.1368518518518518,1.433799999713898],[0.31218750000000006,-0.13629629629629633,1.4504999999999981],[0.31218750000000006,-0.13629629629629633,1.467099999904633],[0.29416666666666674,-0.12740740740740744,1.483799999713895],[0.29416666666666674,-0.12740740740740744,1.5004000000953681],[0.3246875000000001,-0.0705555555555556,1.517000000000003],[0.3246875000000001,-0.0705555555555556,1.5337999997138994],[0.3294791666666666,-0.042407407407407366,1.5504000000953653],[0.3294791666666666,-0.042407407407407366,1.5670999999046344],[0.31281249999999994,-0.02629629629629638,1.583900000095369],[0.31281249999999994,-0.02629629629629638,1.600599999904631],[0.25239583333333326,0.01185185185185181,1.6171999998092659],[0.25239583333333326,0.01185185185185181,1.6337999997139008],[0.1943749999999999,0.10611111111111103,1.6504000000953667],[0.12177083333333343,0.16351851851851842,1.6692999997138998],[0.059687499999999956,0.225,1.6846999998092684],[0.05531250000000002,0.24537037037037038,1.703799999713901],[0.052083333333333336,0.2777777777777778,1.7176999998092626],[0.0734375,0.29870370370370364,1.7379999999999995],[0.04802083333333336,0.3042592592592592,1.7541999998092663],[0.02677083333333338,0.2994444444444445,1.7702999997138988],[0.008124999999999953,0.2855555555555556,1.7879000000953695],[0.04479166666666667,0.2388888888888889,1.8042999997138978],[0.09187500000000005,0.16222222222222227,1.8201999998092688],[0.09187500000000005,0.16222222222222227,1.836500000000001],[0.1787499999999999,0.1300000000000001,1.8504000000953695],[0.24510416666666662,0.0838888888888888,1.8670999999046316],[0.2760416666666667,0.01796296296296305,1.8870999999046347],[0.2916666666666667,-0.06166666666666669,1.9037999997138968],[0.3020833333333333,-0.1331481481481481,1.9196999998092679],[0.3125,-0.20462962962962963,1.9346999998092684],[0.3381249999999999,-0.22111111111111106,1.9525000000000006],[0.3381249999999999,-0.22111111111111106,1.9671999998092673],[0.3637500000000001,-0.2375925925925926,1.983799999713895],[0.37614583333333323,-0.24018518518518517,2.0050000000000026],[0.3797916666666666,-0.26185185185185184,2.0211999998092622],[0.35822916666666677,-0.2911111111111111,2.0367999997138995],[0.3302083333333333,-0.31870370370370377,2.051099999904636],[0.3321875000000001,-0.3242592592592593,2.0712999997139008],[0.3480208333333332,-0.3296296296296296,2.0889999999999986],[0.3480208333333332,-0.3296296296296296,2.1004000000953695],[0.3420833333333334,-0.33425925925925926,2.1170999999046316],[0.3420833333333334,-0.33425925925925926,2.1336999998092665],[0.29145833333333326,-0.31796296296296295,2.1505999999046352],[0.2516666666666666,-0.2992592592592593,2.1674000000953697],[0.2118750000000001,-0.28055555555555556,2.1869999999999976],[0.1553124999999999,-0.22685185185185186,2.203000000000003],[0.13125,-0.18481481481481485,2.2179000000953693],[0.1021874999999999,-0.12777777777777777,2.233799999713895],[0.08354166666666671,-0.07074074074074072,2.250400000095368],[0.06489583333333329,-0.013703703703703662,2.271000000000001],[0.05343749999999995,0.004814814814814857,2.290299999713895],[0.05343749999999995,0.004814814814814857,2.3004000000953653],[0.044375000000000026,0.025925925925925925,2.3170999999046344],[0.04468749999999998,0.06925925925925921,2.335099999904635],[0.036458333333333336,0.13185185185185194,2.352099999904631],[0.016666666666666666,0.15500000000000008,2.3669999999999973],[0.008020833333333382,0.14166666666666666,2.3836999998092665],[-0.024374999999999977,0.15907407407407403,2.4044000000953645],[-0.044062499999999956,0.1655555555555555,2.420099999904636],[-0.06375000000000004,0.172037037037037,2.4365000000000023],[-0.07885416666666671,0.12685185185185185,2.451900000095371],[-0.1234375,0.14814814814814814,2.467099999904633],[-0.16437499999999997,0.21388888888888888,2.4869000000953676],[-0.16437499999999997,0.21388888888888888,2.500400000095368],[-0.15895833333333337,0.22907407407407415,2.51709999990463],[-0.15458333333333332,0.2131481481481482,2.5355999999046333],[-0.13864583333333336,0.23666666666666658,2.5504000000953653],[-0.06697916666666662,0.20981481481481473,2.5674000000953683],[0.012083333333333357,0.1866666666666666,2.584400000095364],[0.012083333333333357,0.1866666666666666,2.6004000000953695],[0.06427083333333337,0.1853703703703704,2.6169999999999973],[0.12239583333333333,0.16796296296296304,2.637500000000003],[0.1759375000000001,0.2022222222222223,2.653400000095367],[0.23791666666666675,0.20833333333333334,2.6685000000000016],[0.31302083333333336,0.3050000000000001,2.687099999904632],[0.3770833333333333,0.40907407407407403,2.706299999713899],[0.3770833333333333,0.40907407407407403,2.717099999904633],[0.39989583333333345,0.3616666666666666,2.733699999809268],[0.4544791666666666,0.33851851851851844,2.752199999809264],[0.4357291666666666,0.33425925925925926,2.768799999713899],[0.42843749999999997,0.3322222222222222,2.783699999809265],[0.42843749999999997,0.3322222222222222,2.8004000000953653],[0.4515625,0.3135185185185184,2.8170999999046344],[0.4658333333333334,0.30333333333333323,2.8336999998092622],[0.4788541666666667,0.3037037037037037,2.8504000000953695],[0.49187500000000006,0.30407407407407416,2.8670999999046316],[0.5155208333333334,0.1881481481481482,2.887199999809262],[0.5155208333333334,0.1881481481481482,2.900500000000001],[0.5241666666666667,0.04407407407407399,2.917099999904636],[0.5663541666666667,0.052037037037037076,2.9357999997139004],[0.5715625000000001,0.06611111111111119,2.950400000095371],[0.6089583333333333,0.10999999999999996,2.9697999997138993],[0.6089583333333333,0.10999999999999996,2.983799999713895],[0.6275000000000001,0.1479629629629629,3.0005000000000024],[0.6526041666666667,0.1772222222222223,3.022599999904635],[0.6526041666666667,0.1772222222222223,3.0339000000953646],[0.6165625000000001,0.1685185185185185,3.0504999999999995],[0.5441666666666668,0.18259259259259264,3.0671999998092687],[0.4730208333333332,0.20685185185185193,3.0881999998092624],[0.3954166666666666,0.2168518518518519,3.1041999998092678],[0.3241666666666667,0.22555555555555548,3.120199999809266],[0.25593750000000004,0.2294444444444444,3.140199999809262],[0.25593750000000004,0.2294444444444444,3.1507999997138967],[0.19572916666666676,0.2205555555555556,3.1674000000953697],[0.19572916666666676,0.2205555555555556,3.1850000000000023],[0.15614583333333343,0.2322222222222222,3.204099999904635],[0.09718749999999995,0.21648148148148144,3.2195999999046307],[0.0013541666666666192,0.16148148148148156,3.2365999999046338],[0.0013541666666666192,0.16148148148148156,3.2505000000000024],[-0.01270833333333338,0.15,3.2709000000953665],[0.042604166666666644,0.1359259259259259,3.2871999998092676],[0.042604166666666644,0.1359259259259259,3.3004999999999995],[0.04802083333333336,0.12370370370370362,3.3171999998092687],[0.03250000000000005,0.10703703703703696,3.3370000000000033],[0.03250000000000005,0.10703703703703696,3.3506999998092653],[0.035625000000000046,0.09259259259259259,3.3672999997139],[0.07687499999999996,0.12888888888888894,3.390900000095371],[0.07687499999999996,0.12888888888888894,3.400500000000001],[0.07604166666666666,0.10703703703703696,3.417199999809263],[0.029062499999999977,0.06500000000000004,3.4339000000953703],[-0.003125,0.10870370370370379,3.45309999990463],[-0.003125,0.10870370370370379,3.4671999998092673],[0.024687500000000046,0.11092592592592589,3.4842999997138975],[0.024687500000000046,0.11092592592592589,3.5005999999046296],[0.04624999999999998,0.13518518518518519,3.5211999998092622],[0.04624999999999998,0.13518518518518519,3.534099999904633],[0.02510416666666669,0.1301851851851851,3.550599999904634],[0.02510416666666669,0.1301851851851851,3.5671999998092687],[0.03333333333333333,0.13240740740740742,3.5896999998092625],[0.03333333333333333,0.13240740740740742,3.600500000000004],[0.050833333333333286,0.0911111111111112,3.6189999999999998],[0.050833333333333286,0.0911111111111112,3.6395999999046325],[0.07583333333333328,0.12907407407407415,3.6505999999046352],[0.07583333333333328,0.12907407407407415,3.6672999997138973],[0.05427083333333336,0.09037037037037028,3.6840999999046318],[0.05427083333333336,0.09037037037037028,3.7054000000953664],[0.06479166666666672,0.10111111111111115,3.7172999997138945],[0.06479166666666672,0.10111111111111115,3.733799999713895],[0.10427083333333324,0.11092592592592589,3.7552999997138983],[0.10427083333333324,0.11092592592592589,3.7671999998092645],[0.1492708333333333,0.03685185185185181,3.784099999904633],[0.1492708333333333,0.03685185185185181,3.8004999999999995],[0.15166666666666656,0.046296296296296294,3.820900000095371],[0.15166666666666656,0.046296296296296294,3.8340999999046304],[0.14572916666666677,0.021481481481481525,3.8525999999046334],[0.15291666666666662,-0.007037037037036953,3.872400000095368],[0.13177083333333334,-0.0787037037037037,3.8876999998092643],[0.11291666666666676,-0.07888888888888893,3.9029000000953644],[0.07802083333333343,-0.13555555555555554,3.917199999809263],[0.0515625,-0.16629629629629633,3.9366999998092638],[0.0709374999999999,-0.2788888888888889,3.9506999998092667],[0.050520833333333334,-0.36277777777777775,3.9679000000953693],[0.022916666666666665,-0.4103703703703704,3.9871999998092633],[0.0014583333333333095,-0.47092592592592597,4.00359999990463],[0.014999999999999977,-0.52,4.020299999713899],[0.02635416666666662,-0.5668518518518519,4.035000000000004],[0.07156250000000004,-0.5551851851851852,4.0504999999999995],[0.07760416666666667,-0.6133333333333333,4.067],[0.08489583333333334,-0.645,4.0837999997138965],[0.08489583333333334,-0.645,4.100500000000004],[0.09343750000000005,-0.692037037037037,4.117099999904632],[0.09343750000000005,-0.692037037037037,4.1336999998092665],[0.06791666666666671,-0.6627777777777777,4.150400000095367],[0.0828125,-0.6068518518518519,4.167000000000002],[0.10260416666666666,-0.5855555555555555,4.183699999809264],[0.13229166666666667,-0.5790740740740741,4.20309999990463],[0.12385416666666677,-0.5698148148148148,4.216999999999999],[0.11739583333333338,-0.5837037037037037,4.233699999809268],[0.12468750000000005,-0.6322222222222221,4.250500000000002],[0.15958333333333338,-0.6388888888888888,4.267000000000003],[0.17802083333333343,-0.649074074074074,4.283699999809265],[0.19520833333333343,-0.6438888888888888,4.303199999809266],[0.2296875,-0.6307407407407408,4.317900000095371],[0.2537499999999999,-0.6677777777777778,4.333699999809262],[0.2537499999999999,-0.6677777777777778,4.350500000000004],[0.2773958333333333,-0.6862962962962963,4.367099999904632],[0.2530208333333334,-0.6840740740740741,4.3836999998092665],[0.2530208333333334,-0.6840740740740741,4.400299999713901],[0.2256249999999999,-0.6751851851851852,4.417199999809263],[0.2165625000000001,-0.6038888888888889,4.433699999809264],[0.23968749999999991,-0.5325925925925926,4.450400000095371],[0.25020833333333337,-0.4685185185185185,4.467099999904633],[0.25927083333333345,-0.4274074074074074,4.483699999809268],[0.25927083333333345,-0.4274074074074074,4.500400000095368],[0.2677083333333333,-0.3992592592592593,4.517000000000003],[0.25927083333333345,-0.3853703703703704,4.535199999809265],[0.2484375,-0.362962962962963,4.55440000009537],[0.2179166666666667,-0.33925925925925926,4.5685],[0.21989583333333323,-0.317037037037037,4.58409999990463],[0.24749999999999991,-0.27018518518518514,4.6007999997138995],[0.26687500000000003,-0.2601851851851852,4.616999999999997],[0.26416666666666655,-0.25166666666666665,4.634299999713896],[0.27072916666666674,-0.2542592592592593,4.650500000000001],[0.2924999999999999,-0.2524074074074074,4.667499999999997],[0.2908333333333334,-0.2518518518518518,4.683699999809264],[0.2908333333333334,-0.2518518518518518,4.700400000095371],[0.28187499999999993,-0.2551851851851852,4.717099999904633],[0.2833333333333333,-0.23055555555555557,4.733799999713895],[0.3077083333333334,-0.19907407407407407,4.750400000095368],[0.32541666666666674,-0.16833333333333328,4.767400000095371],[0.2819791666666667,-0.20703703703703705,4.783799999713899],[0.23624999999999996,-0.24407407407407408,4.804000000000002],[0.18166666666666675,-0.275,4.820999999999998],[0.12999999999999995,-0.30888888888888894,4.837199999809265],[0.06343749999999998,-0.3168518518518519,4.852699999809268],[0.020937500000000022,-0.31055555555555553,4.868599999904632],[0.0234375,-0.2559259259259259,4.8836999998092665],[0.018229166666666668,-0.2559259259259259,4.902699999809265],[0.006666666666666643,-0.2655555555555555,4.917299999713897],[-0.008541666666666715,-0.27907407407407403,4.93540000009537],[0.012812499999999952,-0.24814814814814815,4.950499999999998],[0.03875000000000005,-0.21203703703703702,4.9680000000000035],[0.06343749999999998,-0.18055555555555555,4.9842999997138975],[0.06270833333333338,-0.11370370370370367,5.0045],[0.07687499999999996,-0.0727777777777778,5.021699999809265],[0.07687499999999996,-0.0727777777777778,5.033900000095365],[0.11989583333333324,-0.005555555555555556,5.0502999997139],[0.14489583333333325,0.060370370370370414,5.067],[0.19541666666666657,0.16944444444444445,5.083699999809262],[0.24677083333333344,0.26185185185185184,5.102199999809265],[0.30583333333333323,0.3296296296296296,5.1172999997139],[0.36687500000000006,0.3911111111111112,5.133799999713901],[0.3507291666666667,0.42851851851851847,5.150400000095367],[0.34885416666666674,0.39574074074074084,5.167199999809263],[0.3734375,0.47388888888888886,5.183699999809264],[0.3980208333333332,0.5520370370370371,5.203400000095371],[0.3651041666666667,0.4524074074074073,5.217400000095367],[0.2964583333333332,0.3264814814814814,5.233699999809268],[0.25510416666666674,0.2064814814814815,5.2505999999046296],[0.18322916666666675,0.07462962962962955,5.267000000000003],[0.13937499999999994,0.061666666666666585,5.283699999809265],[0.10489583333333338,0.03166666666666671,5.302799999713898],[0.13322916666666676,0.01648148148148144,5.317699999809264],[0.15239583333333329,0.08481481481481473,5.335099999904635],[0.1912499999999999,-0.008333333333333333,5.362099999904636],[0.1912499999999999,-0.008333333333333333,5.3702999997139],[0.21541666666666662,-0.12999999999999998,5.383799999713901],[0.2375,-0.07370370370370373,5.402799999713899],[0.2634375000000001,0.06759259259259259,5.418400000095367],[0.2634375000000001,0.06759259259259259,5.433699999809264],[0.2681250000000001,0.0816666666666667,5.450400000095371],[0.2598958333333333,0.20962962962962972,5.466999999999999],[0.26281249999999995,0.17685185185185184,5.488099999904634],[0.26281249999999995,0.17685185185185184,5.500299999713896],[0.25635416666666655,0.16111111111111112,5.51709999990463],[0.23989583333333328,0.225,5.533699999809265],[0.22354166666666658,0.1925925925925926,5.552],[0.20760416666666662,0.17314814814814813,5.568699999809269],[0.21531250000000005,0.16833333333333328,5.58559999990463],[0.24958333333333324,0.15611111111111103,5.6055999999046335],[0.2682291666666667,0.03333333333333333,5.620900000095368],[0.23937499999999995,0.03333333333333333,5.636900000095366],[0.2612499999999999,-0.05240740740740743,5.650799999713897],[0.24770833333333328,-0.06185185185185181,5.667000000000002],[0.24770833333333328,-0.06185185185185181,5.683799999713898],[0.23687500000000009,0.008333333333333333,5.700400000095371],[0.23687500000000009,0.008333333333333333,5.717099999904633],[0.23718750000000005,-0.06592592592592597,5.733699999809268],[0.23718750000000005,-0.06592592592592597,5.750400000095368],[0.24874999999999994,-0.0668518518518519,5.76709999990463],[0.24874999999999994,-0.0668518518518519,5.783900000095365],[0.2328125,-0.059814814814814835,5.8004999999999995],[0.2328125,-0.059814814814814835,5.818199999809266],[0.2021874999999999,-0.024814814814814772,5.833699999809262],[0.2021874999999999,-0.024814814814814772,5.8504000000953695],[0.17468750000000005,0.01574074074074074,5.866999999999997],[0.1703125,0.03592592592592588,5.883799999713901],[0.1806250000000001,0.025,5.903400000095367],[0.21395833333333342,0.03592592592592588,5.920099999904636],[0.24729166666666677,0.04685185185185177,5.937199999809266],[0.2663541666666667,-0.01518518518518527,5.950900000095366],[0.2842708333333334,-0.012407407407407492,5.969599999904631],[0.2842708333333334,-0.012407407407407492,5.983699999809268],[0.26322916666666674,-0.026666666666666623,6.000500000000002],[0.24927083333333327,-0.01722222222222214,6.019599999904635],[0.24104166666666677,-0.021851851851851768,6.0367999997138995],[0.2621875000000001,-0.04814814814814815,6.050599999904634],[0.2705208333333334,-0.06925925925925921,6.067299999713896],[0.25020833333333337,-0.10722222222222218,6.087000000000003],[0.22854166666666675,-0.13092592592592592,6.10490000009537],[0.23875000000000005,-0.12925925925925927,6.1207999997138955],[0.2196875000000001,-0.1427777777777778,6.13759999990463],[0.2033333333333334,-0.17481481481481478,6.158500000000004],[0.2033333333333334,-0.17481481481481478,6.167099999904636],[0.20510416666666675,-0.20111111111111116,6.183699999809264],[0.21479166666666671,-0.20722222222222217,6.202799999713896],[0.22447916666666667,-0.21333333333333332,6.216999999999999],[0.1875,-0.27462962962962967,6.2364999999999995],[0.16302083333333334,-0.30907407407407406,6.250699999809264],[0.1671875,-0.3266666666666666,6.2790000000000035],[0.1671875,-0.3266666666666666,6.286099999904636],[0.12572916666666673,-0.37962962962962965,6.300400000095365],[0.06739583333333338,-0.4581481481481481,6.317],[0.06739583333333338,-0.4581481481481481,6.333699999809262],[0.06145833333333333,-0.5162962962962964,6.350500000000004],[0.03270833333333331,-0.5625925925925926,6.3702999997139],[0.020729166666666642,-0.5787037037037037,6.388299999713901],[-0.01572916666666669,-0.6074074074074074,6.4040000000000035],[-0.0203125,-0.6262962962962962,6.418400000095367],[-0.007604166666666619,-0.6212962962962963,6.4342999997139],[0.024166666666666715,-0.5992592592592593,6.452199999809267],[0.0328125,-0.5911111111111111,6.4672999997138945],[0.0678124999999999,-0.5755555555555556,6.488199999809268],[0.0678124999999999,-0.5755555555555556,6.500400000095368]]","[0.00019999980926854732,0.05250000000000199,0.0694999999999979,0.08379999971389651,0.10050000000000381,0.11719999980926588,0.13649999999999807,0.15050000000000097,0.16709999990463587,0.18379999971389793,0.20219999980926673,0.2171999998092673,0.2337999997138951,0.25059999990462956,0.2670999999046302,0.28379999971389935,0.30449999999999733,0.3177999997138983,0.33369999980926224,0.3505000000000038,0.3670999999046316,0.3837999997139008,0.40190000009536675,0.41709999990463587,0.43379999971389793,0.4504999999999981,0.46869999980926735,0.4837999997138951,0.5044000000953659,0.5186999998092645,0.5364000000953695,0.5520999999046339,0.5704000000953684,0.5850999999046351,0.6005000000000038,0.6171999998092659,0.6337999997139008,0.6504000000953667,0.6676999998092654,0.6837999997138979,0.7004999999999981,0.7190999999046355,0.7336999998092679,0.7504000000953681,0.7670999999046302,0.7841999998092675,0.8005999999046338,0.8170999999046344,0.8337999997138965,0.8512999997138948,0.8704999999999998,0.8859000000953685,0.9026999998092649,0.9170999999046359,0.934900000095368,0.9504999999999981,0.9671999998092673,0.9845999999046313,1.0016999998092686,1.0170999999046302,1.033699999809265,1.0504000000953653,1.0670999999046344,1.0837999997138965,1.1019000000953696,1.1170999999046316,1.134299999713896,1.1504000000953667,1.1670999999046359,1.1850000000000023,1.203400000095371,1.2174000000953669,1.233799999713895,1.2505999999046296,1.2670999999046302,1.2845999999046356,1.30290000009537,1.3174000000953683,1.3340000000000032,1.3504000000953695,1.3684999999999974,1.383900000095366,1.4004000000953667,1.4170999999046359,1.433799999713898,1.4504999999999981,1.467099999904633,1.483799999713895,1.5004000000953681,1.517000000000003,1.5337999997138994,1.5504000000953653,1.5670999999046344,1.583900000095369,1.600599999904631,1.6171999998092659,1.6337999997139008,1.6504000000953667,1.6692999997138998,1.6846999998092684,1.703799999713901,1.7176999998092626,1.7379999999999995,1.7541999998092663,1.7702999997138988,1.7879000000953695,1.8042999997138978,1.8201999998092688,1.836500000000001,1.8504000000953695,1.8670999999046316,1.8870999999046347,1.9037999997138968,1.9196999998092679,1.9346999998092684,1.9525000000000006,1.9671999998092673,1.983799999713895,2.0050000000000026,2.0211999998092622,2.0367999997138995,2.051099999904636,2.0712999997139008,2.0889999999999986,2.1004000000953695,2.1170999999046316,2.1336999998092665,2.1505999999046352,2.1674000000953697,2.1869999999999976,2.203000000000003,2.2179000000953693,2.233799999713895,2.250400000095368,2.271000000000001,2.290299999713895,2.3004000000953653,2.3170999999046344,2.335099999904635,2.352099999904631,2.3669999999999973,2.3836999998092665,2.4044000000953645,2.420099999904636,2.4365000000000023,2.451900000095371,2.467099999904633,2.4869000000953676,2.500400000095368,2.51709999990463,2.5355999999046333,2.5504000000953653,2.5674000000953683,2.584400000095364,2.6004000000953695,2.6169999999999973,2.637500000000003,2.653400000095367,2.6685000000000016,2.687099999904632,2.706299999713899,2.717099999904633,2.733699999809268,2.752199999809264,2.768799999713899,2.783699999809265,2.8004000000953653,2.8170999999046344,2.8336999998092622,2.8504000000953695,2.8670999999046316,2.887199999809262,2.900500000000001,2.917099999904636,2.9357999997139004,2.950400000095371,2.9697999997138993,2.983799999713895,3.0005000000000024,3.022599999904635,3.0339000000953646,3.0504999999999995,3.0671999998092687,3.0881999998092624,3.1041999998092678,3.120199999809266,3.140199999809262,3.1507999997138967,3.1674000000953697,3.1850000000000023,3.204099999904635,3.2195999999046307,3.2365999999046338,3.2505000000000024,3.2709000000953665,3.2871999998092676,3.3004999999999995,3.3171999998092687,3.3370000000000033,3.3506999998092653,3.3672999997139,3.390900000095371,3.400500000000001,3.417199999809263,3.4339000000953703,3.45309999990463,3.4671999998092673,3.4842999997138975,3.5005999999046296,3.5211999998092622,3.534099999904633,3.550599999904634,3.5671999998092687,3.5896999998092625,3.600500000000004,3.6189999999999998,3.6395999999046325,3.6505999999046352,3.6672999997138973,3.6840999999046318,3.7054000000953664,3.7172999997138945,3.733799999713895,3.7552999997138983,3.7671999998092645,3.784099999904633,3.8004999999999995,3.820900000095371,3.8340999999046304,3.8525999999046334,3.872400000095368,3.8876999998092643,3.9029000000953644,3.917199999809263,3.9366999998092638,3.9506999998092667,3.9679000000953693,3.9871999998092633,4.00359999990463,4.020299999713899,4.035000000000004,4.0504999999999995,4.067,4.0837999997138965,4.100500000000004,4.117099999904632,4.1336999998092665,4.150400000095367,4.167000000000002,4.183699999809264,4.20309999990463,4.216999999999999,4.233699999809268,4.250500000000002,4.267000000000003,4.283699999809265,4.303199999809266,4.317900000095371,4.333699999809262,4.350500000000004,4.367099999904632,4.3836999998092665,4.400299999713901,4.417199999809263,4.433699999809264,4.450400000095371,4.467099999904633,4.483699999809268,4.500400000095368,4.517000000000003,4.535199999809265,4.55440000009537,4.5685,4.58409999990463,4.6007999997138995,4.616999999999997,4.634299999713896,4.650500000000001,4.667499999999997,4.683699999809264,4.700400000095371,4.717099999904633,4.733799999713895,4.750400000095368,4.767400000095371,4.783799999713899,4.804000000000002,4.820999999999998,4.837199999809265,4.852699999809268,4.868599999904632,4.8836999998092665,4.902699999809265,4.917299999713897,4.93540000009537,4.950499999999998,4.9680000000000035,4.9842999997138975,5.0045,5.021699999809265,5.033900000095365,5.0502999997139,5.067,5.083699999809262,5.102199999809265,5.1172999997139,5.133799999713901,5.150400000095367,5.167199999809263,5.183699999809264,5.203400000095371,5.217400000095367,5.233699999809268,5.2505999999046296,5.267000000000003,5.283699999809265,5.302799999713898,5.317699999809264,5.335099999904635,5.362099999904636,5.3702999997139,5.383799999713901,5.402799999713899,5.418400000095367,5.433699999809264,5.450400000095371,5.466999999999999,5.488099999904634,5.500299999713896,5.51709999990463,5.533699999809265,5.552,5.568699999809269,5.58559999990463,5.6055999999046335,5.620900000095368,5.636900000095366,5.650799999713897,5.667000000000002,5.683799999713898,5.700400000095371,5.717099999904633,5.733699999809268,5.750400000095368,5.76709999990463,5.783900000095365,5.8004999999999995,5.818199999809266,5.833699999809262,5.8504000000953695,5.866999999999997,5.883799999713901,5.903400000095367,5.920099999904636,5.937199999809266,5.950900000095366,5.969599999904631,5.983699999809268,6.000500000000002,6.019599999904635,6.0367999997138995,6.050599999904634,6.067299999713896,6.087000000000003,6.10490000009537,6.1207999997138955,6.13759999990463,6.158500000000004,6.167099999904636,6.183699999809264,6.202799999713896,6.216999999999999,6.2364999999999995,6.250699999809264,6.2790000000000035,6.286099999904636,6.300400000095365,6.317,6.333699999809262,6.350500000000004,6.3702999997139,6.388299999713901,6.4040000000000035,6.418400000095367,6.4342999997139,6.452199999809267,6.4672999997138945,6.488199999809268,6.500400000095368]","[1732158060285,1732158060325,1732158060343,1732158060357,1732158060373,1732158060390,1732158060410,1732158060424,1732158060440,1732158060457,1732158060475,1732158060490,1732158060507,1732158060524,1732158060540,1732158060557,1732158060578,1732158060591,1732158060607,1732158060623,1732158060640,1732158060657,1732158060675,1732158060690,1732158060707,1732158060723,1732158060742,1732158060757,1732158060777,1732158060792,1732158060809,1732158060825,1732158060843,1732158060858,1732158060874,1732158060890,1732158060907,1732158060923,1732158060941,1732158060957,1732158060973,1732158060992,1732158061007,1732158061023,1732158061040,1732158061057,1732158061074,1732158061090,1732158061107,1732158061124,1732158061143,1732158061159,1732158061176,1732158061190,1732158061208,1732158061223,1732158061240,1732158061258,1732158061275,1732158061290,1732158061307,1732158061323,1732158061340,1732158061357,1732158061375,1732158061390,1732158061407,1732158061423,1732158061440,1732158061458,1732158061476,1732158061490,1732158061507,1732158061524,1732158061540,1732158061558,1732158061576,1732158061590,1732158061607,1732158061623,1732158061641,1732158061657,1732158061673,1732158061690,1732158061707,1732158061723,1732158061740,1732158061757,1732158061773,1732158061790,1732158061807,1732158061823,1732158061840,1732158061857,1732158061874,1732158061890,1732158061907,1732158061923,1732158061942,1732158061958,1732158061977,1732158061991,1732158062011,1732158062027,1732158062043,1732158062061,1732158062077,1732158062093,1732158062109,1732158062123,1732158062140,1732158062160,1732158062177,1732158062193,1732158062208,1732158062225,1732158062240,1732158062257,1732158062278,1732158062294,1732158062310,1732158062324,1732158062344,1732158062362,1732158062373,1732158062390,1732158062407,1732158062424,1732158062440,1732158062460,1732158062476,1732158062491,1732158062507,1732158062523,1732158062544,1732158062563,1732158062573,1732158062590,1732158062608,1732158062625,1732158062640,1732158062657,1732158062677,1732158062693,1732158062710,1732158062725,1732158062740,1732158062760,1732158062773,1732158062790,1732158062809,1732158062823,1732158062840,1732158062857,1732158062873,1732158062890,1732158062911,1732158062926,1732158062941,1732158062960,1732158062979,1732158062990,1732158063007,1732158063025,1732158063042,1732158063057,1732158063073,1732158063090,1732158063107,1732158063123,1732158063140,1732158063160,1732158063173,1732158063190,1732158063209,1732158063223,1732158063243,1732158063257,1732158063273,1732158063296,1732158063307,1732158063324,1732158063340,1732158063361,1732158063377,1732158063393,1732158063413,1732158063424,1732158063440,1732158063458,1732158063477,1732158063492,1732158063510,1732158063523,1732158063544,1732158063560,1732158063573,1732158063590,1732158063610,1732158063624,1732158063640,1732158063664,1732158063673,1732158063690,1732158063707,1732158063726,1732158063740,1732158063757,1732158063774,1732158063794,1732158063807,1732158063824,1732158063840,1732158063863,1732158063873,1732158063892,1732158063913,1732158063924,1732158063940,1732158063957,1732158063978,1732158063990,1732158064007,1732158064028,1732158064040,1732158064057,1732158064074,1732158064094,1732158064107,1732158064126,1732158064145,1732158064161,1732158064176,1732158064190,1732158064210,1732158064224,1732158064241,1732158064260,1732158064277,1732158064293,1732158064308,1732158064323,1732158064340,1732158064357,1732158064373,1732158064390,1732158064407,1732158064423,1732158064440,1732158064457,1732158064476,1732158064490,1732158064507,1732158064523,1732158064540,1732158064557,1732158064576,1732158064591,1732158064607,1732158064623,1732158064640,1732158064657,1732158064673,1732158064690,1732158064707,1732158064723,1732158064740,1732158064757,1732158064773,1732158064790,1732158064808,1732158064827,1732158064841,1732158064857,1732158064874,1732158064890,1732158064907,1732158064923,1732158064941,1732158064957,1732158064973,1732158064990,1732158065007,1732158065023,1732158065040,1732158065057,1732158065077,1732158065094,1732158065110,1732158065126,1732158065142,1732158065157,1732158065176,1732158065190,1732158065208,1732158065223,1732158065241,1732158065257,1732158065277,1732158065295,1732158065307,1732158065323,1732158065340,1732158065357,1732158065375,1732158065390,1732158065407,1732158065423,1732158065440,1732158065457,1732158065476,1732158065490,1732158065507,1732158065523,1732158065540,1732158065557,1732158065576,1732158065591,1732158065608,1732158065635,1732158065643,1732158065657,1732158065676,1732158065691,1732158065707,1732158065723,1732158065740,1732158065761,1732158065773,1732158065790,1732158065807,1732158065825,1732158065842,1732158065859,1732158065879,1732158065894,1732158065910,1732158065924,1732158065940,1732158065957,1732158065973,1732158065990,1732158066007,1732158066023,1732158066040,1732158066057,1732158066074,1732158066091,1732158066107,1732158066123,1732158066140,1732158066157,1732158066176,1732158066193,1732158066210,1732158066224,1732158066243,1732158066257,1732158066274,1732158066293,1732158066310,1732158066324,1732158066340,1732158066360,1732158066378,1732158066394,1732158066411,1732158066432,1732158066440,1732158066457,1732158066476,1732158066490,1732158066509,1732158066524,1732158066552,1732158066559,1732158066573,1732158066590,1732158066607,1732158066623,1732158066643,1732158066661,1732158066677,1732158066691,1732158066707,1732158066725,1732158066740,1732158066761,1732158066773]","[[999.4,472.8],[999.4,472.8],[993.3,474.6],[993.3,474.6],[970.2,478.9],[932.7,483.9],[935.6,465.4],[935.6,465.4],[965.4,455.5],[977.5,454.1],[1024.3,485.8],[1084.3,504.8],[1120.9,495.9],[1153.5,515.5],[1189.3,501.2],[1217.7,481.4],[1263.2,452.7],[1278.4,448.8],[1261.7,443.1],[1260.6,441.9],[1256.7,415.8],[1235.6,398],[1222.2,394.1],[1214.2,404.7],[1234.8,415.2],[1248.1,439.5],[1259.2,468.5],[1271.1,477.9],[1246.6,484.9],[1223.8,485.7],[1202.7,495.3],[1185.6,509.3],[1204.8,549.5],[1218.6,575.2],[1218.6,575.2],[1211.3,578.9],[1232.5,567.5],[1253.7,556.1],[1264,563],[1264,563],[1286.3,579.4],[1307.4,577.6],[1346.4,584.3],[1337.1,575.2],[1291.5,539.9],[1278.6,496.8],[1266.2,474.2],[1196.7,455.4],[1141.6,425.2],[1075.7,410.3],[1047.2,369.3],[1050.6,384],[1035.2,379.7],[1062.2,367],[1108.6,387.6],[1108.6,387.6],[1122.3,416],[1119.8,436.9],[1119.8,436.9],[1152.5,450.6],[1152.5,450.6],[1156.8,467.2],[1175.7,479.7],[1194.2,523.4],[1195.8,517.7],[1198.6,515.8],[1207,532.4],[1204,513.9],[1201,495.4],[1184.1,482.5],[1200.9,473.1],[1242.2,472.9],[1288.1,471.8],[1311.2,467.9],[1312.8,478.8],[1304.4,483.1],[1294.6,475.5],[1286.2,468.5],[1295.9,472.9],[1335.7,479.2],[1342.2,476.5],[1338.2,473.1],[1338.2,473.1],[1331.6,463.8],[1285,466.1],[1259.7,466.4],[1259.7,466.4],[1242.4,471.2],[1242.4,471.2],[1271.7,501.9],[1271.7,501.9],[1276.3,517.1],[1276.3,517.1],[1260.3,525.8],[1260.3,525.8],[1202.3,546.4],[1202.3,546.4],[1146.6,597.3],[1076.9,628.3],[1017.3,661.5],[1013.1,672.5],[1010,690],[1030.5,701.3],[1006.1,704.3],[985.7,701.7],[967.8,694.2],[1003,669],[1048.2,627.6],[1048.2,627.6],[1131.6,610.2],[1195.3,585.3],[1225,549.7],[1240,506.7],[1250,468.1],[1260,429.5],[1284.6,420.6],[1284.6,420.6],[1309.2,411.7],[1321.1,410.3],[1324.6,398.6],[1303.9,382.8],[1277,367.9],[1278.9,364.9],[1294.1,362],[1294.1,362],[1288.4,359.5],[1288.4,359.5],[1239.8,368.3],[1201.6,378.4],[1163.4,388.5],[1109.1,417.5],[1086,440.2],[1058.1,471],[1040.2,501.8],[1022.3,532.6],[1011.3,542.6],[1011.3,542.6],[1002.6,554],[1002.9,577.4],[995,611.2],[976,623.7],[967.7,616.5],[936.6,625.9],[917.7,629.4],[898.8,632.9],[884.3,608.5],[841.5,620],[802.2,655.5],[802.2,655.5],[807.4,663.7],[811.6,655.1],[826.9,667.8],[895.7,653.3],[971.6,640.8],[971.6,640.8],[1021.7,640.1],[1077.5,630.7],[1128.9,649.2],[1188.4,652.5],[1260.5,704.7],[1322,760.9],[1322,760.9],[1343.9,735.3],[1396.3,722.8],[1378.3,720.5],[1371.3,719.4],[1371.3,719.4],[1393.5,709.3],[1407.2,703.8],[1419.7,704],[1432.2,704.2],[1454.9,641.6],[1454.9,641.6],[1463.2,563.8],[1503.7,568.1],[1508.7,575.7],[1544.6,599.4],[1544.6,599.4],[1562.4,619.9],[1586.5,635.7],[1586.5,635.7],[1551.9,631],[1482.4,638.6],[1414.1,651.7],[1339.6,657.1],[1271.2,661.8],[1205.7,663.9],[1205.7,663.9],[1147.9,659.1],[1147.9,659.1],[1109.9,665.4],[1053.3,656.9],[961.3,627.2],[961.3,627.2],[947.8,621],[1000.9,613.4],[1000.9,613.4],[1006.1,606.8],[991.2,597.8],[991.2,597.8],[994.2,590],[1033.8,609.6],[1033.8,609.6],[1033,597.8],[987.9,575.1],[957,598.7],[957,598.7],[983.7,599.9],[983.7,599.9],[1004.4,613],[1004.4,613],[984.1,610.3],[984.1,610.3],[992,611.5],[992,611.5],[1008.8,589.2],[1008.8,589.2],[1032.8,609.7],[1032.8,609.7],[1012.1,588.8],[1012.1,588.8],[1022.2,594.6],[1022.2,594.6],[1060.1,599.9],[1060.1,599.9],[1103.3,559.9],[1103.3,559.9],[1105.6,565],[1105.6,565],[1099.9,551.6],[1106.8,536.2],[1086.5,497.5],[1068.4,497.4],[1034.9,466.8],[1009.5,450.2],[1028.1,389.4],[1008.5,344.1],[982,318.4],[961.4,285.7],[974.4,259.2],[985.3,233.9],[1028.7,240.2],[1034.5,208.8],[1041.5,191.7],[1041.5,191.7],[1049.7,166.3],[1049.7,166.3],[1025.2,182.1],[1039.5,212.3],[1058.5,223.8],[1087,227.3],[1078.9,232.3],[1072.7,224.8],[1079.7,198.6],[1113.2,195],[1130.9,189.5],[1147.4,192.3],[1180.5,199.4],[1203.6,179.4],[1203.6,179.4],[1226.3,169.4],[1202.9,170.6],[1202.9,170.6],[1176.6,175.4],[1167.9,213.9],[1190.1,252.4],[1200.2,287],[1208.9,309.2],[1208.9,309.2],[1217,324.4],[1208.9,331.9],[1198.5,344],[1169.2,356.8],[1171.1,368.8],[1197.6,394.1],[1216.2,399.5],[1213.6,404.1],[1219.9,402.7],[1240.8,403.7],[1239.2,404],[1239.2,404],[1230.6,402.2],[1232,415.5],[1255.4,432.5],[1272.4,449.1],[1230.7,428.2],[1186.8,408.2],[1134.4,391.5],[1084.8,373.2],[1020.9,368.9],[980.1,372.3],[982.5,401.8],[977.5,401.8],[966.4,396.6],[951.8,389.3],[972.3,406],[997.2,425.5],[1020.9,442.5],[1020.2,478.6],[1033.8,500.7],[1033.8,500.7],[1075.1,537],[1099.1,572.6],[1147.6,631.5],[1196.9,681.4],[1253.6,718],[1312.2,751.2],[1296.7,771.4],[1294.9,753.7],[1318.5,795.9],[1342.1,838.1],[1310.5,784.3],[1244.6,716.3],[1204.9,651.5],[1135.9,580.3],[1093.8,573.3],[1060.7,557.1],[1087.9,548.9],[1106.3,585.8],[1143.6,535.5],[1143.6,535.5],[1166.8,469.8],[1188,500.2],[1212.9,576.5],[1212.9,576.5],[1217.4,584.1],[1209.5,653.2],[1212.3,635.5],[1212.3,635.5],[1206.1,627],[1190.3,661.5],[1174.6,644],[1159.3,633.5],[1166.7,630.9],[1199.6,624.3],[1217.5,558],[1189.8,558],[1210.8,511.7],[1197.8,506.6],[1197.8,506.6],[1187.4,544.5],[1187.4,544.5],[1187.7,504.4],[1187.7,504.4],[1198.8,503.9],[1198.8,503.9],[1183.5,507.7],[1183.5,507.7],[1154.1,526.6],[1154.1,526.6],[1127.7,548.5],[1123.5,559.4],[1133.4,553.5],[1165.4,559.4],[1197.4,565.3],[1215.7,531.8],[1232.9,533.3],[1232.9,533.3],[1212.7,525.6],[1199.3,530.7],[1191.4,528.2],[1211.7,514],[1219.7,502.6],[1200.2,482.1],[1179.4,469.3],[1189.2,470.2],[1170.9,462.9],[1155.2,445.6],[1155.2,445.6],[1156.9,431.4],[1166.2,428.1],[1175.5,424.8],[1140,391.7],[1116.5,373.1],[1120.5,363.6],[1120.5,363.6],[1080.7,335],[1024.7,292.6],[1024.7,292.6],[1019,261.2],[991.4,236.2],[979.9,227.5],[944.9,212],[940.5,201.8],[952.7,204.5],[983.2,216.4],[991.5,220.8],[1025.1,229.2],[1025.1,229.2]]","[-0.132282,0.39684600000000003]","[0.132282,0.39684600000000003]","[0.39684600000000003,0.39684600000000003]","[-0.39684600000000003,-0.39684600000000003]","[-0.39684600000000003,0.132282]","[-0.39684600000000003,-0.132282]","[-0.132282,-0.39684600000000003]","[0.132282,-0.39684600000000003]","[0.39684600000000003,-0.39684600000000003]","[-0.132282,0.132282]","[0.132282,0.132282]","[0.39684600000000003,0.132282]","[-0.132282,-0.132282]","[0.132282,-0.132282]","[0.39684600000000003,-0.132282]",0,0,0,0,1,3,Tablet,25,40,9,1,50,4,1,60,5
