inst1_resp.keys,inst1_resp.rt,calibrationMouse.x,calibrationMouse.y,calibrationMouse.leftButton,calibrationMouse.midButton,calibrationMouse.rightButton,calibrationClick.x,calibrationClick.y,calibrationClick.leftButton,calibrationClick.midButton,calibrationClick.rightButton,calibrationClick.clicked_name,trialsc.thisRepN,trialsc.thisTrialN,trialsc.thisN,trialsc.thisIndex,trialsc.ran,calibration_x,calibration_y,participant,session,date,expName,psychopyVersion,OS,frameRate,ScreenRes_pixels,mouse_2.x,mouse_2.y,mouse_2.leftButton,mouse_2.midButton,mouse_2.rightButton,mouse_2.time,mouse_2.clicked_name,Camera_pixels,mouse.x,mouse.y,mouse.leftButton,mouse.midButton,mouse.rightButton,mouse.time,mouse.clicked_name,Choice,Trial,TrialDuration,MOUSE_GAZE,ET_GAZE,ET_GAZE_x_T,time,unixTime,ET_GAZE_NF,Loc_Bus_label,Loc_Metro_label,Loc_RH_label,Loc_Cost_label,Loc_Travel_label,Loc_Comfort_label,Loc_Bus_cost,Loc_Metro_cost,Loc_RH_cost,Loc_Bus_travel,Loc_Metro_travel,Loc_RH_travel,Loc_Bus_comfort,Loc_Metro_comfort,Loc_RH_comfort,trials.thisRepN,trials.thisTrialN,trials.thisN,trials.thisIndex,trials.ran,Block,Device,RH_cost,RH_travel_time,RH_Comfort,metro_cost,metro_travel_time,metro_Comfort,Bus_cost,Bus_travel_time,Bus_Comfort
space,2.8401,0.195833333,0.088888889,1,0,0,0.3375,-0.003703704,1,0,0,calibration_square,0,0,0,16,1,0.33,0,17,001,2024-11-21_12h02.26.490,Attention_exp_legacy,2023.1.0,Win32,60.24096386,,,,,,,,,,,,,,,,,,,,,,,,,,,,,,,,,,,,,,,,,,,,,,,,,,,,,,,,
,,,,,,,0.672916667,0.677777778,1,0,0,calibration_square,0,1,1,19,1,0.67,0.67,17,001,2024-11-21_12h02.26.490,Attention_exp_legacy,2023.1.0,Win32,60.24096386,,,,,,,,,,,,,,,,,,,,,,,,,,,,,,,,,,,,,,,,,,,,,,,,,,,,,,,,
,,,,,,,0.339583333,0.672222222,1,0,0,calibration_square,0,2,2,18,1,0.33,0.67,17,001,2024-11-21_12h02.26.490,Attention_exp_legacy,2023.1.0,Win32,60.24096386,,,,,,,,,,,,,,,,,,,,,,,,,,,,,,,,,,,,,,,,,,,,,,,,,,,,,,,,
,,,,,,,-0.326041667,-0.338888889,1,0,0,calibration_square,0,3,3,5,1,-0.33,-0.33,17,001,2024-11-21_12h02.26.490,Attention_exp_legacy,2023.1.0,Win32,60.24096386,,,,,,,,,,,,,,,,,,,,,,,,,,,,,,,,,,,,,,,,,,,,,,,,,,,,,,,,
,,,,,,,-0.671875,0.322222222,1,0,0,calibration_square,0,4,4,3,1,-0.67,0.33,17,001,2024-11-21_12h02.26.490,Attention_exp_legacy,2023.1.0,Win32,60.24096386,,,,,,,,,,,,,,,,,,,,,,,,,,,,,,,,,,,,,,,,,,,,,,,,,,,,,,,,
,,,,,,,-0.011458333,0.675925926,1,0,0,,0,5,5,13,1,0,0.67,17,001,2024-11-21_12h02.26.490,Attention_exp_legacy,2023.1.0,Win32,60.24096386,,,,,,,,,,,,,,,,,,,,,,,,,,,,,,,,,,,,,,,,,,,,,,,,,,,,,,,,
,,,,,,,-0.003125,0.009259259,1,0,0,calibration_square,0,6,6,11,1,0,0,17,001,2024-11-21_12h02.26.490,Attention_exp_legacy,2023.1.0,Win32,60.24096386,,,,,,,,,,,,,,,,,,,,,,,,,,,,,,,,,,,,,,,,,,,,,,,,,,,,,,,,
,,,,,,,-0.010416667,-0.337037037,1,0,0,,0,7,7,10,1,0,-0.33,17,001,2024-11-21_12h02.26.490,Attention_exp_legacy,2023.1.0,Win32,60.24096386,,,,,,,,,,,,,,,,,,,,,,,,,,,,,,,,,,,,,,,,,,,,,,,,,,,,,,,,
,,,,,,,-0.664583333,-0.672222222,1,0,0,calibration_square,0,8,8,0,1,-0.67,-0.67,17,001,2024-11-21_12h02.26.490,Attention_exp_legacy,2023.1.0,Win32,60.24096386,,,,,,,,,,,,,,,,,,,,,,,,,,,,,,,,,,,,,,,,,,,,,,,,,,,,,,,,
,,,,,,,0.002083333,0.311111111,1,0,0,,0,9,9,12,1,0,0.33,17,001,2024-11-21_12h02.26.490,Attention_exp_legacy,2023.1.0,Win32,60.24096386,,,,,,,,,,,,,,,,,,,,,,,,,,,,,,,,,,,,,,,,,,,,,,,,,,,,,,,,
,,,,,,,-0.328125,-0.653703704,1,0,0,,0,10,10,4,1,-0.33,-0.67,17,001,2024-11-21_12h02.26.490,Attention_exp_legacy,2023.1.0,Win32,60.24096386,,,,,,,,,,,,,,,,,,,,,,,,,,,,,,,,,,,,,,,,,,,,,,,,,,,,,,,,
,,,,,,,-0.308333333,0.337037037,1,0,0,,0,11,11,7,1,-0.33,0.33,17,001,2024-11-21_12h02.26.490,Attention_exp_legacy,2023.1.0,Win32,60.24096386,,,,,,,,,,,,,,,,,,,,,,,,,,,,,,,,,,,,,,,,,,,,,,,,,,,,,,,,
,,,,,,,-0.671875,-0.005555556,1,0,0,calibration_square,0,12,12,2,1,-0.67,0,17,001,2024-11-21_12h02.26.490,Attention_exp_legacy,2023.1.0,Win32,60.24096386,,,,,,,,,,,,,,,,,,,,,,,,,,,,,,,,,,,,,,,,,,,,,,,,,,,,,,,,
,,,,,,,-0.664583333,-0.338888889,1,0,0,calibration_square,0,13,13,1,1,-0.67,-0.33,17,001,2024-11-21_12h02.26.490,Attention_exp_legacy,2023.1.0,Win32,60.24096386,,,,,,,,,,,,,,,,,,,,,,,,,,,,,,,,,,,,,,,,,,,,,,,,,,,,,,,,
,,,,,,,0.344791667,-0.661111111,1,0,0,,0,14,14,14,1,0.33,-0.67,17,001,2024-11-21_12h02.26.490,Attention_exp_legacy,2023.1.0,Win32,60.24096386,,,,,,,,,,,,,,,,,,,,,,,,,,,,,,,,,,,,,,,,,,,,,,,,,,,,,,,,
,,,,,,,0.323958333,0.337037037,1,0,0,calibration_square,0,15,15,17,1,0.33,0.33,17,001,2024-11-21_12h02.26.490,Attention_exp_legacy,2023.1.0,Win32,60.24096386,,,,,,,,,,,,,,,,,,,,,,,,,,,,,,,,,,,,,,,,,,,,,,,,,,,,,,,,
,,,,,,,-0.338541667,0.666666667,1,0,0,calibration_square,0,16,16,8,1,-0.33,0.67,17,001,2024-11-21_12h02.26.490,Attention_exp_legacy,2023.1.0,Win32,60.24096386,,,,,,,,,,,,,,,,,,,,,,,,,,,,,,,,,,,,,,,,,,,,,,,,,,,,,,,,
,,,,,,,0.329166667,-0.335185185,1,0,0,calibration_square,0,17,17,15,1,0.33,-0.33,17,001,2024-11-21_12h02.26.490,Attention_exp_legacy,2023.1.0,Win32,60.24096386,,,,,,,,,,,,,,,,,,,,,,,,,,,,,,,,,,,,,,,,,,,,,,,,,,,,,,,,
,,,,,,,0.6625,-0.677777778,1,0,0,calibration_square,0,18,18,20,1,0.67,-0.67,17,001,2024-11-21_12h02.26.490,Attention_exp_legacy,2023.1.0,Win32,60.24096386,,,,,,,,,,,,,,,,,,,,,,,,,,,,,,,,,,,,,,,,,,,,,,,,,,,,,,,,
,,,,,,,0.004166667,-0.674074074,1,0,0,calibration_square,0,19,19,9,1,0,-0.67,17,001,2024-11-21_12h02.26.490,Attention_exp_legacy,2023.1.0,Win32,60.24096386,,,,,,,,,,,,,,,,,,,,,,,,,,,,,,,,,,,,,,,,,,,,,,,,,,,,,,,,
,,,,,,,-0.309375,-0.02962963,1,0,0,,0,20,20,6,1,-0.33,0,17,001,2024-11-21_12h02.26.490,Attention_exp_legacy,2023.1.0,Win32,60.24096386,,,,,,,,,,,,,,,,,,,,,,,,,,,,,,,,,,,,,,,,,,,,,,,,,,,,,,,,
,,,,,,,,,,,,,,,,,,,,17,001,2024-11-21_12h02.26.490,Attention_exp_legacy,2023.1.0,Win32,60.24096386,"[1920,1080]",[-0.028125],[-0.49444444444444446],[1],[0],[0],[0.9133000001907305],"[""StartButton""]","[640,480]",[0.24166666666666667],[0.4962962962962963],[1],[0],[0],[4.848999999999997],"[""Metro_label""]",Metro_label,1,5.8713,"[[0.11875,-0.29814814814814816],[0.11875,-0.29814814814814816],[0.11875,-0.29814814814814816],[0.11875,-0.29814814814814816],[0.11875,-0.29814814814814816],[0.11875,-0.29814814814814816],[0.11875,-0.29814814814814816],[0.11875,-0.29814814814814816],[0.11875,-0.29814814814814816],[0.11875,-0.29814814814814816],[0.11875,-0.29814814814814816],[0.11875,-0.29814814814814816],[0.11875,-0.29814814814814816],[0.11875,-0.29814814814814816],[0.11875,-0.29814814814814816],[0.11875,-0.29814814814814816],[0.11875,-0.29814814814814816],[0.11875,-0.29814814814814816],[0.11875,-0.29814814814814816],[0.11875,-0.29814814814814816],[0.11875,-0.29814814814814816],[0.11875,-0.29814814814814816],[0.11875,-0.3],[0.11875,-0.3],[0.11875,-0.3074074074074074],[0.11875,-0.3111111111111111],[0.115625,-0.31666666666666665],[0.115625,-0.31666666666666665],[0.11458333333333333,-0.32037037037037036],[0.11458333333333333,-0.32037037037037036],[0.11354166666666667,-0.32407407407407407],[0.11354166666666667,-0.32407407407407407],[0.11354166666666667,-0.32407407407407407],[0.11354166666666667,-0.32407407407407407],[0.11354166666666667,-0.32407407407407407],[0.11354166666666667,-0.32407407407407407],[0.11354166666666667,-0.32407407407407407],[0.11354166666666667,-0.32407407407407407],[0.1125,-0.32592592592592595],[0.1125,-0.32592592592592595],[0.1125,-0.32592592592592595],[0.1125,-0.32592592592592595],[0.1125,-0.3277777777777778],[0.1125,-0.3277777777777778],[0.11145833333333334,-0.3296296296296296],[0.11145833333333334,-0.3296296296296296],[0.11145833333333334,-0.3296296296296296],[0.11145833333333334,-0.3296296296296296],[0.11145833333333334,-0.3296296296296296],[0.11145833333333334,-0.3296296296296296],[0.11145833333333334,-0.3296296296296296],[0.11145833333333334,-0.3296296296296296],[0.11145833333333334,-0.3296296296296296],[0.11145833333333334,-0.3296296296296296],[0.11145833333333334,-0.3296296296296296],[0.11145833333333334,-0.3296296296296296],[0.11145833333333334,-0.3296296296296296],[0.11145833333333334,-0.3296296296296296],[0.11145833333333334,-0.3296296296296296],[0.11145833333333334,-0.3296296296296296],[0.11145833333333334,-0.3296296296296296],[0.11145833333333334,-0.3296296296296296],[0.11145833333333334,-0.3296296296296296],[0.11145833333333334,-0.3296296296296296],[0.11145833333333334,-0.3296296296296296],[0.11145833333333334,-0.3296296296296296],[0.11145833333333334,-0.3296296296296296],[0.11145833333333334,-0.3296296296296296],[0.11145833333333334,-0.3296296296296296],[0.11145833333333334,-0.3296296296296296],[0.11145833333333334,-0.3296296296296296],[0.11145833333333334,-0.3296296296296296],[0.11145833333333334,-0.3296296296296296],[0.11145833333333334,-0.3296296296296296],[0.11145833333333334,-0.3296296296296296],[0.11145833333333334,-0.3296296296296296],[0.11145833333333334,-0.3296296296296296],[0.11145833333333334,-0.3296296296296296],[0.11145833333333334,-0.3296296296296296],[0.11145833333333334,-0.3296296296296296],[0.11145833333333334,-0.3296296296296296],[0.11145833333333334,-0.3296296296296296],[0.11145833333333334,-0.3296296296296296],[0.11145833333333334,-0.3296296296296296],[0.11145833333333334,-0.3296296296296296],[0.11145833333333334,-0.3296296296296296],[0.11145833333333334,-0.3296296296296296],[0.11145833333333334,-0.3296296296296296],[0.11145833333333334,-0.3296296296296296],[0.11145833333333334,-0.3296296296296296],[0.11145833333333334,-0.3296296296296296],[0.11145833333333334,-0.3296296296296296],[0.11145833333333334,-0.3296296296296296],[0.11145833333333334,-0.3296296296296296],[0.11145833333333334,-0.3296296296296296],[0.11145833333333334,-0.3296296296296296],[0.11145833333333334,-0.3314814814814815],[0.1125,-0.3314814814814815],[0.11354166666666667,-0.3296296296296296],[0.11354166666666667,-0.3296296296296296],[0.115625,-0.3296296296296296],[0.11666666666666667,-0.3296296296296296],[0.11770833333333333,-0.3277777777777778],[0.11979166666666667,-0.32592592592592595],[0.11979166666666667,-0.32592592592592595],[0.121875,-0.32407407407407407],[0.12291666666666666,-0.32222222222222224],[0.12291666666666666,-0.32222222222222224],[0.12291666666666666,-0.32222222222222224],[0.12291666666666666,-0.32222222222222224],[0.12291666666666666,-0.32222222222222224],[0.12291666666666666,-0.32222222222222224],[0.12291666666666666,-0.32222222222222224],[0.12291666666666666,-0.32222222222222224],[0.12291666666666666,-0.32222222222222224],[0.12291666666666666,-0.32222222222222224],[0.12291666666666666,-0.32222222222222224],[0.12291666666666666,-0.32222222222222224],[0.12291666666666666,-0.32222222222222224],[0.12291666666666666,-0.32222222222222224],[0.12291666666666666,-0.32222222222222224],[0.12291666666666666,-0.32222222222222224],[0.12291666666666666,-0.32222222222222224],[0.12291666666666666,-0.32222222222222224],[0.12291666666666666,-0.32222222222222224],[0.12291666666666666,-0.32222222222222224],[0.12291666666666666,-0.32222222222222224],[0.12291666666666666,-0.32222222222222224],[0.12291666666666666,-0.32222222222222224],[0.12291666666666666,-0.32222222222222224],[0.12291666666666666,-0.32222222222222224],[0.12291666666666666,-0.32222222222222224],[0.12291666666666666,-0.32222222222222224],[0.12291666666666666,-0.32222222222222224],[0.12291666666666666,-0.32222222222222224],[0.12291666666666666,-0.32222222222222224],[0.12291666666666666,-0.32222222222222224],[0.12291666666666666,-0.32222222222222224],[0.12291666666666666,-0.32222222222222224],[0.12291666666666666,-0.32222222222222224],[0.12291666666666666,-0.32222222222222224],[0.12291666666666666,-0.32222222222222224],[0.12291666666666666,-0.32222222222222224],[0.12291666666666666,-0.32222222222222224],[0.12291666666666666,-0.32222222222222224],[0.12291666666666666,-0.32222222222222224],[0.12291666666666666,-0.32222222222222224],[0.12291666666666666,-0.32222222222222224],[0.12291666666666666,-0.32222222222222224],[0.12291666666666666,-0.32222222222222224],[0.12291666666666666,-0.32222222222222224],[0.12291666666666666,-0.32222222222222224],[0.12291666666666666,-0.32222222222222224],[0.12291666666666666,-0.32222222222222224],[0.12291666666666666,-0.32222222222222224],[0.12291666666666666,-0.32222222222222224],[0.12291666666666666,-0.32222222222222224],[0.12291666666666666,-0.32222222222222224],[0.12395833333333334,-0.32222222222222224],[0.125,-0.32407407407407407],[0.125,-0.32407407407407407],[0.12604166666666666,-0.3277777777777778],[0.12604166666666666,-0.3277777777777778],[0.12604166666666666,-0.3277777777777778],[0.12604166666666666,-0.3277777777777778],[0.12604166666666666,-0.3277777777777778],[0.12604166666666666,-0.3277777777777778],[0.12604166666666666,-0.3277777777777778],[0.12604166666666666,-0.3277777777777778],[0.12604166666666666,-0.3277777777777778],[0.12604166666666666,-0.3277777777777778],[0.12604166666666666,-0.3277777777777778],[0.12604166666666666,-0.3277777777777778],[0.12604166666666666,-0.3277777777777778],[0.12604166666666666,-0.3277777777777778],[0.12604166666666666,-0.3277777777777778],[0.12604166666666666,-0.3277777777777778],[0.12604166666666666,-0.3277777777777778],[0.12604166666666666,-0.3277777777777778],[0.12604166666666666,-0.3277777777777778],[0.12604166666666666,-0.3277777777777778],[0.12604166666666666,-0.3277777777777778],[0.12604166666666666,-0.3277777777777778],[0.12604166666666666,-0.3277777777777778],[0.12604166666666666,-0.3277777777777778],[0.12604166666666666,-0.3277777777777778],[0.12604166666666666,-0.3277777777777778],[0.12604166666666666,-0.3277777777777778],[0.12604166666666666,-0.3277777777777778],[0.12604166666666666,-0.3277777777777778],[0.12604166666666666,-0.3277777777777778],[0.12604166666666666,-0.3277777777777778],[0.128125,-0.3277777777777778],[0.13333333333333333,-0.3277777777777778],[0.140625,-0.3277777777777778],[0.15,-0.3296296296296296],[0.15625,-0.3314814814814815],[0.1625,-0.3314814814814815],[0.16666666666666666,-0.3314814814814815],[0.16875,-0.3314814814814815],[0.16979166666666667,-0.3314814814814815],[0.16979166666666667,-0.3314814814814815],[0.16979166666666667,-0.3314814814814815],[0.16979166666666667,-0.3314814814814815],[0.16979166666666667,-0.3314814814814815],[0.16979166666666667,-0.3314814814814815],[0.16979166666666667,-0.3314814814814815],[0.16979166666666667,-0.3314814814814815],[0.16979166666666667,-0.3314814814814815],[0.16979166666666667,-0.3314814814814815],[0.16979166666666667,-0.3314814814814815],[0.16979166666666667,-0.3314814814814815],[0.16979166666666667,-0.3314814814814815],[0.16979166666666667,-0.3314814814814815],[0.16979166666666667,-0.3314814814814815],[0.16979166666666667,-0.3314814814814815],[0.16979166666666667,-0.3314814814814815],[0.16979166666666667,-0.3314814814814815],[0.16979166666666667,-0.3314814814814815],[0.16979166666666667,-0.3314814814814815],[0.16979166666666667,-0.3314814814814815],[0.16979166666666667,-0.3314814814814815],[0.16979166666666667,-0.3314814814814815],[0.16979166666666667,-0.3314814814814815],[0.16979166666666667,-0.3314814814814815],[0.16979166666666667,-0.3314814814814815],[0.17083333333333334,-0.3314814814814815],[0.171875,-0.3351851851851852],[0.17291666666666666,-0.3351851851851852],[0.17395833333333333,-0.3351851851851852],[0.175,-0.3351851851851852],[0.175,-0.3351851851851852],[0.17604166666666668,-0.337037037037037],[0.17604166666666668,-0.337037037037037],[0.17604166666666668,-0.337037037037037],[0.17708333333333334,-0.337037037037037],[0.17708333333333334,-0.337037037037037],[0.17708333333333334,-0.337037037037037],[0.17708333333333334,-0.337037037037037],[0.17708333333333334,-0.337037037037037],[0.17708333333333334,-0.337037037037037],[0.17708333333333334,-0.337037037037037],[0.17708333333333334,-0.337037037037037],[0.17708333333333334,-0.337037037037037],[0.17708333333333334,-0.337037037037037],[0.17708333333333334,-0.337037037037037],[0.17708333333333334,-0.337037037037037],[0.17708333333333334,-0.337037037037037],[0.178125,-0.3388888888888889],[0.178125,-0.3388888888888889],[0.178125,-0.3388888888888889],[0.178125,-0.3388888888888889],[0.178125,-0.3388888888888889],[0.178125,-0.3388888888888889],[0.178125,-0.3388888888888889],[0.178125,-0.3388888888888889],[0.178125,-0.3388888888888889],[0.178125,-0.3388888888888889],[0.178125,-0.3388888888888889],[0.178125,-0.3388888888888889],[0.178125,-0.3388888888888889],[0.178125,-0.3388888888888889],[0.178125,-0.32592592592592595],[0.18541666666666667,-0.2518518518518518],[0.19479166666666667,-0.16296296296296298],[0.209375,-0.07777777777777778],[0.22291666666666668,0.003703703703703704],[0.23229166666666667,0.06851851851851852],[0.23645833333333333,0.11851851851851852],[0.23645833333333333,0.15555555555555556],[0.23645833333333333,0.18888888888888888],[0.2375,0.22962962962962963],[0.23854166666666668,0.26666666666666666],[0.24270833333333333,0.31296296296296294],[0.246875,0.3685185185185185],[0.25104166666666666,0.40185185185185185],[0.253125,0.4222222222222222],[0.253125,0.43333333333333335],[0.253125,0.44074074074074077],[0.253125,0.4462962962962963],[0.2520833333333333,0.45],[0.25,0.45925925925925926],[0.24895833333333334,0.4685185185185185],[0.24583333333333332,0.47962962962962963],[0.24375,0.49074074074074076],[0.24270833333333333,0.4925925925925926],[0.24166666666666667,0.4962962962962963],[0.24166666666666667,0.4962962962962963],[0.24166666666666667,0.4962962962962963],[0.24166666666666667,0.4962962962962963],[0.24166666666666667,0.4962962962962963],[0.24166666666666667,0.4962962962962963],[0.24166666666666667,0.4962962962962963],[0.24166666666666667,0.4962962962962963],[0.24166666666666667,0.4962962962962963],[0.24166666666666667,0.4962962962962963],[0.24166666666666667,0.4962962962962963],[0.24166666666666667,0.4962962962962963],[0.24166666666666667,0.4962962962962963],[0.24166666666666667,0.4962962962962963],[0.24166666666666667,0.4962962962962963],[0.24166666666666667,0.4962962962962963],[0.24166666666666667,0.4962962962962963],[0.24166666666666667,0.4962962962962963],[0.24166666666666667,0.4962962962962963],[0.24166666666666667,0.4962962962962963],[0.24166666666666667,0.4962962962962963],[0.24166666666666667,0.4962962962962963],[0.24166666666666667,0.4962962962962963],[0.24166666666666667,0.4962962962962963],[0.24166666666666667,0.4962962962962963],[0.24166666666666667,0.4962962962962963],[0.24166666666666667,0.4962962962962963],[0.24166666666666667,0.4962962962962963],[0.24166666666666667,0.4962962962962963],[0.24166666666666667,0.4962962962962963],[0.24166666666666667,0.4962962962962963],[0.24166666666666667,0.4962962962962963],[0.24166666666666667,0.4962962962962963],[0.24166666666666667,0.4962962962962963],[0.24166666666666667,0.4962962962962963],[0.24166666666666667,0.4962962962962963],[0.24166666666666667,0.4962962962962963],[0.24166666666666667,0.4962962962962963],[0.24166666666666667,0.4962962962962963],[0.24166666666666667,0.4962962962962963],[0.24166666666666667,0.4962962962962963],[0.24166666666666667,0.4962962962962963],[0.24166666666666667,0.4962962962962963],[0.24166666666666667,0.4962962962962963],[0.24166666666666667,0.4962962962962963],[0.24166666666666667,0.4962962962962963],[0.24166666666666667,0.4962962962962963],[0.24166666666666667,0.4962962962962963],[0.24166666666666667,0.4962962962962963],[0.24166666666666667,0.4962962962962963],[0.24166666666666667,0.5],[0.24166666666666667,0.5],[0.24166666666666667,0.5018518518518519],[0.24166666666666667,0.5018518518518519],[0.24166666666666667,0.5037037037037037],[0.24166666666666667,0.5055555555555555],[0.24270833333333333,0.5074074074074074],[0.24270833333333333,0.5074074074074074],[0.24375,0.5074074074074074],[0.24375,0.5092592592592593],[0.24479166666666666,0.5092592592592593],[0.24479166666666666,0.5092592592592593],[0.246875,0.5111111111111111],[0.246875,0.5111111111111111]]","[[0.08083333333333324,0.3170370370370371],[0.08083333333333324,0.3170370370370371],[0.08083333333333324,0.3170370370370371],[0.08083333333333324,0.3170370370370371],[0.0655208333333333,0.3103703703703704],[0.0655208333333333,0.3103703703703704],[0.06687500000000005,0.2785185185185185],[0.06687500000000005,0.2785185185185185],[0.07833333333333338,0.23703703703703705],[0.07833333333333338,0.23703703703703705],[0.14791666666666667,0.17462962962962955],[0.14791666666666667,0.17462962962962955],[0.2117708333333333,0.10055555555555547],[0.2117708333333333,0.10055555555555547],[0.21864583333333343,0.06425925925925935],[0.21864583333333343,0.06425925925925935],[0.2759375000000001,0.004074074074074159],[0.2759375000000001,0.004074074074074159],[0.28145833333333337,-0.015000000000000043],[0.28145833333333337,-0.015000000000000043],[0.34395833333333337,-0.04592592592592584],[0.34395833333333337,-0.04592592592592584],[0.3807291666666667,-0.11074074074074076],[0.3807291666666667,-0.11074074074074076],[0.3667708333333332,-0.0801851851851852],[0.3667708333333332,-0.0801851851851852],[0.3646874999999999,-0.03722222222222227],[0.3646874999999999,-0.03722222222222227],[0.31260416666666657,0.02388888888888885],[0.31260416666666657,0.02388888888888885],[0.26885416666666656,0.0418518518518519],[0.26885416666666656,0.0418518518518519],[0.23166666666666677,0.0838888888888888],[0.23166666666666677,0.0838888888888888],[0.19791666666666666,0.12722222222222232],[0.19791666666666666,0.12722222222222232],[0.11989583333333324,0.16796296296296304],[0.11989583333333324,0.16796296296296304],[0.0921875,0.21129629629629634],[0.0921875,0.21129629629629634],[0.05770833333333331,0.2338888888888888],[0.05770833333333331,0.2338888888888888],[0.006562499999999953,0.2972222222222222],[0.006562499999999953,0.2972222222222222],[0.016979166666666618,0.2544444444444444],[0.016979166666666618,0.2544444444444444],[0.034166666666666616,0.18888888888888888],[0.034166666666666616,0.18888888888888888],[0.04479166666666667,0.18888888888888888],[0.04479166666666667,0.18888888888888888],[0.00458333333333331,0.2131481481481482],[0.00458333333333331,0.2131481481481482],[-0.043333333333333356,0.20796296296296288],[-0.043333333333333356,0.20796296296296288],[-0.0829166666666667,0.16814814814814807],[-0.0829166666666667,0.16814814814814807],[-0.12604166666666666,0.15037037037037046],[-0.12604166666666666,0.15037037037037046],[-0.17916666666666667,0.1448148148148149],[-0.17916666666666667,0.1448148148148149],[-0.18875000000000006,0.175],[-0.18875000000000006,0.175],[-0.24708333333333338,0.16629629629629622],[-0.24708333333333338,0.16629629629629622],[-0.34479166666666666,0.1977777777777777],[-0.34479166666666666,0.1977777777777777],[-0.443125,0.1992592592592593],[-0.443125,0.1992592592592593],[-0.48864583333333333,0.1638888888888889],[-0.48864583333333333,0.1638888888888889],[-0.5039583333333334,0.13203703703703695],[-0.5039583333333334,0.13203703703703695],[-0.5266666666666667,0.11685185185185189],[-0.5266666666666667,0.11685185185185189],[-0.5265625,0.11833333333333329],[-0.5265625,0.11833333333333329],[-0.5246875,0.09000000000000004],[-0.5246875,0.09000000000000004],[-0.5022916666666667,0.08907407407407411],[-0.5022916666666667,0.08907407407407411],[-0.5145833333333333,0.05314814814814823],[-0.5145833333333333,0.05314814814814823],[-0.4890625,0.03629629629629634],[-0.4890625,0.03629629629629634],[-0.42854166666666665,0.04277777777777782],[-0.42854166666666665,0.04277777777777782],[-0.3611458333333334,0.0824074074074074],[-0.32541666666666663,0.07444444444444454],[-0.3017708333333334,0.08851851851851844],[-0.22312500000000005,0.10203703703703708],[-0.15,0.1088888888888888],[-0.09781249999999998,0.14444444444444443],[-0.04583333333333333,0.1338888888888888],[-0.03979166666666671,0.1361111111111111],[-0.011979166666666667,0.14759259259259266],[0.02052083333333338,0.11629629629629622],[0.04114583333333333,0.09537037037037037],[0.08229166666666667,0.12222222222222222],[0.1365624999999999,0.12981481481481486],[0.15364583333333334,0.125],[0.15364583333333334,0.125],[0.14916666666666673,0.1507407407407407],[0.1658333333333334,0.1896296296296296],[0.17145833333333324,0.2222222222222222],[0.17145833333333324,0.2222222222222222],[0.196875,0.22981481481481486],[0.22385416666666677,0.2388888888888889],[0.20656249999999995,0.30351851851851847],[0.20656249999999995,0.30351851851851847],[0.18489583333333334,0.3648148148148148],[0.1368750000000001,0.3785185185185185],[0.11166666666666672,0.40314814814814826],[0.08291666666666657,0.4411111111111112],[0.06625000000000002,0.44370370370370377],[0.06625000000000002,0.44370370370370377],[0.03583333333333331,0.42055555555555557],[-0.005520833333333286,0.4081481481481481],[-0.03979166666666671,0.4338888888888888],[-0.07843749999999995,0.4596296296296297],[-0.12385416666666664,0.4764814814814814],[-0.15218750000000003,0.4935185185185185],[-0.17999999999999997,0.5396296296296296],[-0.22270833333333329,0.5798148148148149],[-0.23531249999999998,0.5540740740740742],[-0.27625000000000005,0.6077777777777779],[-0.3039583333333333,0.6550000000000001],[-0.3303125,0.7364814814814815],[-0.3607291666666666,0.8064814814814815],[-0.4553125,0.8335185185185185],[-0.4478125,0.847037037037037],[-0.4891666666666667,0.859074074074074],[-0.47250000000000003,0.8564814814814815],[-0.4640625,0.8481481481481481],[-0.47239583333333335,0.8929629629629631],[-0.44583333333333336,0.8605555555555556],[-0.4530208333333333,0.8275925925925925],[-0.4736458333333333,0.7344444444444445],[-0.4895833333333333,0.6881481481481482],[-0.43937499999999996,0.6885185185185184],[-0.4370833333333334,0.6296296296296297],[-0.4032291666666667,0.597037037037037],[-0.34885416666666663,0.55],[-0.29447916666666674,0.5029629629629631],[-0.27718750000000003,0.4868518518518518],[-0.23562500000000006,0.47740740740740734],[-0.23562500000000006,0.47740740740740734],[-0.2046875,0.46037037037037043],[-0.10906250000000005,0.4425925925925926],[-0.009583333333333381,0.3731481481481482],[0.07125000000000009,0.31592592592592594],[0.1319791666666667,0.29814814814814816],[0.1929166666666667,0.2553703703703703],[0.19677083333333342,0.24537037037037038],[0.20281250000000003,0.22166666666666676],[0.24093749999999994,0.1735185185185186],[0.2556250000000001,0.1259259259259259],[0.30343749999999997,0.09314814814814806],[0.31833333333333325,0.10666666666666672],[0.31833333333333325,0.10666666666666672],[0.296875,0.13407407407407404],[0.296875,0.13407407407407404],[0.2865624999999999,0.14425925925925923],[0.2865624999999999,0.14425925925925923],[0.28635416666666674,0.16074074074074066],[0.2875,0.1727777777777777],[0.2681250000000001,0.18981481481481483],[0.24885416666666677,0.21722222222222215],[0.2384375000000001,0.2338888888888888],[0.22364583333333338,0.26129629629629636],[0.18291666666666656,0.2794444444444444],[0.12166666666666662,0.2983333333333334],[0.0853125000000001,0.3050000000000001],[0.07385416666666676,0.318888888888889],[0.07385416666666676,0.318888888888889],[0.06218750000000005,0.3133333333333334],[0.0453125,0.3175925925925926],[0.049270833333333285,0.30388888888888893],[0.050937499999999976,0.2935185185185185],[0.042916666666666714,0.3],[0.04718749999999995,0.2814814814814815],[0.06156250000000003,0.29296296296296304],[0.08479166666666677,0.2729629629629629],[0.08479166666666677,0.2729629629629629],[0.11958333333333329,0.23648148148148157],[0.11958333333333329,0.23648148148148157],[0.14291666666666672,0.20481481481481487],[0.14291666666666672,0.20481481481481487],[0.16854166666666662,0.17814814814814822],[0.16854166666666662,0.17814814814814822],[0.2033333333333334,0.1551851851851851],[0.2033333333333334,0.1551851851851851],[0.22302083333333325,0.13740740740740748],[0.22302083333333325,0.13740740740740748],[0.20645833333333338,0.1242592592592593],[0.20645833333333338,0.1242592592592593],[0.20750000000000005,0.14592592592592585],[0.1961458333333333,0.1801851851851851],[0.2107291666666666,0.1668518518518519],[0.20864583333333328,0.16814814814814807],[0.19791666666666666,0.19685185185185178],[0.16572916666666657,0.22685185185185186],[0.15697916666666673,0.25388888888888894],[0.1414583333333333,0.2638888888888889],[0.1404166666666666,0.2814814814814815],[0.1756249999999999,0.29444444444444445],[0.1710416666666667,0.259074074074074],[0.1709374999999999,0.22907407407407415],[0.17260416666666673,0.2505555555555555],[0.17260416666666673,0.2505555555555555],[0.18395833333333325,0.26518518518518525],[0.18395833333333325,0.26518518518518525],[0.20979166666666677,0.24759259259259267],[0.23052083333333329,0.230925925925926],[0.2193749999999999,0.22259259259259268],[0.22312500000000005,0.23648148148148157],[0.20166666666666658,0.2588888888888888],[0.18270833333333342,0.2757407407407407],[0.19135416666666671,0.27685185185185185],[0.1883333333333333,0.3111111111111111],[0.121875,0.305925925925926],[0.121875,0.305925925925926],[0.08645833333333333,0.2868518518518518],[0.08645833333333333,0.2868518518518518],[0.05354166666666664,0.29888888888888887],[0.04010416666666667,0.23722222222222225],[-0.013229166666666714,0.20999999999999996],[-0.07999999999999995,0.1685185185185185],[-0.07999999999999995,0.1685185185185185],[-0.05625,0.16351851851851842],[-0.05625,0.16351851851851842],[-0.05770833333333331,0.18092592592592602],[-0.07250000000000002,0.17907407407407416],[-0.043333333333333356,0.15129629629629637],[-0.043333333333333356,0.15129629629629637],[-0.02802083333333331,0.1527777777777778],[-0.014374999999999952,0.12962962962962962],[-0.014374999999999952,0.12962962962962962],[0.013854166666666619,0.15481481481481485],[0.05645833333333338,0.23555555555555563],[0.11583333333333339,0.32259259259259265],[0.19114583333333332,0.4083333333333333],[0.17156250000000003,0.4498148148148148],[0.14333333333333323,0.469074074074074],[0.15114583333333323,0.5300000000000001],[0.09031250000000005,0.5740740740740741],[0.07989583333333337,0.6211111111111111],[0.0671875,0.7161111111111111],[0.0032291666666666905,0.7511111111111112],[0.0032291666666666905,0.7511111111111112],[-0.03427083333333331,0.7687037037037038],[-0.02822916666666669,0.7653703703703703],[-0.02822916666666669,0.7653703703703703],[-0.01864583333333331,0.7324074074074074],[0.009895833333333333,0.6548148148148148],[0.06854166666666663,0.6098148148148147],[0.10229166666666671,0.5816666666666667],[0.15677083333333333,0.5394444444444444],[0.2476041666666667,0.4981481481481482],[0.31375000000000003,0.4474074074074075],[0.41531250000000003,0.4081481481481481],[0.4306250000000001,0.38055555555555554],[0.4783333333333334,0.32222222222222224],[0.4817708333333333,0.26944444444444443],[0.5131249999999999,0.31814814814814807],[0.5023958333333333,0.31592592592592594],[0.5010416666666667,0.2972222222222222],[0.49333333333333323,0.31592592592592594],[0.5006249999999999,0.2881481481481482],[0.5129166666666668,0.26481481481481484],[0.5167708333333333,0.23555555555555563],[0.5680208333333333,0.21574074074074073],[0.5680208333333333,0.21574074074074073],[0.5457291666666667,0.15111111111111114],[0.5482291666666667,0.11185185185185181],[0.5212500000000001,0.018333333333333292],[0.5260416666666666,-0.03611111111111111],[0.503125,-0.08444444444444449],[0.503125,-0.08444444444444449],[0.5072916666666667,-0.16055555555555553],[0.44979166666666665,-0.20259259259259255],[0.44979166666666665,-0.20259259259259255],[0.4109375,-0.25018518518518523],[0.4109375,-0.25018518518518523],[0.3728125000000001,-0.3001851851851852],[0.3728125000000001,-0.3001851851851852],[0.32916666666666666,-0.3346296296296296],[0.3090625000000001,-0.33425925925925926],[0.27333333333333343,-0.31129629629629635],[0.2615624999999999,-0.3237037037037037],[0.25447916666666665,-0.3301851851851852],[0.25447916666666665,-0.3301851851851852],[0.24968750000000003,-0.32388888888888884],[0.24093749999999994,-0.30907407407407406],[0.25447916666666665,-0.3042592592592593],[0.22010416666666663,-0.3146296296296296],[0.2117708333333333,-0.3264814814814815],[0.19635416666666666,-0.327962962962963],[0.18624999999999994,-0.29907407407407405],[0.19177083333333325,-0.2927777777777778],[0.17916666666666667,-0.2601851851851852],[0.18093750000000006,-0.24962962962962965],[0.190625,-0.24074074074074073],[0.1779166666666666,-0.25407407407407406],[0.17354166666666657,-0.2581481481481481],[0.1984375,-0.24148148148148144],[0.1984375,-0.24148148148148144],[0.23854166666666668,-0.21370370370370367],[0.23854166666666668,-0.21370370370370367],[0.2603125000000001,-0.21277777777777773],[0.2603125000000001,-0.21277777777777773],[0.2631249999999999,-0.2338888888888889],[0.28114583333333343,-0.21740740740740735],[0.28114583333333343,-0.21740740740740735],[0.2808333333333332,-0.22407407407407406],[0.2808333333333332,-0.22407407407407406],[0.2685416666666666,-0.2242592592592593],[0.26760416666666675,-0.2101851851851852],[0.26760416666666675,-0.2101851851851852],[0.2978125000000001,-0.192037037037037],[0.32270833333333326,-0.17907407407407405],[0.3180208333333333,-0.1603703703703704],[0.2837500000000001,-0.1479629629629629],[0.2804166666666667,-0.1346296296296296],[0.2911458333333333,-0.10574074074074079],[0.28666666666666674,-0.11444444444444446],[0.2939583333333334,-0.11925925925925922],[0.3146874999999999,-0.1264814814814815],[0.30739583333333326,-0.15111111111111114],[0.29749999999999993,-0.16203703703703703],[0.26510416666666664,-0.15870370370370368],[0.26531250000000006,-0.15870370370370368],[0.2603125000000001,-0.15333333333333335],[0.2526041666666667,-0.16870370370370374],[0.2609375,-0.1675925925925926],[0.2775000000000001,-0.17166666666666663],[0.2819791666666667,-0.16296296296296298],[0.2933333333333332,-0.1735185185185185],[0.29187500000000005,-0.18351851851851855],[0.27666666666666656,-0.17740740740740743],[0.27666666666666656,-0.17740740740740743],[0.2705208333333334,-0.17611111111111116],[0.2705208333333334,-0.17611111111111116],[0.2673958333333334,-0.22092592592592594],[0.2497916666666666,-0.27259259259259255],[0.23885416666666662,-0.30944444444444447],[0.23885416666666662,-0.30944444444444447],[0.22260416666666671,-0.347037037037037],[0.19500000000000003,-0.387037037037037],[0.18614583333333337,-0.4227777777777778],[0.1720833333333334,-0.44814814814814813]]","[[0.08083333333333324,0.3170370370370371,0.00029999971389571556],[0.08083333333333324,0.3170370370370371,0.04999999999999716],[0.08083333333333324,0.3170370370370371,0.0545999999046316],[0.08083333333333324,0.3170370370370371,0.07519999980926428],[0.0655208333333333,0.3103703703703704,0.1065999999046312],[0.0655208333333333,0.3103703703703704,0.11489999961852959],[0.06687500000000005,0.2785185185185185,0.140199999809262],[0.06687500000000005,0.2785185185185185,0.14849999999999852],[0.07833333333333338,0.23703703703703705,0.1734999999999971],[0.07833333333333338,0.23703703703703705,0.1821999998092636],[0.14791666666666667,0.17462962962962955,0.2066999998092669],[0.14791666666666667,0.17462962962962955,0.21479999971389674],[0.2117708333333333,0.10055555555555547,0.240000000000002],[0.2117708333333333,0.10055555555555547,0.24829999971389327],[0.21864583333333343,0.06425925925925935,0.2735999999046328],[0.21864583333333343,0.06425925925925935,0.28239999961852646],[0.2759375000000001,0.004074074074074159,0.3083999996185298],[0.2759375000000001,0.004074074074074159,0.3164999999999978],[0.28145833333333337,-0.015000000000000043,0.3400999999046306],[0.28145833333333337,-0.015000000000000043,0.347999999999999],[0.34395833333333337,-0.04592592592592584,0.37209999990463416],[0.34395833333333337,-0.04592592592592584,0.3810999999046345],[0.3807291666666667,-0.11074074074074076,0.40849999999999653],[0.3807291666666667,-0.11074074074074076,0.41719999980926303],[0.3667708333333332,-0.0801851851851852,0.440099999904632],[0.3667708333333332,-0.0801851851851852,0.44909999990463234],[0.3646874999999999,-0.03722222222222227,0.4766999998092629],[0.3646874999999999,-0.03722222222222227,0.4846999998092656],[0.31260416666666657,0.02388888888888885,0.5067999997138983],[0.31260416666666657,0.02388888888888885,0.5138999996185305],[0.26885416666666656,0.0418518518518519,0.5414999999999992],[0.26885416666666656,0.0418518518518519,0.5484999999999971],[0.23166666666666677,0.0838888888888888,0.5733999996185304],[0.23166666666666677,0.0838888888888888,0.5815999999046326],[0.19791666666666666,0.12722222222222232,0.6068999996185269],[0.19791666666666666,0.12722222222222232,0.6135999999046291],[0.11989583333333324,0.16796296296296304,0.6398999996185282],[0.11989583333333324,0.16796296296296304,0.6472999997138942],[0.0921875,0.21129629629629634,0.6794999999999973],[0.0921875,0.21129629629629634,0.6876999998092614],[0.05770833333333331,0.2338888888888888,0.7067999997138941],[0.05770833333333331,0.2338888888888888,0.7186999998092674],[0.006562499999999953,0.2972222222222222,0.7419999999999973],[0.006562499999999953,0.2972222222222222,0.75],[0.016979166666666618,0.2544444444444444,0.7748999996185262],[0.016979166666666618,0.2544444444444444,0.7837999997138994],[0.034166666666666616,0.18888888888888888,0.8066999998092612],[0.034166666666666616,0.18888888888888888,0.8136999998092662],[0.04479166666666667,0.18888888888888888,0.8390999999046329],[0.04479166666666667,0.18888888888888888,0.8463999996185265],[0.00458333333333331,0.2131481481481482,0.8744999999999976],[0.00458333333333331,0.2131481481481482,0.8825999999046346],[-0.043333333333333356,0.20796296296296288,0.908299999713897],[-0.043333333333333356,0.20796296296296288,0.9174999999999969],[-0.0829166666666667,0.16814814814814807,0.9432999997138936],[-0.0829166666666667,0.16814814814814807,0.9507999997138938],[-0.12604166666666666,0.15037037037037046,0.9784999999999968],[-0.12604166666666666,0.15037037037037046,0.9859999999999971],[-0.17916666666666667,0.1448148148148149,1.0271999998092625],[-0.17916666666666667,0.1448148148148149,1.0370999999046333],[-0.18875000000000006,0.175,1.0600000000000023],[-0.18875000000000006,0.175,1.0674999999999955],[-0.24708333333333338,0.16629629629629622,1.095799999713897],[-0.24708333333333338,0.16629629629629622,1.1032999997138973],[-0.34479166666666666,0.1977777777777777,1.1258999996185324],[-0.34479166666666666,0.1977777777777777,1.133899999618528],[-0.443125,0.1992592592592593,1.1595000000000013],[-0.443125,0.1992592592592593,1.1675999999046311],[-0.48864583333333333,0.1638888888888889,1.1931999998092664],[-0.48864583333333333,0.1638888888888889,1.2004999999999981],[-0.5039583333333334,0.13203703703703695,1.226399999618529],[-0.5039583333333334,0.13203703703703695,1.2345999999046313],[-0.5266666666666667,0.11685185185185189,1.2597999997138984],[-0.5266666666666667,0.11685185185185189,1.2671999998092645],[-0.5265625,0.11833333333333329,1.2931999998092607],[-0.5265625,0.11833333333333329,1.3003999996185271],[-0.5246875,0.09000000000000004,1.3230999999046347],[-0.5246875,0.09000000000000004,1.3305000000000007],[-0.5022916666666667,0.08907407407407411,1.3578999996185317],[-0.5022916666666667,0.08907407407407411,1.3658999996185273],[-0.5145833333333333,0.05314814814814823,1.3908999996185258],[-0.5145833333333333,0.05314814814814823,1.3987999997138942],[-0.4890625,0.03629629629629634,1.4283999996185273],[-0.4890625,0.03629629629629634,1.4358999996185275],[-0.42854166666666665,0.04277777777777782,1.474499999999999],[-0.42854166666666665,0.04277777777777782,1.4823999996185293],[-0.3611458333333334,0.0824074074074074,1.4905999999046315],[-0.32541666666666663,0.07444444444444454,1.5070999999046322],[-0.3017708333333334,0.08851851851851844,1.5215999999046304],[-0.22312500000000005,0.10203703703703708,1.5386999998092605],[-0.15,0.1088888888888888,1.5545999999046316],[-0.09781249999999998,0.14444444444444443,1.5712999997138937],[-0.04583333333333333,0.1338888888888888,1.5915999999046306],[-0.03979166666666671,0.1361111111111111,1.6067999997138998],[-0.011979166666666667,0.14759259259259266,1.6230999999046318],[0.02052083333333338,0.11629629629629622,1.6385000000000005],[0.04114583333333333,0.09537037037037037,1.6583999996185312],[0.08229166666666667,0.12222222222222222,1.676399999618532],[0.1365624999999999,0.12981481481481486,1.6921999998092616],[0.15364583333333334,0.125,1.7090999999046304],[0.15364583333333334,0.125,1.724899999618529],[0.14916666666666673,0.1507407407407407,1.7382999997138953],[0.1658333333333334,0.1896296296296296,1.7555999999046321],[0.17145833333333324,0.2222222222222222,1.777399999618531],[0.17145833333333324,0.2222222222222222,1.7879999999999967],[0.196875,0.22981481481481486,1.8049999999999997],[0.22385416666666677,0.2388888888888889,1.8268999996185258],[0.20656249999999995,0.30351851851851847,1.8528999996185291],[0.20656249999999995,0.30351851851851847,1.8602999997138951],[0.18489583333333334,0.3648148148148148,1.8713999996185322],[0.1368750000000001,0.3785185185185185,1.8909999999999982],[0.11166666666666672,0.40314814814814826,1.9076999998092674],[0.08291666666666657,0.4411111111111112,1.9239999999999995],[0.06625000000000002,0.44370370370370377,1.9436999998092617],[0.06625000000000002,0.44370370370370377,1.9583999996185284],[0.03583333333333331,0.42055555555555557,1.9712999997138994],[-0.005520833333333286,0.4081481481481481,1.9889999999999972],[-0.03979166666666671,0.4338888888888888,2.0061999998092617],[-0.07843749999999995,0.4596296296296297,2.0226999998092623],[-0.12385416666666664,0.4764814814814814,2.0379999999999967],[-0.15218750000000003,0.4935185185185185,2.0545999999046316],[-0.17999999999999997,0.5396296296296296,2.071399999618528],[-0.22270833333333329,0.5798148148148149,2.0910999999046282],[-0.23531249999999998,0.5540740740740742,2.105399999618527],[-0.27625000000000005,0.6077777777777779,2.121299999713898],[-0.3039583333333333,0.6550000000000001,2.1378999996185257],[-0.3303125,0.7364814814814815,2.1546999998092673],[-0.3607291666666666,0.8064814814814815,2.171299999713895],[-0.4553125,0.8335185185185185,2.1895999999046296],[-0.4478125,0.847037037037037,2.2046999998092645],[-0.4891666666666667,0.859074074074074,2.2217999997138946],[-0.47250000000000003,0.8564814814814815,2.238099999904634],[-0.4640625,0.8481481481481481,2.2549999999999955],[-0.47239583333333335,0.8929629629629631,2.274499999999996],[-0.44583333333333336,0.8605555555555556,2.2897999997138996],[-0.4530208333333333,0.8275925925925925,2.3045999999046316],[-0.4736458333333333,0.7344444444444445,2.321799999713896],[-0.4895833333333333,0.6881481481481482,2.338099999904628],[-0.43937499999999996,0.6885185185185184,2.3545999999046288],[-0.4370833333333334,0.6296296296296297,2.371299999713898],[-0.4032291666666667,0.597037037037037,2.3892999997138986],[-0.34885416666666663,0.55,2.4046999998092673],[-0.29447916666666674,0.5029629629629631,2.4213999996185294],[-0.27718750000000003,0.4868518518518518,2.4384999999999977],[-0.23562500000000006,0.47740740740740734,2.45459999990463],[-0.23562500000000006,0.47740740740740734,2.4713999996185265],[-0.2046875,0.46037037037037043,2.4879999999999995],[-0.10906250000000005,0.4425925925925926,2.5045999999046344],[-0.009583333333333381,0.3731481481481482,2.521499999999996],[0.07125000000000009,0.31592592592592594,2.5381999998092653],[0.1319791666666667,0.29814814814814816,2.5545999999046316],[0.1929166666666667,0.2553703703703703,2.5719999999999956],[0.19677083333333342,0.24537037037037038,2.5921999998092673],[0.20281250000000003,0.22166666666666676,2.6090000000000018],[0.24093749999999994,0.1735185185185186,2.6247999997138933],[0.2556250000000001,0.1259259259259259,2.6403999996185306],[0.30343749999999997,0.09314814814814806,2.654599999904633],[0.31833333333333325,0.10666666666666672,2.677199999809261],[0.31833333333333325,0.10666666666666672,2.691199999809264],[0.296875,0.13407407407407404,2.704899999618526],[0.296875,0.13407407407407404,2.7213999996185265],[0.2865624999999999,0.14425925925925923,2.741899999618532],[0.2865624999999999,0.14425925925925923,2.7545999999046344],[0.28635416666666674,0.16074074074074066,2.771399999618531],[0.2875,0.1727777777777777,2.7908999996185315],[0.2681250000000001,0.18981481481481483,2.8063999996185274],[0.24885416666666677,0.21722222222222215,2.821699999809262],[0.2384375000000001,0.2338888888888888,2.8384999999999962],[0.22364583333333338,0.26129629629629636,2.854699999809263],[0.18291666666666656,0.2794444444444444,2.871299999713898],[0.12166666666666662,0.2983333333333334,2.8907999997138987],[0.0853125000000001,0.3050000000000001,2.907199999809265],[0.07385416666666676,0.318888888888889,2.921699999809263],[0.07385416666666676,0.318888888888889,2.9379999999999953],[0.06218750000000005,0.3133333333333334,2.95459999990463],[0.0453125,0.3175925925925926,2.9712999997138994],[0.049270833333333285,0.30388888888888893,2.9894999999999996],[0.050937499999999976,0.2935185185185185,3.006999999999998],[0.042916666666666714,0.3,3.021399999618531],[0.04718749999999995,0.2814814814814815,3.040999999999997],[0.06156250000000003,0.29296296296296304,3.0570999999046293],[0.08479166666666677,0.2729629629629629,3.07209999990463],[0.08479166666666677,0.2729629629629629,3.088099999904628],[0.11958333333333329,0.23648148148148157,3.1045999999046288],[0.11958333333333329,0.23648148148148157,3.121299999713898],[0.14291666666666672,0.20481481481481487,3.137999999999998],[0.14291666666666672,0.20481481481481487,3.154599999904633],[0.16854166666666662,0.17814814814814822,3.1713999996185294],[0.16854166666666662,0.17814814814814822,3.1879999999999953],[0.2033333333333334,0.1551851851851851,3.2047999997138987],[0.2033333333333334,0.1551851851851851,3.2212999997138994],[0.22302083333333325,0.13740740740740748,3.2379999999999995],[0.22302083333333325,0.13740740740740748,3.2597999997138984],[0.20645833333333338,0.1242592592592593,3.2716999998092646],[0.20645833333333338,0.1242592592592593,3.288099999904631],[0.20750000000000005,0.14592592592592585,3.304799999713893],[0.1961458333333333,0.1801851851851851,3.3248999996185304],[0.2107291666666666,0.1668518518518519,3.340299999713899],[0.20864583333333328,0.16814814814814807,3.3548999996185316],[0.19791666666666666,0.19685185185185178,3.371699999809266],[0.16572916666666657,0.22685185185185186,3.392799999713894],[0.15697916666666673,0.25388888888888894,3.4084999999999965],[0.1414583333333333,0.2638888888888889,3.423000000000002],[0.1404166666666666,0.2814814814814815,3.439699999809264],[0.1756249999999999,0.29444444444444445,3.4546999998092645],[0.1710416666666667,0.259074074074074,3.4727999997138994],[0.1709374999999999,0.22907407407407415,3.4909999999999997],[0.17260416666666673,0.2505555555555555,3.5115999999046323],[0.17260416666666673,0.2505555555555555,3.5215999999046304],[0.18395833333333325,0.26518518518518525,3.538099999904631],[0.18395833333333325,0.26518518518518525,3.5607999997138933],[0.20979166666666677,0.24759259259259267,3.5712999997138937],[0.23052083333333329,0.230925925925926,3.590599999904633],[0.2193749999999999,0.22259259259259268,3.6069999999999993],[0.22312500000000005,0.23648148148148157,3.621399999618532],[0.20166666666666658,0.2588888888888888,3.6378999996185257],[0.18270833333333342,0.2757407407407407,3.654599999904633],[0.19135416666666671,0.27685185185185185,3.671299999713895],[0.1883333333333333,0.3111111111111111,3.69089999961853],[0.121875,0.305925925925926,3.7065999999046326],[0.121875,0.305925925925926,3.721499999999999],[0.08645833333333333,0.2868518518518518,3.738099999904634],[0.08645833333333333,0.2868518518518518,3.754799999713896],[0.05354166666666664,0.29888888888888887,3.771399999618531],[0.04010416666666667,0.23722222222222225,3.7908999996185315],[-0.013229166666666714,0.20999999999999996,3.8063999996185274],[-0.07999999999999995,0.1685185185185185,3.8260000000000005],[-0.07999999999999995,0.1685185185185185,3.8410999999046282],[-0.05625,0.16351851851851842,3.856099999904629],[-0.05625,0.16351851851851842,3.8714999999999975],[-0.05770833333333331,0.18092592592592602,3.890899999618526],[-0.07250000000000002,0.17907407407407416,3.9046999998092673],[-0.043333333333333356,0.15129629629629637,3.921599999904629],[-0.043333333333333356,0.15129629629629637,3.9380999999046296],[-0.02802083333333331,0.1527777777777778,3.9546999998092645],[-0.014374999999999952,0.12962962962962962,3.975199999809263],[-0.014374999999999952,0.12962962962962962,3.988099999904634],[0.013854166666666619,0.15481481481481485,4.004699999809262],[0.05645833333333338,0.23555555555555563,4.0212999997138965],[0.11583333333333339,0.32259259259259265,4.037899999618531],[0.19114583333333332,0.4083333333333333,4.054699999809266],[0.17156250000000003,0.4498148148148148,4.071299999713894],[0.14333333333333323,0.469074074074074,4.088000000000001],[0.15114583333333323,0.5300000000000001,4.104599999904629],[0.09031250000000005,0.5740740740740741,4.121299999713898],[0.07989583333333337,0.6211111111111111,4.137899999618526],[0.0671875,0.7161111111111111,4.154699999809267],[0.0032291666666666905,0.7511111111111112,4.172099999904631],[0.0032291666666666905,0.7511111111111112,4.1917999997138935],[-0.03427083333333331,0.7687037037037038,4.2046999998092645],[-0.02822916666666669,0.7653703703703703,4.221799999713895],[-0.02822916666666669,0.7653703703703703,4.2379999999999995],[-0.01864583333333331,0.7324074074074074,4.254699999809262],[0.009895833333333333,0.6548148148148148,4.2719999999999985],[0.06854166666666663,0.6098148148148147,4.2897999997139],[0.10229166666666671,0.5816666666666667,4.304599999904632],[0.15677083333333333,0.5394444444444444,4.3215],[0.2476041666666667,0.4981481481481482,4.338000000000001],[0.31375000000000003,0.4474074074074075,4.354599999904629],[0.41531250000000003,0.4081481481481481,4.37239999961853],[0.4306250000000001,0.38055555555555554,4.389499999999998],[0.4783333333333334,0.32222222222222224,4.405299999713897],[0.4817708333333333,0.26944444444444443,4.426099999904629],[0.5131249999999999,0.31814814814814807,4.4417999997138935],[0.5023958333333333,0.31592592592592594,4.456899999618528],[0.5010416666666667,0.2972222222222222,4.472299999713897],[0.49333333333333323,0.31592592592592594,4.492699999809261],[0.5006249999999999,0.2881481481481482,4.508499999999998],[0.5129166666666668,0.26481481481481484,4.522999999999996],[0.5167708333333333,0.23555555555555563,4.5386999998092605],[0.5680208333333333,0.21574074074074073,4.5593999996185275],[0.5680208333333333,0.21574074074074073,4.571799999713896],[0.5457291666666667,0.15111111111111114,4.588499999999996],[0.5482291666666667,0.11185185185185181,4.607899999618532],[0.5212500000000001,0.018333333333333292,4.624599999904632],[0.5260416666666666,-0.03611111111111111,4.641999999999996],[0.503125,-0.08444444444444449,4.659999999999997],[0.503125,-0.08444444444444449,4.671500000000002],[0.5072916666666667,-0.16055555555555553,4.688399999618532],[0.44979166666666665,-0.20259259259259255,4.705500000000001],[0.44979166666666665,-0.20259259259259255,4.725899999618527],[0.4109375,-0.25018518518518523,4.738299999713895],[0.4109375,-0.25018518518518523,4.75489999961853],[0.3728125000000001,-0.3001851851851852,4.777799999713899],[0.3728125000000001,-0.3001851851851852,4.788099999904631],[0.32916666666666666,-0.3346296296296296,4.804799999713893],[0.3090625000000001,-0.33425925925925926,4.825499999999998],[0.27333333333333343,-0.31129629629629635,4.842099999904633],[0.2615624999999999,-0.3237037037037037,4.858599999904634],[0.25447916666666665,-0.3301851851851852,4.8803999996185325],[0.25447916666666665,-0.3301851851851852,4.887999999999998],[0.24968750000000003,-0.32388888888888884,4.904599999904633],[0.24093749999999994,-0.30907407407407406,4.921299999713895],[0.25447916666666665,-0.3042592592592593,4.940399999618528],[0.22010416666666663,-0.3146296296296296,4.955199999809267],[0.2117708333333333,-0.3264814814814815,4.972499999999997],[0.19635416666666666,-0.327962962962963,4.992099999904632],[0.18624999999999994,-0.29907407407407405,5.00789999961853],[0.19177083333333325,-0.2927777777777778,5.021699999809265],[0.17916666666666667,-0.2601851851851852,5.040099999904633],[0.18093750000000006,-0.24962962962962965,5.058500000000002],[0.190625,-0.24074074074074073,5.074699999809262],[0.1779166666666666,-0.25407407407407406,5.090799999713894],[0.17354166666666657,-0.2581481481481481,5.107699999809263],[0.1984375,-0.24148148148148144,5.124799999713893],[0.1984375,-0.24148148148148144,5.137899999618526],[0.23854166666666668,-0.21370370370370367,5.154599999904633],[0.23854166666666668,-0.21370370370370367,5.171299999713895],[0.2603125000000001,-0.21277777777777773,5.187999999999995],[0.2603125000000001,-0.21277777777777773,5.20459999990463],[0.2631249999999999,-0.2338888888888889,5.221199999809265],[0.28114583333333343,-0.21740740740740735,5.243499999999997],[0.28114583333333343,-0.21740740740740735,5.2545999999046344],[0.2808333333333332,-0.22407407407407406,5.2712999997138965],[0.2808333333333332,-0.22407407407407406,5.287999999999997],[0.2685416666666666,-0.2242592592592593,5.304699999809266],[0.26760416666666675,-0.2101851851851852,5.3211999998092665],[0.26760416666666675,-0.2101851851851852,5.338299999713897],[0.2978125000000001,-0.192037037037037,5.354500000000002],[0.32270833333333326,-0.17907407407407405,5.371299999713898],[0.3180208333333333,-0.1603703703703704,5.391500000000001],[0.2837500000000001,-0.1479629629629629,5.4073999996185265],[0.2804166666666667,-0.1346296296296296,5.421199999809261],[0.2911458333333333,-0.10574074074074079,5.438199999809264],[0.28666666666666674,-0.11444444444444446,5.45459999990463],[0.2939583333333334,-0.11925925925925922,5.471799999713895],[0.3146874999999999,-0.1264814814814815,5.489799999713895],[0.30739583333333326,-0.15111111111111114,5.5071999998092664],[0.29749999999999993,-0.16203703703703703,5.521199999809262],[0.26510416666666664,-0.15870370370370368,5.539599999904631],[0.26531250000000006,-0.15870370370370368,5.556599999904634],[0.2603125000000001,-0.15333333333333335,5.574299999713894],[0.2526041666666667,-0.16870370370370374,5.590699999809267],[0.2609375,-0.1675925925925926,5.607799999713897],[0.2775000000000001,-0.17166666666666663,5.6229999999999976],[0.2819791666666667,-0.16296296296296298,5.6395999999046325],[0.2933333333333332,-0.1735185185185185,5.660099999904631],[0.29187500000000005,-0.18351851851851855,5.675699999809261],[0.27666666666666656,-0.17740740740740743,5.691899999618528],[0.27666666666666656,-0.17740740740740743,5.705699999809262],[0.2705208333333334,-0.17611111111111116,5.731899999618527],[0.2705208333333334,-0.17611111111111116,5.742699999809261],[0.2673958333333334,-0.22092592592592594,5.754799999713896],[0.2497916666666666,-0.27259259259259255,5.774399999618531],[0.23885416666666662,-0.30944444444444447,5.792399999618532],[0.23885416666666662,-0.30944444444444447,5.812099999904632],[0.22260416666666671,-0.347037037037037,5.821399999618528],[0.19500000000000003,-0.387037037037037,5.837899999618529],[0.18614583333333337,-0.4227777777777778,5.857099999904634],[0.1720833333333334,-0.44814814814814813,5.871299999713898]]","[0.00029999971389571556,0.04999999999999716,0.0545999999046316,0.07519999980926428,0.1065999999046312,0.11489999961852959,0.140199999809262,0.14849999999999852,0.1734999999999971,0.1821999998092636,0.2066999998092669,0.21479999971389674,0.240000000000002,0.24829999971389327,0.2735999999046328,0.28239999961852646,0.3083999996185298,0.3164999999999978,0.3400999999046306,0.347999999999999,0.37209999990463416,0.3810999999046345,0.40849999999999653,0.41719999980926303,0.440099999904632,0.44909999990463234,0.4766999998092629,0.4846999998092656,0.5067999997138983,0.5138999996185305,0.5414999999999992,0.5484999999999971,0.5733999996185304,0.5815999999046326,0.6068999996185269,0.6135999999046291,0.6398999996185282,0.6472999997138942,0.6794999999999973,0.6876999998092614,0.7067999997138941,0.7186999998092674,0.7419999999999973,0.75,0.7748999996185262,0.7837999997138994,0.8066999998092612,0.8136999998092662,0.8390999999046329,0.8463999996185265,0.8744999999999976,0.8825999999046346,0.908299999713897,0.9174999999999969,0.9432999997138936,0.9507999997138938,0.9784999999999968,0.9859999999999971,1.0271999998092625,1.0370999999046333,1.0600000000000023,1.0674999999999955,1.095799999713897,1.1032999997138973,1.1258999996185324,1.133899999618528,1.1595000000000013,1.1675999999046311,1.1931999998092664,1.2004999999999981,1.226399999618529,1.2345999999046313,1.2597999997138984,1.2671999998092645,1.2931999998092607,1.3003999996185271,1.3230999999046347,1.3305000000000007,1.3578999996185317,1.3658999996185273,1.3908999996185258,1.3987999997138942,1.4283999996185273,1.4358999996185275,1.474499999999999,1.4823999996185293,1.4905999999046315,1.5070999999046322,1.5215999999046304,1.5386999998092605,1.5545999999046316,1.5712999997138937,1.5915999999046306,1.6067999997138998,1.6230999999046318,1.6385000000000005,1.6583999996185312,1.676399999618532,1.6921999998092616,1.7090999999046304,1.724899999618529,1.7382999997138953,1.7555999999046321,1.777399999618531,1.7879999999999967,1.8049999999999997,1.8268999996185258,1.8528999996185291,1.8602999997138951,1.8713999996185322,1.8909999999999982,1.9076999998092674,1.9239999999999995,1.9436999998092617,1.9583999996185284,1.9712999997138994,1.9889999999999972,2.0061999998092617,2.0226999998092623,2.0379999999999967,2.0545999999046316,2.071399999618528,2.0910999999046282,2.105399999618527,2.121299999713898,2.1378999996185257,2.1546999998092673,2.171299999713895,2.1895999999046296,2.2046999998092645,2.2217999997138946,2.238099999904634,2.2549999999999955,2.274499999999996,2.2897999997138996,2.3045999999046316,2.321799999713896,2.338099999904628,2.3545999999046288,2.371299999713898,2.3892999997138986,2.4046999998092673,2.4213999996185294,2.4384999999999977,2.45459999990463,2.4713999996185265,2.4879999999999995,2.5045999999046344,2.521499999999996,2.5381999998092653,2.5545999999046316,2.5719999999999956,2.5921999998092673,2.6090000000000018,2.6247999997138933,2.6403999996185306,2.654599999904633,2.677199999809261,2.691199999809264,2.704899999618526,2.7213999996185265,2.741899999618532,2.7545999999046344,2.771399999618531,2.7908999996185315,2.8063999996185274,2.821699999809262,2.8384999999999962,2.854699999809263,2.871299999713898,2.8907999997138987,2.907199999809265,2.921699999809263,2.9379999999999953,2.95459999990463,2.9712999997138994,2.9894999999999996,3.006999999999998,3.021399999618531,3.040999999999997,3.0570999999046293,3.07209999990463,3.088099999904628,3.1045999999046288,3.121299999713898,3.137999999999998,3.154599999904633,3.1713999996185294,3.1879999999999953,3.2047999997138987,3.2212999997138994,3.2379999999999995,3.2597999997138984,3.2716999998092646,3.288099999904631,3.304799999713893,3.3248999996185304,3.340299999713899,3.3548999996185316,3.371699999809266,3.392799999713894,3.4084999999999965,3.423000000000002,3.439699999809264,3.4546999998092645,3.4727999997138994,3.4909999999999997,3.5115999999046323,3.5215999999046304,3.538099999904631,3.5607999997138933,3.5712999997138937,3.590599999904633,3.6069999999999993,3.621399999618532,3.6378999996185257,3.654599999904633,3.671299999713895,3.69089999961853,3.7065999999046326,3.721499999999999,3.738099999904634,3.754799999713896,3.771399999618531,3.7908999996185315,3.8063999996185274,3.8260000000000005,3.8410999999046282,3.856099999904629,3.8714999999999975,3.890899999618526,3.9046999998092673,3.921599999904629,3.9380999999046296,3.9546999998092645,3.975199999809263,3.988099999904634,4.004699999809262,4.0212999997138965,4.037899999618531,4.054699999809266,4.071299999713894,4.088000000000001,4.104599999904629,4.121299999713898,4.137899999618526,4.154699999809267,4.172099999904631,4.1917999997138935,4.2046999998092645,4.221799999713895,4.2379999999999995,4.254699999809262,4.2719999999999985,4.2897999997139,4.304599999904632,4.3215,4.338000000000001,4.354599999904629,4.37239999961853,4.389499999999998,4.405299999713897,4.426099999904629,4.4417999997138935,4.456899999618528,4.472299999713897,4.492699999809261,4.508499999999998,4.522999999999996,4.5386999998092605,4.5593999996185275,4.571799999713896,4.588499999999996,4.607899999618532,4.624599999904632,4.641999999999996,4.659999999999997,4.671500000000002,4.688399999618532,4.705500000000001,4.725899999618527,4.738299999713895,4.75489999961853,4.777799999713899,4.788099999904631,4.804799999713893,4.825499999999998,4.842099999904633,4.858599999904634,4.8803999996185325,4.887999999999998,4.904599999904633,4.921299999713895,4.940399999618528,4.955199999809267,4.972499999999997,4.992099999904632,5.00789999961853,5.021699999809265,5.040099999904633,5.058500000000002,5.074699999809262,5.090799999713894,5.107699999809263,5.124799999713893,5.137899999618526,5.154599999904633,5.171299999713895,5.187999999999995,5.20459999990463,5.221199999809265,5.243499999999997,5.2545999999046344,5.2712999997138965,5.287999999999997,5.304699999809266,5.3211999998092665,5.338299999713897,5.354500000000002,5.371299999713898,5.391500000000001,5.4073999996185265,5.421199999809261,5.438199999809264,5.45459999990463,5.471799999713895,5.489799999713895,5.5071999998092664,5.521199999809262,5.539599999904631,5.556599999904634,5.574299999713894,5.590699999809267,5.607799999713897,5.6229999999999976,5.6395999999046325,5.660099999904631,5.675699999809261,5.691899999618528,5.705699999809262,5.731899999618527,5.742699999809261,5.754799999713896,5.774399999618531,5.792399999618532,5.812099999904632,5.821399999618528,5.837899999618529,5.857099999904634,5.871299999713898]","[1732161787527,1732161787567,1732161787572,1732161787593,1732161787624,1732161787632,1732161787658,1732161787666,1732161787691,1732161787700,1732161787724,1732161787732,1732161787758,1732161787766,1732161787791,1732161787800,1732161787826,1732161787834,1732161787858,1732161787866,1732161787890,1732161787899,1732161787926,1732161787935,1732161787958,1732161787967,1732161787994,1732161788002,1732161788024,1732161788031,1732161788059,1732161788066,1732161788091,1732161788099,1732161788124,1732161788131,1732161788157,1732161788165,1732161788197,1732161788205,1732161788224,1732161788236,1732161788260,1732161788267,1732161788292,1732161788301,1732161788324,1732161788331,1732161788357,1732161788364,1732161788392,1732161788400,1732161788426,1732161788435,1732161788461,1732161788468,1732161788496,1732161788503,1732161788545,1732161788555,1732161788577,1732161788585,1732161788613,1732161788621,1732161788643,1732161788651,1732161788677,1732161788685,1732161788711,1732161788718,1732161788744,1732161788752,1732161788777,1732161788785,1732161788811,1732161788818,1732161788841,1732161788848,1732161788876,1732161788883,1732161788908,1732161788916,1732161788946,1732161788953,1732161788992,1732161789000,1732161789008,1732161789025,1732161789039,1732161789056,1732161789072,1732161789089,1732161789109,1732161789124,1732161789141,1732161789156,1732161789176,1732161789194,1732161789210,1732161789227,1732161789242,1732161789256,1732161789273,1732161789295,1732161789305,1732161789322,1732161789344,1732161789370,1732161789378,1732161789389,1732161789408,1732161789427,1732161789443,1732161789463,1732161789478,1732161789491,1732161789508,1732161789525,1732161789542,1732161789557,1732161789574,1732161789591,1732161789610,1732161789625,1732161789641,1732161789657,1732161789674,1732161789691,1732161789709,1732161789724,1732161789741,1732161789757,1732161789774,1732161789794,1732161789809,1732161789824,1732161789841,1732161789857,1732161789874,1732161789891,1732161789909,1732161789924,1732161789941,1732161789958,1732161789974,1732161789991,1732161790007,1732161790024,1732161790041,1732161790058,1732161790074,1732161790091,1732161790111,1732161790128,1732161790144,1732161790160,1732161790174,1732161790197,1732161790211,1732161790224,1732161790241,1732161790261,1732161790274,1732161790291,1732161790310,1732161790326,1732161790341,1732161790358,1732161790374,1732161790391,1732161790410,1732161790427,1732161790441,1732161790457,1732161790474,1732161790491,1732161790509,1732161790526,1732161790541,1732161790560,1732161790576,1732161790591,1732161790607,1732161790624,1732161790641,1732161790657,1732161790674,1732161790691,1732161790707,1732161790724,1732161790741,1732161790757,1732161790779,1732161790791,1732161790807,1732161790824,1732161790844,1732161790860,1732161790874,1732161790891,1732161790912,1732161790928,1732161790942,1732161790959,1732161790974,1732161790992,1732161791010,1732161791031,1732161791041,1732161791057,1732161791080,1732161791091,1732161791110,1732161791126,1732161791141,1732161791157,1732161791174,1732161791191,1732161791210,1732161791226,1732161791241,1732161791257,1732161791274,1732161791291,1732161791310,1732161791326,1732161791345,1732161791360,1732161791375,1732161791391,1732161791410,1732161791424,1732161791441,1732161791457,1732161791474,1732161791494,1732161791507,1732161791524,1732161791541,1732161791557,1732161791574,1732161791591,1732161791607,1732161791624,1732161791641,1732161791657,1732161791674,1732161791691,1732161791711,1732161791724,1732161791741,1732161791757,1732161791774,1732161791791,1732161791809,1732161791824,1732161791841,1732161791857,1732161791874,1732161791892,1732161791909,1732161791925,1732161791945,1732161791961,1732161791976,1732161791992,1732161792012,1732161792028,1732161792042,1732161792058,1732161792079,1732161792091,1732161792108,1732161792127,1732161792144,1732161792161,1732161792179,1732161792191,1732161792208,1732161792225,1732161792245,1732161792258,1732161792274,1732161792297,1732161792307,1732161792324,1732161792345,1732161792361,1732161792378,1732161792400,1732161792407,1732161792424,1732161792441,1732161792460,1732161792475,1732161792492,1732161792511,1732161792527,1732161792541,1732161792559,1732161792578,1732161792594,1732161792610,1732161792627,1732161792644,1732161792657,1732161792674,1732161792691,1732161792707,1732161792724,1732161792741,1732161792763,1732161792774,1732161792791,1732161792807,1732161792824,1732161792841,1732161792858,1732161792874,1732161792891,1732161792911,1732161792927,1732161792941,1732161792958,1732161792974,1732161792991,1732161793009,1732161793027,1732161793041,1732161793059,1732161793076,1732161793094,1732161793110,1732161793127,1732161793142,1732161793159,1732161793180,1732161793195,1732161793211,1732161793225,1732161793251,1732161793262,1732161793274,1732161793294,1732161793312,1732161793331,1732161793341,1732161793357,1732161793376,1732161793391]","[[1037.6,711.2],[1037.6,711.2],[1037.6,711.2],[1037.6,711.2],[1022.9,707.6],[1022.9,707.6],[1024.2,690.4],[1024.2,690.4],[1035.2,668],[1035.2,668],[1102,634.3],[1102,634.3],[1163.3,594.3],[1163.3,594.3],[1169.9,574.7],[1169.9,574.7],[1224.9,542.2],[1224.9,542.2],[1230.2,531.9],[1230.2,531.9],[1290.2,515.2],[1290.2,515.2],[1325.5,480.2],[1325.5,480.2],[1312.1,496.7],[1312.1,496.7],[1310.1,519.9],[1310.1,519.9],[1260.1,552.9],[1260.1,552.9],[1218.1,562.6],[1218.1,562.6],[1182.4,585.3],[1182.4,585.3],[1150,608.7],[1150,608.7],[1075.1,630.7],[1075.1,630.7],[1048.5,654.1],[1048.5,654.1],[1015.4,666.3],[1015.4,666.3],[966.3,700.5],[966.3,700.5],[976.3,677.4],[976.3,677.4],[992.8,642],[992.8,642],[1003,642],[1003,642],[964.4,655.1],[964.4,655.1],[918.4,652.3],[918.4,652.3],[880.4,630.8],[880.4,630.8],[839,621.2],[839,621.2],[788,618.2],[788,618.2],[778.8,634.5],[778.8,634.5],[722.8,629.8],[722.8,629.8],[629,646.8],[629,646.8],[534.6,647.6],[534.6,647.6],[490.9,628.5],[490.9,628.5],[476.2,611.3],[476.2,611.3],[454.4,603.1],[454.4,603.1],[454.5,603.9],[454.5,603.9],[456.3,588.6],[456.3,588.6],[477.8,588.1],[477.8,588.1],[466,568.7],[466,568.7],[490.5,559.6],[490.5,559.6],[548.6,563.1],[548.6,563.1],[613.3,584.5],[647.6,580.2],[670.3,587.8],[745.8,595.1],[816,598.8],[866.1,618],[916,612.3],[921.8,613.5],[948.5,619.7],[979.7,602.8],[999.5,591.5],[1039,606],[1091.1,610.1],[1107.5,607.5],[1107.5,607.5],[1103.2,621.4],[1119.2,642.4],[1124.6,660],[1124.6,660],[1149,664.1],[1174.9,669],[1158.3,703.9],[1158.3,703.9],[1137.5,737],[1091.4,744.4],[1067.2,757.7],[1039.6,778.2],[1023.6,779.6],[1023.6,779.6],[994.4,767.1],[954.7,760.4],[921.8,774.3],[884.7,788.2],[841.1,797.3],[813.9,806.5],[787.2,831.4],[746.2,853.1],[734.1,839.2],[694.8,868.2],[668.2,893.7],[642.9,937.7],[613.7,975.5],[522.9,990.1],[530.1,997.4],[490.4,1003.9],[506.4,1002.5],[514.5,998],[506.5,1022.2],[532,1004.7],[525.1,986.9],[505.3,936.6],[490,911.6],[538.2,911.8],[540.4,880],[572.9,862.4],[625.1,837],[677.3,811.6],[693.9,802.9],[733.8,797.8],[733.8,797.8],[763.5,788.6],[855.3,779],[950.8,741.5],[1028.4,710.6],[1086.7,701],[1145.2,677.9],[1148.9,672.5],[1154.7,659.7],[1191.3,633.7],[1205.4,608],[1251.3,590.3],[1265.6,597.6],[1265.6,597.6],[1245,612.4],[1245,612.4],[1235.1,617.9],[1235.1,617.9],[1234.9,626.8],[1236,633.3],[1217.4,642.5],[1198.9,657.3],[1188.9,666.3],[1174.7,681.1],[1135.6,690.9],[1076.8,701.1],[1041.9,704.7],[1030.9,712.2],[1030.9,712.2],[1019.7,709.2],[1003.5,711.5],[1007.3,704.1],[1008.9,698.5],[1001.2,702],[1005.3,692],[1019.1,698.2],[1041.4,687.4],[1041.4,687.4],[1074.8,667.7],[1074.8,667.7],[1097.2,650.6],[1097.2,650.6],[1121.8,636.2],[1121.8,636.2],[1155.2,623.8],[1155.2,623.8],[1174.1,614.2],[1174.1,614.2],[1158.2,607.1],[1158.2,607.1],[1159.2,618.8],[1148.3,637.3],[1162.3,630.1],[1160.3,630.8],[1150,646.3],[1119.1,662.5],[1110.7,677.1],[1095.8,682.5],[1094.8,692],[1128.6,699],[1124.2,679.9],[1124.1,663.7],[1125.7,675.3],[1125.7,675.3],[1136.6,683.2],[1136.6,683.2],[1161.4,673.7],[1181.3,664.7],[1170.6,660.2],[1174.2,667.7],[1153.6,679.8],[1135.4,688.9],[1143.7,689.5],[1140.8,708],[1077,705.2],[1077,705.2],[1043,694.9],[1043,694.9],[1011.4,701.4],[998.5,668.1],[947.3,653.4],[883.2,631],[883.2,631],[906,628.3],[906,628.3],[904.6,637.7],[890.4,636.7],[918.4,621.7],[918.4,621.7],[933.1,622.5],[946.2,610],[946.2,610],[973.3,623.6],[1014.2,667.2],[1071.2,714.2],[1143.5,760.5],[1124.7,782.9],[1097.6,793.3],[1105.1,826.2],[1046.7,850],[1036.7,875.4],[1024.5,926.7],[963.1,945.6],[963.1,945.6],[927.1,955.1],[932.9,953.3],[932.9,953.3],[942.1,935.5],[969.5,893.6],[1025.8,869.3],[1058.2,854.1],[1110.5,831.3],[1197.7,809],[1261.2,781.6],[1358.7,760.4],[1373.4,745.5],[1419.2,714],[1422.5,685.5],[1452.6,711.8],[1442.3,710.6],[1441,700.5],[1433.6,710.6],[1440.6,695.6],[1452.4,683],[1456.1,667.2],[1505.3,656.5],[1505.3,656.5],[1483.9,621.6],[1486.3,600.4],[1460.4,549.9],[1465,520.5],[1443,494.4],[1443,494.4],[1447,453.3],[1391.8,430.6],[1391.8,430.6],[1354.5,404.9],[1354.5,404.9],[1317.9,377.9],[1317.9,377.9],[1276,359.3],[1256.7,359.5],[1222.4,371.9],[1211.1,365.2],[1204.3,361.7],[1204.3,361.7],[1199.7,365.1],[1191.3,373.1],[1204.3,375.7],[1171.3,370.1],[1163.3,363.7],[1148.5,362.9],[1138.8,378.5],[1144.1,381.9],[1132,399.5],[1133.7,405.2],[1143,410],[1130.8,402.8],[1126.6,400.6],[1150.5,409.6],[1150.5,409.6],[1189,424.6],[1189,424.6],[1209.9,425.1],[1209.9,425.1],[1212.6,413.7],[1229.9,422.6],[1229.9,422.6],[1229.6,419],[1229.6,419],[1217.8,418.9],[1216.9,426.5],[1216.9,426.5],[1245.9,436.3],[1269.8,443.3],[1265.3,453.4],[1232.4,460.1],[1229.2,467.3],[1239.5,482.9],[1235.2,478.2],[1242.2,475.6],[1262.1,471.7],[1255.1,458.4],[1245.6,452.5],[1214.5,454.3],[1214.7,454.3],[1209.9,457.2],[1202.5,448.9],[1210.5,449.5],[1226.4,447.3],[1230.7,452],[1241.6,446.3],[1240.2,440.9],[1225.6,444.2],[1225.6,444.2],[1219.7,444.9],[1219.7,444.9],[1216.7,420.7],[1199.8,392.8],[1189.3,372.9],[1189.3,372.9],[1173.7,352.6],[1147.2,331],[1138.7,311.7],[1125.2,298]]","[-0.2,0.6000000000000001]","[0.2,0.6000000000000001]","[0.6000000000000001,0.6000000000000001]","[-0.6000000000000001,-0.6000000000000001]","[-0.6000000000000001,-0.2]","[-0.6000000000000001,0.2]","[-0.2,-0.6000000000000001]","[0.2,-0.6000000000000001]","[0.6000000000000001,-0.6000000000000001]","[-0.2,-0.2]","[0.2,-0.2]","[0.6000000000000001,-0.2]","[-0.2,0.2]","[0.2,0.2]","[0.6000000000000001,0.2]",0,0,0,0,1,3,Monitor,25,40,9,1,50,4,1,60,5
