inst1_resp.keys,inst1_resp.rt,calibrationMouse.x,calibrationMouse.y,calibrationMouse.leftButton,calibrationMouse.midButton,calibrationMouse.rightButton,calibrationClick.x,calibrationClick.y,calibrationClick.leftButton,calibrationClick.midButton,calibrationClick.rightButton,trialsc.thisRepN,trialsc.thisTrialN,trialsc.thisN,trialsc.thisIndex,trialsc.ran,calibration_x,calibration_y,participant,session,date,expName,psychopyVersion,OS,frameRate,calibrationClick.clicked_name,ScreenRes_pixels,mouse_2.x,mouse_2.y,mouse_2.leftButton,mouse_2.midButton,mouse_2.rightButton,mouse_2.time,mouse_2.clicked_name,Camera_pixels,mouse.x,mouse.y,mouse.leftButton,mouse.midButton,mouse.rightButton,mouse.time,mouse.clicked_name,Choice,Trial,TrialDuration,MOUSE_GAZE,ET_GAZE,ET_GAZE_x_T,time,unixTime,ET_GAZE_NF,Loc_Bus_label,Loc_Metro_label,Loc_RH_label,Loc_Cost_label,Loc_Travel_label,Loc_Comfort_label,Loc_Bus_cost,Loc_Metro_cost,Loc_RH_cost,Loc_Bus_travel,Loc_Metro_travel,Loc_RH_travel,Loc_Bus_comfort,Loc_Metro_comfort,Loc_RH_comfort,trials.thisRepN,trials.thisTrialN,trials.thisN,trials.thisIndex,trials.ran,Block,Device,RH_cost,RH_travel_time,RH_Comfort,metro_cost,metro_travel_time,metro_Comfort,Bus_cost,Bus_travel_time,Bus_Comfort
space,1.4138,-0.514583333,-0.364814815,1,0,0,-0.50625,-0.357407407,0,0,0,0,0,0,17,1,0.33,0.33,32,001,2024-11-21_13h16.52.411,Attention_exp_legacy,2023.1.0,Win32,59.88023952,,,,,,,,,,,,,,,,,,,,,,,,,,,,,,,,,,,,,,,,,,,,,,,,,,,,,,,,,
,,,,,,,-0.66875,-0.340740741,1,0,0,0,1,1,1,1,-0.67,-0.33,32,001,2024-11-21_13h16.52.411,Attention_exp_legacy,2023.1.0,Win32,59.88023952,,,,,,,,,,,,,,,,,,,,,,,,,,,,,,,,,,,,,,,,,,,,,,,,,,,,,,,,,
,,,,,,,0.338541667,-0.32037037,1,0,0,0,2,2,15,1,0.33,-0.33,32,001,2024-11-21_13h16.52.411,Attention_exp_legacy,2023.1.0,Win32,59.88023952,calibration_square,,,,,,,,,,,,,,,,,,,,,,,,,,,,,,,,,,,,,,,,,,,,,,,,,,,,,,,,
,,,,,,,0.332291667,-0.668518519,1,0,0,0,3,3,14,1,0.33,-0.67,32,001,2024-11-21_13h16.52.411,Attention_exp_legacy,2023.1.0,Win32,59.88023952,calibration_square,,,,,,,,,,,,,,,,,,,,,,,,,,,,,,,,,,,,,,,,,,,,,,,,,,,,,,,,
,,,,,,,-0.680208333,-0.685185185,1,0,0,0,4,4,0,1,-0.67,-0.67,32,001,2024-11-21_13h16.52.411,Attention_exp_legacy,2023.1.0,Win32,59.88023952,,,,,,,,,,,,,,,,,,,,,,,,,,,,,,,,,,,,,,,,,,,,,,,,,,,,,,,,,
,,,,,,,-0.333333333,0.324074074,1,0,0,0,5,5,7,1,-0.33,0.33,32,001,2024-11-21_13h16.52.411,Attention_exp_legacy,2023.1.0,Win32,59.88023952,calibration_square,,,,,,,,,,,,,,,,,,,,,,,,,,,,,,,,,,,,,,,,,,,,,,,,,,,,,,,,
,,,,,,,0.329166667,-0.007407407,1,0,0,0,6,6,16,1,0.33,0,32,001,2024-11-21_13h16.52.411,Attention_exp_legacy,2023.1.0,Win32,59.88023952,calibration_square,,,,,,,,,,,,,,,,,,,,,,,,,,,,,,,,,,,,,,,,,,,,,,,,,,,,,,,,
,,,,,,,0.336458333,0.718518519,1,0,0,0,7,7,18,1,0.33,0.67,32,001,2024-11-21_13h16.52.411,Attention_exp_legacy,2023.1.0,Win32,59.88023952,,,,,,,,,,,,,,,,,,,,,,,,,,,,,,,,,,,,,,,,,,,,,,,,,,,,,,,,,
,,,,,,,-0.338541667,-0.314814815,1,0,0,0,8,8,5,1,-0.33,-0.33,32,001,2024-11-21_13h16.52.411,Attention_exp_legacy,2023.1.0,Win32,59.88023952,,,,,,,,,,,,,,,,,,,,,,,,,,,,,,,,,,,,,,,,,,,,,,,,,,,,,,,,,
,,,,,,,0.013541667,0.692592593,1,0,0,0,9,9,13,1,0,0.67,32,001,2024-11-21_13h16.52.411,Attention_exp_legacy,2023.1.0,Win32,59.88023952,,,,,,,,,,,,,,,,,,,,,,,,,,,,,,,,,,,,,,,,,,,,,,,,,,,,,,,,,
,,,,,,,0.004166667,-0.011111111,1,0,0,0,10,10,11,1,0,0,32,001,2024-11-21_13h16.52.411,Attention_exp_legacy,2023.1.0,Win32,59.88023952,,,,,,,,,,,,,,,,,,,,,,,,,,,,,,,,,,,,,,,,,,,,,,,,,,,,,,,,,
,,,,,,,0.677083333,-0.644444444,1,0,0,0,11,11,20,1,0.67,-0.67,32,001,2024-11-21_13h16.52.411,Attention_exp_legacy,2023.1.0,Win32,59.88023952,,,,,,,,,,,,,,,,,,,,,,,,,,,,,,,,,,,,,,,,,,,,,,,,,,,,,,,,,
,,,,,,,0.009375,0.316666667,1,0,0,0,12,12,12,1,0,0.33,32,001,2024-11-21_13h16.52.411,Attention_exp_legacy,2023.1.0,Win32,59.88023952,,,,,,,,,,,,,,,,,,,,,,,,,,,,,,,,,,,,,,,,,,,,,,,,,,,,,,,,,
,,,,,,,-0.684375,0.32037037,1,0,0,0,13,13,3,1,-0.67,0.33,32,001,2024-11-21_13h16.52.411,Attention_exp_legacy,2023.1.0,Win32,59.88023952,,,,,,,,,,,,,,,,,,,,,,,,,,,,,,,,,,,,,,,,,,,,,,,,,,,,,,,,,
,,,,,,,-0.335416667,-0.675925926,1,0,0,0,14,14,4,1,-0.33,-0.67,32,001,2024-11-21_13h16.52.411,Attention_exp_legacy,2023.1.0,Win32,59.88023952,calibration_square,,,,,,,,,,,,,,,,,,,,,,,,,,,,,,,,,,,,,,,,,,,,,,,,,,,,,,,,
,,,,,,,-0.003125,-0.314814815,1,0,0,0,15,15,10,1,0,-0.33,32,001,2024-11-21_13h16.52.411,Attention_exp_legacy,2023.1.0,Win32,59.88023952,,,,,,,,,,,,,,,,,,,,,,,,,,,,,,,,,,,,,,,,,,,,,,,,,,,,,,,,,
,,,,,,,0.002083333,-0.651851852,1,0,0,0,16,16,9,1,0,-0.67,32,001,2024-11-21_13h16.52.411,Attention_exp_legacy,2023.1.0,Win32,59.88023952,,,,,,,,,,,,,,,,,,,,,,,,,,,,,,,,,,,,,,,,,,,,,,,,,,,,,,,,,
,,,,,,,0.675,0.651851852,1,0,0,0,17,17,19,1,0.67,0.67,32,001,2024-11-21_13h16.52.411,Attention_exp_legacy,2023.1.0,Win32,59.88023952,,,,,,,,,,,,,,,,,,,,,,,,,,,,,,,,,,,,,,,,,,,,,,,,,,,,,,,,,
,,,,,,,-0.33125,0.661111111,1,0,0,0,18,18,8,1,-0.33,0.67,32,001,2024-11-21_13h16.52.411,Attention_exp_legacy,2023.1.0,Win32,59.88023952,calibration_square,,,,,,,,,,,,,,,,,,,,,,,,,,,,,,,,,,,,,,,,,,,,,,,,,,,,,,,,
,,,,,,,-0.6625,-0.001851852,1,0,0,0,19,19,2,1,-0.67,0,32,001,2024-11-21_13h16.52.411,Attention_exp_legacy,2023.1.0,Win32,59.88023952,calibration_square,,,,,,,,,,,,,,,,,,,,,,,,,,,,,,,,,,,,,,,,,,,,,,,,,,,,,,,,
,,,,,,,-0.319791667,0.014814815,1,0,0,0,20,20,6,1,-0.33,0,32,001,2024-11-21_13h16.52.411,Attention_exp_legacy,2023.1.0,Win32,59.88023952,,,,,,,,,,,,,,,,,,,,,,,,,,,,,,,,,,,,,,,,,,,,,,,,,,,,,,,,,
,,,,,,,,,,,,,,,,,,,32,001,2024-11-21_13h16.52.411,Attention_exp_legacy,2023.1.0,Win32,59.88023952,,"[1920,1080]",[0.06354166666666666],[-0.49444444444444446],[1],[0],[0],[0.9830000000000041],"[""StartButton""]","[640,480]",[0.42604166666666665],[0.42592592592592593],[1],[0],[0],[5.071300000190732],"[""RH_label""]",RH_label,1,6.094,"[[0.25,-0.39444444444444443],[0.25,-0.39444444444444443],[0.25,-0.39444444444444443],[0.25,-0.39444444444444443],[0.25,-0.39444444444444443],[0.25,-0.39444444444444443],[0.25,-0.39444444444444443],[0.25,-0.39444444444444443],[0.25,-0.39444444444444443],[0.25,-0.39444444444444443],[0.25,-0.39444444444444443],[0.25,-0.39444444444444443],[0.25,-0.39444444444444443],[0.25,-0.39444444444444443],[0.25,-0.39444444444444443],[0.25,-0.39444444444444443],[0.25,-0.39444444444444443],[0.25,-0.39444444444444443],[0.25,-0.39444444444444443],[0.25,-0.39444444444444443],[0.25,-0.39444444444444443],[0.25,-0.39444444444444443],[0.25,-0.39444444444444443],[0.25,-0.39444444444444443],[0.25,-0.39444444444444443],[0.25,-0.39444444444444443],[0.25,-0.39444444444444443],[0.25,-0.39444444444444443],[0.25,-0.39444444444444443],[0.25,-0.39444444444444443],[0.25,-0.39444444444444443],[0.25,-0.39444444444444443],[0.25,-0.39444444444444443],[0.25,-0.39444444444444443],[0.25,-0.39444444444444443],[0.25,-0.39444444444444443],[0.25,-0.39444444444444443],[0.25,-0.39444444444444443],[0.25,-0.39444444444444443],[0.25,-0.39444444444444443],[0.25,-0.39444444444444443],[0.25,-0.39444444444444443],[0.25,-0.39444444444444443],[0.25,-0.39444444444444443],[0.25,-0.39444444444444443],[0.25,-0.39444444444444443],[0.25,-0.39444444444444443],[0.25,-0.39444444444444443],[0.25,-0.39444444444444443],[0.25,-0.39444444444444443],[0.25,-0.39444444444444443],[0.25,-0.39444444444444443],[0.25,-0.39444444444444443],[0.25,-0.39444444444444443],[0.25,-0.39444444444444443],[0.25,-0.39444444444444443],[0.25,-0.3925925925925926],[0.23958333333333334,-0.3814814814814815],[0.22604166666666667,-0.37222222222222223],[0.21145833333333333,-0.362962962962963],[0.17708333333333334,-0.3351851851851852],[0.1625,-0.32407407407407407],[0.12604166666666666,-0.2962962962962963],[0.08645833333333333,-0.26851851851851855],[0.052083333333333336,-0.2388888888888889],[0.026041666666666668,-0.22037037037037038],[0.007291666666666667,-0.20555555555555555],[-0.0125,-0.17962962962962964],[-0.020833333333333332,-0.1685185185185185],[-0.026041666666666668,-0.16111111111111112],[-0.03229166666666667,-0.1537037037037037],[-0.0375,-0.14444444444444443],[-0.04375,-0.13333333333333333],[-0.051041666666666666,-0.11851851851851852],[-0.057291666666666664,-0.1037037037037037],[-0.06145833333333333,-0.09259259259259259],[-0.06979166666666667,-0.07592592592592592],[-0.075,-0.06666666666666667],[-0.07916666666666666,-0.05740740740740741],[-0.08229166666666667,-0.05],[-0.084375,-0.044444444444444446],[-0.08541666666666667,-0.04259259259259259],[-0.0875,-0.037037037037037035],[-0.08854166666666667,-0.03333333333333333],[-0.090625,-0.025925925925925925],[-0.09270833333333334,-0.018518518518518517],[-0.09583333333333334,-0.009259259259259259],[-0.096875,-0.003703703703703704],[-0.09895833333333333,0.005555555555555556],[-0.09895833333333333,0.005555555555555556],[-0.09895833333333333,0.011111111111111112],[-0.09895833333333333,0.014814814814814815],[-0.09895833333333333,0.020370370370370372],[-0.09791666666666667,0.024074074074074074],[-0.096875,0.027777777777777776],[-0.09583333333333334,0.03148148148148148],[-0.09583333333333334,0.03148148148148148],[-0.09583333333333334,0.03888888888888889],[-0.09479166666666666,0.03888888888888889],[-0.09166666666666666,0.04259259259259259],[-0.090625,0.046296296296296294],[-0.0875,0.05],[-0.08333333333333333,0.05185185185185185],[-0.07395833333333333,0.05740740740740741],[-0.06979166666666667,0.05925925925925926],[-0.06041666666666667,0.06111111111111111],[-0.05416666666666667,0.06111111111111111],[-0.04479166666666667,0.06111111111111111],[-0.027083333333333334,0.06111111111111111],[-0.014583333333333334,0.06111111111111111],[-0.0020833333333333333,0.06111111111111111],[0.011458333333333333,0.06111111111111111],[0.01875,0.06111111111111111],[0.03333333333333333,0.06111111111111111],[0.046875,0.06111111111111111],[0.058333333333333334,0.06111111111111111],[0.078125,0.05555555555555555],[0.08645833333333333,0.05185185185185185],[0.090625,0.046296296296296294],[0.090625,0.044444444444444446],[0.09166666666666666,0.03888888888888889],[0.09166666666666666,0.03518518518518519],[0.09166666666666666,0.027777777777777776],[0.08958333333333333,0.018518518518518517],[0.08958333333333333,0.009259259259259259],[0.08854166666666667,0.005555555555555556],[0.08645833333333333,-0.009259259259259259],[0.08541666666666667,-0.025925925925925925],[0.08541666666666667,-0.05],[0.08541666666666667,-0.06296296296296296],[0.08541666666666667,-0.07962962962962963],[0.08541666666666667,-0.1],[0.08541666666666667,-0.12222222222222222],[0.08541666666666667,-0.14629629629629629],[0.08541666666666667,-0.16111111111111112],[0.08541666666666667,-0.1814814814814815],[0.08541666666666667,-0.18703703703703703],[0.08541666666666667,-0.20185185185185187],[0.084375,-0.21851851851851853],[0.08229166666666667,-0.22962962962962963],[0.08125,-0.23703703703703705],[0.08125,-0.2462962962962963],[0.08020833333333334,-0.2537037037037037],[0.078125,-0.26296296296296295],[0.07604166666666666,-0.2722222222222222],[0.07604166666666666,-0.2796296296296296],[0.07395833333333333,-0.2851851851851852],[0.07291666666666667,-0.29074074074074074],[0.07083333333333333,-0.29814814814814816],[0.06875,-0.3037037037037037],[0.065625,-0.31296296296296294],[0.0625,-0.32222222222222224],[0.06145833333333333,-0.32592592592592595],[0.059375,-0.3314814814814815],[0.058333333333333334,-0.3351851851851852],[0.05625,-0.3388888888888889],[0.05520833333333333,-0.34074074074074073],[0.053125,-0.34629629629629627],[0.051041666666666666,-0.35185185185185186],[0.05,-0.35555555555555557],[0.04895833333333333,-0.3592592592592593],[0.04895833333333333,-0.3611111111111111],[0.04791666666666667,-0.3648148148148148],[0.04583333333333333,-0.37037037037037035],[0.04479166666666667,-0.37407407407407406],[0.042708333333333334,-0.37777777777777777],[0.042708333333333334,-0.37962962962962965],[0.041666666666666664,-0.3814814814814815],[0.041666666666666664,-0.3851851851851852],[0.041666666666666664,-0.387037037037037],[0.041666666666666664,-0.387037037037037],[0.040625,-0.3888888888888889],[0.040625,-0.3888888888888889],[0.040625,-0.3888888888888889],[0.040625,-0.3888888888888889],[0.040625,-0.3888888888888889],[0.040625,-0.3888888888888889],[0.040625,-0.3888888888888889],[0.03958333333333333,-0.3888888888888889],[0.03854166666666667,-0.3888888888888889],[0.0375,-0.3888888888888889],[0.035416666666666666,-0.387037037037037],[0.034375,-0.387037037037037],[0.03125,-0.387037037037037],[0.027083333333333334,-0.3814814814814815],[0.023958333333333335,-0.37777777777777777],[0.021875,-0.37592592592592594],[0.011458333333333333,-0.3648148148148148],[0.0010416666666666667,-0.35555555555555557],[-0.009375,-0.34814814814814815],[-0.01875,-0.34074074074074073],[-0.027083333333333334,-0.3333333333333333],[-0.03229166666666667,-0.3314814814814815],[-0.041666666666666664,-0.32592592592592595],[-0.046875,-0.32407407407407407],[-0.05520833333333333,-0.31851851851851853],[-0.06875,-0.30925925925925923],[-0.08333333333333333,-0.2962962962962963],[-0.09270833333333334,-0.2833333333333333],[-0.09583333333333334,-0.2777777777777778],[-0.10520833333333333,-0.26296296296296295],[-0.10729166666666666,-0.25],[-0.11041666666666666,-0.23703703703703705],[-0.11145833333333334,-0.22592592592592592],[-0.1125,-0.21296296296296297],[-0.1125,-0.2],[-0.1125,-0.18518518518518517],[-0.1125,-0.16296296296296298],[-0.11354166666666667,-0.1537037037037037],[-0.11458333333333333,-0.1388888888888889],[-0.11979166666666667,-0.12037037037037036],[-0.12291666666666666,-0.1037037037037037],[-0.125,-0.08888888888888889],[-0.125,-0.07777777777777778],[-0.125,-0.06666666666666667],[-0.125,-0.04814814814814815],[-0.125,-0.04259259259259259],[-0.125,-0.03518518518518519],[-0.12083333333333333,-0.024074074074074074],[-0.115625,-0.012962962962962963],[-0.11354166666666667,-0.011111111111111112],[-0.11041666666666666,-0.005555555555555556],[-0.10520833333333333,0],[-0.1,0.003703703703703704],[-0.096875,0.007407407407407408],[-0.090625,0.009259259259259259],[-0.084375,0.012962962962962963],[-0.07708333333333334,0.014814814814814815],[-0.06875,0.018518518518518517],[-0.058333333333333334,0.022222222222222223],[-0.04583333333333333,0.025925925925925925],[-0.03229166666666667,0.027777777777777776],[-0.008333333333333333,0.03148148148148148],[0,0.03148148148148148],[0.025,0.03518518518518519],[0.040625,0.03518518518518519],[0.052083333333333336,0.03518518518518519],[0.06041666666666667,0.037037037037037035],[0.065625,0.037037037037037035],[0.07083333333333333,0.037037037037037035],[0.07604166666666666,0.037037037037037035],[0.08020833333333334,0.037037037037037035],[0.084375,0.037037037037037035],[0.08958333333333333,0.037037037037037035],[0.09479166666666666,0.037037037037037035],[0.09791666666666667,0.037037037037037035],[0.10208333333333333,0.037037037037037035],[0.10520833333333333,0.03333333333333333],[0.10833333333333334,0.03148148148148148],[0.1125,0.027777777777777776],[0.11666666666666667,0.025925925925925925],[0.11979166666666667,0.024074074074074074],[0.12291666666666666,0.022222222222222223],[0.125,0.022222222222222223],[0.128125,0.022222222222222223],[0.13020833333333334,0.022222222222222223],[0.13333333333333333,0.022222222222222223],[0.13645833333333332,0.024074074074074074],[0.14166666666666666,0.03148148148148148],[0.14895833333333333,0.05555555555555555],[0.153125,0.07592592592592592],[0.15729166666666666,0.10185185185185185],[0.15833333333333333,0.1259259259259259],[0.16145833333333334,0.1537037037037037],[0.16354166666666667,0.1814814814814815],[0.16666666666666666,0.2074074074074074],[0.16770833333333332,0.22962962962962963],[0.16770833333333332,0.24444444444444444],[0.16770833333333332,0.2537037037037037],[0.16770833333333332,0.2574074074074074],[0.16770833333333332,0.25925925925925924],[0.16770833333333332,0.2611111111111111],[0.16770833333333332,0.2611111111111111],[0.16770833333333332,0.26296296296296295],[0.16770833333333332,0.26296296296296295],[0.16770833333333332,0.26481481481481484],[0.16770833333333332,0.26666666666666666],[0.16770833333333332,0.27037037037037037],[0.17083333333333334,0.2777777777777778],[0.17395833333333333,0.2814814814814815],[0.17604166666666668,0.2851851851851852],[0.18229166666666666,0.29074074074074074],[0.18854166666666666,0.29814814814814816],[0.20520833333333333,0.3111111111111111],[0.21770833333333334,0.32407407407407407],[0.23541666666666666,0.3333333333333333],[0.25416666666666665,0.3425925925925926],[0.27395833333333336,0.3537037037037037],[0.28958333333333336,0.3592592592592593],[0.3104166666666667,0.37037037037037035],[0.328125,0.37962962962962965],[0.346875,0.3888888888888889],[0.36041666666666666,0.3962962962962963],[0.375,0.40555555555555556],[0.390625,0.4111111111111111],[0.41354166666666664,0.4222222222222222],[0.421875,0.42407407407407405],[0.42604166666666665,0.42592592592592593],[0.42604166666666665,0.42592592592592593],[0.42604166666666665,0.42592592592592593],[0.42604166666666665,0.42592592592592593],[0.42604166666666665,0.42592592592592593],[0.42604166666666665,0.42592592592592593],[0.42604166666666665,0.42592592592592593],[0.42604166666666665,0.42592592592592593],[0.42604166666666665,0.42592592592592593],[0.42604166666666665,0.42592592592592593],[0.42604166666666665,0.42592592592592593],[0.42604166666666665,0.42592592592592593],[0.42604166666666665,0.42592592592592593],[0.42604166666666665,0.42592592592592593],[0.42604166666666665,0.42592592592592593],[0.42604166666666665,0.42592592592592593],[0.42604166666666665,0.42592592592592593],[0.42604166666666665,0.42592592592592593],[0.42604166666666665,0.42592592592592593],[0.42604166666666665,0.42592592592592593],[0.42604166666666665,0.42592592592592593],[0.42604166666666665,0.42592592592592593],[0.42604166666666665,0.42592592592592593],[0.42604166666666665,0.42592592592592593],[0.42604166666666665,0.42592592592592593],[0.42604166666666665,0.42592592592592593],[0.42604166666666665,0.42592592592592593],[0.42604166666666665,0.42592592592592593],[0.42604166666666665,0.42592592592592593],[0.42604166666666665,0.42592592592592593],[0.42604166666666665,0.42592592592592593],[0.42604166666666665,0.42592592592592593],[0.42604166666666665,0.42592592592592593],[0.42604166666666665,0.42592592592592593],[0.42604166666666665,0.42592592592592593],[0.42604166666666665,0.42592592592592593],[0.42604166666666665,0.42777777777777776],[0.42604166666666665,0.42777777777777776],[0.42604166666666665,0.42777777777777776],[0.42604166666666665,0.412962962962963],[0.43125,0.39814814814814814],[0.43854166666666666,0.38333333333333336],[0.44895833333333335,0.362962962962963],[0.46875,0.3296296296296296],[0.475,0.32037037037037036],[0.49166666666666664,0.3],[0.51875,0.26481481481481484],[0.534375,0.24444444444444444],[0.5489583333333333,0.22592592592592592],[0.5583333333333333,0.21481481481481482],[0.5635416666666667,0.20555555555555555],[0.5677083333333334,0.2],[0.5708333333333333,0.19444444444444445],[0.5708333333333333,0.19444444444444445],[0.5708333333333333,0.19444444444444445],[0.5708333333333333,0.19444444444444445],[0.5708333333333333,0.19444444444444445],[0.5708333333333333,0.19444444444444445],[0.5708333333333333,0.19444444444444445],[0.5708333333333333,0.19444444444444445],[0.5708333333333333,0.19444444444444445],[0.5708333333333333,0.19444444444444445],[0.5708333333333333,0.19444444444444445],[0.5708333333333333,0.19444444444444445],[0.5708333333333333,0.19444444444444445],[0.5708333333333333,0.19444444444444445],[0.5708333333333333,0.19444444444444445],[0.5708333333333333,0.19444444444444445]]","[[0.38614583333333335,-0.09870370370370372],[0.38614583333333335,-0.09870370370370372],[0.3991666666666667,-0.09981481481481477],[0.41531250000000003,-0.11537037037037039],[0.41531250000000003,-0.11537037037037039],[0.41739583333333335,-0.09000000000000004],[0.42208333333333337,-0.09055555555555551],[0.4413541666666667,-0.08351851851851856],[0.45343749999999994,-0.07074074074074072],[0.45343749999999994,-0.07074074074074072],[0.44562499999999994,-0.049629629629629544],[0.44562499999999994,-0.049629629629629544],[0.4579166666666666,-0.04129629629629621],[0.46239583333333345,-0.02370370370370362],[0.4570833333333333,-0.017592592592592594],[0.4517708333333334,-0.046481481481481526],[0.4632291666666667,-0.049629629629629544],[0.47635416666666663,-0.08611111111111111],[0.47635416666666663,-0.08611111111111111],[0.4710416666666667,-0.10870370370370368],[0.4860416666666666,-0.1359259259259259],[0.4860416666666666,-0.1359259259259259],[0.5010416666666667,-0.16314814814814818],[0.504375,-0.1838888888888889],[0.4782291666666666,-0.222037037037037],[0.47541666666666677,-0.2681481481481482],[0.4772916666666667,-0.3059259259259259],[0.4772916666666667,-0.3059259259259259],[0.4857291666666666,-0.2985185185185185],[0.46749999999999997,-0.3194444444444444],[0.46749999999999997,-0.3194444444444444],[0.4492708333333333,-0.3403703703703704],[0.45979166666666677,-0.33666666666666667],[0.45979166666666677,-0.33666666666666667],[0.45760416666666665,-0.3405555555555555],[0.4556250000000001,-0.3464814814814815],[0.4556250000000001,-0.3464814814814815],[0.44500000000000006,-0.33648148148148144],[0.44500000000000006,-0.33648148148148144],[0.4664583333333333,-0.3333333333333333],[0.4664583333333333,-0.3333333333333333],[0.4646874999999999,-0.3461111111111111],[0.4646874999999999,-0.3461111111111111],[0.46989583333333323,-0.35185185185185186],[0.4756249999999999,-0.36203703703703705],[0.4756249999999999,-0.36203703703703705],[0.4881249999999999,-0.3551851851851852],[0.4881249999999999,-0.3551851851851852],[0.4735416666666666,-0.34574074074074074],[0.45187499999999997,-0.3368518518518518],[0.42916666666666664,-0.3301851851851852],[0.40625,-0.32148148148148153],[0.40520833333333334,-0.32],[0.39072916666666657,-0.29259259259259257],[0.38395833333333323,-0.2505555555555556],[0.3540625000000001,-0.2131481481481482],[0.32364583333333335,-0.1712962962962963],[0.32364583333333335,-0.1712962962962963],[0.2947916666666667,-0.10018518518518522],[0.2882291666666667,-0.03425925925925926],[0.2760416666666667,0.02555555555555547],[0.2760416666666667,0.02555555555555547],[0.2633333333333333,0.08611111111111111],[0.2633333333333333,0.08611111111111111],[0.24249999999999997,0.12685185185185185],[0.23229166666666667,0.16370370370370366],[0.2430208333333333,0.20999999999999996],[0.2537499999999999,0.25629629629629624],[0.24520833333333342,0.2507407407407407],[0.23666666666666672,0.24518518518518514],[0.20104166666666667,0.19462962962962968],[0.20166666666666658,0.18648148148148155],[0.1865624999999999,0.15592592592592602],[0.1788541666666667,0.11722222222222214],[0.1788541666666667,0.11722222222222214],[0.1728125000000001,0.15055555555555547],[0.1943749999999999,0.1816666666666667],[0.14989583333333342,0.14518518518518514],[0.09874999999999995,0.11629629629629622],[0.0912499999999999,0.11796296296296305],[0.07989583333333337,0.12962962962962962],[0.07989583333333337,0.12962962962962962],[0.12072916666666676,0.1551851851851851],[0.09656250000000005,0.15629629629629627],[0.09656250000000005,0.15629629629629627],[0.0890625,0.17092592592592584],[0.0890625,0.17092592592592584],[0.07583333333333328,0.19740740740740745],[0.06083333333333331,0.16222222222222227],[0.010000000000000024,0.12240740740740745],[0.002499999999999976,0.14388888888888898],[-0.000416666666666643,0.13518518518518519],[0.007083333333333286,0.14962962962962956],[0.014895833333333285,0.16703703703703712],[0.014895833333333285,0.16703703703703712],[-0.013854166666666619,0.14907407407407408],[0.013541666666666667,0.13777777777777775],[0.0006250000000000236,0.14518518518518514],[0.02833333333333338,0.12759259259259256],[0.06427083333333337,0.11944444444444445],[0.09479166666666666,0.09277777777777782],[0.09666666666666662,0.07259259259259268],[0.0974999999999999,0.06888888888888897],[0.07760416666666667,0.06814814814814807],[0.06124999999999995,0.0544444444444444],[0.07208333333333337,0.060370370370370414],[0.051979166666666646,0.02092592592592584],[0.06843750000000005,0.02444444444444453],[0.050312499999999954,0.012222222222222264],[0.04760416666666671,0.022592592592592678],[0.028125,0.03888888888888889],[0.028125,0.03888888888888889],[0.06531250000000005,0.06370370370370367],[0.049791666666666616,0.06481481481481481],[0.049791666666666616,0.06481481481481481],[0.08260416666666662,0.05555555555555555],[0.11697916666666662,0.06351851851851843],[0.14010416666666667,0.07222222222222222],[0.14010416666666667,0.07222222222222222],[0.13552083333333323,0.10703703703703696],[0.11291666666666676,0.11907407407407399],[0.07427083333333329,0.11518518518518527],[0.029166666666666667,0.13629629629629633],[0.0068750000000000235,0.15555555555555556],[-0.05249999999999998,0.18185185185185193],[-0.05249999999999998,0.18185185185185193],[-0.049270833333333285,0.21740740740740735],[-0.08739583333333331,0.2116666666666666],[-0.1336458333333333,0.2101851851851852],[-0.18875000000000006,0.2442592592592592],[-0.20187499999999994,0.23962962962962958],[-0.20020833333333338,0.22629629629629638],[-0.20812499999999995,0.25555555555555554],[-0.22395833333333334,0.2161111111111112],[-0.24145833333333327,0.21222222222222226],[-0.2482291666666666,0.15777777777777785],[-0.2482291666666666,0.15777777777777785],[-0.21916666666666665,0.13666666666666658],[-0.18916666666666668,0.12129629629629629],[-0.13697916666666668,0.11629629629629622],[-0.09583333333333334,0.07962962962962963],[-0.07406250000000002,0.11129629629629634],[-0.03999999999999997,0.10962962962962972],[-0.016354166666666715,0.1175925925925926],[0.002812500000000047,0.15907407407407403],[0.027499999999999976,0.17296296296296293],[0.05010416666666669,0.17537037037037045],[0.05010416666666669,0.17537037037037045],[0.049687500000000044,0.19296296296296306],[0.03291666666666669,0.22111111111111106],[0.0014583333333333095,0.21351851851851844],[-0.0125,0.23833333333333342],[-0.013020833333333334,0.23074074074074077],[-0.034791666666666644,0.23833333333333342],[-0.034791666666666644,0.23833333333333342],[-0.004270833333333357,0.2535185185185185],[0.0018749999999999527,0.23777777777777773],[0.01864583333333331,0.2272222222222223],[0.051250000000000046,0.2581481481481481],[0.07625000000000005,0.2668518518518519],[0.0896874999999999,0.2735185185185186],[0.0896874999999999,0.2735185185185186],[0.10947916666666657,0.3168518518518519],[0.11697916666666662,0.35111111111111115],[0.14718749999999994,0.3824074074074074],[0.14718749999999994,0.3824074074074074],[0.15583333333333324,0.40111111111111114],[0.1414583333333333,0.3949999999999999],[0.146875,0.4170370370370371],[0.1430208333333333,0.4262962962962964],[0.11833333333333323,0.4487037037037036],[0.11833333333333323,0.4487037037037036],[0.10052083333333334,0.45925925925925926],[0.0912499999999999,0.49907407407407406],[0.0912499999999999,0.49907407407407406],[0.07916666666666666,0.5064814814814815],[0.07322916666666662,0.5031481481481482],[0.040625,0.5009259259259259],[0.06364583333333336,0.5020370370370371],[0.06364583333333336,0.5020370370370371],[0.05249999999999998,0.5255555555555554],[0.06291666666666665,0.5325925925925926],[0.06291666666666665,0.5325925925925926],[0.058437500000000024,0.5325925925925926],[0.0859375,0.5153703703703703],[0.09208333333333343,0.5224074074074074],[0.09208333333333343,0.5224074074074074],[0.07218749999999995,0.48925925925925934],[0.042812500000000024,0.4448148148148149],[0.025833333333333285,0.40981481481481474],[0.025833333333333285,0.40981481481481474],[0.006562499999999953,0.40185185185185185],[0.006562499999999953,0.40185185185185185],[-0.01083333333333331,0.3735185185185186],[-0.006666666666666643,0.3087037037037038],[-0.01572916666666669,0.2718518518518518],[-0.005416666666666714,0.2512962962962964],[-0.01864583333333331,0.252962962962963],[-0.04614583333333329,0.22907407407407415],[-0.04614583333333329,0.22907407407407415],[-0.014374999999999952,0.24259259259259258],[0.008749999999999977,0.2524074074074073],[0.008749999999999977,0.2524074074074073],[0.001979166666666643,0.2822222222222222],[-0.0048958333333333805,0.24648148148148152],[-0.019479166666666714,0.21444444444444435],[-0.03125,0.24351851851851852],[-0.04479166666666667,0.23870370370370367],[-0.04479166666666667,0.23870370370370367],[-0.06385416666666661,0.22981481481481486],[-0.09583333333333334,0.20481481481481487],[-0.10104166666666667,0.18592592592592588],[-0.12708333333333333,0.17296296296296293],[-0.12708333333333333,0.17296296296296293],[-0.14468749999999997,0.1594444444444445],[-0.14468749999999997,0.1594444444444445],[-0.16354166666666667,0.1227777777777777],[-0.1670833333333333,0.11962962962962967],[-0.18385416666666668,0.13333333333333333],[-0.19864583333333338,0.122037037037037],[-0.19864583333333338,0.122037037037037],[-0.20343749999999997,0.11611111111111119],[-0.21812499999999999,0.11407407407407412],[-0.25895833333333335,0.15],[-0.3154166666666666,0.18648148148148155],[-0.2938541666666667,0.14740740740740746],[-0.25906250000000003,0.12370370370370362],[-0.20479166666666668,0.11925925925925922],[-0.20479166666666668,0.11925925925925922],[-0.2189583333333334,0.1566666666666667],[-0.2189583333333334,0.1566666666666667],[-0.19197916666666662,0.14129629629629623],[-0.19197916666666662,0.14129629629629623],[-0.17562500000000003,0.12629629629629638],[-0.17562500000000003,0.12629629629629638],[-0.1577083333333333,0.11592592592592597],[-0.1577083333333333,0.11592592592592597],[-0.1202083333333333,0.13666666666666658],[-0.1202083333333333,0.13666666666666658],[-0.06687500000000005,0.09740740740740746],[-0.06687500000000005,0.09740740740740746],[0.003125,0.027222222222222307],[-0.016562499999999977,0.03777777777777774],[-0.02791666666666662,0.057037037037036956],[-0.03572916666666662,0.015000000000000043],[-0.0026041666666666665,-0.019999999999999917],[0.018333333333333358,-0.053703703703703705],[0.0515625,-0.05648148148148148],[0.07166666666666661,-0.07574074074074069],[0.07166666666666661,-0.07574074074074069],[0.07739583333333329,-0.10481481481481486],[0.0900000000000001,-0.10666666666666672],[0.11031250000000009,-0.09370370370370375],[0.12354166666666658,-0.11944444444444445],[0.12354166666666658,-0.11944444444444445],[0.12552083333333333,-0.11740740740740736],[0.12552083333333333,-0.11740740740740736],[0.12531249999999997,-0.12462962962962965],[0.1271874999999999,-0.152962962962963],[0.09208333333333343,-0.13351851851851856],[0.08093750000000005,-0.14370370370370375],[0.07947916666666661,-0.13537037037037042],[0.08833333333333329,-0.15648148148148147],[0.11437499999999995,-0.19611111111111107],[0.11437499999999995,-0.21129629629629634],[0.12958333333333344,-0.2035185185185185],[0.13875000000000004,-0.24111111111111108],[0.14427083333333332,-0.22370370370370374],[0.15895833333333323,-0.23648148148148146],[0.1944791666666667,-0.23703703703703705],[0.19406249999999994,-0.25833333333333336],[0.18604166666666658,-0.25148148148148153],[0.16760416666666675,-0.23148148148148148],[0.16760416666666675,-0.23148148148148148],[0.15260416666666668,-0.2212962962962963],[0.15260416666666668,-0.2212962962962963],[0.13875000000000004,-0.24537037037037038],[0.14093749999999997,-0.23296296296296298],[0.13531250000000009,-0.1992592592592593],[0.1337500000000001,-0.17518518518518522],[0.1337500000000001,-0.17518518518518522],[0.14333333333333323,-0.1633333333333333],[0.15166666666666656,-0.17],[0.171875,-0.16518518518518516],[0.20104166666666667,-0.17555555555555558],[0.23020833333333332,-0.18592592592592588],[0.25750000000000006,-0.19537037037037036],[0.29093749999999996,-0.17814814814814814],[0.2972916666666668,-0.20055555555555557],[0.31239583333333343,-0.23555555555555555],[0.33583333333333343,-0.27148148148148155],[0.33583333333333343,-0.27148148148148155],[0.34958333333333325,-0.28888888888888886],[0.3459374999999999,-0.2892592592592592],[0.3459374999999999,-0.2892592592592592],[0.3536458333333333,-0.3022222222222222],[0.35166666666666657,-0.31611111111111106],[0.3577083333333334,-0.3314814814814815],[0.3577083333333334,-0.3314814814814815],[0.37000000000000005,-0.3244444444444444],[0.34645833333333326,-0.3255555555555556],[0.3541666666666667,-0.3398148148148148],[0.34739583333333335,-0.34518518518518515],[0.33541666666666664,-0.32888888888888895],[0.3255208333333333,-0.3237037037037037],[0.31968750000000007,-0.33055555555555555],[0.3177083333333333,-0.32703703703703707],[0.30520833333333336,-0.33777777777777773],[0.28958333333333336,-0.33111111111111113],[0.2671875,-0.3605555555555555],[0.28072916666666664,-0.3968518518518519],[0.2768749999999999,-0.40666666666666673],[0.2833333333333333,-0.4088888888888889],[0.278125,-0.4251851851851852],[0.29666666666666663,-0.4353703703703704],[0.31791666666666674,-0.44351851851851853],[0.32270833333333326,-0.48759259259259263],[0.34260416666666677,-0.4781481481481481],[0.3546875,-0.5351851851851852],[0.37302083333333325,-0.5238888888888888],[0.37302083333333325,-0.5238888888888888],[0.3897916666666667,-0.49592592592592594],[0.3897916666666667,-0.49592592592592594],[0.4039583333333333,-0.5125925925925926],[0.41072916666666665,-0.5224074074074074],[0.41072916666666665,-0.5224074074074074],[0.43604166666666655,-0.5525925925925925],[0.43604166666666655,-0.5525925925925925],[0.4359375,-0.5631481481481482],[0.4210416666666667,-0.5453703703703704],[0.42427083333333326,-0.5101851851851852],[0.4239583333333333,-0.5196296296296297],[0.4235416666666666,-0.46648148148148144],[0.41375000000000006,-0.4524074074074074],[0.4046875,-0.42000000000000004],[0.3954166666666666,-0.3531481481481481],[0.41291666666666677,-0.3072222222222222],[0.42041666666666655,-0.24444444444444444],[0.42687499999999995,-0.2088888888888889],[0.44812500000000005,-0.20166666666666663],[0.45427083333333323,-0.19148148148148145],[0.45427083333333323,-0.19148148148148145],[0.46364583333333326,-0.1787037037037037],[0.48239583333333325,-0.16722222222222224],[0.4944791666666667,-0.16574074074074074],[0.4944791666666667,-0.16574074074074074],[0.5226041666666668,-0.18129629629629626],[0.5355208333333332,-0.2103703703703704],[0.5368750000000001,-0.2346296296296296],[0.5405208333333335,-0.22870370370370371],[0.6006249999999999,-0.23703703703703705],[0.6006249999999999,-0.23703703703703705],[0.6342708333333335,-0.23574074074074075],[0.6342708333333335,-0.23574074074074075],[0.6758333333333333,-0.22037037037037038],[0.7125,-0.20685185185185184],[0.7658333333333334,-0.24129629629629631],[0.7658333333333334,-0.24129629629629631],[0.8092708333333334,-0.26370370370370366],[0.8366666666666667,-0.2764814814814815],[0.8366666666666667,-0.2764814814814815],[0.8484375,-0.290925925925926],[0.8567708333333334,-0.31351851851851853],[0.8567708333333334,-0.31351851851851853],[0.8443749999999999,-0.3581481481481481]]","[[0.38614583333333335,-0.09870370370370372,0.0003000001907338401],[0.38614583333333335,-0.09870370370370372,0.05040000009536527],[0.3991666666666667,-0.09981481481481477,0.06400000000000006],[0.41531250000000003,-0.11537037037037039,0.08290000009536413],[0.41531250000000003,-0.11537037037037039,0.09369999980926735],[0.41739583333333335,-0.09000000000000004,0.11040000009536755],[0.42208333333333337,-0.09055555555555551,0.12780000019073157],[0.4413541666666667,-0.08351851851851856,0.1443000001907322],[0.45343749999999994,-0.07074074074074072,0.16619999980926536],[0.45343749999999994,-0.07074074074074072,0.1853000001907361],[0.44562499999999994,-0.049629629629629544,0.20000000000000284],[0.44562499999999994,-0.049629629629629544,0.21040000009536897],[0.4579166666666666,-0.04129629629629621,0.22709999990463103],[0.46239583333333345,-0.02370370370370362,0.24380000019073833],[0.4570833333333333,-0.017592592592592594,0.2605000000000004],[0.4517708333333334,-0.046481481481481526,0.2815000000000012],[0.4632291666666667,-0.049629629629629544,0.2980999999046361],[0.47635416666666663,-0.08611111111111111,0.3160000000000025],[0.47635416666666663,-0.08611111111111111,0.3269999999999982],[0.4710416666666667,-0.10870370370370368,0.34369999980926735],[0.4860416666666666,-0.1359259259259259,0.3609999999999971],[0.4860416666666666,-0.1359259259259259,0.3771999998092639],[0.5010416666666667,-0.16314814814814818,0.3936999998092645],[0.504375,-0.1838888888888889,0.4113000001907352],[0.4782291666666666,-0.222037037037037,0.4299999999999997],[0.47541666666666677,-0.2681481481481482,0.4466999998092618],[0.4772916666666667,-0.3059259259259259,0.46350000000000335],[0.4772916666666667,-0.3059259259259259,0.4771999998092653],[0.4857291666666666,-0.2985185185185185,0.49380000019073833],[0.46749999999999997,-0.3194444444444444,0.5135999999046348],[0.46749999999999997,-0.3194444444444444,0.527000000000001],[0.4492708333333333,-0.3403703703703704,0.5436999998092631],[0.45979166666666677,-0.33666666666666667,0.5604000000953704],[0.45979166666666677,-0.33666666666666667,0.5770999999046325],[0.45760416666666665,-0.3405555555555555,0.5938000001907326],[0.4556250000000001,-0.3464814814814815,0.6103000001907333],[0.4556250000000001,-0.3464814814814815,0.6270000000000024],[0.44500000000000006,-0.33648148148148144,0.6446999998092622],[0.44500000000000006,-0.33648148148148144,0.6603000001907375],[0.4664583333333333,-0.3333333333333333,0.6771999998092681],[0.4664583333333333,-0.3333333333333333,0.6936999998092688],[0.4646874999999999,-0.3461111111111111,0.710400000095369],[0.4646874999999999,-0.3461111111111111,0.727099999904631],[0.46989583333333323,-0.35185185185185186,0.7436999998092659],[0.4756249999999999,-0.36203703703703705,0.7664000000953664],[0.4756249999999999,-0.36203703703703705,0.7770999999046353],[0.4881249999999999,-0.3551851851851852,0.7936999998092631],[0.4881249999999999,-0.3551851851851852,0.8103000001907361],[0.4735416666666666,-0.34574074074074074,0.8270999999046325],[0.45187499999999997,-0.3368518518518518,0.8435999999046331],[0.42916666666666664,-0.3301851851851852,0.8604000000953675],[0.40625,-0.32148148148148153,0.8770999999046296],[0.40520833333333334,-0.32,0.8936999998092645],[0.39072916666666657,-0.29259259259259257,0.9103000001907375],[0.38395833333333323,-0.2505555555555556,0.9270999999046339],[0.3540625000000001,-0.2131481481481482,0.9436999998092688],[0.32364583333333335,-0.1712962962962963,0.9631999998092624],[0.32364583333333335,-0.1712962962962963,0.9771999998092653],[0.2947916666666667,-0.10018518518518522,0.9939000000953655],[0.2882291666666667,-0.03425925925925926,1.0135999999046348],[0.2760416666666667,0.02555555555555547,1.0378000001907353],[0.2760416666666667,0.02555555555555547,1.0451999998092631],[0.2633333333333333,0.08611111111111111,1.0604999999999976],[0.2633333333333333,0.08611111111111111,1.0811999998092645],[0.24249999999999997,0.12685185185185185,1.093900000095367],[0.23229166666666667,0.16370370370370366,1.110599999904636],[0.2430208333333333,0.20999999999999996,1.1271999998092639],[0.2537499999999999,0.25629629629629624,1.1469000000953642],[0.24520833333333342,0.2507407407407407,1.1633000001907376],[0.23666666666666672,0.24518518518518514,1.1774000000953677],[0.20104166666666667,0.19462962962962968,1.1956999998092641],[0.20166666666666658,0.18648148148148155,1.210400000095369],[0.1865624999999999,0.15592592592592602,1.2271999998092653],[0.1788541666666667,0.11722222222222214,1.246699999809266],[0.1788541666666667,0.11722222222222214,1.2605000000000004],[0.1728125000000001,0.15055555555555547,1.2771999998092625],[0.1943749999999999,0.1816666666666667,1.296199999809268],[0.14989583333333342,0.14518518518518514,1.3104000000953704],[0.09874999999999995,0.11629629629629622,1.327300000190732],[0.0912499999999999,0.11796296296296305,1.3465999999046332],[0.07989583333333337,0.12962962962962962,1.3626999998092657],[0.07989583333333337,0.12962962962962962,1.3773000001907363],[0.12072916666666676,0.1551851851851851,1.396800000190737],[0.09656250000000005,0.15629629629629627,1.4104000000953647],[0.09656250000000005,0.15629629629629627,1.4273000001907334],[0.0890625,0.17092592592592584,1.443800000190734],[0.0890625,0.17092592592592584,1.4631999998092624],[0.07583333333333328,0.19740740740740745,1.4774000000953649],[0.06083333333333331,0.16222222222222227,1.4960999999046294],[0.010000000000000024,0.12240740740740745,1.5103000001907319],[0.002499999999999976,0.14388888888888898,1.529599999904633],[-0.000416666666666643,0.13518518518518519,1.5438000001907355],[0.007083333333333286,0.14962962962962956,1.5604999999999976],[0.014895833333333285,0.16703703703703712,1.580599999904635],[0.014895833333333285,0.16703703703703712,1.5940000000000012],[-0.013854166666666619,0.14907407407407408,1.610599999904636],[0.013541666666666667,0.13777777777777775,1.6291999998092663],[0.0006250000000000236,0.14518518518518514,1.6463000001907346],[0.02833333333333338,0.12759259259259256,1.660499999999999],[0.06427083333333337,0.11944444444444445,1.6773000001907334],[0.09479166666666666,0.09277777777777782,1.6966999998092618],[0.09666666666666662,0.07259259259259268,1.7105000000000032],[0.0974999999999999,0.06888888888888897,1.7273000001907377],[0.07760416666666667,0.06814814814814807,1.744099999904634],[0.06124999999999995,0.0544444444444444,1.7644999999999982],[0.07208333333333337,0.060370370370370414,1.780699999809265],[0.051979166666666646,0.02092592592592584,1.797699999809268],[0.06843750000000005,0.02444444444444453,1.8151999998092663],[0.050312499999999954,0.012222222222222264,1.832099999904635],[0.04760416666666671,0.022592592592592678,1.8483000001907328],[0.028125,0.03888888888888889,1.8738000001907338],[0.028125,0.03888888888888889,1.8808000001907317],[0.06531250000000005,0.06370370370370367,1.893900000095364],[0.049791666666666616,0.06481481481481481,1.910499999999999],[0.049791666666666616,0.06481481481481481,1.9335999999046294],[0.08260416666666662,0.05555555555555555,1.943800000190734],[0.11697916666666662,0.06351851851851843,1.9605000000000032],[0.14010416666666667,0.07222222222222222,1.9849000000953652],[0.14010416666666667,0.07222222222222222,1.9938000001907383],[0.13552083333333323,0.10703703703703696,2.0105999999046347],[0.11291666666666676,0.11907407407407399,2.0271999998092625],[0.07427083333333329,0.11518518518518527,2.048800000190738],[0.029166666666666667,0.13629629629629633,2.064400000095368],[0.0068750000000000235,0.15555555555555556,2.081800000190732],[-0.05249999999999998,0.18185185185185193,2.1003000001907353],[-0.05249999999999998,0.18185185185185193,2.110500000000002],[-0.049270833333333285,0.21740740740740735,2.1273000001907363],[-0.08739583333333331,0.2116666666666666,2.143800000190737],[-0.1336458333333333,0.2101851851851852,2.164199999809263],[-0.18875000000000006,0.2442592592592592,2.1806999998092635],[-0.20187499999999994,0.23962962962962958,2.197499999999998],[-0.20020833333333338,0.22629629629629638,2.2154999999999987],[-0.20812499999999995,0.25555555555555554,2.2314000000953698],[-0.22395833333333334,0.2161111111111112,2.245900000095368],[-0.24145833333333327,0.21222222222222226,2.2613000001907366],[-0.2482291666666666,0.15777777777777785,2.2831999998092627],[-0.2482291666666666,0.15777777777777785,2.2938000001907355],[-0.21916666666666665,0.13666666666666658,2.310599999904632],[-0.18916666666666668,0.12129629629629629,2.32809999990463],[-0.13697916666666668,0.11629629629629622,2.3468000001907328],[-0.09583333333333334,0.07962962962962963,2.363500000000002],[-0.07406250000000002,0.11129629629629634,2.380900000095366],[-0.03999999999999997,0.10962962962962972,2.3995000000000033],[-0.016354166666666715,0.1175925925925926,2.413800000190733],[0.002812500000000047,0.15907407407407403,2.429300000190736],[0.027499999999999976,0.17296296296296293,2.4448000001907317],[0.05010416666666669,0.17537037037037045,2.4635999999046305],[0.05010416666666669,0.17537037037037045,2.4771999998092653],[0.049687500000000044,0.19296296296296306,2.4939999999999998],[0.03291666666666669,0.22111111111111106,2.510400000095366],[0.0014583333333333095,0.21351851851851844,2.530999999999999],[-0.0125,0.23833333333333342,2.545900000095365],[-0.013020833333333334,0.23074074074074077,2.5604000000953704],[-0.034791666666666644,0.23833333333333342,2.5826999998092646],[-0.034791666666666644,0.23833333333333342,2.5938000001907326],[-0.004270833333333357,0.2535185185185185,2.6104000000953675],[0.0018749999999999527,0.23777777777777773,2.6274000000953706],[0.01864583333333331,0.2272222222222223,2.649000000000001],[0.051250000000000046,0.2581481481481481,2.665599999904636],[0.07625000000000005,0.2668518518518519,2.681900000095368],[0.0896874999999999,0.2735185185185186,2.7009000000953662],[0.0896874999999999,0.2735185185185186,2.7105000000000032],[0.10947916666666657,0.3168518518518519,2.7271999998092653],[0.11697916666666662,0.35111111111111115,2.7449999999999974],[0.14718749999999994,0.3824074074074074,2.765500000000003],[0.14718749999999994,0.3824074074074074,2.7785999999046354],[0.15583333333333324,0.40111111111111114,2.7953000001907355],[0.1414583333333333,0.3949999999999999,2.8145999999046296],[0.146875,0.4170370370370371,2.831000000000003],[0.1430208333333333,0.4262962962962964,2.8474000000953694],[0.11833333333333323,0.4487037037037036,2.862800000190738],[0.11833333333333323,0.4487037037037036,2.8814000000953683],[0.10052083333333334,0.45925925925925926,2.8935999999046302],[0.0912499999999999,0.49907407407407406,2.911199999809263],[0.0912499999999999,0.49907407407407406,2.927099999904634],[0.07916666666666666,0.5064814814814815,2.9436999998092688],[0.07322916666666662,0.5031481481481482,2.9603000001907347],[0.040625,0.5009259259259259,2.979300000190733],[0.06364583333333336,0.5020370370370371,3.0005999999046296],[0.06364583333333336,0.5020370370370371,3.0105000000000004],[0.05249999999999998,0.5255555555555554,3.0271999998092625],[0.06291666666666665,0.5325925925925926,3.0444999999999993],[0.06291666666666665,0.5325925925925926,3.063699999809266],[0.058437500000000024,0.5325925925925926,3.0771999998092667],[0.0859375,0.5153703703703703,3.0974999999999966],[0.09208333333333343,0.5224074074074074,3.1159000000953654],[0.09208333333333343,0.5224074074074074,3.1270999999046296],[0.07218749999999995,0.48925925925925934,3.143800000190737],[0.042812500000000024,0.4448148148148149,3.166099999904631],[0.025833333333333285,0.40981481481481474,3.1824000000953703],[0.025833333333333285,0.40981481481481474,3.1939000000953683],[0.006562499999999953,0.40185185185185185,3.2105000000000032],[0.006562499999999953,0.40185185185185185,3.234499999999997],[-0.01083333333333331,0.3735185185185186,3.2438000001907383],[-0.006666666666666643,0.3087037037037038,3.2613000001907366],[-0.01572916666666669,0.2718518518518518,3.2779000000953644],[-0.005416666666666714,0.2512962962962964,3.2993000001907333],[-0.01864583333333331,0.252962962962963,3.314699999809264],[-0.04614583333333329,0.22907407407407415,3.330699999809262],[-0.04614583333333329,0.22907407407407415,3.3438000001907326],[-0.014374999999999952,0.24259259259259258,3.3640999999046315],[0.008749999999999977,0.2524074074074073,3.3825000000000003],[0.008749999999999977,0.2524074074074073,3.3936999998092645],[0.001979166666666643,0.2822222222222222,3.414900000095365],[-0.0048958333333333805,0.24648148148148152,3.430500000000002],[-0.019479166666666714,0.21444444444444435,3.4469000000953685],[-0.03125,0.24351851851851852,3.4653000001907373],[-0.04479166666666667,0.23870370370370367,3.4820999999046336],[-0.04479166666666667,0.23870370370370367,3.4938000001907383],[-0.06385416666666661,0.22981481481481486,3.510400000095366],[-0.09583333333333334,0.20481481481481487,3.5330999999046355],[-0.10104166666666667,0.18592592592592588,3.5490999999046338],[-0.12708333333333333,0.17296296296296293,3.5641999998092686],[-0.12708333333333333,0.17296296296296293,3.5794000000953687],[-0.14468749999999997,0.1594444444444445,3.609199999809263],[-0.14468749999999997,0.1594444444444445,3.6199000000953703],[-0.16354166666666667,0.1227777777777777,3.6270999999046296],[-0.1670833333333333,0.11962962962962967,3.643800000190737],[-0.18385416666666668,0.13333333333333333,3.6628000001907353],[-0.19864583333333338,0.122037037037037,3.687099999904632],[-0.19864583333333338,0.122037037037037,3.6954000000953684],[-0.20343749999999997,0.11611111111111119,3.7143000001907325],[-0.21812499999999999,0.11407407407407412,3.730099999904631],[-0.25895833333333335,0.15,3.7438000001907383],[-0.3154166666666666,0.18648148148148155,3.7630999999046324],[-0.2938541666666667,0.14740740740740746,3.777300000190735],[-0.25906250000000003,0.12370370370370362,3.794400000095365],[-0.20479166666666668,0.11925925925925922,3.810699999809266],[-0.20479166666666668,0.11925925925925922,3.8326999998092646],[-0.2189583333333334,0.1566666666666667,3.8438000001907326],[-0.2189583333333334,0.1566666666666667,3.8604000000953675],[-0.19197916666666662,0.14129629629629623,3.8876999998092643],[-0.19197916666666662,0.14129629629629623,3.8969999999999985],[-0.17562500000000003,0.12629629629629638,3.910499999999999],[-0.17562500000000003,0.12629629629629638,3.9369999999999976],[-0.1577083333333333,0.11592592592592597,3.943800000190734],[-0.1577083333333333,0.11592592592592597,3.960400000095369],[-0.1202083333333333,0.13666666666666658,3.9771999998092653],[-0.1202083333333333,0.13666666666666658,3.9979000000953704],[-0.06687500000000005,0.09740740740740746,4.010800000190734],[-0.06687500000000005,0.09740740740740746,4.0271999998092625],[0.003125,0.027222222222222307,4.0479000000953675],[-0.016562499999999977,0.03777777777777774,4.063300000190736],[-0.02791666666666662,0.057037037037036956,4.077300000190732],[-0.03572916666666662,0.015000000000000043,4.093800000190733],[-0.0026041666666666665,-0.019999999999999917,4.113099999904634],[0.018333333333333358,-0.053703703703703705,4.131],[0.0515625,-0.05648148148148148,4.1436999998092645],[0.07166666666666661,-0.07574074074074069,4.163099999904631],[0.07166666666666661,-0.07574074074074069,4.177300000190733],[0.07739583333333329,-0.10481481481481486,4.193800000190734],[0.0900000000000001,-0.10666666666666672,4.210400000095369],[0.11031250000000009,-0.09370370370370375,4.229699999809263],[0.12354166666666658,-0.11944444444444445,4.243699999809266],[0.12354166666666658,-0.11944444444444445,4.260400000095366],[0.12552083333333333,-0.11740740740740736,4.281400000095367],[0.12552083333333333,-0.11740740740740736,4.293699999809263],[0.12531249999999997,-0.12462962962962965,4.3104999999999976],[0.1271874999999999,-0.152962962962963,4.3270999999046325],[0.09208333333333343,-0.13351851851851856,4.348300000190733],[0.08093750000000005,-0.14370370370370375,4.362300000190736],[0.07947916666666661,-0.13537037037037042,4.381300000190734],[0.08833333333333329,-0.15648148148148147,4.396199999809262],[0.11437499999999995,-0.19611111111111107,4.413800000190733],[0.11437499999999995,-0.21129629629629634,4.4291999998092635],[0.12958333333333344,-0.2035185185185185,4.443699999809269],[0.13875000000000004,-0.24111111111111108,4.462499999999999],[0.14427083333333332,-0.22370370370370374,4.477199999809265],[0.15895833333333323,-0.23648148148148146,4.494599999904629],[0.1944791666666667,-0.23703703703703705,4.510400000095366],[0.19406249999999994,-0.25833333333333336,4.5305000000000035],[0.18604166666666658,-0.25148148148148153,4.545800000190738],[0.16760416666666675,-0.23148148148148148,4.561],[0.16760416666666675,-0.23148148148148148,4.580099999904633],[0.15260416666666668,-0.2212962962962963,4.593800000190733],[0.15260416666666668,-0.2212962962962963,4.610599999904636],[0.13875000000000004,-0.24537037037037038,4.631400000095368],[0.14093749999999997,-0.23296296296296298,4.648000000000003],[0.13531250000000009,-0.1992592592592593,4.664699999809265],[0.1337500000000001,-0.17518518518518522,4.682199999809264],[0.1337500000000001,-0.17518518518518522,4.694000000000003],[0.14333333333333323,-0.1633333333333333,4.710800000190737],[0.15166666666666656,-0.17,4.727400000095365],[0.171875,-0.16518518518518516,4.746699999809266],[0.20104166666666667,-0.17555555555555558,4.763900000095369],[0.23020833333333332,-0.18592592592592588,4.779800000190733],[0.25750000000000006,-0.19537037037037036,4.79390000009537],[0.29093749999999996,-0.17814814814814814,4.813199999809264],[0.2972916666666668,-0.20055555555555557,4.827300000190732],[0.31239583333333343,-0.23555555555555555,4.843699999809267],[0.33583333333333343,-0.27148148148148155,4.863099999904634],[0.33583333333333343,-0.27148148148148155,4.87709999990463],[0.34958333333333325,-0.28888888888888886,4.893900000095364],[0.3459374999999999,-0.2892592592592592,4.912599999904636],[0.3459374999999999,-0.2892592592592592,4.927199999809268],[0.3536458333333333,-0.3022222222222222,4.943900000095368],[0.35166666666666657,-0.31611111111111106,4.963199999809262],[0.3577083333333334,-0.3314814814814815,4.9813000001907355],[0.3577083333333334,-0.3314814814814815,4.993800000190738],[0.37000000000000005,-0.3244444444444444,5.010400000095366],[0.34645833333333326,-0.3255555555555556,5.026900000095367],[0.3541666666666667,-0.3398148148148148,5.043599999904636],[0.34739583333333335,-0.34518518518518515,5.0634000000953705],[0.33541666666666664,-0.32888888888888895,5.081400000095364],[0.3255208333333333,-0.3237037037037037,5.097000000000001],[0.31968750000000007,-0.33055555555555555,5.11090000009537],[0.3177083333333333,-0.32703703703703707,5.129900000095368],[0.30520833333333336,-0.33777777777777773,5.143800000190737],[0.28958333333333336,-0.33111111111111113,5.164499999999997],[0.2671875,-0.3605555555555555,5.181300000190738],[0.28072916666666664,-0.3968518518518519,5.196699999809262],[0.2768749999999999,-0.40666666666666673,5.210300000190735],[0.2833333333333333,-0.4088888888888889,5.228900000095365],[0.278125,-0.4251851851851852,5.243599999904632],[0.29666666666666663,-0.4353703703703704,5.260300000190732],[0.31791666666666674,-0.44351851851851853,5.277000000000001],[0.32270833333333326,-0.48759259259259263,5.293599999904636],[0.34260416666666677,-0.4781481481481481,5.312400000095366],[0.3546875,-0.5351851851851852,5.327599999904635],[0.37302083333333325,-0.5238888888888888,5.343699999809267],[0.37302083333333325,-0.5238888888888888,5.360300000190733],[0.3897916666666667,-0.49592592592592594,5.37709999990463],[0.3897916666666667,-0.49592592592592594,5.3936999998092645],[0.4039583333333333,-0.5125925925925926,5.4103000001907375],[0.41072916666666665,-0.5224074074074074,5.427999999999997],[0.41072916666666665,-0.5224074074074074,5.4458000001907365],[0.43604166666666655,-0.5525925925925925,5.460300000190735],[0.43604166666666655,-0.5525925925925925,5.477199999809265],[0.4359375,-0.5631481481481482,5.493699999809266],[0.4210416666666667,-0.5453703703703704,5.510300000190732],[0.42427083333333326,-0.5101851851851852,5.527000000000001],[0.4239583333333333,-0.5196296296296297,5.544499999999999],[0.4235416666666666,-0.46648148148148144,5.5604999999999976],[0.41375000000000006,-0.4524074074074074,5.580400000095366],[0.4046875,-0.42000000000000004,5.595699999809263],[0.3954166666666666,-0.3531481481481481,5.610199999809268],[0.41291666666666677,-0.3072222222222222,5.627199999809264],[0.42041666666666655,-0.24444444444444444,5.647099999904633],[0.42687499999999995,-0.2088888888888889,5.662599999904636],[0.44812500000000005,-0.20166666666666663,5.678300000190738],[0.45427083333333323,-0.19148148148148145,5.698099999904635],[0.45427083333333323,-0.19148148148148145,5.710500000000003],[0.46364583333333326,-0.1787037037037037,5.727199999809265],[0.48239583333333325,-0.16722222222222224,5.7486999998092685],[0.4944791666666667,-0.16574074074074074,5.763199999809267],[0.4944791666666667,-0.16574074074074074,5.7771999998092625],[0.5226041666666668,-0.18129629629629626,5.793999999999997],[0.5355208333333332,-0.2103703703703704,5.813699999809266],[0.5368750000000001,-0.2346296296296296,5.831300000190737],[0.5405208333333335,-0.22870370370370371,5.848300000190733],[0.6006249999999999,-0.23703703703703705,5.863999999999997],[0.6006249999999999,-0.23703703703703705,5.8770000000000024],[0.6342708333333335,-0.23574074074074075,5.8936999998092645],[0.6342708333333335,-0.23574074074074075,5.910400000095365],[0.6758333333333333,-0.22037037037037038,5.927],[0.7125,-0.20685185185185184,5.94859999990463],[0.7658333333333334,-0.24129629629629631,5.964199999809267],[0.7658333333333334,-0.24129629629629631,5.977099999904631],[0.8092708333333334,-0.26370370370370366,5.993699999809266],[0.8366666666666667,-0.2764814814814815,6.014199999809264],[0.8366666666666667,-0.2764814814814815,6.027000000000001],[0.8484375,-0.290925925925926,6.043599999904636],[0.8567708333333334,-0.31351851851851853,6.064400000095368],[0.8567708333333334,-0.31351851851851853,6.0770999999046325],[0.8443749999999999,-0.3581481481481481,6.094000000000001]]","[0.0003000001907338401,0.05040000009536527,0.06400000000000006,0.08290000009536413,0.09369999980926735,0.11040000009536755,0.12780000019073157,0.1443000001907322,0.16619999980926536,0.1853000001907361,0.20000000000000284,0.21040000009536897,0.22709999990463103,0.24380000019073833,0.2605000000000004,0.2815000000000012,0.2980999999046361,0.3160000000000025,0.3269999999999982,0.34369999980926735,0.3609999999999971,0.3771999998092639,0.3936999998092645,0.4113000001907352,0.4299999999999997,0.4466999998092618,0.46350000000000335,0.4771999998092653,0.49380000019073833,0.5135999999046348,0.527000000000001,0.5436999998092631,0.5604000000953704,0.5770999999046325,0.5938000001907326,0.6103000001907333,0.6270000000000024,0.6446999998092622,0.6603000001907375,0.6771999998092681,0.6936999998092688,0.710400000095369,0.727099999904631,0.7436999998092659,0.7664000000953664,0.7770999999046353,0.7936999998092631,0.8103000001907361,0.8270999999046325,0.8435999999046331,0.8604000000953675,0.8770999999046296,0.8936999998092645,0.9103000001907375,0.9270999999046339,0.9436999998092688,0.9631999998092624,0.9771999998092653,0.9939000000953655,1.0135999999046348,1.0378000001907353,1.0451999998092631,1.0604999999999976,1.0811999998092645,1.093900000095367,1.110599999904636,1.1271999998092639,1.1469000000953642,1.1633000001907376,1.1774000000953677,1.1956999998092641,1.210400000095369,1.2271999998092653,1.246699999809266,1.2605000000000004,1.2771999998092625,1.296199999809268,1.3104000000953704,1.327300000190732,1.3465999999046332,1.3626999998092657,1.3773000001907363,1.396800000190737,1.4104000000953647,1.4273000001907334,1.443800000190734,1.4631999998092624,1.4774000000953649,1.4960999999046294,1.5103000001907319,1.529599999904633,1.5438000001907355,1.5604999999999976,1.580599999904635,1.5940000000000012,1.610599999904636,1.6291999998092663,1.6463000001907346,1.660499999999999,1.6773000001907334,1.6966999998092618,1.7105000000000032,1.7273000001907377,1.744099999904634,1.7644999999999982,1.780699999809265,1.797699999809268,1.8151999998092663,1.832099999904635,1.8483000001907328,1.8738000001907338,1.8808000001907317,1.893900000095364,1.910499999999999,1.9335999999046294,1.943800000190734,1.9605000000000032,1.9849000000953652,1.9938000001907383,2.0105999999046347,2.0271999998092625,2.048800000190738,2.064400000095368,2.081800000190732,2.1003000001907353,2.110500000000002,2.1273000001907363,2.143800000190737,2.164199999809263,2.1806999998092635,2.197499999999998,2.2154999999999987,2.2314000000953698,2.245900000095368,2.2613000001907366,2.2831999998092627,2.2938000001907355,2.310599999904632,2.32809999990463,2.3468000001907328,2.363500000000002,2.380900000095366,2.3995000000000033,2.413800000190733,2.429300000190736,2.4448000001907317,2.4635999999046305,2.4771999998092653,2.4939999999999998,2.510400000095366,2.530999999999999,2.545900000095365,2.5604000000953704,2.5826999998092646,2.5938000001907326,2.6104000000953675,2.6274000000953706,2.649000000000001,2.665599999904636,2.681900000095368,2.7009000000953662,2.7105000000000032,2.7271999998092653,2.7449999999999974,2.765500000000003,2.7785999999046354,2.7953000001907355,2.8145999999046296,2.831000000000003,2.8474000000953694,2.862800000190738,2.8814000000953683,2.8935999999046302,2.911199999809263,2.927099999904634,2.9436999998092688,2.9603000001907347,2.979300000190733,3.0005999999046296,3.0105000000000004,3.0271999998092625,3.0444999999999993,3.063699999809266,3.0771999998092667,3.0974999999999966,3.1159000000953654,3.1270999999046296,3.143800000190737,3.166099999904631,3.1824000000953703,3.1939000000953683,3.2105000000000032,3.234499999999997,3.2438000001907383,3.2613000001907366,3.2779000000953644,3.2993000001907333,3.314699999809264,3.330699999809262,3.3438000001907326,3.3640999999046315,3.3825000000000003,3.3936999998092645,3.414900000095365,3.430500000000002,3.4469000000953685,3.4653000001907373,3.4820999999046336,3.4938000001907383,3.510400000095366,3.5330999999046355,3.5490999999046338,3.5641999998092686,3.5794000000953687,3.609199999809263,3.6199000000953703,3.6270999999046296,3.643800000190737,3.6628000001907353,3.687099999904632,3.6954000000953684,3.7143000001907325,3.730099999904631,3.7438000001907383,3.7630999999046324,3.777300000190735,3.794400000095365,3.810699999809266,3.8326999998092646,3.8438000001907326,3.8604000000953675,3.8876999998092643,3.8969999999999985,3.910499999999999,3.9369999999999976,3.943800000190734,3.960400000095369,3.9771999998092653,3.9979000000953704,4.010800000190734,4.0271999998092625,4.0479000000953675,4.063300000190736,4.077300000190732,4.093800000190733,4.113099999904634,4.131,4.1436999998092645,4.163099999904631,4.177300000190733,4.193800000190734,4.210400000095369,4.229699999809263,4.243699999809266,4.260400000095366,4.281400000095367,4.293699999809263,4.3104999999999976,4.3270999999046325,4.348300000190733,4.362300000190736,4.381300000190734,4.396199999809262,4.413800000190733,4.4291999998092635,4.443699999809269,4.462499999999999,4.477199999809265,4.494599999904629,4.510400000095366,4.5305000000000035,4.545800000190738,4.561,4.580099999904633,4.593800000190733,4.610599999904636,4.631400000095368,4.648000000000003,4.664699999809265,4.682199999809264,4.694000000000003,4.710800000190737,4.727400000095365,4.746699999809266,4.763900000095369,4.779800000190733,4.79390000009537,4.813199999809264,4.827300000190732,4.843699999809267,4.863099999904634,4.87709999990463,4.893900000095364,4.912599999904636,4.927199999809268,4.943900000095368,4.963199999809262,4.9813000001907355,4.993800000190738,5.010400000095366,5.026900000095367,5.043599999904636,5.0634000000953705,5.081400000095364,5.097000000000001,5.11090000009537,5.129900000095368,5.143800000190737,5.164499999999997,5.181300000190738,5.196699999809262,5.210300000190735,5.228900000095365,5.243599999904632,5.260300000190732,5.277000000000001,5.293599999904636,5.312400000095366,5.327599999904635,5.343699999809267,5.360300000190733,5.37709999990463,5.3936999998092645,5.4103000001907375,5.427999999999997,5.4458000001907365,5.460300000190735,5.477199999809265,5.493699999809266,5.510300000190732,5.527000000000001,5.544499999999999,5.5604999999999976,5.580400000095366,5.595699999809263,5.610199999809268,5.627199999809264,5.647099999904633,5.662599999904636,5.678300000190738,5.698099999904635,5.710500000000003,5.727199999809265,5.7486999998092685,5.763199999809267,5.7771999998092625,5.793999999999997,5.813699999809266,5.831300000190737,5.848300000190733,5.863999999999997,5.8770000000000024,5.8936999998092645,5.910400000095365,5.927,5.94859999990463,5.964199999809267,5.977099999904631,5.993699999809266,6.014199999809264,6.027000000000001,6.043599999904636,6.064400000095368,6.0770999999046325,6.094000000000001]","[1732166251043,1732166251084,1732166251097,1732166251116,1732166251127,1732166251144,1732166251161,1732166251178,1732166251199,1732166251219,1732166251233,1732166251244,1732166251260,1732166251277,1732166251294,1732166251315,1732166251331,1732166251349,1732166251360,1732166251377,1732166251394,1732166251410,1732166251427,1732166251445,1732166251463,1732166251480,1732166251497,1732166251510,1732166251527,1732166251547,1732166251560,1732166251577,1732166251594,1732166251610,1732166251627,1732166251644,1732166251660,1732166251678,1732166251694,1732166251710,1732166251727,1732166251744,1732166251760,1732166251777,1732166251800,1732166251810,1732166251827,1732166251844,1732166251860,1732166251877,1732166251894,1732166251910,1732166251927,1732166251944,1732166251960,1732166251977,1732166251996,1732166252010,1732166252027,1732166252047,1732166252071,1732166252078,1732166252094,1732166252114,1732166252127,1732166252144,1732166252160,1732166252180,1732166252197,1732166252211,1732166252229,1732166252244,1732166252260,1732166252280,1732166252294,1732166252310,1732166252329,1732166252344,1732166252361,1732166252380,1732166252396,1732166252411,1732166252430,1732166252444,1732166252460,1732166252477,1732166252496,1732166252511,1732166252529,1732166252544,1732166252563,1732166252577,1732166252594,1732166252614,1732166252627,1732166252644,1732166252662,1732166252680,1732166252694,1732166252710,1732166252730,1732166252744,1732166252761,1732166252777,1732166252798,1732166252814,1732166252831,1732166252848,1732166252865,1732166252882,1732166252907,1732166252914,1732166252927,1732166252944,1732166252967,1732166252977,1732166252994,1732166253018,1732166253027,1732166253044,1732166253060,1732166253082,1732166253098,1732166253115,1732166253134,1732166253144,1732166253161,1732166253177,1732166253197,1732166253214,1732166253231,1732166253249,1732166253265,1732166253279,1732166253295,1732166253316,1732166253327,1732166253344,1732166253361,1732166253380,1732166253397,1732166253414,1732166253433,1732166253447,1732166253463,1732166253478,1732166253497,1732166253510,1732166253527,1732166253544,1732166253564,1732166253579,1732166253594,1732166253616,1732166253627,1732166253644,1732166253661,1732166253682,1732166253699,1732166253715,1732166253734,1732166253744,1732166253760,1732166253778,1732166253799,1732166253812,1732166253828,1732166253848,1732166253864,1732166253881,1732166253896,1732166253915,1732166253927,1732166253944,1732166253960,1732166253977,1732166253994,1732166254013,1732166254034,1732166254044,1732166254060,1732166254078,1732166254097,1732166254110,1732166254131,1732166254149,1732166254160,1732166254177,1732166254199,1732166254216,1732166254227,1732166254244,1732166254268,1732166254277,1732166254294,1732166254311,1732166254333,1732166254348,1732166254364,1732166254377,1732166254397,1732166254416,1732166254427,1732166254448,1732166254464,1732166254480,1732166254499,1732166254515,1732166254527,1732166254544,1732166254566,1732166254582,1732166254597,1732166254613,1732166254643,1732166254653,1732166254660,1732166254677,1732166254696,1732166254720,1732166254729,1732166254748,1732166254763,1732166254777,1732166254796,1732166254811,1732166254828,1732166254844,1732166254866,1732166254877,1732166254894,1732166254921,1732166254930,1732166254944,1732166254970,1732166254977,1732166254994,1732166255010,1732166255031,1732166255044,1732166255060,1732166255081,1732166255097,1732166255111,1732166255127,1732166255146,1732166255164,1732166255177,1732166255196,1732166255211,1732166255227,1732166255244,1732166255263,1732166255277,1732166255294,1732166255315,1732166255327,1732166255344,1732166255360,1732166255381,1732166255395,1732166255415,1732166255429,1732166255447,1732166255462,1732166255477,1732166255496,1732166255510,1732166255528,1732166255544,1732166255564,1732166255579,1732166255594,1732166255613,1732166255627,1732166255644,1732166255665,1732166255681,1732166255698,1732166255715,1732166255727,1732166255744,1732166255761,1732166255780,1732166255797,1732166255813,1732166255827,1732166255846,1732166255861,1732166255877,1732166255896,1732166255910,1732166255927,1732166255946,1732166255961,1732166255977,1732166255996,1732166256014,1732166256027,1732166256044,1732166256060,1732166256077,1732166256097,1732166256115,1732166256130,1732166256144,1732166256163,1732166256177,1732166256198,1732166256215,1732166256230,1732166256244,1732166256262,1732166256277,1732166256294,1732166256310,1732166256327,1732166256346,1732166256361,1732166256377,1732166256394,1732166256410,1732166256427,1732166256445,1732166256463,1732166256480,1732166256495,1732166256512,1732166256528,1732166256545,1732166256561,1732166256579,1732166256595,1732166256615,1732166256630,1732166256645,1732166256662,1732166256682,1732166256697,1732166256713,1732166256733,1732166256745,1732166256762,1732166256783,1732166256798,1732166256812,1732166256828,1732166256848,1732166256866,1732166256883,1732166256899,1732166256912,1732166256928,1732166256945,1732166256962,1732166256983,1732166256999,1732166257012,1732166257028,1732166257049,1732166257062,1732166257078,1732166257099,1732166257112,1732166257128]","[[1330.7,486.7],[1330.7,486.7],[1343.2,486.1],[1358.7,477.7],[1358.7,477.7],[1360.7,491.4],[1365.2,491.1],[1383.7,494.9],[1395.3,501.8],[1395.3,501.8],[1387.8,513.2],[1387.8,513.2],[1399.6,517.7],[1403.9,527.2],[1398.8,530.5],[1393.7,514.9],[1404.7,513.2],[1417.3,493.5],[1417.3,493.5],[1412.2,481.3],[1426.6,466.6],[1426.6,466.6],[1441,451.9],[1444.2,440.7],[1419.1,420.1],[1416.4,395.2],[1418.2,374.8],[1418.2,374.8],[1426.3,378.8],[1408.8,367.5],[1408.8,367.5],[1391.3,356.2],[1401.4,358.2],[1401.4,358.2],[1399.3,356.1],[1397.4,352.9],[1397.4,352.9],[1387.2,358.3],[1387.2,358.3],[1407.8,360],[1407.8,360],[1406.1,353.1],[1406.1,353.1],[1411.1,350],[1416.6,344.5],[1416.6,344.5],[1428.6,348.2],[1428.6,348.2],[1414.6,353.3],[1393.8,358.1],[1372,361.7],[1350,366.4],[1349,367.2],[1335.1,382],[1328.6,404.7],[1299.9,424.9],[1270.7,447.5],[1270.7,447.5],[1243,485.9],[1236.7,521.5],[1225,553.8],[1225,553.8],[1212.8,586.5],[1212.8,586.5],[1192.8,608.5],[1183,628.4],[1193.3,653.4],[1203.6,678.4],[1195.4,675.4],[1187.2,672.4],[1153,645.1],[1153.6,640.7],[1139.1,624.2],[1131.7,603.3],[1131.7,603.3],[1125.9,621.3],[1146.6,638.1],[1103.9,618.4],[1054.8,602.8],[1047.6,603.7],[1036.7,610],[1036.7,610],[1075.9,623.8],[1052.7,624.4],[1052.7,624.4],[1045.5,632.3],[1045.5,632.3],[1032.8,646.6],[1018.4,627.6],[969.6,606.1],[962.4,617.7],[959.6,613],[966.8,620.8],[974.3,630.2],[974.3,630.2],[946.7,620.5],[973,614.4],[960.6,618.4],[987.2,608.9],[1021.7,604.5],[1051,590.1],[1052.8,579.2],[1053.6,577.2],[1034.5,576.8],[1018.8,569.4],[1029.2,572.6],[1009.9,551.3],[1025.7,553.2],[1008.3,546.6],[1005.7,552.2],[987,561],[987,561],[1022.7,574.4],[1007.8,575],[1007.8,575],[1039.3,570],[1072.3,574.3],[1094.5,579],[1094.5,579],[1090.1,597.8],[1068.4,604.3],[1031.3,602.2],[988,613.6],[966.6,624],[909.6,638.2],[909.6,638.2],[912.7,657.4],[876.1,654.3],[831.7,653.5],[778.8,671.9],[766.2,669.4],[767.8,662.2],[760.2,678],[745,656.7],[728.2,654.6],[721.7,625.2],[721.7,625.2],[749.6,613.8],[778.4,605.5],[828.5,602.8],[868,583],[888.9,600.1],[921.6,599.2],[944.3,603.5],[962.7,625.9],[986.4,633.4],[1008.1,634.7],[1008.1,634.7],[1007.7,644.2],[991.6,659.4],[961.4,655.3],[948,668.7],[947.5,664.6],[926.6,668.7],[926.6,668.7],[955.9,676.9],[961.8,668.4],[977.9,662.7],[1009.2,679.4],[1033.2,684.1],[1046.1,687.7],[1046.1,687.7],[1065.1,711.1],[1072.3,729.6],[1101.3,746.5],[1101.3,746.5],[1109.6,756.6],[1095.8,753.3],[1101,765.2],[1097.3,770.2],[1073.6,782.3],[1073.6,782.3],[1056.5,788],[1047.6,809.5],[1047.6,809.5],[1036,813.5],[1030.3,811.7],[999,810.5],[1021.1,811.1],[1021.1,811.1],[1010.4,823.8],[1020.4,827.6],[1020.4,827.6],[1016.1,827.6],[1042.5,818.3],[1048.4,822.1],[1048.4,822.1],[1029.3,804.2],[1001.1,780.2],[984.8,761.3],[984.8,761.3],[966.3,757],[966.3,757],[949.6,741.7],[953.6,706.7],[944.9,686.8],[954.8,675.7],[942.1,676.6],[915.7,663.7],[915.7,663.7],[946.2,671],[968.4,676.3],[968.4,676.3],[961.9,692.4],[955.3,673.1],[941.3,655.8],[930,671.5],[917,668.9],[917,668.9],[898.7,664.1],[868,650.6],[863,640.4],[838,633.4],[838,633.4],[821.1,626.1],[821.1,626.1],[803,606.3],[799.6,604.6],[783.5,612],[769.3,605.9],[769.3,605.9],[764.7,602.7],[750.6,601.6],[711.4,621],[657.2,640.7],[677.9,619.6],[711.3,606.8],[763.4,604.4],[763.4,604.4],[749.8,624.6],[749.8,624.6],[775.7,616.3],[775.7,616.3],[791.4,608.2],[791.4,608.2],[808.6,602.6],[808.6,602.6],[844.6,613.8],[844.6,613.8],[895.8,592.6],[895.8,592.6],[963,554.7],[944.1,560.4],[933.2,570.8],[925.7,548.1],[957.5,529.2],[977.6,511],[1009.5,509.5],[1028.8,499.1],[1028.8,499.1],[1034.3,483.4],[1046.4,482.4],[1065.9,489.4],[1078.6,475.5],[1078.6,475.5],[1080.5,476.6],[1080.5,476.6],[1080.3,472.7],[1082.1,457.4],[1048.4,467.9],[1037.7,462.4],[1036.3,466.9],[1044.8,455.5],[1069.8,434.1],[1069.8,425.9],[1084.4,430.1],[1093.2,409.8],[1098.5,419.2],[1112.6,412.3],[1146.7,412],[1146.3,400.5],[1138.6,404.2],[1120.9,415],[1120.9,415],[1106.5,420.5],[1106.5,420.5],[1093.2,407.5],[1095.3,414.2],[1089.9,432.4],[1088.4,445.4],[1088.4,445.4],[1097.6,451.8],[1105.6,448.2],[1125,450.8],[1153,445.2],[1181,439.6],[1207.2,434.5],[1239.3,443.8],[1245.4,431.7],[1259.9,412.8],[1282.4,393.4],[1282.4,393.4],[1295.6,384],[1292.1,383.8],[1292.1,383.8],[1299.5,376.8],[1297.6,369.3],[1303.4,361],[1303.4,361],[1315.2,364.8],[1292.6,364.2],[1300,356.5],[1293.5,353.6],[1282,362.4],[1272.5,365.2],[1266.9,361.5],[1265,363.4],[1253,357.6],[1238,361.2],[1216.5,345.3],[1229.5,325.7],[1225.8,320.4],[1232,319.2],[1227,310.4],[1244.8,304.9],[1265.2,300.5],[1269.8,276.7],[1288.9,281.8],[1300.5,251],[1318.1,257.1],[1318.1,257.1],[1334.2,272.2],[1334.2,272.2],[1347.8,263.2],[1354.3,257.9],[1354.3,257.9],[1378.6,241.6],[1378.6,241.6],[1378.5,235.9],[1364.2,245.5],[1367.3,264.5],[1367,259.4],[1366.6,288.1],[1357.2,295.7],[1348.5,313.2],[1339.6,349.3],[1356.4,374.1],[1363.6,408],[1369.8,427.2],[1390.2,431.1],[1396.1,436.6],[1396.1,436.6],[1405.1,443.5],[1423.1,449.7],[1434.7,450.5],[1434.7,450.5],[1461.7,442.1],[1474.1,426.4],[1475.4,413.3],[1478.9,416.5],[1536.6,412],[1536.6,412],[1568.9,412.7],[1568.9,412.7],[1608.8,421],[1644,428.3],[1695.2,409.7],[1695.2,409.7],[1736.9,397.6],[1763.2,390.7],[1763.2,390.7],[1774.5,382.9],[1782.5,370.7],[1782.5,370.7],[1770.6,346.6]]","[-0.132282,0.39684600000000003]","[0.132282,0.39684600000000003]","[0.39684600000000003,0.39684600000000003]","[-0.39684600000000003,-0.132282]","[-0.39684600000000003,0.132282]","[-0.39684600000000003,-0.39684600000000003]","[-0.132282,-0.132282]","[0.132282,-0.132282]","[0.39684600000000003,-0.132282]","[-0.132282,0.132282]","[0.132282,0.132282]","[0.39684600000000003,0.132282]","[-0.132282,-0.39684600000000003]","[0.132282,-0.39684600000000003]","[0.39684600000000003,-0.39684600000000003]",0,0,0,0,1,2,Tablet,15,20,8,3,70,4,3,60,4
