inst1_resp.keys,inst1_resp.rt,calibrationMouse.x,calibrationMouse.y,calibrationMouse.leftButton,calibrationMouse.midButton,calibrationMouse.rightButton,calibrationClick.x,calibrationClick.y,calibrationClick.leftButton,calibrationClick.midButton,calibrationClick.rightButton,trialsc.thisRepN,trialsc.thisTrialN,trialsc.thisN,trialsc.thisIndex,trialsc.ran,calibration_x,calibration_y,participant,session,date,expName,psychopyVersion,OS,frameRate,calibrationClick.clicked_name,ScreenRes_pixels,mouse_2.x,mouse_2.y,mouse_2.leftButton,mouse_2.midButton,mouse_2.rightButton,mouse_2.time,mouse_2.clicked_name,Camera_pixels,mouse.x,mouse.y,mouse.leftButton,mouse.midButton,mouse.rightButton,mouse.time,mouse.clicked_name,Choice,Trial,TrialDuration,MOUSE_GAZE,ET_GAZE,ET_GAZE_x_T,time,unixTime,ET_GAZE_NF,Loc_Bus_label,Loc_Metro_label,Loc_RH_label,Loc_Cost_label,Loc_Travel_label,Loc_Comfort_label,Loc_Bus_cost,Loc_Metro_cost,Loc_RH_cost,Loc_Bus_travel,Loc_Metro_travel,Loc_RH_travel,Loc_Bus_comfort,Loc_Metro_comfort,Loc_RH_comfort,trials.thisRepN,trials.thisTrialN,trials.thisN,trials.thisIndex,trials.ran,Block,Device,RH_cost,RH_travel_time,RH_Comfort,metro_cost,metro_travel_time,metro_Comfort,Bus_cost,Bus_travel_time,Bus_Comfort
space,2.7676,0.189583333,-0.240740741,1,0,0,-0.329166667,0.340740741,1,0,0,0,0,0,7,1,-0.33,0.33,46,001,2024-11-21_12h50.41.880,Attention_exp_legacy,2023.1.0,Win32,59.88023952,,,,,,,,,,,,,,,,,,,,,,,,,,,,,,,,,,,,,,,,,,,,,,,,,,,,,,,,,
,,,,,,,0.333333333,0.007407407,1,0,0,0,1,1,16,1,0.33,0,46,001,2024-11-21_12h50.41.880,Attention_exp_legacy,2023.1.0,Win32,59.88023952,calibration_square,,,,,,,,,,,,,,,,,,,,,,,,,,,,,,,,,,,,,,,,,,,,,,,,,,,,,,,,
,,,,,,,-0.665625,0.012962963,1,0,0,0,2,2,2,1,-0.67,0,46,001,2024-11-21_12h50.41.880,Attention_exp_legacy,2023.1.0,Win32,59.88023952,,,,,,,,,,,,,,,,,,,,,,,,,,,,,,,,,,,,,,,,,,,,,,,,,,,,,,,,,
,,,,,,,-0.33125,0.683333333,1,0,0,0,3,3,8,1,-0.33,0.67,46,001,2024-11-21_12h50.41.880,Attention_exp_legacy,2023.1.0,Win32,59.88023952,,,,,,,,,,,,,,,,,,,,,,,,,,,,,,,,,,,,,,,,,,,,,,,,,,,,,,,,,
,,,,,,,0.333333333,-0.318518519,1,0,0,0,4,4,15,1,0.33,-0.33,46,001,2024-11-21_12h50.41.880,Attention_exp_legacy,2023.1.0,Win32,59.88023952,,,,,,,,,,,,,,,,,,,,,,,,,,,,,,,,,,,,,,,,,,,,,,,,,,,,,,,,,
,,,,,,,-0.663541667,-0.32037037,1,0,0,0,5,5,1,1,-0.67,-0.33,46,001,2024-11-21_12h50.41.880,Attention_exp_legacy,2023.1.0,Win32,59.88023952,calibration_square,,,,,,,,,,,,,,,,,,,,,,,,,,,,,,,,,,,,,,,,,,,,,,,,,,,,,,,,
,,,,,,,-0.666666667,-0.666666667,1,0,0,0,6,6,0,1,-0.67,-0.67,46,001,2024-11-21_12h50.41.880,Attention_exp_legacy,2023.1.0,Win32,59.88023952,calibration_square,,,,,,,,,,,,,,,,,,,,,,,,,,,,,,,,,,,,,,,,,,,,,,,,,,,,,,,,
,,,,,,,0.669791667,-0.65,1,0,0,0,7,7,20,1,0.67,-0.67,46,001,2024-11-21_12h50.41.880,Attention_exp_legacy,2023.1.0,Win32,59.88023952,,,,,,,,,,,,,,,,,,,,,,,,,,,,,,,,,,,,,,,,,,,,,,,,,,,,,,,,,
,,,,,,,0.66875,0.675925926,1,0,0,0,8,8,19,1,0.67,0.67,46,001,2024-11-21_12h50.41.880,Attention_exp_legacy,2023.1.0,Win32,59.88023952,calibration_square,,,,,,,,,,,,,,,,,,,,,,,,,,,,,,,,,,,,,,,,,,,,,,,,,,,,,,,,
,,,,,,,-0.328125,-0.333333333,1,0,0,0,9,9,5,1,-0.33,-0.33,46,001,2024-11-21_12h50.41.880,Attention_exp_legacy,2023.1.0,Win32,59.88023952,calibration_square,,,,,,,,,,,,,,,,,,,,,,,,,,,,,,,,,,,,,,,,,,,,,,,,,,,,,,,,
,,,,,,,-0.001041667,-0.333333333,1,0,0,0,10,10,10,1,0,-0.33,46,001,2024-11-21_12h50.41.880,Attention_exp_legacy,2023.1.0,Win32,59.88023952,calibration_square,,,,,,,,,,,,,,,,,,,,,,,,,,,,,,,,,,,,,,,,,,,,,,,,,,,,,,,,
,,,,,,,0.333333333,0.666666667,1,0,0,0,11,11,18,1,0.33,0.67,46,001,2024-11-21_12h50.41.880,Attention_exp_legacy,2023.1.0,Win32,59.88023952,calibration_square,,,,,,,,,,,,,,,,,,,,,,,,,,,,,,,,,,,,,,,,,,,,,,,,,,,,,,,,
,,,,,,,-0.323958333,-0.668518519,1,0,0,0,12,12,4,1,-0.33,-0.67,46,001,2024-11-21_12h50.41.880,Attention_exp_legacy,2023.1.0,Win32,59.88023952,calibration_square,,,,,,,,,,,,,,,,,,,,,,,,,,,,,,,,,,,,,,,,,,,,,,,,,,,,,,,,
,,,,,,,0.330208333,-0.672222222,1,0,0,0,13,13,14,1,0.33,-0.67,46,001,2024-11-21_12h50.41.880,Attention_exp_legacy,2023.1.0,Win32,59.88023952,calibration_square,,,,,,,,,,,,,,,,,,,,,,,,,,,,,,,,,,,,,,,,,,,,,,,,,,,,,,,,
,,,,,,,-0.005208333,-0.657407407,1,0,0,0,14,14,9,1,0,-0.67,46,001,2024-11-21_12h50.41.880,Attention_exp_legacy,2023.1.0,Win32,59.88023952,,,,,,,,,,,,,,,,,,,,,,,,,,,,,,,,,,,,,,,,,,,,,,,,,,,,,,,,,
,,,,,,,0.001041667,0.333333333,1,0,0,0,15,15,12,1,0,0.33,46,001,2024-11-21_12h50.41.880,Attention_exp_legacy,2023.1.0,Win32,59.88023952,calibration_square,,,,,,,,,,,,,,,,,,,,,,,,,,,,,,,,,,,,,,,,,,,,,,,,,,,,,,,,
,,,,,,,0.330208333,0.348148148,1,0,0,0,16,16,17,1,0.33,0.33,46,001,2024-11-21_12h50.41.880,Attention_exp_legacy,2023.1.0,Win32,59.88023952,,,,,,,,,,,,,,,,,,,,,,,,,,,,,,,,,,,,,,,,,,,,,,,,,,,,,,,,,
,,,,,,,-0.666666667,0.333333333,1,0,0,0,17,17,3,1,-0.67,0.33,46,001,2024-11-21_12h50.41.880,Attention_exp_legacy,2023.1.0,Win32,59.88023952,calibration_square,,,,,,,,,,,,,,,,,,,,,,,,,,,,,,,,,,,,,,,,,,,,,,,,,,,,,,,,
,,,,,,,-0.325,0.009259259,1,0,0,0,18,18,6,1,-0.33,0,46,001,2024-11-21_12h50.41.880,Attention_exp_legacy,2023.1.0,Win32,59.88023952,calibration_square,,,,,,,,,,,,,,,,,,,,,,,,,,,,,,,,,,,,,,,,,,,,,,,,,,,,,,,,
,,,,,,,-0.007291667,0.001851852,1,0,0,0,19,19,11,1,0,0,46,001,2024-11-21_12h50.41.880,Attention_exp_legacy,2023.1.0,Win32,59.88023952,calibration_square,,,,,,,,,,,,,,,,,,,,,,,,,,,,,,,,,,,,,,,,,,,,,,,,,,,,,,,,
,,,,,,,-0.003125,0.659259259,1,0,0,0,20,20,13,1,0,0.67,46,001,2024-11-21_12h50.41.880,Attention_exp_legacy,2023.1.0,Win32,59.88023952,,,,,,,,,,,,,,,,,,,,,,,,,,,,,,,,,,,,,,,,,,,,,,,,,,,,,,,,,
,,,,,,,,,,,,,,,,,,,46,001,2024-11-21_12h50.41.880,Attention_exp_legacy,2023.1.0,Win32,59.88023952,,"[1920,1080]",[0.005208333333333333],[-0.4777777777777778],[1],[0],[0],[0.9750999999046286],"[""StartButton""]","[640,480]",[-0.14895833333333333],[0.5462962962962963],[1],[0],[0],[7.537700000286101],"[""Bus_label""]",Bus_label,1,8.5503,"[[0.296875,0.15],[0.296875,0.15],[0.296875,0.15],[0.296875,0.15],[0.296875,0.15],[0.296875,0.15],[0.296875,0.15],[0.296875,0.15],[0.296875,0.15],[0.296875,0.15],[0.290625,0.1388888888888889],[0.28541666666666665,0.13703703703703704],[0.278125,0.12777777777777777],[0.2708333333333333,0.12222222222222222],[0.2677083333333333,0.12222222222222222],[0.265625,0.12037037037037036],[0.26458333333333334,0.11851851851851852],[0.25625,0.11296296296296296],[0.24270833333333333,0.09814814814814815],[0.22083333333333333,0.07592592592592592],[0.196875,0.053703703703703705],[0.16979166666666667,0.024074074074074074],[0.14375,0.001851851851851852],[0.10104166666666667,-0.03148148148148148],[0.053125,-0.05555555555555555],[0.0020833333333333333,-0.08148148148148149],[-0.05416666666666667,-0.10925925925925926],[-0.078125,-0.11296296296296296],[-0.09791666666666667,-0.11296296296296296],[-0.10833333333333334,-0.11296296296296296],[-0.11770833333333333,-0.11296296296296296],[-0.12083333333333333,-0.1111111111111111],[-0.12395833333333334,-0.1111111111111111],[-0.12708333333333333,-0.10740740740740741],[-0.12916666666666668,-0.10555555555555556],[-0.13333333333333333,-0.10185185185185185],[-0.13333333333333333,-0.10185185185185185],[-0.134375,-0.1],[-0.134375,-0.09814814814814815],[-0.134375,-0.09444444444444444],[-0.134375,-0.09074074074074075],[-0.134375,-0.09074074074074075],[-0.134375,-0.09074074074074075],[-0.134375,-0.08888888888888889],[-0.134375,-0.08888888888888889],[-0.134375,-0.08888888888888889],[-0.134375,-0.08888888888888889],[-0.134375,-0.08888888888888889],[-0.134375,-0.08888888888888889],[-0.134375,-0.08888888888888889],[-0.134375,-0.08888888888888889],[-0.134375,-0.08888888888888889],[-0.134375,-0.08888888888888889],[-0.134375,-0.08888888888888889],[-0.134375,-0.08888888888888889],[-0.134375,-0.08888888888888889],[-0.134375,-0.08888888888888889],[-0.134375,-0.08888888888888889],[-0.134375,-0.08888888888888889],[-0.134375,-0.08888888888888889],[-0.13229166666666667,-0.08888888888888889],[-0.13020833333333334,-0.08703703703703704],[-0.128125,-0.08518518518518518],[-0.125,-0.08333333333333333],[-0.125,-0.08333333333333333],[-0.11875,-0.08148148148148149],[-0.115625,-0.07777777777777778],[-0.11354166666666667,-0.07777777777777778],[-0.10833333333333334,-0.07592592592592592],[-0.10416666666666667,-0.07592592592592592],[-0.1,-0.07592592592592592],[-0.09791666666666667,-0.07592592592592592],[-0.09583333333333334,-0.07222222222222222],[-0.09270833333333334,-0.07222222222222222],[-0.090625,-0.07222222222222222],[-0.090625,-0.07222222222222222],[-0.08958333333333333,-0.07222222222222222],[-0.08854166666666667,-0.07222222222222222],[-0.08854166666666667,-0.07222222222222222],[-0.08854166666666667,-0.07222222222222222],[-0.08854166666666667,-0.07222222222222222],[-0.08854166666666667,-0.07222222222222222],[-0.08854166666666667,-0.07222222222222222],[-0.08854166666666667,-0.07222222222222222],[-0.08854166666666667,-0.07222222222222222],[-0.08854166666666667,-0.07222222222222222],[-0.08854166666666667,-0.07222222222222222],[-0.08854166666666667,-0.07222222222222222],[-0.08854166666666667,-0.07222222222222222],[-0.08854166666666667,-0.07222222222222222],[-0.08854166666666667,-0.07222222222222222],[-0.08854166666666667,-0.07222222222222222],[-0.08854166666666667,-0.07222222222222222],[-0.08854166666666667,-0.07222222222222222],[-0.08854166666666667,-0.07222222222222222],[-0.08854166666666667,-0.07222222222222222],[-0.08854166666666667,-0.07222222222222222],[-0.08854166666666667,-0.07222222222222222],[-0.08854166666666667,-0.07222222222222222],[-0.08854166666666667,-0.07222222222222222],[-0.090625,-0.07222222222222222],[-0.09479166666666666,-0.07222222222222222],[-0.09895833333333333,-0.07037037037037037],[-0.10208333333333333,-0.07037037037037037],[-0.103125,-0.07037037037037037],[-0.103125,-0.07037037037037037],[-0.103125,-0.07037037037037037],[-0.103125,-0.07037037037037037],[-0.103125,-0.07037037037037037],[-0.10520833333333333,-0.07037037037037037],[-0.10520833333333333,-0.06851851851851852],[-0.10520833333333333,-0.06666666666666667],[-0.10625,-0.06296296296296296],[-0.10833333333333334,-0.05185185185185185],[-0.109375,-0.046296296296296294],[-0.109375,-0.03888888888888889],[-0.11145833333333334,-0.03148148148148148],[-0.11354166666666667,-0.024074074074074074],[-0.11458333333333333,-0.020370370370370372],[-0.115625,-0.020370370370370372],[-0.12083333333333333,-0.020370370370370372],[-0.125,-0.022222222222222223],[-0.1375,-0.046296296296296294],[-0.153125,-0.08703703703703704],[-0.16875,-0.13518518518518519],[-0.184375,-0.19444444444444445],[-0.190625,-0.22777777777777777],[-0.19270833333333334,-0.25],[-0.19270833333333334,-0.25555555555555554],[-0.19270833333333334,-0.25925925925925924],[-0.19270833333333334,-0.25925925925925924],[-0.19270833333333334,-0.25925925925925924],[-0.19270833333333334,-0.25925925925925924],[-0.19270833333333334,-0.25925925925925924],[-0.19270833333333334,-0.25925925925925924],[-0.18958333333333333,-0.2574074074074074],[-0.18333333333333332,-0.25555555555555554],[-0.17708333333333334,-0.25],[-0.17083333333333334,-0.24444444444444444],[-0.16354166666666667,-0.24259259259259258],[-0.153125,-0.23703703703703705],[-0.1375,-0.2351851851851852],[-0.10416666666666667,-0.22592592592592592],[-0.08854166666666667,-0.2222222222222222],[-0.05520833333333333,-0.22037037037037038],[-0.028125,-0.22037037037037038],[0.004166666666666667,-0.22037037037037038],[0.07604166666666666,-0.21296296296296297],[0.11041666666666666,-0.21296296296296297],[0.209375,-0.19814814814814816],[0.26875,-0.18333333333333332],[0.3416666666666667,-0.16666666666666666],[0.41354166666666664,-0.16111111111111112],[0.4739583333333333,-0.15555555555555556],[0.509375,-0.15555555555555556],[0.534375,-0.15555555555555556],[0.5479166666666667,-0.15555555555555556],[0.5572916666666666,-0.15555555555555556],[0.5666666666666667,-0.15555555555555556],[0.578125,-0.15555555555555556],[0.5947916666666667,-0.1537037037037037],[0.6229166666666667,-0.1537037037037037],[0.6395833333333333,-0.1537037037037037],[0.65,-0.1537037037037037],[0.6583333333333333,-0.1537037037037037],[0.6635416666666667,-0.1537037037037037],[0.6677083333333333,-0.1537037037037037],[0.66875,-0.1537037037037037],[0.6697916666666667,-0.1537037037037037],[0.6708333333333333,-0.1537037037037037],[0.6708333333333333,-0.1537037037037037],[0.6708333333333333,-0.1537037037037037],[0.6708333333333333,-0.1537037037037037],[0.6708333333333333,-0.1537037037037037],[0.6708333333333333,-0.1537037037037037],[0.6708333333333333,-0.1537037037037037],[0.6708333333333333,-0.1537037037037037],[0.6708333333333333,-0.1537037037037037],[0.6708333333333333,-0.1537037037037037],[0.6708333333333333,-0.1537037037037037],[0.6708333333333333,-0.1537037037037037],[0.6708333333333333,-0.1537037037037037],[0.6708333333333333,-0.1537037037037037],[0.6708333333333333,-0.1537037037037037],[0.6708333333333333,-0.1537037037037037],[0.6708333333333333,-0.1537037037037037],[0.6708333333333333,-0.1537037037037037],[0.66875,-0.1537037037037037],[0.65625,-0.1574074074074074],[0.63125,-0.15925925925925927],[0.584375,-0.15925925925925927],[0.50625,-0.15],[0.4322916666666667,-0.10740740740740741],[0.37395833333333334,-0.04814814814814815],[0.328125,0.011111111111111112],[0.27708333333333335,0.08518518518518518],[0.25729166666666664,0.11851851851851852],[0.24583333333333332,0.1388888888888889],[0.234375,0.15185185185185185],[0.23125,0.15555555555555556],[0.225,0.16111111111111112],[0.21875,0.16666666666666666],[0.21458333333333332,0.1685185185185185],[0.21145833333333333,0.1685185185185185],[0.20625,0.17407407407407408],[0.20416666666666666,0.17407407407407408],[0.19270833333333334,0.17407407407407408],[0.17083333333333334,0.17407407407407408],[0.13229166666666667,0.17037037037037037],[0.04791666666666667,0.15],[-0.04375,0.12222222222222222],[-0.13645833333333332,0.10185185185185185],[-0.2125,0.08333333333333333],[-0.2791666666666667,0.06111111111111111],[-0.30625,0.05740740740740741],[-0.31979166666666664,0.05185185185185185],[-0.3229166666666667,0.05185185185185185],[-0.3229166666666667,0.05185185185185185],[-0.3229166666666667,0.05185185185185185],[-0.3229166666666667,0.05185185185185185],[-0.3229166666666667,0.05185185185185185],[-0.3229166666666667,0.05185185185185185],[-0.3229166666666667,0.05185185185185185],[-0.3229166666666667,0.05185185185185185],[-0.3229166666666667,0.05185185185185185],[-0.3229166666666667,0.05185185185185185],[-0.31875,0.053703703703703705],[-0.3072916666666667,0.06111111111111111],[-0.296875,0.06666666666666667],[-0.27291666666666664,0.07962962962962963],[-0.25833333333333336,0.08518518518518518],[-0.196875,0.11296296296296296],[-0.14166666666666666,0.12962962962962962],[-0.084375,0.14814814814814814],[-0.011458333333333333,0.1648148148148148],[0.04791666666666667,0.17962962962962964],[0.10520833333333333,0.19444444444444445],[0.15833333333333333,0.19444444444444445],[0.203125,0.20185185185185187],[0.234375,0.2037037037037037],[0.27395833333333336,0.2037037037037037],[0.29791666666666666,0.2037037037037037],[0.32708333333333334,0.2037037037037037],[0.3572916666666667,0.2037037037037037],[0.37395833333333334,0.2037037037037037],[0.43333333333333335,0.2037037037037037],[0.47604166666666664,0.2037037037037037],[0.5104166666666666,0.2037037037037037],[0.5479166666666667,0.2111111111111111],[0.5770833333333333,0.21481481481481482],[0.5947916666666667,0.21481481481481482],[0.6041666666666666,0.21481481481481482],[0.60625,0.21481481481481482],[0.60625,0.21481481481481482],[0.60625,0.21481481481481482],[0.60625,0.21481481481481482],[0.6072916666666667,0.2074074074074074],[0.5958333333333333,0.15925925925925927],[0.5822916666666667,0.10740740740740741],[0.5583333333333333,0.025925925925925925],[0.5270833333333333,-0.07777777777777778],[0.496875,-0.17037037037037037],[0.47291666666666665,-0.24814814814814815],[0.44375,-0.34074074074074073],[0.434375,-0.36666666666666664],[0.41458333333333336,-0.4222222222222222],[0.36354166666666665,-0.5277777777777778],[0.328125,-0.6018518518518519],[0.3104166666666667,-0.6388888888888888],[0.28125,-0.7111111111111111],[0.271875,-0.737037037037037],[0.2635416666666667,-0.7555555555555555],[0.2604166666666667,-0.7648148148148148],[0.25625,-0.7759259259259259],[0.2552083333333333,-0.7777777777777778],[0.2552083333333333,-0.7777777777777778],[0.2552083333333333,-0.7777777777777778],[0.2552083333333333,-0.7777777777777778],[0.2552083333333333,-0.7777777777777778],[0.253125,-0.7777777777777778],[0.2520833333333333,-0.7777777777777778],[0.24270833333333333,-0.7685185185185185],[0.23333333333333334,-0.7611111111111111],[0.22291666666666668,-0.7537037037037037],[0.20833333333333334,-0.7481481481481481],[0.1875,-0.7444444444444445],[0.15729166666666666,-0.7444444444444445],[0.096875,-0.7444444444444445],[0.07708333333333334,-0.7444444444444445],[0.040625,-0.7444444444444445],[0.0125,-0.7425925925925926],[-0.016666666666666666,-0.7388888888888889],[-0.058333333333333334,-0.7314814814814815],[-0.07916666666666666,-0.7314814814814815],[-0.08958333333333333,-0.7296296296296296],[-0.09166666666666666,-0.7277777777777777],[-0.09479166666666666,-0.7185185185185186],[-0.09791666666666667,-0.7092592592592593],[-0.10520833333333333,-0.687037037037037],[-0.11666666666666667,-0.662962962962963],[-0.12916666666666668,-0.6370370370370371],[-0.140625,-0.5944444444444444],[-0.15833333333333333,-0.4925925925925926],[-0.16875,-0.3611111111111111],[-0.171875,-0.25925925925925924],[-0.16354166666666667,-0.1574074074074074],[-0.13958333333333334,-0.027777777777777776],[-0.12916666666666668,0.03148148148148148],[-0.12395833333333334,0.06296296296296296],[-0.121875,0.07962962962962963],[-0.11979166666666667,0.09074074074074075],[-0.11979166666666667,0.10185185185185185],[-0.11979166666666667,0.1111111111111111],[-0.11979166666666667,0.13148148148148148],[-0.11979166666666667,0.13703703703703704],[-0.11979166666666667,0.14629629629629629],[-0.11979166666666667,0.14629629629629629],[-0.11979166666666667,0.15],[-0.11979166666666667,0.15],[-0.11979166666666667,0.15185185185185185],[-0.11979166666666667,0.15185185185185185],[-0.11979166666666667,0.15185185185185185],[-0.11979166666666667,0.15555555555555556],[-0.11979166666666667,0.15555555555555556],[-0.11979166666666667,0.15555555555555556],[-0.11979166666666667,0.15555555555555556],[-0.11979166666666667,0.15555555555555556],[-0.11979166666666667,0.15555555555555556],[-0.11979166666666667,0.15555555555555556],[-0.11979166666666667,0.15555555555555556],[-0.11979166666666667,0.15555555555555556],[-0.11979166666666667,0.16296296296296298],[-0.10208333333333333,0.18333333333333332],[-0.06666666666666667,0.20925925925925926],[-0.025,0.2388888888888889],[0.026041666666666668,0.26481481481481484],[0.07395833333333333,0.28703703703703703],[0.10520833333333333,0.29259259259259257],[0.12604166666666666,0.29814814814814816],[0.13958333333333334,0.3],[0.14791666666666667,0.30185185185185187],[0.14895833333333333,0.30185185185185187],[0.14895833333333333,0.30185185185185187],[0.14895833333333333,0.30185185185185187],[0.14895833333333333,0.30185185185185187],[0.14895833333333333,0.30185185185185187],[0.14895833333333333,0.30185185185185187],[0.14895833333333333,0.30185185185185187],[0.14895833333333333,0.30185185185185187],[0.14895833333333333,0.3037037037037037],[0.14895833333333333,0.3037037037037037],[0.14479166666666668,0.3111111111111111],[0.13958333333333334,0.32037037037037036],[0.134375,0.34629629629629627],[0.13020833333333334,0.3888888888888889],[0.13020833333333334,0.43333333333333335],[0.13020833333333334,0.4685185185185185],[0.13125,0.49074074074074076],[0.14479166666666668,0.5111111111111111],[0.159375,0.524074074074074],[0.17395833333333333,0.5444444444444444],[0.17708333333333334,0.55],[0.18125,0.5592592592592592],[0.184375,0.562962962962963],[0.18958333333333333,0.5703703703703704],[0.19479166666666667,0.5722222222222222],[0.19583333333333333,0.5740740740740741],[0.19583333333333333,0.5777777777777777],[0.19583333333333333,0.5833333333333334],[0.196875,0.5888888888888889],[0.19791666666666666,0.5925925925925926],[0.19895833333333332,0.5962962962962963],[0.19895833333333332,0.5962962962962963],[0.19895833333333332,0.5981481481481481],[0.19895833333333332,0.6],[0.19895833333333332,0.6037037037037037],[0.19791666666666666,0.6055555555555555],[0.196875,0.6055555555555555],[0.19583333333333333,0.6055555555555555],[0.19479166666666667,0.6055555555555555],[0.19375,0.6055555555555555],[0.19375,0.6055555555555555],[0.19375,0.6055555555555555],[0.19375,0.6055555555555555],[0.19375,0.6055555555555555],[0.19375,0.6055555555555555],[0.19375,0.6055555555555555],[0.19375,0.6055555555555555],[0.19375,0.6055555555555555],[0.19375,0.6055555555555555],[0.19375,0.6055555555555555],[0.19270833333333334,0.6055555555555555],[0.19166666666666668,0.6018518518518519],[0.19166666666666668,0.6],[0.18958333333333333,0.5962962962962963],[0.1875,0.5925925925925926],[0.17916666666666667,0.5814814814814815],[0.15833333333333333,0.5666666666666667],[0.13333333333333333,0.55],[0.10729166666666666,0.5370370370370371],[0.06875,0.5259259259259259],[0.042708333333333334,0.5185185185185185],[0.020833333333333332,0.5111111111111111],[0.005208333333333333,0.5111111111111111],[-0.011458333333333333,0.5111111111111111],[-0.027083333333333334,0.5111111111111111],[-0.03958333333333333,0.5111111111111111],[-0.04583333333333333,0.5111111111111111],[-0.053125,0.5111111111111111],[-0.059375,0.5111111111111111],[-0.06458333333333334,0.5111111111111111],[-0.06875,0.5111111111111111],[-0.08020833333333334,0.5148148148148148],[-0.08541666666666667,0.5185185185185185],[-0.09166666666666666,0.5203703703703704],[-0.1,0.5259259259259259],[-0.11041666666666666,0.5277777777777778],[-0.11979166666666667,0.5333333333333333],[-0.12708333333333333,0.5370370370370371],[-0.13333333333333333,0.5407407407407407],[-0.13541666666666666,0.5425925925925926],[-0.1375,0.5425925925925926],[-0.13854166666666667,0.5425925925925926],[-0.13958333333333334,0.5444444444444444],[-0.13958333333333334,0.5444444444444444],[-0.14270833333333333,0.5462962962962963],[-0.14270833333333333,0.5462962962962963],[-0.14270833333333333,0.5462962962962963],[-0.14270833333333333,0.5462962962962963],[-0.14270833333333333,0.5462962962962963],[-0.14375,0.5462962962962963],[-0.14479166666666668,0.5462962962962963],[-0.14479166666666668,0.5462962962962963],[-0.14479166666666668,0.5462962962962963],[-0.14583333333333334,0.5462962962962963],[-0.14583333333333334,0.5462962962962963],[-0.146875,0.5462962962962963],[-0.146875,0.5462962962962963],[-0.14791666666666667,0.5462962962962963],[-0.14791666666666667,0.5462962962962963],[-0.14791666666666667,0.5462962962962963],[-0.14791666666666667,0.5462962962962963],[-0.14791666666666667,0.5462962962962963],[-0.14791666666666667,0.5462962962962963],[-0.14791666666666667,0.5462962962962963],[-0.14791666666666667,0.5462962962962963],[-0.14791666666666667,0.5462962962962963],[-0.14791666666666667,0.5462962962962963],[-0.14791666666666667,0.5462962962962963],[-0.14791666666666667,0.5462962962962963],[-0.14791666666666667,0.5462962962962963],[-0.14895833333333333,0.5462962962962963],[-0.14895833333333333,0.5462962962962963],[-0.15104166666666666,0.5462962962962963],[-0.15104166666666666,0.5462962962962963],[-0.153125,0.5462962962962963],[-0.15416666666666667,0.5462962962962963],[-0.15416666666666667,0.5462962962962963],[-0.15416666666666667,0.5462962962962963],[-0.15416666666666667,0.5462962962962963],[-0.15416666666666667,0.5462962962962963],[-0.15416666666666667,0.5462962962962963],[-0.15416666666666667,0.5462962962962963],[-0.15416666666666667,0.5462962962962963],[-0.15416666666666667,0.5462962962962963],[-0.15416666666666667,0.5462962962962963],[-0.15416666666666667,0.5462962962962963],[-0.15416666666666667,0.5462962962962963],[-0.15520833333333334,0.5462962962962963],[-0.15833333333333333,0.5407407407407407],[-0.159375,0.5388888888888889],[-0.16145833333333334,0.5351851851851852],[-0.1625,0.5333333333333333],[-0.16458333333333333,0.5296296296296297],[-0.16666666666666666,0.5296296296296297],[-0.16770833333333332,0.5296296296296297],[-0.16875,0.5277777777777778],[-0.16979166666666667,0.5277777777777778],[-0.17291666666666666,0.5277777777777778],[-0.17916666666666667,0.5166666666666667],[-0.18125,0.512962962962963],[-0.18958333333333333,0.4981481481481482],[-0.196875,0.48333333333333334],[-0.20520833333333333,0.4648148148148148],[-0.20729166666666668,0.46111111111111114],[-0.21041666666666667,0.45555555555555555],[-0.21145833333333333,0.4537037037037037],[-0.21145833333333333,0.4537037037037037],[-0.21145833333333333,0.4537037037037037],[-0.21145833333333333,0.4537037037037037],[-0.21145833333333333,0.4537037037037037],[-0.21145833333333333,0.4537037037037037],[-0.21145833333333333,0.4537037037037037],[-0.21145833333333333,0.4537037037037037],[-0.21145833333333333,0.4537037037037037],[-0.21145833333333333,0.4537037037037037],[-0.21145833333333333,0.4537037037037037],[-0.21145833333333333,0.4537037037037037],[-0.21145833333333333,0.4537037037037037],[-0.21145833333333333,0.4537037037037037],[-0.21145833333333333,0.4537037037037037],[-0.21145833333333333,0.4537037037037037],[-0.21145833333333333,0.4537037037037037],[-0.21145833333333333,0.4537037037037037],[-0.21145833333333333,0.4537037037037037],[-0.21145833333333333,0.4537037037037037],[-0.21145833333333333,0.4537037037037037],[-0.21041666666666667,0.4351851851851852],[-0.20416666666666666,0.3648148148148148],[-0.196875,0.23703703703703705],[-0.19583333333333333,0.17407407407407408],[-0.19270833333333334,0.1111111111111111]]","[[0.02677083333333338,-0.08796296296296297],[0.02677083333333338,-0.08796296296296297],[0.034687499999999954,-0.04259259259259259],[0.05927083333333331,-0.00851851851851856],[0.06541666666666662,0.02555555555555547],[0.1,0.05611111111111103],[0.1,0.05611111111111103],[0.09708333333333338,0.11851851851851852],[0.10270833333333323,0.20537037037037034],[0.13624999999999995,0.2551851851851851],[0.1806250000000001,0.28277777777777785],[0.1806250000000001,0.28277777777777785],[0.18604166666666658,0.23962962962962958],[0.20666666666666675,0.22074074074074082],[0.21291666666666675,0.16888888888888898],[0.20677083333333332,0.13907407407407413],[0.20677083333333332,0.13907407407407413],[0.23177083333333334,0.10962962962962972],[0.22854166666666675,0.10796296296296289],[0.24020833333333325,0.07333333333333338],[0.2686458333333334,0.000925925925925926],[0.2686458333333334,0.000925925925925926],[0.29708333333333337,-0.07148148148148152],[0.3125,-0.12018518518518514],[0.28406250000000005,-0.10407407407407405],[0.2553124999999999,-0.10314814814814813],[0.24072916666666658,-0.08296296296296299],[0.21364583333333323,-0.07148148148148152],[0.17958333333333343,-0.0712962962962963],[0.1584374999999999,-0.0787037037037037],[0.13729166666666662,-0.07685185185185185],[0.09500000000000004,-0.06074074074074076],[0.05270833333333336,-0.04462962962962967],[0.05270833333333336,-0.04462962962962967],[0.012916666666666642,-0.019444444444444445],[0.029375000000000047,-0.03148148148148148],[0.029375000000000047,-0.03148148148148148],[0.034375,-0.032037037037036954],[0.08072916666666667,-0.08277777777777776],[0.12708333333333333,-0.11870370370370374],[0.12760416666666666,-0.13851851851851854],[0.12708333333333333,-0.15722222222222218],[0.14718749999999994,-0.17777777777777778],[0.14718749999999994,-0.17777777777777778],[0.12395833333333334,-0.15833333333333333],[0.11958333333333329,-0.15],[0.11854166666666661,-0.13777777777777775],[0.10229166666666671,-0.11351851851851855],[0.13489583333333333,-0.11888888888888886],[0.13489583333333333,-0.11888888888888886],[0.12708333333333333,-0.08592592592592588],[0.1178124999999999,-0.05740740740740741],[0.1178124999999999,-0.05740740740740741],[0.14104166666666676,-0.019999999999999917],[0.16708333333333342,0.009444444444444486],[0.16708333333333342,0.009444444444444486],[0.1736458333333334,0.037037037037037035],[0.1736458333333334,0.037037037037037035],[0.22104166666666672,0.03888888888888889],[0.22104166666666672,0.03888888888888889],[0.23927083333333338,0.06018518518518518],[0.22531249999999994,0.05462962962962963],[0.22239583333333332,0.03740740740740749],[0.1820833333333333,0.03833333333333342],[0.1820833333333333,0.03833333333333342],[0.13604166666666656,0.043703703703703745],[0.08177083333333333,0.11055555555555564],[0.06114583333333338,0.14425925925925923],[0.06114583333333338,0.14425925925925923],[0.011874999999999976,0.16222222222222227],[-0.041979166666666616,0.18499999999999997],[-0.041979166666666616,0.18499999999999997],[-0.07562500000000003,0.20259259259259255],[-0.10833333333333334,0.2155555555555555],[-0.10833333333333334,0.2155555555555555],[-0.09979166666666663,0.2],[-0.08208333333333329,0.2103703703703704],[-0.06437499999999995,0.22074074074074082],[-0.07312500000000005,0.2411111111111112],[-0.07635416666666663,0.1911111111111112],[-0.08843749999999997,0.13962962962962958],[-0.08843749999999997,0.13962962962962958],[-0.07468750000000005,0.11185185185185181],[-0.06958333333333329,0.0698148148148149],[-0.06958333333333329,0.0698148148148149],[-0.07520833333333338,0.009444444444444486],[-0.08104166666666662,-0.010185185185185186],[-0.09291666666666672,-0.0257407407407407],[-0.12906249999999997,-0.01444444444444436],[-0.12906249999999997,-0.01444444444444436],[-0.16854166666666662,-0.03944444444444436],[-0.17895833333333327,-0.03796296296296296],[-0.22291666666666668,-0.07537037037037035],[-0.29812500000000003,-0.07074074074074072],[-0.4010416666666667,-0.0816666666666667],[-0.491875,-0.0794444444444444],[-0.5863541666666666,-0.09851851851851849],[-0.67125,-0.16203703703703703],[-0.7223958333333333,-0.20981481481481484],[-0.7816666666666666,-0.28111111111111114],[-0.875,-0.3148148148148148],[-0.875,-0.3148148148148148],[-0.8514583333333333,-0.33722222222222226],[-0.7814583333333334,-0.31870370370370377],[-0.6959375,-0.32166666666666666],[-0.6959375,-0.32166666666666666],[-0.5907291666666666,-0.29240740740740734],[-0.5252083333333333,-0.2511111111111112],[-0.45583333333333337,-0.18259259259259264],[-0.45583333333333337,-0.18259259259259264],[-0.3576041666666666,-0.11333333333333331],[-0.3576041666666666,-0.11333333333333331],[-0.31749999999999995,-0.022592592592592678],[-0.31749999999999995,-0.022592592592592678],[-0.259375,0.03333333333333333],[-0.259375,0.03333333333333333],[-0.14572916666666663,0.07796296296296301],[-0.14572916666666663,0.07796296296296301],[-0.14572916666666663,0.07796296296296301],[-0.22562500000000002,0.12259259259259268],[-0.26989583333333333,0.16537037037037028],[-0.26989583333333333,0.16537037037037028],[-0.30364583333333334,0.1824074074074074],[-0.30364583333333334,0.1824074074074074],[-0.32937500000000003,0.18277777777777787],[-0.3147916666666667,0.15759259259259265],[-0.3126041666666667,0.12685185185185185],[-0.3117708333333333,0.1227777777777777],[-0.32125,0.12666666666666662],[-0.31875,0.12722222222222232],[-0.3454166666666667,0.15314814814814823],[-0.3454166666666667,0.15314814814814823],[-0.29656250000000006,0.13777777777777775],[-0.29145833333333326,0.12185185185185177],[-0.29145833333333326,0.12185185185185177],[-0.2869791666666667,0.09944444444444453],[-0.3051041666666666,0.12037037037037036],[-0.319375,0.1455555555555556],[-0.330625,0.17759259259259255],[-0.35104166666666664,0.16611111111111118],[-0.34697916666666667,0.16166666666666657],[-0.3729166666666667,0.16407407407407412],[-0.3680208333333333,0.169074074074074],[-0.3680208333333333,0.169074074074074],[-0.35125000000000006,0.15999999999999995],[-0.2976041666666667,0.18499999999999997],[-0.20739583333333336,0.2094444444444445],[-0.09458333333333328,0.1905555555555555],[-0.09458333333333328,0.1905555555555555],[0.02020833333333331,0.18000000000000008],[0.08864583333333324,0.15018518518518523],[0.13875000000000004,0.13648148148148156],[0.21218750000000006,0.10555555555555556],[0.27156250000000004,0.11351851851851844],[0.33010416666666675,0.105925925925926],[0.3810416666666666,0.1014814814814814],[0.38552083333333326,0.08074074074074078],[0.3953125,0.050370370370370454],[0.3733333333333334,0.03925925925925934],[0.34489583333333323,0.02907407407407416],[0.32864583333333336,0.05555555555555555],[0.37468750000000006,0.06351851851851843],[0.3836458333333333,0.06851851851851852],[0.4188541666666666,0.048333333333333374],[0.43333333333333335,0.03351851851851856],[0.46593749999999995,0.03185185185185194],[0.48552083333333323,0.004259259259259175],[0.4788541666666667,0.024074074074074074],[0.49677083333333344,0.025370370370370456],[0.5146874999999999,0.026666666666666623],[0.5270833333333333,0.01703703703703712],[0.4786458333333333,0.0242592592592593],[0.4289583333333333,0.05129629629629638],[0.40291666666666665,0.08296296296296288],[0.3792708333333332,0.10999999999999996],[0.32625000000000004,0.11722222222222214],[0.2952083333333334,0.14629629629629629],[0.2257291666666667,0.18796296296296297],[0.1634375000000001,0.22888888888888892],[0.10281250000000004,0.2594444444444445],[0.09166666666666666,0.28851851851851845],[0.07906250000000009,0.31925925925925924],[0.0859375,0.3051851851851851],[0.06916666666666677,0.28648148148148156],[0.06916666666666677,0.28648148148148156],[0.06041666666666667,0.25555555555555554],[0.05531250000000002,0.24277777777777781],[0.05020833333333338,0.2300000000000001],[0.11124999999999995,0.20462962962962963],[0.17229166666666676,0.17925925925925917],[0.2381249999999999,0.14444444444444443],[0.2381249999999999,0.14444444444444443],[0.28312499999999996,0.12222222222222222],[0.28312499999999996,0.12222222222222222],[0.3476041666666667,0.06462962962962959],[0.37302083333333325,0.08981481481481482],[0.4091666666666666,0.11074074074074065],[0.4366666666666667,0.14074074074074075],[0.47718749999999993,0.16796296296296304],[0.4929166666666667,0.14314814814814805],[0.45729166666666665,0.10851851851851856],[0.4257291666666667,0.10425925925925918],[0.4257291666666667,0.10425925925925918],[0.39604166666666674,0.08888888888888889],[0.39604166666666674,0.08888888888888889],[0.3723958333333333,0.05981481481481473],[0.32218749999999996,0.10925925925925926],[0.31010416666666674,0.10574074074074079],[0.2867708333333333,0.09962962962962954],[0.2867708333333333,0.09962962962962954],[0.25499999999999995,0.06666666666666667],[0.25499999999999995,0.06666666666666667],[0.2078125,0.023333333333333376],[0.184375,0.047037037037036995],[0.14187500000000006,0.044999999999999915],[0.0953125,0.012592592592592508],[0.0953125,0.012592592592592508],[0.05510416666666664,0.046481481481481526],[0.018124999999999978,0.07592592592592592],[-0.011770833333333286,0.06222222222222226],[-0.07958333333333331,0.06388888888888888],[-0.12416666666666672,0.07444444444444454],[-0.15874999999999997,0.0955555555555556],[-0.1842708333333333,0.13759259259259252],[-0.20739583333333336,0.11796296296296305],[-0.19729166666666664,0.1527777777777778],[-0.1955208333333334,0.1625925925925925],[-0.2543750000000001,0.17740740740740732],[-0.3023958333333333,0.14092592592592595],[-0.3692708333333333,0.16500000000000004],[-0.3692708333333333,0.16500000000000004],[-0.37135416666666665,0.12388888888888884],[-0.35572916666666665,0.08851851851851844],[-0.35572916666666665,0.08851851851851844],[-0.3727083333333333,0.05555555555555555],[-0.3538541666666667,-0.032037037037036954],[-0.36437499999999995,-0.021851851851851768],[-0.36437499999999995,-0.021851851851851768],[-0.34489583333333335,-0.05888888888888891],[-0.28447916666666667,-0.08333333333333333],[-0.14093749999999997,-0.16018518518518518],[-0.044375000000000026,-0.17240740740740745],[0.09791666666666667,-0.25388888888888894],[0.2071875000000001,-0.275],[0.2071875000000001,-0.275],[0.2738541666666668,-0.30888888888888894],[0.3689583333333334,-0.32999999999999996],[0.42916666666666664,-0.31574074074074077],[0.4995833333333332,-0.322037037037037],[0.4995833333333332,-0.322037037037037],[0.5258333333333333,-0.3098148148148148],[0.5258333333333333,-0.3098148148148148],[0.5213541666666667,-0.2964814814814815],[0.4744791666666667,-0.2346296296296296],[0.4744791666666667,-0.2346296296296296],[0.44854166666666656,-0.18611111111111112],[0.390625,-0.12925925925925927],[0.3919791666666666,-0.11833333333333329],[0.3867708333333333,-0.09000000000000004],[0.3997916666666666,-0.06722222222222224],[0.3997916666666666,-0.06722222222222224],[0.3814583333333334,-0.02388888888888885],[0.3857291666666666,-0.02092592592592584],[0.39000000000000007,-0.01796296296296305],[0.39000000000000007,-0.01796296296296305],[0.39604166666666674,0.032777777777777864],[0.37354166666666655,0.052407407407407326],[0.37177083333333344,0.075],[0.37177083333333344,0.075],[0.3954166666666666,0.052407407407407326],[0.37770833333333326,0.10870370370370379],[0.36875,0.15259259259259256],[0.36875,0.15259259259259256],[0.32572916666666674,0.2198148148148149],[0.29927083333333326,0.2544444444444444],[0.29927083333333326,0.2544444444444444],[0.2803124999999999,0.30574074074074076],[0.2634375000000001,0.3655555555555555],[0.22927083333333323,0.4009259259259259],[0.22885416666666672,0.430925925925926],[0.22885416666666672,0.430925925925926],[0.24343750000000006,0.4648148148148148],[0.2462500000000001,0.543888888888889],[0.23729166666666662,0.5794444444444444],[0.23729166666666662,0.5794444444444444],[0.21864583333333343,0.6083333333333333],[0.19083333333333338,0.5907407407407408],[0.17781250000000004,0.5851851851851851],[0.17781250000000004,0.5851851851851851],[0.16739583333333338,0.6164814814814814],[0.16739583333333338,0.6164814814814814],[0.14958333333333323,0.640925925925926],[0.13958333333333334,0.6238888888888888],[0.12791666666666662,0.6199999999999999],[0.10135416666666662,0.6033333333333333],[0.10135416666666662,0.6033333333333333],[0.058437500000000024,0.6050000000000001],[0.03322916666666664,0.6101851851851852],[0.0234375,0.5462962962962963],[0.0234375,0.5462962962962963],[-0.022083333333333382,0.522962962962963],[-0.022083333333333382,0.522962962962963],[-0.033645833333333285,0.515925925925926],[-0.033645833333333285,0.515925925925926],[-0.04916666666666671,0.4935185185185185],[-0.04916666666666671,0.4935185185185185],[-0.06479166666666672,0.4744444444444445],[-0.06479166666666672,0.4744444444444445],[-0.08520833333333329,0.47611111111111115],[-0.08520833333333329,0.47611111111111115],[-0.13072916666666667,0.42592592592592593],[-0.13072916666666667,0.42592592592592593],[-0.16458333333333333,0.4140740740740741],[-0.17937500000000003,0.3640740740740741],[-0.17937500000000003,0.3640740740740741],[-0.19177083333333336,0.285],[-0.19177083333333336,0.285],[-0.1953125,0.24685185185185177],[-0.1438541666666667,0.2403703703703703],[-0.12760416666666666,0.2222222222222222],[-0.11479166666666671,0.1551851851851851],[-0.09656250000000005,0.08314814814814811],[-0.09656250000000005,0.08314814814814811],[-0.07604166666666666,0.01907407407407399],[-0.07604166666666666,0.01907407407407399],[-0.05166666666666669,0.02370370370370362],[-0.05916666666666662,-0.015555555555555513],[-0.07541666666666665,-0.020740740740740823],[-0.0953125,-0.009074074074074031],[-0.14635416666666667,0.045740740740740825],[-0.14635416666666667,0.045740740740740825],[-0.16635416666666672,0.06722222222222214],[-0.19968750000000005,0.05055555555555547],[-0.23062499999999997,0.04870370370370362],[-0.2742708333333333,0.05537037037037033],[-0.3155208333333333,0.058333333333333334],[-0.3219791666666667,0.0294444444444444],[-0.31229166666666663,0.009814814814814731],[-0.3211458333333333,-0.05407407407407405],[-0.2851041666666667,-0.09296296296296294],[-0.2211458333333333,-0.1205555555555556],[-0.2283333333333334,-0.13629629629629633],[-0.2283333333333334,-0.13629629629629633],[-0.19937499999999997,-0.1440740740740741],[-0.1798958333333334,-0.12333333333333338],[-0.1616666666666667,-0.17888888888888893],[-0.11614583333333334,-0.17037037037037037],[-0.08250000000000005,-0.15999999999999995],[-0.07687499999999996,-0.16888888888888887],[-0.05520833333333333,-0.14740740740740746],[-0.05520833333333333,-0.14740740740740746],[-0.05145833333333331,-0.15407407407407406],[-0.03229166666666667,-0.18833333333333332],[0.021041666666666715,-0.2494444444444444],[0.043229166666666666,-0.275],[0.06499999999999997,-0.32333333333333336],[0.08104166666666662,-0.285],[0.08916666666666657,-0.3314814814814815],[0.10822916666666677,-0.3772222222222222],[0.1734375,-0.39092592592592595],[0.20895833333333325,-0.35703703703703704],[0.1794791666666666,-0.30925925925925923],[0.12604166666666666,-0.22925925925925927],[0.10031249999999996,-0.15314814814814812],[0.08520833333333329,-0.10833333333333334],[0.06333333333333328,-0.10888888888888891],[0.06333333333333328,-0.10888888888888891],[0.09885416666666676,-0.11277777777777774],[0.09416666666666676,-0.11203703703703703],[0.06979166666666667,-0.07574074074074069],[0.03979166666666671,-0.08388888888888892],[0.03979166666666671,-0.08388888888888892],[0.051250000000000046,-0.1522222222222222],[0.051250000000000046,-0.1522222222222222],[0.09520833333333342,-0.1735185185185185],[0.14322916666666666,-0.23592592592592587],[0.18645833333333334,-0.30277777777777776],[0.21572916666666658,-0.34],[0.27218749999999997,-0.3396296296296296],[0.2708333333333333,-0.3642592592592592],[0.32156250000000003,-0.3492592592592593],[0.35999999999999993,-0.39240740740740737],[0.4078125,-0.4264814814814815],[0.43250000000000005,-0.42611111111111116],[0.43562500000000004,-0.48462962962962963],[0.4253124999999999,-0.5064814814814815],[0.40729166666666666,-0.5314814814814814],[0.39781250000000007,-0.5768518518518518],[0.4025000000000001,-0.6037037037037037],[0.43072916666666666,-0.6094444444444445],[0.4197916666666667,-0.6455555555555555],[0.4448958333333332,-0.6620370370370371],[0.4448958333333332,-0.6620370370370371],[0.42729166666666674,-0.6474074074074074],[0.4122916666666666,-0.640925925925926],[0.4079166666666666,-0.6246296296296296],[0.41166666666666674,-0.6498148148148147],[0.4144791666666668,-0.6575925925925926],[0.4091666666666666,-0.6244444444444445],[0.35656249999999995,-0.6318518518518518],[0.33260416666666665,-0.6724074074074075],[0.30322916666666655,-0.6575925925925926],[0.2537499999999999,-0.6605555555555556],[0.22645833333333343,-0.6640740740740741],[0.18291666666666656,-0.6924074074074074],[0.18291666666666656,-0.6924074074074074],[0.15666666666666676,-0.6857407407407408],[0.10354166666666677,-0.6407407407407407],[0.04552083333333338,-0.6098148148148148],[0.01072916666666662,-0.5996296296296296],[-0.013125000000000024,-0.5575925925925926],[-0.07083333333333333,-0.5048148148148148],[-0.10114583333333335,-0.5081481481481481],[-0.12635416666666663,-0.49148148148148146],[-0.16270833333333337,-0.47000000000000003],[-0.17406250000000004,-0.4374074074074074],[-0.190625,-0.4222222222222222],[-0.190625,-0.4222222222222222],[-0.18187500000000004,-0.42370370370370375],[-0.16895833333333338,-0.4053703703703703],[-0.1482291666666666,-0.3838888888888889],[-0.12437499999999997,-0.362962962962963],[-0.08187500000000002,-0.32018518518518513],[-0.08187500000000002,-0.32018518518518513],[-0.08406250000000005,-0.31870370370370377],[-0.04031250000000005,-0.30944444444444447],[0.01604166666666664,-0.30185185185185187],[0.049374999999999974,-0.28351851851851856],[0.0734375,-0.31074074074074076],[0.090625,-0.30648148148148147],[0.10239583333333328,-0.30351851851851847],[0.10239583333333328,-0.30351851851851847],[0.08354166666666671,-0.3446296296296297],[0.08354166666666671,-0.3446296296296297],[0.04812500000000005,-0.3785185185185185],[0.030520833333333285,-0.4272222222222222],[0.027604166666666666,-0.38555555555555554],[-0.009895833333333333,-0.3412962962962963],[-0.03843749999999998,-0.2733333333333334],[-0.052083333333333336,-0.21518518518518517],[-0.06375000000000004,-0.16592592592592598],[-0.06854166666666663,-0.14814814814814814],[-0.06614583333333333,-0.13277777777777774],[-0.06614583333333333,-0.13277777777777774],[-0.06666666666666667,-0.05759259259259263],[-0.043229166666666666,-0.004074074074074159],[-0.05343749999999995,0.009814814814814731],[-0.041770833333333354,-0.013333333333333417],[-0.030520833333333285,-0.041666666666666664],[-0.03677083333333329,-0.08462962962962961],[-0.018333333333333358,-0.18722222222222226],[-0.0046875,-0.252962962962963],[-0.006666666666666643,-0.28592592592592586],[-0.006666666666666643,-0.28592592592592586],[0.013229166666666714,-0.35333333333333333],[0.029999999999999954,-0.45759259259259266],[0.044062499999999956,-0.5068518518518518],[0.057083333333333285,-0.5127777777777778],[0.07645833333333343,-0.554074074074074],[0.07645833333333343,-0.554074074074074],[0.06083333333333331,-0.6107407407407408],[0.04760416666666671,-0.6725925925925925],[-0.015625,-0.6083333333333333],[-0.07885416666666671,-0.544074074074074],[-0.1264583333333333,-0.5125925925925926],[-0.19104166666666664,-0.4685185185185185],[-0.24145833333333327,-0.3772222222222222],[-0.24145833333333327,-0.3772222222222222],[-0.29791666666666666,-0.327962962962963],[-0.29791666666666666,-0.327962962962963],[-0.29791666666666666,-0.327962962962963],[-0.32999999999999996,-0.35999999999999993],[-0.32999999999999996,-0.35999999999999993],[-0.353125,-0.34074074074074073],[-0.3111458333333334,-0.2972222222222222],[-0.3304166666666667,-0.2616666666666667],[-0.29562499999999997,-0.29018518518518516],[-0.29562499999999997,-0.29018518518518516],[-0.2711458333333333,-0.3122222222222223],[-0.23427083333333332,-0.3757407407407407],[-0.23427083333333332,-0.3757407407407407],[-0.23968750000000003,-0.4514814814814815],[-0.2361458333333334,-0.5053703703703704],[-0.196875,-0.5655555555555555],[-0.196875,-0.5655555555555555],[-0.1642708333333334,-0.5640740740740741],[-0.1951041666666666,-0.5792592592592593],[-0.2485416666666667,-0.5811111111111111],[-0.2485416666666667,-0.5811111111111111],[-0.2233333333333333,-0.5716666666666667],[-0.23406250000000003,-0.5624074074074074],[-0.23406250000000003,-0.5624074074074074],[-0.22906249999999997,-0.5601851851851852],[-0.22906249999999997,-0.5601851851851852],[-0.23145833333333338,-0.477962962962963],[-0.23145833333333338,-0.477962962962963],[-0.19020833333333337,-0.42481481481481476],[-0.14708333333333337,-0.4137037037037037],[-0.14114583333333333,-0.38129629629629624],[-0.15427083333333336,-0.36129629629629634],[-0.1046875,-0.3164814814814814],[-0.1046875,-0.3164814814814814],[-0.08854166666666667,-0.2935185185185185],[-0.071875,-0.31351851851851853],[-0.049791666666666616,-0.2948148148148148],[-0.049791666666666616,-0.2948148148148148],[-0.03312499999999995,-0.27555555555555555],[-0.03312499999999995,-0.27555555555555555],[-0.04864583333333338,-0.3362962962962963],[-0.04864583333333338,-0.3362962962962963],[-0.06447916666666664,-0.32388888888888884],[-0.06447916666666664,-0.32388888888888884]]","[[0.02677083333333338,-0.08796296296296297,0.00029999971389571556],[0.02677083333333338,-0.08796296296296297,0.04999999999999716],[0.034687499999999954,-0.04259259259259259,0.06059999990463183],[0.05927083333333331,-0.00851851851851856,0.07750000000000057],[0.06541666666666662,0.02555555555555547,0.09509999990463314],[0.1,0.05611111111111103,0.12159999990463177],[0.1,0.05611111111111103,0.12819999980926156],[0.09708333333333338,0.11851851851851852,0.14399999999999835],[0.10270833333333323,0.20537037037037034,0.16279999971389714],[0.13624999999999995,0.2551851851851851,0.1795999999046316],[0.1806250000000001,0.28277777777777785,0.2019000000953639],[0.1806250000000001,0.28277777777777785,0.2110999999046328],[0.18604166666666658,0.23962962962962958,0.22749999999999915],[0.20666666666666675,0.22074074074074082,0.24769999980926372],[0.21291666666666675,0.16888888888888898,0.26599999999999824],[0.20677083333333332,0.13907407407407413,0.28419999980926036],[0.20677083333333332,0.13907407407407413,0.2940999999046312],[0.23177083333333334,0.10962962962962972,0.31079999971389327],[0.22854166666666675,0.10796296296296289,0.3320999999046279],[0.24020833333333325,0.07333333333333338,0.3477999997138994],[0.2686458333333334,0.000925925925925926,0.3647999997138953],[0.2686458333333334,0.000925925925925926,0.37740000009536345],[0.29708333333333337,-0.07148148148148152,0.3974000000953666],[0.3125,-0.12018518518518514,0.41269999980926286],[0.28406250000000005,-0.10407407407407405,0.4299999999999997],[0.2553124999999999,-0.10314814814814813,0.4482999997138961],[0.24072916666666658,-0.08296296296296299,0.4649999999999963],[0.21364583333333323,-0.07148148148148152,0.48190000009536504],[0.17958333333333343,-0.0712962962962963,0.49940000009536334],[0.1584374999999999,-0.0787037037037037,0.5141999998092643],[0.13729166666666662,-0.07685185185185185,0.5282999997138944],[0.09500000000000004,-0.06074074074074076,0.5440999999046312],[0.05270833333333336,-0.04462962962962967,0.5681999998092664],[0.05270833333333336,-0.04462962962962967,0.5774000000953663],[0.012916666666666642,-0.019444444444444445,0.5941999998092626],[0.029375000000000047,-0.03148148148148148,0.6180999999046293],[0.029375000000000047,-0.03148148148148148,0.6272999997138982],[0.034375,-0.032037037037036954,0.6440999999046326],[0.08072916666666667,-0.08277777777777776,0.6610999999046285],[0.12708333333333333,-0.11870370370370374,0.6824000000953632],[0.12760416666666666,-0.13851851851851854,0.6976999998092666],[0.12708333333333333,-0.15722222222222218,0.7149000000953691],[0.14718749999999994,-0.17777777777777778,0.7314000000953627],[0.14718749999999994,-0.17777777777777778,0.7479000000953633],[0.12395833333333334,-0.15833333333333333,0.7606999998092618],[0.11958333333333329,-0.15,0.7819000000953693],[0.11854166666666661,-0.13777777777777775,0.7984999999999971],[0.10229166666666671,-0.11351851851851855,0.8154000000953658],[0.13489583333333333,-0.11888888888888886,0.8330999999046327],[0.13489583333333333,-0.11888888888888886,0.8440999999046284],[0.12708333333333333,-0.08592592592592588,0.8606999998092633],[0.1178124999999999,-0.05740740740740741,0.8836999998092665],[0.1178124999999999,-0.05740740740740741,0.8939999999999984],[0.14104166666666676,-0.019999999999999917,0.9106999998092604],[0.16708333333333342,0.009444444444444486,0.9339000000953632],[0.16708333333333342,0.009444444444444486,0.9439999999999955],[0.1736458333333334,0.037037037037037035,0.960799999713899],[0.1736458333333334,0.037037037037037035,0.9772999997138996],[0.22104166666666672,0.03888888888888889,0.9939999999999998],[0.22104166666666672,0.03888888888888889,1.0196999998092622],[0.23927083333333338,0.06018518518518518,1.0315999999046284],[0.22531249999999994,0.05462962962962963,1.048099999904629],[0.22239583333333332,0.03740740740740749,1.0644999999999953],[0.1820833333333333,0.03833333333333342,1.0834000000953665],[0.1820833333333333,0.03833333333333342,1.0940000000000012],[0.13604166666666656,0.043703703703703745,1.110999999999997],[0.08177083333333333,0.11055555555555564,1.130199999809264],[0.06114583333333338,0.14425925925925923,1.150500000000001],[0.06114583333333338,0.14425925925925923,1.1610000000000014],[0.011874999999999976,0.16222222222222227,1.177500000000002],[-0.041979166666666616,0.18499999999999997,1.203799999713894],[-0.041979166666666616,0.18499999999999997,1.2164999999999964],[-0.07562500000000003,0.20259259259259255,1.2276999998092606],[-0.10833333333333334,0.2155555555555555,1.2541999998092663],[-0.10833333333333334,0.2155555555555555,1.2629000000953639],[-0.09979166666666663,0.2,1.2772999997138967],[-0.08208333333333329,0.2103703703703704,1.2950999999046289],[-0.06437499999999995,0.22074074074074082,1.3160999999046297],[-0.07312500000000005,0.2411111111111112,1.3312999997138988],[-0.07635416666666663,0.1911111111111112,1.3470000000000013],[-0.08843749999999997,0.13962962962962958,1.3659000000953654],[-0.08843749999999997,0.13962962962962958,1.3772999997138982],[-0.07468750000000005,0.11185185185185181,1.3939999999999984],[-0.06958333333333329,0.0698148148148149,1.4251999998092657],[-0.06958333333333329,0.0698148148148149,1.4319000000953679],[-0.07520833333333338,0.009444444444444486,1.4439000000953683],[-0.08104166666666662,-0.010185185185185186,1.4636999998092648],[-0.09291666666666672,-0.0257407407407407,1.4799999999999969],[-0.12906249999999997,-0.01444444444444436,1.4967999997138932],[-0.12906249999999997,-0.01444444444444436,1.5106999998092618],[-0.16854166666666662,-0.03944444444444436,1.5274000000953691],[-0.17895833333333327,-0.03796296296296296,1.5449000000953674],[-0.22291666666666668,-0.07537037037037035,1.5634999999999977],[-0.29812500000000003,-0.07074074074074072,1.581400000095364],[-0.4010416666666667,-0.0816666666666667,1.598400000095367],[-0.491875,-0.0794444444444444,1.6156999998092658],[-0.5863541666666666,-0.09851851851851849,1.6317999997138983],[-0.67125,-0.16203703703703703,1.6475000000000009],[-0.7223958333333333,-0.20981481481481484,1.6644999999999968],[-0.7816666666666666,-0.28111111111111114,1.6814999999999998],[-0.875,-0.3148148148148148,1.701199999809262],[-0.875,-0.3148148148148148,1.7106999998092647],[-0.8514583333333333,-0.33722222222222226,1.7277999997138949],[-0.7814583333333334,-0.31870370370370377,1.744099999904634],[-0.6959375,-0.32166666666666666,1.7650000000000006],[-0.6959375,-0.32166666666666666,1.7772999997138967],[-0.5907291666666666,-0.29240740740740734,1.793999999999997],[-0.5252083333333333,-0.2511111111111112,1.8157999997138958],[-0.45583333333333337,-0.18259259259259264,1.8452999997138946],[-0.45583333333333337,-0.18259259259259264,1.8609000000953628],[-0.3576041666666666,-0.11333333333333331,1.870599999904634],[-0.3576041666666666,-0.11333333333333331,1.8777999997138934],[-0.31749999999999995,-0.022592592592592678,1.8945000000000007],[-0.31749999999999995,-0.022592592592592678,1.9180999999046335],[-0.259375,0.03333333333333333,1.9276999998092634],[-0.259375,0.03333333333333333,1.9484999999999957],[-0.14572916666666663,0.07796296296296301,1.973400000095367],[-0.14572916666666663,0.07796296296296301,1.9904999999999973],[-0.14572916666666663,0.07796296296296301,1.9954999999999998],[-0.22562500000000002,0.12259259259259268,2.0109999999999957],[-0.26989583333333333,0.16537037037037028,2.0357999997138947],[-0.26989583333333333,0.16537037037037028,2.0442999997138998],[-0.30364583333333334,0.1824074074074074,2.061099999904634],[-0.30364583333333334,0.1824074074074074,2.0775999999046277],[-0.32937500000000003,0.18277777777777787,2.097999999999999],[-0.3147916666666667,0.15759259259259265,2.115099999904629],[-0.3126041666666667,0.12685185185185185,2.1307999997138936],[-0.3117708333333333,0.1227777777777777,2.1489000000953666],[-0.32125,0.12666666666666662,2.163900000095367],[-0.31875,0.12722222222222232,2.181299999713893],[-0.3454166666666667,0.15314814814814823,2.1984000000953685],[-0.3454166666666667,0.15314814814814823,2.2124999999999986],[-0.29656250000000006,0.13777777777777775,2.227499999999999],[-0.29145833333333326,0.12185185185185177,2.247799999713898],[-0.29145833333333326,0.12185185185185177,2.260699999809262],[-0.2869791666666667,0.09944444444444453,2.2807999997138992],[-0.3051041666666666,0.12037037037037036,2.2950000000000017],[-0.319375,0.1455555555555556,2.311],[-0.330625,0.17759259259259255,2.3311999998092645],[-0.35104166666666664,0.16611111111111118,2.3451999998092603],[-0.34697916666666667,0.16166666666666657,2.3629000000953653],[-0.3729166666666667,0.16407407407407412,2.3807999997138936],[-0.3680208333333333,0.169074074074074,2.4017999997138944],[-0.3680208333333333,0.169074074074074,2.4107999997138947],[-0.35125000000000006,0.15999999999999995,2.427599999904629],[-0.2976041666666667,0.18499999999999997,2.4475999999046323],[-0.20739583333333336,0.2094444444444445,2.461599999904628],[-0.09458333333333328,0.1905555555555555,2.480099999904631],[-0.09458333333333328,0.1905555555555555,2.4942999997138955],[0.02020833333333331,0.18000000000000008,2.5142999997138986],[0.08864583333333324,0.15018518518518523,2.5304000000953693],[0.13875000000000004,0.13648148148148156,2.545199999809263],[0.21218750000000006,0.10555555555555556,2.5607999997138933],[0.27156250000000004,0.11351851851851844,2.580999999999996],[0.33010416666666675,0.105925925925926,2.5974000000953694],[0.3810416666666666,0.1014814814814814,2.612000000000002],[0.38552083333333326,0.08074074074074078,2.6314000000953683],[0.3953125,0.050370370370370454,2.646099999904628],[0.3733333333333334,0.03925925925925934,2.661299999713897],[0.34489583333333323,0.02907407407407416,2.677599999904629],[0.32864583333333336,0.05555555555555555,2.697199999809264],[0.37468750000000006,0.06351851851851843,2.7112999997138942],[0.3836458333333333,0.06851851851851852,2.7276999998092606],[0.4188541666666666,0.048333333333333374,2.744199999809261],[0.43333333333333335,0.03351851851851856,2.7641999998092643],[0.46593749999999995,0.03185185185185194,2.7797999997138945],[0.48552083333333323,0.004259259259259175,2.795199999809263],[0.4788541666666667,0.024074074074074074,2.814799999713898],[0.49677083333333344,0.025370370370370456,2.830199999809267],[0.5146874999999999,0.026666666666666623,2.8466999998092604],[0.5270833333333333,0.01703703703703712,2.8636999998092634],[0.4786458333333333,0.0242592592592593,2.8796999998092616],[0.4289583333333333,0.05129629629629638,2.894699999809262],[0.40291666666666665,0.08296296296296288,2.9105999999046333],[0.3792708333333332,0.10999999999999996,2.9272999997138953],[0.32625000000000004,0.11722222222222214,2.9439000000953683],[0.2952083333333334,0.14629629629629629,2.960499999999996],[0.2257291666666667,0.18796296296296297,2.9779000000953673],[0.1634375000000001,0.22888888888888892,2.9939000000953655],[0.10281250000000004,0.2594444444444445,3.010699999809262],[0.09166666666666666,0.28851851851851845,3.0271999998092625],[0.07906250000000009,0.31925925925925924,3.0439000000953627],[0.0859375,0.3051851851851851,3.0607999997138933],[0.06916666666666677,0.28648148148148156,3.077999999999996],[0.06916666666666677,0.28648148148148156,3.1021999998092653],[0.06041666666666667,0.25555555555555554,3.114299999713893],[0.05531250000000002,0.24277777777777781,3.1307999997138936],[0.05020833333333338,0.2300000000000001,3.1499000000953643],[0.11124999999999995,0.20462962962962963,3.163900000095367],[0.17229166666666676,0.17925925925925917,3.179799999713893],[0.2381249999999999,0.14444444444444443,3.1969999999999956],[0.2381249999999999,0.14444444444444443,3.21569999980926],[0.28312499999999996,0.12222222222222222,3.227799999713895],[0.28312499999999996,0.12222222222222222,3.244199999809261],[0.3476041666666667,0.06462962962962959,3.264499999999998],[0.37302083333333325,0.08981481481481482,3.2816999998092626],[0.4091666666666666,0.11074074074074065,3.2975999999046337],[0.4366666666666667,0.14074074074074075,3.3111999998092614],[0.47718749999999993,0.16796296296296304,3.330699999809262],[0.4929166666666667,0.14314814814814805,3.3464000000953646],[0.45729166666666665,0.10851851851851856,3.364299999713893],[0.4257291666666667,0.10425925925925918,3.3826999998092617],[0.4257291666666667,0.10425925925925918,3.3945000000000007],[0.39604166666666674,0.08888888888888889,3.4110999999046285],[0.39604166666666674,0.08888888888888889,3.4274000000953677],[0.3723958333333333,0.05981481481481473,3.447900000095366],[0.32218749999999996,0.10925925925925926,3.4632999997138967],[0.31010416666666674,0.10574074074074079,3.4797999997138973],[0.2867708333333333,0.09962962962962954,3.5027999997138934],[0.2867708333333333,0.09962962962962954,3.511799999713894],[0.25499999999999995,0.06666666666666667,3.527799999713899],[0.25499999999999995,0.06666666666666667,3.5442999997138998],[0.2078125,0.023333333333333376,3.5642999997138958],[0.184375,0.047037037037036995,3.5814999999999984],[0.14187500000000006,0.044999999999999915,3.5981999998092604],[0.0953125,0.012592592592592508,3.616099999904634],[0.0953125,0.012592592592592508,3.6277999997138934],[0.05510416666666664,0.046481481481481526,3.6439999999999984],[0.018124999999999978,0.07592592592592592,3.6606999998092604],[-0.011770833333333286,0.06222222222222226,3.680400000095368],[-0.07958333333333331,0.06388888888888888,3.6946999998092664],[-0.12416666666666672,0.07444444444444454,3.711500000000001],[-0.15874999999999997,0.0955555555555556,3.731599999904631],[-0.1842708333333333,0.13759259259259252,3.7472999997138956],[-0.20739583333333336,0.11796296296296305,3.7642999997138986],[-0.19729166666666664,0.1527777777777778,3.7807999997138992],[-0.1955208333333334,0.1625925925925925,3.7997999997138976],[-0.2543750000000001,0.17740740740740732,3.8152999997138934],[-0.3023958333333333,0.14092592592592595,3.831699999809267],[-0.3692708333333333,0.16500000000000004,3.850199999809263],[-0.3692708333333333,0.16500000000000004,3.8607999997138975],[-0.37135416666666665,0.12388888888888884,3.879099999904632],[-0.35572916666666665,0.08851851851851844,3.900900000095369],[-0.35572916666666665,0.08851851851851844,3.911199999809263],[-0.3727083333333333,0.05555555555555555,3.927599999904629],[-0.3538541666666667,-0.032037037037036954,3.9439999999999955],[-0.36437499999999995,-0.021851851851851768,3.9672999997138945],[-0.36437499999999995,-0.021851851851851768,3.977499999999999],[-0.34489583333333335,-0.05888888888888891,3.9942999997138955],[-0.28447916666666667,-0.08333333333333333,4.012099999904628],[-0.14093749999999997,-0.16018518518518518,4.033400000095369],[-0.044375000000000026,-0.17240740740740745,4.0482999997138975],[0.09791666666666667,-0.25388888888888894,4.065199999809266],[0.2071875000000001,-0.275,4.084400000095364],[0.2071875000000001,-0.275,4.094400000095369],[0.2738541666666668,-0.30888888888888894,4.110900000095363],[0.3689583333333334,-0.32999999999999996,4.130299999713898],[0.42916666666666664,-0.31574074074074077,4.147999999999996],[0.4995833333333332,-0.322037037037037,4.164299999713897],[0.4995833333333332,-0.322037037037037,4.177699999809263],[0.5258333333333333,-0.3098148148148148,4.200199999809264],[0.5258333333333333,-0.3098148148148148,4.211199999809267],[0.5213541666666667,-0.2964814814814815,4.228199999809263],[0.4744791666666667,-0.2346296296296296,4.250099999904634],[0.4744791666666667,-0.2346296296296296,4.2609000000953685],[0.44854166666666656,-0.18611111111111112,4.277299999713897],[0.390625,-0.12925925925925927,4.297499999999999],[0.3919791666666666,-0.11833333333333329,4.313499999999998],[0.3867708333333333,-0.09000000000000004,4.331499999999998],[0.3997916666666666,-0.06722222222222224,4.3507999997138995],[0.3997916666666666,-0.06722222222222224,4.360900000095363],[0.3814583333333334,-0.02388888888888885,4.377499999999998],[0.3857291666666666,-0.02092592592592584,4.396699999809265],[0.39000000000000007,-0.01796296296296305,4.422099999904631],[0.39000000000000007,-0.01796296296296305,4.429000000000002],[0.39604166666666674,0.032777777777777864,4.444400000095364],[0.37354166666666655,0.052407407407407326,4.4635999999046305],[0.37177083333333344,0.075,4.482900000095363],[0.37177083333333344,0.075,4.4942999997138955],[0.3954166666666666,0.052407407407407326,4.510999999999996],[0.37770833333333326,0.10870370370370379,4.528400000095367],[0.36875,0.15259259259259256,4.549400000095368],[0.36875,0.15259259259259256,4.560699999809266],[0.32572916666666674,0.2198148148148149,4.577799999713896],[0.29927083333333326,0.2544444444444444,4.601599999904629],[0.29927083333333326,0.2544444444444444,4.6107999997138975],[0.2803124999999999,0.30574074074074076,4.627299999713898],[0.2634375000000001,0.3655555555555555,4.647400000095367],[0.22927083333333323,0.4009259259259259,4.663199999809265],[0.22885416666666672,0.430925925925926,4.684299999713893],[0.22885416666666672,0.430925925925926,4.694299999713898],[0.24343750000000006,0.4648148148148148,4.711099999904633],[0.2462500000000001,0.543888888888889,4.730400000095365],[0.23729166666666662,0.5794444444444444,4.752499999999998],[0.23729166666666662,0.5794444444444444,4.760999999999996],[0.21864583333333343,0.6083333333333333,4.777499999999996],[0.19083333333333338,0.5907407407407408,4.7982999997138975],[0.17781250000000004,0.5851851851851851,4.816900000095366],[0.17781250000000004,0.5851851851851851,4.827500000000001],[0.16739583333333338,0.6164814814814814,4.844299999713897],[0.16739583333333338,0.6164814814814814,4.861099999904631],[0.14958333333333323,0.640925925925926,4.8814999999999955],[0.13958333333333334,0.6238888888888888,4.897400000095367],[0.12791666666666662,0.6199999999999999,4.914599999904631],[0.10135416666666662,0.6033333333333333,4.934400000095366],[0.10135416666666662,0.6033333333333333,4.944199999809264],[0.058437500000000024,0.6050000000000001,4.960900000095364],[0.03322916666666664,0.6101851851851852,4.980699999809261],[0.0234375,0.5462962962962963,5.000999999999998],[0.0234375,0.5462962962962963,5.0112999997138985],[-0.022083333333333382,0.522962962962963,5.027599999904631],[-0.022083333333333382,0.522962962962963,5.0442999997139],[-0.033645833333333285,0.515925925925926,5.067799999713898],[-0.033645833333333285,0.515925925925926,5.077900000095369],[-0.04916666666666671,0.4935185185185185,5.094400000095369],[-0.04916666666666671,0.4935185185185185,5.110999999999997],[-0.06479166666666672,0.4744444444444445,5.133499999999998],[-0.06479166666666672,0.4744444444444445,5.144599999904628],[-0.08520833333333329,0.47611111111111115,5.161000000000001],[-0.08520833333333329,0.47611111111111115,5.177599999904629],[-0.13072916666666667,0.42592592592592593,5.201299999713896],[-0.13072916666666667,0.42592592592592593,5.210900000095364],[-0.16458333333333333,0.4140740740740741,5.228599999904631],[-0.17937500000000003,0.3640740740740741,5.254099999904632],[-0.17937500000000003,0.3640740740740741,5.2620000000000005],[-0.19177083333333336,0.285,5.288199999809265],[-0.19177083333333336,0.285,5.295499999999997],[-0.1953125,0.24685185185185177,5.314099999904634],[-0.1438541666666667,0.2403703703703703,5.3319000000953665],[-0.12760416666666666,0.2222222222222222,5.347199999809263],[-0.11479166666666671,0.1551851851851851,5.365000000000002],[-0.09656250000000005,0.08314814814814811,5.400900000095369],[-0.09656250000000005,0.08314814814814811,5.4132999997138995],[-0.07604166666666666,0.01907407407407399,5.417199999809263],[-0.07604166666666666,0.01907407407407399,5.427299999713895],[-0.05166666666666669,0.02370370370370362,5.4439999999999955],[-0.05916666666666662,-0.015555555555555513,5.460699999809265],[-0.07541666666666665,-0.020740740740740823,5.4772999997139],[-0.0953125,-0.009074074074074031,5.496900000095366],[-0.14635416666666667,0.045740740740740825,5.510599999904628],[-0.14635416666666667,0.045740740740740825,5.527400000095369],[-0.16635416666666672,0.06722222222222214,5.547799999713895],[-0.19968750000000005,0.05055555555555547,5.562599999904634],[-0.23062499999999997,0.04870370370370362,5.579999999999998],[-0.2742708333333333,0.05537037037037033,5.59669999980926],[-0.3155208333333333,0.058333333333333334,5.6107999997138975],[-0.3219791666666667,0.0294444444444444,5.628099999904634],[-0.31229166666666663,0.009814814814814731,5.6444000000953665],[-0.3211458333333333,-0.05407407407407405,5.663400000095365],[-0.2851041666666667,-0.09296296296296294,5.677599999904629],[-0.2211458333333333,-0.1205555555555556,5.696099999904632],[-0.2283333333333334,-0.13629629629629633,5.710799999713899],[-0.2283333333333334,-0.13629629629629633,5.727499999999999],[-0.19937499999999997,-0.1440740740740741,5.744],[-0.1798958333333334,-0.12333333333333338,5.763400000095366],[-0.1616666666666667,-0.17888888888888893,5.779199999809265],[-0.11614583333333334,-0.17037037037037037,5.793799999713897],[-0.08250000000000005,-0.15999999999999995,5.810599999904632],[-0.07687499999999996,-0.16888888888888887,5.827199999809267],[-0.05520833333333333,-0.14740740740740746,5.847499999999997],[-0.05520833333333333,-0.14740740740740746,5.8607999997138975],[-0.05145833333333331,-0.15407407407407406,5.877499999999998],[-0.03229166666666667,-0.18833333333333332,5.896799999713899],[0.021041666666666715,-0.2494444444444444,5.911999999999999],[0.043229166666666666,-0.275,5.927400000095368],[0.06499999999999997,-0.32333333333333336,5.944199999809264],[0.08104166666666662,-0.285,5.964400000095367],[0.08916666666666657,-0.3314814814814815,5.978299999713897],[0.10822916666666677,-0.3772222222222222,5.994199999809261],[0.1734375,-0.39092592592592595,6.015499999999996],[0.20895833333333325,-0.35703703703703704,6.030499999999996],[0.1794791666666666,-0.30925925925925923,6.0441999998092655],[0.12604166666666666,-0.22925925925925927,6.060799999713893],[0.10031249999999996,-0.15314814814814812,6.080199999809267],[0.08520833333333329,-0.10833333333333334,6.094299999713897],[0.06333333333333328,-0.10888888888888891,6.110900000095363],[0.06333333333333328,-0.10888888888888891,6.131900000095364],[0.09885416666666676,-0.11277777777777774,6.144299999713894],[0.09416666666666676,-0.11203703703703703,6.160799999713895],[0.06979166666666667,-0.07574074074074069,6.177699999809263],[0.03979166666666671,-0.08388888888888892,6.1984000000953685],[0.03979166666666671,-0.08388888888888892,6.211099999904633],[0.051250000000000046,-0.1522222222222222,6.227400000095365],[0.051250000000000046,-0.1522222222222222,6.2442999997138955],[0.09520833333333342,-0.1735185185185185,6.263900000095369],[0.14322916666666666,-0.23592592592592587,6.277499999999996],[0.18645833333333334,-0.30277777777777776,6.2942999997139],[0.21572916666666658,-0.34,6.313299999713898],[0.27218749999999997,-0.3396296296296296,6.331299999713899],[0.2708333333333333,-0.3642592592592592,6.346199999809265],[0.32156250000000003,-0.3492592592592593,6.363799999713898],[0.35999999999999993,-0.39240740740740737,6.379400000095366],[0.4078125,-0.4264814814814815,6.393900000095364],[0.43250000000000005,-0.42611111111111116,6.410599999904633],[0.43562500000000004,-0.48462962962962963,6.427400000095368],[0.4253124999999999,-0.5064814814814815,6.443799999713896],[0.40729166666666666,-0.5314814814814814,6.46059999990463],[0.39781250000000007,-0.5768518518518518,6.4772999997139],[0.4025000000000001,-0.6037037037037037,6.4939000000953655],[0.43072916666666666,-0.6094444444444445,6.5105],[0.4197916666666667,-0.6455555555555555,6.527299999713897],[0.4448958333333332,-0.6620370370370371,6.552099999904634],[0.4448958333333332,-0.6620370370370371,6.560799999713893],[0.42729166666666674,-0.6474074074074074,6.577699999809262],[0.4122916666666666,-0.640925925925926,6.594699999809265],[0.4079166666666666,-0.6246296296296296,6.613799999713898],[0.41166666666666674,-0.6498148148148147,6.627699999809266],[0.4144791666666668,-0.6575925925925926,6.644199999809267],[0.4091666666666666,-0.6244444444444445,6.6636999998092605],[0.35656249999999995,-0.6318518518518518,6.678400000095365],[0.33260416666666665,-0.6724074074074075,6.696299999713894],[0.30322916666666655,-0.6575925925925926,6.714999999999996],[0.2537499999999999,-0.6605555555555556,6.731599999904631],[0.22645833333333343,-0.6640740740740741,6.747799999713898],[0.18291666666666656,-0.6924074074074074,6.7645999999046325],[0.18291666666666656,-0.6924074074074074,6.777400000095369],[0.15666666666666676,-0.6857407407407408,6.7941999998092655],[0.10354166666666677,-0.6407407407407407,6.811799999713898],[0.04552083333333338,-0.6098148148148148,6.830900000095369],[0.01072916666666662,-0.5996296296296296,6.846599999904633],[-0.013125000000000024,-0.5575925925925926,6.861099999904631],[-0.07083333333333333,-0.5048148148148148,6.881],[-0.10114583333333335,-0.5081481481481481,6.896199999809262],[-0.12635416666666663,-0.49148148148148146,6.9121999998092605],[-0.16270833333333337,-0.47000000000000003,6.927599999904629],[-0.17406250000000004,-0.4374074074074074,6.94859999990463],[-0.190625,-0.4222222222222222,6.966499999999996],[-0.190625,-0.4222222222222222,6.9780000000000015],[-0.18187500000000004,-0.42370370370370375,6.994099999904634],[-0.16895833333333338,-0.4053703703703703,7.014400000095364],[-0.1482291666666666,-0.3838888888888889,7.03119999980926],[-0.12437499999999997,-0.362962962962963,7.048499999999997],[-0.08187500000000002,-0.32018518518518513,7.068400000095366],[-0.08187500000000002,-0.32018518518518513,7.077500000000001],[-0.08406250000000005,-0.31870370370370377,7.094000000000001],[-0.04031250000000005,-0.30944444444444447,7.112599999904631],[0.01604166666666664,-0.30185185185185187,7.130400000095364],[0.049374999999999974,-0.28351851851851856,7.147099999904633],[0.0734375,-0.31074074074074076,7.1647999997139],[0.090625,-0.30648148148148147,7.181599999904634],[0.10239583333333328,-0.30351851851851847,7.202500000000001],[0.10239583333333328,-0.30351851851851847,7.211400000095367],[0.08354166666666671,-0.3446296296296297,7.227499999999999],[0.08354166666666671,-0.3446296296296297,7.244],[0.04812500000000005,-0.3785185185185185,7.264299999713899],[0.030520833333333285,-0.4272222222222222,7.281400000095367],[0.027604166666666666,-0.38555555555555554,7.2967999997138975],[-0.009895833333333333,-0.3412962962962963,7.311099999904634],[-0.03843749999999998,-0.2733333333333334,7.332499999999996],[-0.052083333333333336,-0.21518518518518517,7.347000000000001],[-0.06375000000000004,-0.16592592592592598,7.363400000095368],[-0.06854166666666663,-0.14814814814814814,7.381299999713896],[-0.06614583333333333,-0.13277777777777774,7.414299999713897],[-0.06614583333333333,-0.13277777777777774,7.422400000095365],[-0.06666666666666667,-0.05759259259259263,7.4315],[-0.043229166666666666,-0.004074074074074159,7.447799999713894],[-0.05343749999999995,0.009814814814814731,7.4646999998092625],[-0.041770833333333354,-0.013333333333333417,7.480799999713895],[-0.030520833333333285,-0.041666666666666664,7.496799999713893],[-0.03677083333333329,-0.08462962962962961,7.511400000095364],[-0.018333333333333358,-0.18722222222222226,7.5297999997138945],[-0.0046875,-0.252962962962963,7.547099999904631],[-0.006666666666666643,-0.28592592592592586,7.5630999999046296],[-0.006666666666666643,-0.28592592592592586,7.577400000095366],[0.013229166666666714,-0.35333333333333333,7.594000000000001],[0.029999999999999954,-0.45759259259259266,7.613500000000002],[0.044062499999999956,-0.5068518518518518,7.6281999998092616],[0.057083333333333285,-0.5127777777777778,7.647599999904628],[0.07645833333333343,-0.554074074074074,7.6659000000953625],[0.07645833333333343,-0.554074074074074,7.677199999809261],[0.06083333333333331,-0.6107407407407408,7.69409999990463],[0.04760416666666671,-0.6725925925925925,7.710799999713899],[-0.015625,-0.6083333333333333,7.727699999809261],[-0.07885416666666671,-0.544074074074074,7.7464999999999975],[-0.1264583333333333,-0.5125925925925926,7.76409999990463],[-0.19104166666666664,-0.4685185185185185,7.780499999999996],[-0.24145833333333327,-0.3772222222222222,7.801699999809266],[-0.24145833333333327,-0.3772222222222222,7.810599999904632],[-0.29791666666666666,-0.327962962962963,7.84669999980926],[-0.29791666666666666,-0.327962962962963,7.855799999713895],[-0.29791666666666666,-0.327962962962963,7.862099999904629],[-0.32999999999999996,-0.35999999999999993,7.8821999998092664],[-0.32999999999999996,-0.35999999999999993,7.894599999904628],[-0.353125,-0.34074074074074073,7.910799999713895],[-0.3111458333333334,-0.2972222222222222,7.932199999809264],[-0.3304166666666667,-0.2616666666666667,7.949199999809267],[-0.29562499999999997,-0.29018518518518516,7.964900000095369],[-0.29562499999999997,-0.29018518518518516,7.977400000095365],[-0.2711458333333333,-0.3122222222222223,7.997900000095363],[-0.23427083333333332,-0.3757407407407407,8.016400000095366],[-0.23427083333333332,-0.3757407407407407,8.027499999999996],[-0.23968750000000003,-0.4514814814814815,8.043999999999997],[-0.2361458333333334,-0.5053703703703704,8.064199999809261],[-0.196875,-0.5655555555555555,8.083999999999996],[-0.196875,-0.5655555555555555,8.09440000009537],[-0.1642708333333334,-0.5640740740740741,8.110799999713898],[-0.1951041666666666,-0.5792592592592593,8.131400000095368],[-0.2485416666666667,-0.5811111111111111,8.146499999999996],[-0.2485416666666667,-0.5811111111111111,8.160499999999999],[-0.2233333333333333,-0.5716666666666667,8.177400000095368],[-0.23406250000000003,-0.5624074074074074,8.1995],[-0.23406250000000003,-0.5624074074074074,8.210900000095364],[-0.22906249999999997,-0.5601851851851852,8.2272999997139],[-0.22906249999999997,-0.5601851851851852,8.244099999904634],[-0.23145833333333338,-0.477962962962963,8.260699999809262],[-0.23145833333333338,-0.477962962962963,8.2807999997139],[-0.19020833333333337,-0.42481481481481476,8.293900000095363],[-0.14708333333333337,-0.4137037037037037,8.310900000095366],[-0.14114583333333333,-0.38129629629629624,8.330299999713894],[-0.15427083333333336,-0.36129629629629634,8.348400000095367],[-0.1046875,-0.3164814814814814,8.366099999904634],[-0.1046875,-0.3164814814814814,8.377199999809264],[-0.08854166666666667,-0.2935185185185185,8.393999999999998],[-0.071875,-0.31351851851851853,8.413599999904633],[-0.049791666666666616,-0.2948148148148148,8.433400000095368],[-0.049791666666666616,-0.2948148148148148,8.443900000095368],[-0.03312499999999995,-0.27555555555555555,8.460699999809265],[-0.03312499999999995,-0.27555555555555555,8.484000000000002],[-0.04864583333333338,-0.3362962962962963,8.494400000095368],[-0.04864583333333338,-0.3362962962962963,8.510799999713896],[-0.06447916666666664,-0.32388888888888884,8.527699999809265],[-0.06447916666666664,-0.32388888888888884,8.550299999713893]]","[0.00029999971389571556,0.04999999999999716,0.06059999990463183,0.07750000000000057,0.09509999990463314,0.12159999990463177,0.12819999980926156,0.14399999999999835,0.16279999971389714,0.1795999999046316,0.2019000000953639,0.2110999999046328,0.22749999999999915,0.24769999980926372,0.26599999999999824,0.28419999980926036,0.2940999999046312,0.31079999971389327,0.3320999999046279,0.3477999997138994,0.3647999997138953,0.37740000009536345,0.3974000000953666,0.41269999980926286,0.4299999999999997,0.4482999997138961,0.4649999999999963,0.48190000009536504,0.49940000009536334,0.5141999998092643,0.5282999997138944,0.5440999999046312,0.5681999998092664,0.5774000000953663,0.5941999998092626,0.6180999999046293,0.6272999997138982,0.6440999999046326,0.6610999999046285,0.6824000000953632,0.6976999998092666,0.7149000000953691,0.7314000000953627,0.7479000000953633,0.7606999998092618,0.7819000000953693,0.7984999999999971,0.8154000000953658,0.8330999999046327,0.8440999999046284,0.8606999998092633,0.8836999998092665,0.8939999999999984,0.9106999998092604,0.9339000000953632,0.9439999999999955,0.960799999713899,0.9772999997138996,0.9939999999999998,1.0196999998092622,1.0315999999046284,1.048099999904629,1.0644999999999953,1.0834000000953665,1.0940000000000012,1.110999999999997,1.130199999809264,1.150500000000001,1.1610000000000014,1.177500000000002,1.203799999713894,1.2164999999999964,1.2276999998092606,1.2541999998092663,1.2629000000953639,1.2772999997138967,1.2950999999046289,1.3160999999046297,1.3312999997138988,1.3470000000000013,1.3659000000953654,1.3772999997138982,1.3939999999999984,1.4251999998092657,1.4319000000953679,1.4439000000953683,1.4636999998092648,1.4799999999999969,1.4967999997138932,1.5106999998092618,1.5274000000953691,1.5449000000953674,1.5634999999999977,1.581400000095364,1.598400000095367,1.6156999998092658,1.6317999997138983,1.6475000000000009,1.6644999999999968,1.6814999999999998,1.701199999809262,1.7106999998092647,1.7277999997138949,1.744099999904634,1.7650000000000006,1.7772999997138967,1.793999999999997,1.8157999997138958,1.8452999997138946,1.8609000000953628,1.870599999904634,1.8777999997138934,1.8945000000000007,1.9180999999046335,1.9276999998092634,1.9484999999999957,1.973400000095367,1.9904999999999973,1.9954999999999998,2.0109999999999957,2.0357999997138947,2.0442999997138998,2.061099999904634,2.0775999999046277,2.097999999999999,2.115099999904629,2.1307999997138936,2.1489000000953666,2.163900000095367,2.181299999713893,2.1984000000953685,2.2124999999999986,2.227499999999999,2.247799999713898,2.260699999809262,2.2807999997138992,2.2950000000000017,2.311,2.3311999998092645,2.3451999998092603,2.3629000000953653,2.3807999997138936,2.4017999997138944,2.4107999997138947,2.427599999904629,2.4475999999046323,2.461599999904628,2.480099999904631,2.4942999997138955,2.5142999997138986,2.5304000000953693,2.545199999809263,2.5607999997138933,2.580999999999996,2.5974000000953694,2.612000000000002,2.6314000000953683,2.646099999904628,2.661299999713897,2.677599999904629,2.697199999809264,2.7112999997138942,2.7276999998092606,2.744199999809261,2.7641999998092643,2.7797999997138945,2.795199999809263,2.814799999713898,2.830199999809267,2.8466999998092604,2.8636999998092634,2.8796999998092616,2.894699999809262,2.9105999999046333,2.9272999997138953,2.9439000000953683,2.960499999999996,2.9779000000953673,2.9939000000953655,3.010699999809262,3.0271999998092625,3.0439000000953627,3.0607999997138933,3.077999999999996,3.1021999998092653,3.114299999713893,3.1307999997138936,3.1499000000953643,3.163900000095367,3.179799999713893,3.1969999999999956,3.21569999980926,3.227799999713895,3.244199999809261,3.264499999999998,3.2816999998092626,3.2975999999046337,3.3111999998092614,3.330699999809262,3.3464000000953646,3.364299999713893,3.3826999998092617,3.3945000000000007,3.4110999999046285,3.4274000000953677,3.447900000095366,3.4632999997138967,3.4797999997138973,3.5027999997138934,3.511799999713894,3.527799999713899,3.5442999997138998,3.5642999997138958,3.5814999999999984,3.5981999998092604,3.616099999904634,3.6277999997138934,3.6439999999999984,3.6606999998092604,3.680400000095368,3.6946999998092664,3.711500000000001,3.731599999904631,3.7472999997138956,3.7642999997138986,3.7807999997138992,3.7997999997138976,3.8152999997138934,3.831699999809267,3.850199999809263,3.8607999997138975,3.879099999904632,3.900900000095369,3.911199999809263,3.927599999904629,3.9439999999999955,3.9672999997138945,3.977499999999999,3.9942999997138955,4.012099999904628,4.033400000095369,4.0482999997138975,4.065199999809266,4.084400000095364,4.094400000095369,4.110900000095363,4.130299999713898,4.147999999999996,4.164299999713897,4.177699999809263,4.200199999809264,4.211199999809267,4.228199999809263,4.250099999904634,4.2609000000953685,4.277299999713897,4.297499999999999,4.313499999999998,4.331499999999998,4.3507999997138995,4.360900000095363,4.377499999999998,4.396699999809265,4.422099999904631,4.429000000000002,4.444400000095364,4.4635999999046305,4.482900000095363,4.4942999997138955,4.510999999999996,4.528400000095367,4.549400000095368,4.560699999809266,4.577799999713896,4.601599999904629,4.6107999997138975,4.627299999713898,4.647400000095367,4.663199999809265,4.684299999713893,4.694299999713898,4.711099999904633,4.730400000095365,4.752499999999998,4.760999999999996,4.777499999999996,4.7982999997138975,4.816900000095366,4.827500000000001,4.844299999713897,4.861099999904631,4.8814999999999955,4.897400000095367,4.914599999904631,4.934400000095366,4.944199999809264,4.960900000095364,4.980699999809261,5.000999999999998,5.0112999997138985,5.027599999904631,5.0442999997139,5.067799999713898,5.077900000095369,5.094400000095369,5.110999999999997,5.133499999999998,5.144599999904628,5.161000000000001,5.177599999904629,5.201299999713896,5.210900000095364,5.228599999904631,5.254099999904632,5.2620000000000005,5.288199999809265,5.295499999999997,5.314099999904634,5.3319000000953665,5.347199999809263,5.365000000000002,5.400900000095369,5.4132999997138995,5.417199999809263,5.427299999713895,5.4439999999999955,5.460699999809265,5.4772999997139,5.496900000095366,5.510599999904628,5.527400000095369,5.547799999713895,5.562599999904634,5.579999999999998,5.59669999980926,5.6107999997138975,5.628099999904634,5.6444000000953665,5.663400000095365,5.677599999904629,5.696099999904632,5.710799999713899,5.727499999999999,5.744,5.763400000095366,5.779199999809265,5.793799999713897,5.810599999904632,5.827199999809267,5.847499999999997,5.8607999997138975,5.877499999999998,5.896799999713899,5.911999999999999,5.927400000095368,5.944199999809264,5.964400000095367,5.978299999713897,5.994199999809261,6.015499999999996,6.030499999999996,6.0441999998092655,6.060799999713893,6.080199999809267,6.094299999713897,6.110900000095363,6.131900000095364,6.144299999713894,6.160799999713895,6.177699999809263,6.1984000000953685,6.211099999904633,6.227400000095365,6.2442999997138955,6.263900000095369,6.277499999999996,6.2942999997139,6.313299999713898,6.331299999713899,6.346199999809265,6.363799999713898,6.379400000095366,6.393900000095364,6.410599999904633,6.427400000095368,6.443799999713896,6.46059999990463,6.4772999997139,6.4939000000953655,6.5105,6.527299999713897,6.552099999904634,6.560799999713893,6.577699999809262,6.594699999809265,6.613799999713898,6.627699999809266,6.644199999809267,6.6636999998092605,6.678400000095365,6.696299999713894,6.714999999999996,6.731599999904631,6.747799999713898,6.7645999999046325,6.777400000095369,6.7941999998092655,6.811799999713898,6.830900000095369,6.846599999904633,6.861099999904631,6.881,6.896199999809262,6.9121999998092605,6.927599999904629,6.94859999990463,6.966499999999996,6.9780000000000015,6.994099999904634,7.014400000095364,7.03119999980926,7.048499999999997,7.068400000095366,7.077500000000001,7.094000000000001,7.112599999904631,7.130400000095364,7.147099999904633,7.1647999997139,7.181599999904634,7.202500000000001,7.211400000095367,7.227499999999999,7.244,7.264299999713899,7.281400000095367,7.2967999997138975,7.311099999904634,7.332499999999996,7.347000000000001,7.363400000095368,7.381299999713896,7.414299999713897,7.422400000095365,7.4315,7.447799999713894,7.4646999998092625,7.480799999713895,7.496799999713893,7.511400000095364,7.5297999997138945,7.547099999904631,7.5630999999046296,7.577400000095366,7.594000000000001,7.613500000000002,7.6281999998092616,7.647599999904628,7.6659000000953625,7.677199999809261,7.69409999990463,7.710799999713899,7.727699999809261,7.7464999999999975,7.76409999990463,7.780499999999996,7.801699999809266,7.810599999904632,7.84669999980926,7.855799999713895,7.862099999904629,7.8821999998092664,7.894599999904628,7.910799999713895,7.932199999809264,7.949199999809267,7.964900000095369,7.977400000095365,7.997900000095363,8.016400000095366,8.027499999999996,8.043999999999997,8.064199999809261,8.083999999999996,8.09440000009537,8.110799999713898,8.131400000095368,8.146499999999996,8.160499999999999,8.177400000095368,8.1995,8.210900000095364,8.2272999997139,8.244099999904634,8.260699999809262,8.2807999997139,8.293900000095363,8.310900000095366,8.330299999713894,8.348400000095367,8.366099999904634,8.377199999809264,8.393999999999998,8.413599999904633,8.433400000095368,8.443900000095368,8.460699999809265,8.484000000000002,8.494400000095368,8.510799999713896,8.527699999809265,8.550299999713893]","[1732164687312,1732164687353,1732164687363,1732164687380,1732164687398,1732164687424,1732164687431,1732164687447,1732164687465,1732164687482,1732164687505,1732164687514,1732164687530,1732164687550,1732164687569,1732164687587,1732164687597,1732164687613,1732164687635,1732164687650,1732164687667,1732164687680,1732164687700,1732164687715,1732164687733,1732164687751,1732164687768,1732164687785,1732164687802,1732164687817,1732164687831,1732164687847,1732164687871,1732164687880,1732164687897,1732164687921,1732164687930,1732164687947,1732164687964,1732164687985,1732164688000,1732164688018,1732164688034,1732164688051,1732164688063,1732164688085,1732164688101,1732164688118,1732164688136,1732164688147,1732164688163,1732164688186,1732164688197,1732164688213,1732164688237,1732164688247,1732164688263,1732164688280,1732164688297,1732164688322,1732164688334,1732164688351,1732164688367,1732164688386,1732164688397,1732164688414,1732164688433,1732164688453,1732164688464,1732164688480,1732164688506,1732164688519,1732164688530,1732164688557,1732164688565,1732164688580,1732164688598,1732164688619,1732164688634,1732164688650,1732164688669,1732164688680,1732164688697,1732164688728,1732164688735,1732164688747,1732164688766,1732164688783,1732164688799,1732164688813,1732164688830,1732164688848,1732164688866,1732164688884,1732164688901,1732164688918,1732164688934,1732164688950,1732164688967,1732164688984,1732164689004,1732164689013,1732164689030,1732164689047,1732164689068,1732164689080,1732164689097,1732164689118,1732164689148,1732164689164,1732164689173,1732164689180,1732164689197,1732164689221,1732164689230,1732164689251,1732164689276,1732164689293,1732164689298,1732164689314,1732164689338,1732164689347,1732164689364,1732164689380,1732164689401,1732164689418,1732164689433,1732164689451,1732164689467,1732164689484,1732164689501,1732164689515,1732164689530,1732164689550,1732164689563,1732164689583,1732164689598,1732164689614,1732164689634,1732164689648,1732164689665,1732164689683,1732164689704,1732164689713,1732164689730,1732164689750,1732164689764,1732164689783,1732164689797,1732164689817,1732164689833,1732164689848,1732164689863,1732164689884,1732164689900,1732164689915,1732164689934,1732164689949,1732164689964,1732164689980,1732164690000,1732164690014,1732164690030,1732164690047,1732164690067,1732164690082,1732164690098,1732164690117,1732164690133,1732164690149,1732164690166,1732164690182,1732164690197,1732164690213,1732164690230,1732164690247,1732164690263,1732164690281,1732164690297,1732164690313,1732164690330,1732164690347,1732164690363,1732164690381,1732164690405,1732164690417,1732164690433,1732164690452,1732164690467,1732164690482,1732164690500,1732164690518,1732164690530,1732164690547,1732164690567,1732164690584,1732164690600,1732164690614,1732164690633,1732164690649,1732164690667,1732164690685,1732164690697,1732164690714,1732164690730,1732164690751,1732164690766,1732164690782,1732164690805,1732164690814,1732164690830,1732164690847,1732164690867,1732164690884,1732164690901,1732164690919,1732164690930,1732164690947,1732164690963,1732164690983,1732164690997,1732164691014,1732164691034,1732164691050,1732164691067,1732164691083,1732164691102,1732164691118,1732164691134,1732164691153,1732164691163,1732164691182,1732164691204,1732164691214,1732164691230,1732164691247,1732164691270,1732164691280,1732164691297,1732164691315,1732164691336,1732164691351,1732164691368,1732164691387,1732164691397,1732164691413,1732164691433,1732164691451,1732164691467,1732164691480,1732164691503,1732164691514,1732164691531,1732164691553,1732164691563,1732164691580,1732164691600,1732164691616,1732164691634,1732164691653,1732164691663,1732164691680,1732164691699,1732164691725,1732164691732,1732164691747,1732164691766,1732164691786,1732164691797,1732164691814,1732164691831,1732164691852,1732164691863,1732164691880,1732164691904,1732164691913,1732164691930,1732164691950,1732164691966,1732164691987,1732164691997,1732164692014,1732164692033,1732164692055,1732164692064,1732164692080,1732164692101,1732164692119,1732164692130,1732164692147,1732164692164,1732164692184,1732164692200,1732164692217,1732164692237,1732164692247,1732164692263,1732164692283,1732164692304,1732164692314,1732164692330,1732164692347,1732164692370,1732164692381,1732164692397,1732164692414,1732164692436,1732164692447,1732164692464,1732164692480,1732164692504,1732164692514,1732164692531,1732164692557,1732164692565,1732164692591,1732164692598,1732164692617,1732164692635,1732164692650,1732164692668,1732164692704,1732164692716,1732164692720,1732164692730,1732164692747,1732164692763,1732164692780,1732164692800,1732164692813,1732164692830,1732164692850,1732164692865,1732164692883,1732164692899,1732164692913,1732164692931,1732164692947,1732164692966,1732164692980,1732164692999,1732164693013,1732164693030,1732164693047,1732164693066,1732164693082,1732164693096,1732164693113,1732164693130,1732164693150,1732164693163,1732164693180,1732164693199,1732164693215,1732164693230,1732164693247,1732164693267,1732164693281,1732164693297,1732164693318,1732164693333,1732164693347,1732164693363,1732164693383,1732164693397,1732164693413,1732164693435,1732164693447,1732164693463,1732164693480,1732164693501,1732164693514,1732164693530,1732164693547,1732164693567,1732164693580,1732164693597,1732164693616,1732164693634,1732164693649,1732164693666,1732164693682,1732164693697,1732164693713,1732164693730,1732164693746,1732164693763,1732164693780,1732164693797,1732164693813,1732164693830,1732164693855,1732164693863,1732164693880,1732164693897,1732164693916,1732164693930,1732164693947,1732164693966,1732164693981,1732164693999,1732164694018,1732164694034,1732164694050,1732164694067,1732164694080,1732164694097,1732164694114,1732164694134,1732164694149,1732164694164,1732164694184,1732164694199,1732164694215,1732164694230,1732164694251,1732164694269,1732164694281,1732164694297,1732164694317,1732164694334,1732164694351,1732164694371,1732164694380,1732164694397,1732164694415,1732164694433,1732164694450,1732164694467,1732164694484,1732164694505,1732164694514,1732164694530,1732164694547,1732164694567,1732164694584,1732164694599,1732164694614,1732164694635,1732164694650,1732164694666,1732164694684,1732164694717,1732164694725,1732164694734,1732164694750,1732164694767,1732164694783,1732164694799,1732164694814,1732164694832,1732164694850,1732164694866,1732164694880,1732164694897,1732164694916,1732164694931,1732164694950,1732164694969,1732164694980,1732164694997,1732164695013,1732164695030,1732164695049,1732164695067,1732164695083,1732164695104,1732164695113,1732164695149,1732164695158,1732164695165,1732164695185,1732164695197,1732164695213,1732164695235,1732164695252,1732164695268,1732164695280,1732164695301,1732164695319,1732164695330,1732164695347,1732164695367,1732164695387,1732164695397,1732164695413,1732164695434,1732164695449,1732164695463,1732164695480,1732164695502,1732164695513,1732164695530,1732164695547,1732164695563,1732164695583,1732164695597,1732164695614,1732164695633,1732164695651,1732164695669,1732164695680,1732164695697,1732164695716,1732164695736,1732164695746,1732164695763,1732164695787,1732164695797,1732164695813,1732164695830,1732164695853]","[[985.7,492.5],[985.7,492.5],[993.3,517],[1016.9,535.4],[1022.8,553.8],[1056,570.3],[1056,570.3],[1053.2,604],[1058.6,650.9],[1090.8,677.8],[1133.4,692.7],[1133.4,692.7],[1138.6,669.4],[1158.4,659.2],[1164.4,631.2],[1158.5,615.1],[1158.5,615.1],[1182.5,599.2],[1179.4,598.3],[1190.6,579.6],[1217.9,540.5],[1217.9,540.5],[1245.2,501.4],[1260,475.1],[1232.7,483.8],[1205.1,484.3],[1191.1,495.2],[1165.1,501.4],[1132.4,501.5],[1112.1,497.5],[1091.8,498.5],[1051.2,507.2],[1010.6,515.9],[1010.6,515.9],[972.4,529.5],[988.2,523],[988.2,523],[993,522.7],[1037.5,495.3],[1082,475.9],[1082.5,465.2],[1082,455.1],[1101.3,444],[1101.3,444],[1079,454.5],[1074.8,459],[1073.8,465.6],[1058.2,478.7],[1089.5,475.8],[1089.5,475.8],[1082,493.6],[1073.1,509],[1073.1,509],[1095.4,529.2],[1120.4,545.1],[1120.4,545.1],[1126.7,560],[1126.7,560],[1172.2,561],[1172.2,561],[1189.7,572.5],[1176.3,569.5],[1173.5,560.2],[1134.8,560.7],[1134.8,560.7],[1090.6,563.6],[1038.5,599.7],[1018.7,617.9],[1018.7,617.9],[971.4,627.6],[919.7,639.9],[919.7,639.9],[887.4,649.4],[856,656.4],[856,656.4],[864.2,648],[881.2,653.6],[898.2,659.2],[889.8,670.2],[886.7,643.2],[875.1,615.4],[875.1,615.4],[888.3,600.4],[893.2,577.7],[893.2,577.7],[887.8,545.1],[882.2,534.5],[870.8,526.1],[836.1,532.2],[836.1,532.2],[798.2,518.7],[788.2,519.5],[746,499.3],[673.8,501.8],[575,495.9],[487.8,497.1],[397.1,486.8],[315.6,452.5],[266.5,426.7],[209.6,388.2],[120,370],[120,370],[142.6,357.9],[209.8,367.9],[291.9,366.3],[291.9,366.3],[392.9,382.1],[455.8,404.4],[522.4,441.4],[522.4,441.4],[616.7,478.8],[616.7,478.8],[655.2,527.8],[655.2,527.8],[711,558],[711,558],[820.1,582.1],[820.1,582.1],[820.1,582.1],[743.4,606.2],[700.9,629.3],[700.9,629.3],[668.5,638.5],[668.5,638.5],[643.8,638.7],[657.8,625.1],[659.9,608.5],[660.7,606.3],[651.6,608.4],[654,608.7],[628.4,622.7],[628.4,622.7],[675.3,614.4],[680.2,605.8],[680.2,605.8],[684.5,593.7],[667.1,605],[653.4,618.6],[642.6,635.9],[623,629.7],[626.9,627.3],[602,628.6],[606.7,631.3],[606.7,631.3],[622.8,626.4],[674.3,639.9],[760.9,653.1],[869.2,642.9],[869.2,642.9],[979.4,637.2],[1045.1,621.1],[1093.2,613.7],[1163.7,597],[1220.7,601.3],[1276.9,597.2],[1325.8,594.8],[1330.1,583.6],[1339.5,567.2],[1318.4,561.2],[1291.1,555.7],[1275.5,570],[1319.7,574.3],[1328.3,577],[1362.1,566.1],[1376,558.1],[1407.3,557.2],[1426.1,542.3],[1419.7,553],[1436.9,553.7],[1454.1,554.4],[1466,549.2],[1419.5,553.1],[1371.8,567.7],[1346.8,584.8],[1324.1,599.4],[1273.2,603.3],[1243.4,619],[1176.7,641.5],[1116.9,663.6],[1058.7,680.1],[1048,695.8],[1035.9,712.4],[1042.5,704.8],[1026.4,694.7],[1026.4,694.7],[1018,678],[1013.1,671.1],[1008.2,664.2],[1066.8,650.5],[1125.4,636.8],[1188.6,618],[1188.6,618],[1231.8,606],[1231.8,606],[1293.7,574.9],[1318.1,588.5],[1352.8,599.8],[1379.2,616],[1418.1,630.7],[1433.2,617.3],[1399,598.6],[1368.7,596.3],[1368.7,596.3],[1340.2,588],[1340.2,588],[1317.5,572.3],[1269.3,599],[1257.7,597.1],[1235.3,593.8],[1235.3,593.8],[1204.8,576],[1204.8,576],[1159.5,552.6],[1137,565.4],[1096.2,564.3],[1051.5,546.8],[1051.5,546.8],[1012.9,565.1],[977.4,581],[948.7,573.6],[883.6,574.5],[840.8,580.2],[807.6,591.6],[783.1,614.3],[760.9,603.7],[770.6,622.5],[772.3,627.8],[715.8,635.8],[669.7,616.1],[605.5,629.1],[605.5,629.1],[603.5,606.9],[618.5,587.8],[618.5,587.8],[602.2,570],[620.3,522.7],[610.2,528.2],[610.2,528.2],[628.9,508.2],[686.9,495],[824.7,453.5],[917.4,446.9],[1054,402.9],[1158.9,391.5],[1158.9,391.5],[1222.9,373.2],[1314.2,361.8],[1372,369.5],[1439.6,366.1],[1439.6,366.1],[1464.8,372.7],[1464.8,372.7],[1460.5,379.9],[1415.5,413.3],[1415.5,413.3],[1390.6,439.5],[1335,470.2],[1336.3,476.1],[1331.3,491.4],[1343.8,503.7],[1343.8,503.7],[1326.2,527.1],[1330.3,528.7],[1334.4,530.3],[1334.4,530.3],[1340.2,557.7],[1318.6,568.3],[1316.9,580.5],[1316.9,580.5],[1339.6,568.3],[1322.6,598.7],[1314,622.4],[1314,622.4],[1272.7,658.7],[1247.3,677.4],[1247.3,677.4],[1229.1,705.1],[1212.9,737.4],[1180.1,756.5],[1179.7,772.7],[1179.7,772.7],[1193.7,791],[1196.4,833.7],[1187.8,852.9],[1187.8,852.9],[1169.9,868.5],[1143.2,859],[1130.7,856],[1130.7,856],[1120.7,872.9],[1120.7,872.9],[1103.6,886.1],[1094,876.9],[1082.8,874.8],[1057.3,865.8],[1057.3,865.8],[1016.1,866.7],[991.9,869.5],[982.5,835],[982.5,835],[938.8,822.4],[938.8,822.4],[927.7,818.6],[927.7,818.6],[912.8,806.5],[912.8,806.5],[897.8,796.2],[897.8,796.2],[878.2,797.1],[878.2,797.1],[834.5,770],[834.5,770],[802,763.6],[787.8,736.6],[787.8,736.6],[775.9,693.9],[775.9,693.9],[772.5,673.3],[821.9,669.8],[837.5,660],[849.8,623.8],[867.3,584.9],[867.3,584.9],[887,550.3],[887,550.3],[910.4,552.8],[903.2,531.6],[887.6,528.8],[868.5,535.1],[819.5,564.7],[819.5,564.7],[800.3,576.3],[768.3,567.3],[738.6,566.3],[696.7,569.9],[657.1,571.5],[650.9,555.9],[660.2,545.3],[651.7,510.8],[686.3,489.8],[747.7,474.9],[740.8,466.4],[740.8,466.4],[768.6,462.2],[787.3,473.4],[804.8,443.4],[848.5,448],[880.8,453.6],[886.2,448.8],[907,460.4],[907,460.4],[910.6,456.8],[929,438.3],[980.2,405.3],[1001.5,391.5],[1022.4,365.4],[1037.8,386.1],[1045.6,361],[1063.9,336.3],[1126.5,328.9],[1160.6,347.2],[1132.3,373],[1081,416.2],[1056.3,457.3],[1041.8,481.5],[1020.8,481.2],[1020.8,481.2],[1054.9,479.1],[1050.4,479.5],[1027,499.1],[998.2,494.7],[998.2,494.7],[1009.2,457.8],[1009.2,457.8],[1051.4,446.3],[1097.5,412.6],[1139,376.5],[1167.1,356.4],[1221.3,356.6],[1220,343.3],[1268.7,351.4],[1305.6,328.1],[1351.5,309.7],[1375.2,309.9],[1378.2,278.3],[1368.3,266.5],[1351,253],[1341.9,228.5],[1346.4,214],[1373.5,210.9],[1363,191.4],[1387.1,182.5],[1387.1,182.5],[1370.2,190.4],[1355.8,193.9],[1351.6,202.7],[1355.2,189.1],[1357.9,184.9],[1352.8,202.8],[1302.3,198.8],[1279.3,176.9],[1251.1,184.9],[1203.6,183.3],[1177.4,181.4],[1135.6,166.1],[1135.6,166.1],[1110.4,169.7],[1059.4,194],[1003.7,210.7],[970.3,216.2],[947.4,238.9],[892,267.4],[862.9,265.6],[838.7,274.6],[803.8,286.2],[792.9,303.8],[777,312],[777,312],[785.4,311.2],[797.8,321.1],[817.7,332.7],[840.6,344],[881.4,367.1],[881.4,367.1],[879.3,367.9],[921.3,372.9],[975.4,377],[1007.4,386.9],[1030.5,372.2],[1047,374.5],[1058.3,376.1],[1058.3,376.1],[1040.2,353.9],[1040.2,353.9],[1006.2,335.6],[989.3,309.3],[986.5,331.8],[950.5,355.7],[923.1,392.4],[910,423.8],[898.8,450.4],[894.2,460],[896.5,468.3],[896.5,468.3],[896,508.9],[918.5,537.8],[908.7,545.3],[919.9,532.8],[930.7,5