inst1_resp.keys,inst1_resp.rt,calibrationMouse.x,calibrationMouse.y,calibrationMouse.leftButton,calibrationMouse.midButton,calibrationMouse.rightButton,calibrationClick.x,calibrationClick.y,calibrationClick.leftButton,calibrationClick.midButton,calibrationClick.rightButton,trialsc.thisRepN,trialsc.thisTrialN,trialsc.thisN,trialsc.thisIndex,trialsc.ran,calibration_x,calibration_y,participant,session,date,expName,psychopyVersion,OS,frameRate,calibrationClick.clicked_name,ScreenRes_pixels,Camera_pixels,mouse_2.x,mouse_2.y,mouse_2.leftButton,mouse_2.midButton,mouse_2.rightButton,mouse_2.time,mouse_2.clicked_name,mouse.x,mouse.y,mouse.leftButton,mouse.midButton,mouse.rightButton,mouse.time,mouse.clicked_name,Choice,Trial,TrialDuration,MOUSE_GAZE,ET_GAZE,ET_GAZE_x_T,time,unixTime,ET_GAZE_NF,Loc_Bus_label,Loc_Metro_label,Loc_RH_label,Loc_Cost_label,Loc_Travel_label,Loc_Comfort_label,Loc_Bus_cost,Loc_Metro_cost,Loc_RH_cost,Loc_Bus_travel,Loc_Metro_travel,Loc_RH_travel,Loc_Bus_comfort,Loc_Metro_comfort,Loc_RH_comfort,trials.thisRepN,trials.thisTrialN,trials.thisN,trials.thisIndex,trials.ran,Block,Device,RH_cost,RH_travel_time,RH_Comfort,metro_cost,metro_travel_time,metro_Comfort,Bus_cost,Bus_travel_time,Bus_Comfort
space,2.771,-0.083333333,0.211111111,1,0,0,-0.0875,0.211111111,0,0,0,0,0,0,18,1,0.33,0.67,25,001,2024-11-25_12h55.53.676,Attention_exp_legacy,2023.1.0,Win32,59.88023952,,,,,,,,,,,,,,,,,,,,,,,,,,,,,,,,,,,,,,,,,,,,,,,,,,,,,,,,,
,,,,,,,-0.0875,0.211111111,0,0,0,0,1,1,3,1,-0.67,0.33,25,001,2024-11-25_12h55.53.676,Attention_exp_legacy,2023.1.0,Win32,59.88023952,,,,,,,,,,,,,,,,,,,,,,,,,,,,,,,,,,,,,,,,,,,,,,,,,,,,,,,,,
,,,,,,,0.002083333,0.67962963,1,0,0,0,2,2,13,1,0,0.67,25,001,2024-11-25_12h55.53.676,Attention_exp_legacy,2023.1.0,Win32,59.88023952,calibration_square,,,,,,,,,,,,,,,,,,,,,,,,,,,,,,,,,,,,,,,,,,,,,,,,,,,,,,,,
,,,,,,,-0.336458333,-0.307407407,1,0,0,0,3,3,5,1,-0.33,-0.33,25,001,2024-11-25_12h55.53.676,Attention_exp_legacy,2023.1.0,Win32,59.88023952,,,,,,,,,,,,,,,,,,,,,,,,,,,,,,,,,,,,,,,,,,,,,,,,,,,,,,,,,
,,,,,,,0.3375,-0.67037037,1,0,0,0,4,4,14,1,0.33,-0.67,25,001,2024-11-25_12h55.53.676,Attention_exp_legacy,2023.1.0,Win32,59.88023952,calibration_square,,,,,,,,,,,,,,,,,,,,,,,,,,,,,,,,,,,,,,,,,,,,,,,,,,,,,,,,
,,,,,,,-0.003125,-0.324074074,1,0,0,0,5,5,10,1,0,-0.33,25,001,2024-11-25_12h55.53.676,Attention_exp_legacy,2023.1.0,Win32,59.88023952,calibration_square,,,,,,,,,,,,,,,,,,,,,,,,,,,,,,,,,,,,,,,,,,,,,,,,,,,,,,,,
,,,,,,,0.339583333,0.331481481,1,0,0,0,6,6,17,1,0.33,0.33,25,001,2024-11-25_12h55.53.676,Attention_exp_legacy,2023.1.0,Win32,59.88023952,calibration_square,,,,,,,,,,,,,,,,,,,,,,,,,,,,,,,,,,,,,,,,,,,,,,,,,,,,,,,,
,,,,,,,-0.332291667,0.344444444,1,0,0,0,7,7,7,1,-0.33,0.33,25,001,2024-11-25_12h55.53.676,Attention_exp_legacy,2023.1.0,Win32,59.88023952,,,,,,,,,,,,,,,,,,,,,,,,,,,,,,,,,,,,,,,,,,,,,,,,,,,,,,,,,
,,,,,,,0.330208333,-0.001851852,1,0,0,0,8,8,16,1,0.33,0,25,001,2024-11-25_12h55.53.676,Attention_exp_legacy,2023.1.0,Win32,59.88023952,calibration_square,,,,,,,,,,,,,,,,,,,,,,,,,,,,,,,,,,,,,,,,,,,,,,,,,,,,,,,,
,,,,,,,0.675,0.67037037,1,0,0,0,9,9,19,1,0.67,0.67,25,001,2024-11-25_12h55.53.676,Attention_exp_legacy,2023.1.0,Win32,59.88023952,calibration_square,,,,,,,,,,,,,,,,,,,,,,,,,,,,,,,,,,,,,,,,,,,,,,,,,,,,,,,,
,,,,,,,-0.014583333,-0.003703704,1,0,0,0,10,10,11,1,0,0,25,001,2024-11-25_12h55.53.676,Attention_exp_legacy,2023.1.0,Win32,59.88023952,,,,,,,,,,,,,,,,,,,,,,,,,,,,,,,,,,,,,,,,,,,,,,,,,,,,,,,,,
,,,,,,,-0.683333333,-0.67037037,1,0,0,0,11,11,0,1,-0.67,-0.67,25,001,2024-11-25_12h55.53.676,Attention_exp_legacy,2023.1.0,Win32,59.88023952,,,,,,,,,,,,,,,,,,,,,,,,,,,,,,,,,,,,,,,,,,,,,,,,,,,,,,,,,
,,,,,,,-0.677083333,0.005555556,1,0,0,0,12,12,2,1,-0.67,0,25,001,2024-11-25_12h55.53.676,Attention_exp_legacy,2023.1.0,Win32,59.88023952,calibration_square,,,,,,,,,,,,,,,,,,,,,,,,,,,,,,,,,,,,,,,,,,,,,,,,,,,,,,,,
,,,,,,,-0.325,0.675925926,1,0,0,0,13,13,8,1,-0.33,0.67,25,001,2024-11-25_12h55.53.676,Attention_exp_legacy,2023.1.0,Win32,59.88023952,calibration_square,,,,,,,,,,,,,,,,,,,,,,,,,,,,,,,,,,,,,,,,,,,,,,,,,,,,,,,,
,,,,,,,-0.336458333,0,1,0,0,0,14,14,6,1,-0.33,0,25,001,2024-11-25_12h55.53.676,Attention_exp_legacy,2023.1.0,Win32,59.88023952,calibration_square,,,,,,,,,,,,,,,,,,,,,,,,,,,,,,,,,,,,,,,,,,,,,,,,,,,,,,,,
,,,,,,,0.322916667,-0.344444444,1,0,0,0,15,15,15,1,0.33,-0.33,25,001,2024-11-25_12h55.53.676,Attention_exp_legacy,2023.1.0,Win32,59.88023952,,,,,,,,,,,,,,,,,,,,,,,,,,,,,,,,,,,,,,,,,,,,,,,,,,,,,,,,,
,,,,,,,-0.669791667,-0.32037037,1,0,0,0,16,16,1,1,-0.67,-0.33,25,001,2024-11-25_12h55.53.676,Attention_exp_legacy,2023.1.0,Win32,59.88023952,calibration_square,,,,,,,,,,,,,,,,,,,,,,,,,,,,,,,,,,,,,,,,,,,,,,,,,,,,,,,,
,,,,,,,0.65625,-0.67037037,1,0,0,0,17,17,20,1,0.67,-0.67,25,001,2024-11-25_12h55.53.676,Attention_exp_legacy,2023.1.0,Win32,59.88023952,,,,,,,,,,,,,,,,,,,,,,,,,,,,,,,,,,,,,,,,,,,,,,,,,,,,,,,,,
,,,,,,,0,0.346296296,1,0,0,0,18,18,12,1,0,0.33,25,001,2024-11-25_12h55.53.676,Attention_exp_legacy,2023.1.0,Win32,59.88023952,,,,,,,,,,,,,,,,,,,,,,,,,,,,,,,,,,,,,,,,,,,,,,,,,,,,,,,,,
,,,,,,,-0.321875,-0.67037037,1,0,0,0,19,19,4,1,-0.33,-0.67,25,001,2024-11-25_12h55.53.676,Attention_exp_legacy,2023.1.0,Win32,59.88023952,calibration_square,,,,,,,,,,,,,,,,,,,,,,,,,,,,,,,,,,,,,,,,,,,,,,,,,,,,,,,,
,,,,,,,0.002083333,-0.681481481,1,0,0,0,20,20,9,1,0,-0.67,25,001,2024-11-25_12h55.53.676,Attention_exp_legacy,2023.1.0,Win32,59.88023952,,,,,,,,,,,,,,,,,,,,,,,,,,,,,,,,,,,,,,,,,,,,,,,,,,,,,,,,,
,,,,,,,,,,,,,,,,,,,25,001,2024-11-25_12h55.53.676,Attention_exp_legacy,2023.1.0,Win32,59.88023952,,"[1920,1080]","[640,480]",[0.007291666666666667],[-0.4981481481481482],[1],[0],[0],[1.4459000000059632],"[""StartButton""]",[0.19479166666666667],[0.42407407407407405],[1],[0],[0],[4.410699999988076],"[""Metro_label""]",Metro_label,1,5.4397,"[[0.007291666666666667,-0.4981481481481482],[0.007291666666666667,-0.4981481481481482],[0.007291666666666667,-0.4981481481481482],[0.007291666666666667,-0.4981481481481482],[0.007291666666666667,-0.4981481481481482],[0.007291666666666667,-0.4981481481481482],[0.007291666666666667,-0.4981481481481482],[0.007291666666666667,-0.4981481481481482],[0.007291666666666667,-0.4981481481481482],[0.007291666666666667,-0.4981481481481482],[0.007291666666666667,-0.4981481481481482],[0.007291666666666667,-0.4981481481481482],[0.007291666666666667,-0.4981481481481482],[0.007291666666666667,-0.4981481481481482],[0.007291666666666667,-0.4981481481481482],[0.007291666666666667,-0.4981481481481482],[0.007291666666666667,-0.4981481481481482],[0.007291666666666667,-0.4981481481481482],[0.007291666666666667,-0.4981481481481482],[0.007291666666666667,-0.4981481481481482],[0.007291666666666667,-0.4981481481481482],[0.007291666666666667,-0.4981481481481482],[0.007291666666666667,-0.4981481481481482],[0.007291666666666667,-0.4981481481481482],[0.007291666666666667,-0.4981481481481482],[0.007291666666666667,-0.4981481481481482],[0.007291666666666667,-0.4981481481481482],[0.007291666666666667,-0.4981481481481482],[0.007291666666666667,-0.4981481481481482],[0.007291666666666667,-0.4981481481481482],[0.007291666666666667,-0.4981481481481482],[0.007291666666666667,-0.4981481481481482],[0.007291666666666667,-0.4981481481481482],[0.007291666666666667,-0.4925925925925926],[0,-0.4722222222222222],[-0.013541666666666667,-0.4425925925925926],[-0.025,-0.4203703703703704],[-0.035416666666666666,-0.39814814814814814],[-0.041666666666666664,-0.3814814814814815],[-0.04583333333333333,-0.37037037037037035],[-0.04895833333333333,-0.3574074074074074],[-0.053125,-0.3425925925925926],[-0.057291666666666664,-0.29444444444444445],[-0.06145833333333333,-0.25],[-0.065625,-0.2037037037037037],[-0.06770833333333333,-0.15],[-0.08125,-0.05555555555555555],[-0.09583333333333334,0.02962962962962963],[-0.10729166666666666,0.09259259259259259],[-0.11458333333333333,0.13148148148148148],[-0.11875,0.15925925925925927],[-0.12083333333333333,0.17777777777777778],[-0.121875,0.18888888888888888],[-0.12395833333333334,0.19814814814814816],[-0.125,0.20185185185185187],[-0.125,0.2037037037037037],[-0.125,0.2037037037037037],[-0.125,0.2074074074074074],[-0.125,0.2074074074074074],[-0.125,0.2074074074074074],[-0.125,0.2074074074074074],[-0.125,0.2074074074074074],[-0.125,0.2074074074074074],[-0.125,0.2074074074074074],[-0.125,0.2074074074074074],[-0.125,0.2074074074074074],[-0.125,0.2074074074074074],[-0.125,0.2074074074074074],[-0.125,0.2074074074074074],[-0.125,0.2074074074074074],[-0.125,0.2074074074074074],[-0.125,0.2074074074074074],[-0.125,0.19444444444444445],[-0.12395833333333334,0.17962962962962964],[-0.12291666666666666,0.1648148148148148],[-0.12083333333333333,0.1537037037037037],[-0.11979166666666667,0.14629629629629629],[-0.11770833333333333,0.14074074074074075],[-0.11770833333333333,0.13518518518518519],[-0.11770833333333333,0.13518518518518519],[-0.11666666666666667,0.13333333333333333],[-0.11666666666666667,0.13333333333333333],[-0.11666666666666667,0.13333333333333333],[-0.11666666666666667,0.13333333333333333],[-0.11666666666666667,0.13333333333333333],[-0.11666666666666667,0.13333333333333333],[-0.11666666666666667,0.13333333333333333],[-0.115625,0.13333333333333333],[-0.1125,0.13333333333333333],[-0.10833333333333334,0.13333333333333333],[-0.09479166666666666,0.13333333333333333],[-0.07916666666666666,0.13333333333333333],[-0.059375,0.13148148148148148],[-0.0375,0.12777777777777777],[-0.009375,0.12037037037037036],[0.017708333333333333,0.11296296296296296],[0.04375,0.10925925925925926],[0.06458333333333334,0.10740740740740741],[0.08020833333333334,0.1037037037037037],[0.09375,0.1],[0.096875,0.09814814814814815],[0.10104166666666667,0.09814814814814815],[0.10520833333333333,0.09444444444444444],[0.10729166666666666,0.09259259259259259],[0.109375,0.09074074074074075],[0.11041666666666666,0.08888888888888889],[0.11145833333333334,0.08703703703703704],[0.1125,0.08518518518518518],[0.1125,0.08518518518518518],[0.1125,0.08518518518518518],[0.1125,0.08518518518518518],[0.1125,0.08518518518518518],[0.1125,0.08518518518518518],[0.1125,0.08518518518518518],[0.1125,0.08518518518518518],[0.1125,0.08518518518518518],[0.1125,0.08518518518518518],[0.11354166666666667,0.08333333333333333],[0.11354166666666667,0.07962962962962963],[0.11354166666666667,0.07407407407407407],[0.1125,0.06481481481481481],[0.10729166666666666,0.03518518518518519],[0.10520833333333333,0.014814814814814815],[0.10416666666666667,-0.005555555555555556],[0.10416666666666667,-0.025925925925925925],[0.10416666666666667,-0.037037037037037035],[0.10416666666666667,-0.05185185185185185],[0.10729166666666666,-0.06481481481481481],[0.10833333333333334,-0.07407407407407407],[0.11145833333333334,-0.08518518518518518],[0.11145833333333334,-0.09259259259259259],[0.1125,-0.09814814814814815],[0.11354166666666667,-0.1037037037037037],[0.115625,-0.11481481481481481],[0.11666666666666667,-0.12037037037037036],[0.11770833333333333,-0.12777777777777777],[0.11875,-0.13148148148148148],[0.11875,-0.13518518518518519],[0.11875,-0.13518518518518519],[0.11875,-0.13518518518518519],[0.11875,-0.13518518518518519],[0.11875,-0.13518518518518519],[0.11875,-0.13518518518518519],[0.11875,-0.13518518518518519],[0.11875,-0.13518518518518519],[0.11875,-0.13703703703703704],[0.11458333333333333,-0.15],[0.10833333333333334,-0.15555555555555556],[0.08958333333333333,-0.1685185185185185],[0.05416666666666667,-0.1925925925925926],[0.028125,-0.2037037037037037],[0.007291666666666667,-0.21481481481481482],[-0.014583333333333334,-0.22407407407407406],[-0.025,-0.23333333333333334],[-0.0375,-0.24074074074074073],[-0.04375,-0.24444444444444444],[-0.053125,-0.2518518518518518],[-0.06145833333333333,-0.25555555555555554],[-0.06770833333333333,-0.2574074074074074],[-0.07708333333333334,-0.2574074074074074],[-0.07916666666666666,-0.25925925925925924],[-0.07916666666666666,-0.25925925925925924],[-0.07916666666666666,-0.25925925925925924],[-0.07916666666666666,-0.25925925925925924],[-0.07604166666666666,-0.2518518518518518],[-0.06666666666666667,-0.22962962962962963],[-0.05520833333333333,-0.2],[-0.03125,-0.14074074074074075],[0.0020833333333333333,-0.05555555555555555],[0.04479166666666667,0.05555555555555555],[0.08229166666666667,0.14814814814814814],[0.115625,0.21666666666666667],[0.1375,0.2722222222222222],[0.14583333333333334,0.30185185185185187],[0.15625,0.3296296296296296],[0.16875,0.3611111111111111],[0.18229166666666666,0.38333333333333336],[0.19375,0.39814814814814814],[0.19895833333333332,0.4074074074074074],[0.20208333333333334,0.4185185185185185],[0.20208333333333334,0.4203703703703704],[0.20208333333333334,0.4203703703703704],[0.20208333333333334,0.4203703703703704],[0.20208333333333334,0.4203703703703704],[0.20208333333333334,0.4203703703703704],[0.20208333333333334,0.4203703703703704],[0.20208333333333334,0.4222222222222222],[0.20208333333333334,0.4222222222222222],[0.20208333333333334,0.4222222222222222],[0.20104166666666667,0.4222222222222222],[0.19895833333333332,0.4203703703703704],[0.19791666666666666,0.4185185185185185],[0.19791666666666666,0.4185185185185185],[0.19791666666666666,0.4185185185185185],[0.19791666666666666,0.4185185185185185],[0.19791666666666666,0.4185185185185185],[0.19791666666666666,0.4185185185185185],[0.19791666666666666,0.4185185185185185],[0.19791666666666666,0.4185185185185185],[0.19791666666666666,0.4185185185185185],[0.19791666666666666,0.4185185185185185],[0.19791666666666666,0.4185185185185185],[0.19791666666666666,0.4185185185185185],[0.19791666666666666,0.4185185185185185],[0.19791666666666666,0.4185185185185185],[0.19791666666666666,0.4185185185185185],[0.19791666666666666,0.4185185185185185],[0.19791666666666666,0.4185185185185185],[0.19791666666666666,0.4185185185185185],[0.19791666666666666,0.4185185185185185],[0.19791666666666666,0.4185185185185185],[0.19791666666666666,0.4185185185185185],[0.19791666666666666,0.4185185185185185],[0.19791666666666666,0.4185185185185185],[0.19791666666666666,0.4185185185185185],[0.19791666666666666,0.4185185185185185],[0.19791666666666666,0.4185185185185185],[0.19791666666666666,0.4185185185185185],[0.19791666666666666,0.4185185185185185],[0.19791666666666666,0.4185185185185185],[0.19791666666666666,0.4185185185185185],[0.19791666666666666,0.4185185185185185],[0.19791666666666666,0.4185185185185185],[0.19791666666666666,0.4185185185185185],[0.19791666666666666,0.4185185185185185],[0.19791666666666666,0.4185185185185185],[0.19791666666666666,0.4185185185185185],[0.19791666666666666,0.4185185185185185],[0.19583333333333333,0.4185185185185185],[0.19479166666666667,0.4185185185185185],[0.19479166666666667,0.4203703703703704],[0.19479166666666667,0.4203703703703704],[0.19479166666666667,0.4203703703703704],[0.19479166666666667,0.4203703703703704],[0.19479166666666667,0.4203703703703704],[0.19479166666666667,0.4203703703703704],[0.19479166666666667,0.4203703703703704],[0.19479166666666667,0.4203703703703704],[0.19479166666666667,0.4203703703703704],[0.19479166666666667,0.4203703703703704],[0.19479166666666667,0.4203703703703704],[0.19479166666666667,0.4203703703703704],[0.19479166666666667,0.4203703703703704],[0.19479166666666667,0.4203703703703704],[0.19479166666666667,0.4203703703703704],[0.19479166666666667,0.4203703703703704],[0.19479166666666667,0.4203703703703704],[0.19479166666666667,0.4203703703703704],[0.19479166666666667,0.4203703703703704],[0.19479166666666667,0.4203703703703704],[0.19479166666666667,0.4203703703703704],[0.19479166666666667,0.4203703703703704],[0.19479166666666667,0.4203703703703704],[0.19479166666666667,0.4203703703703704],[0.19479166666666667,0.4222222222222222],[0.19479166666666667,0.42407407407407405],[0.19479166666666667,0.42407407407407405],[0.19479166666666667,0.42407407407407405],[0.19479166666666667,0.42407407407407405],[0.19479166666666667,0.42407407407407405],[0.19479166666666667,0.42407407407407405],[0.19479166666666667,0.42407407407407405],[0.19479166666666667,0.42407407407407405],[0.19479166666666667,0.42407407407407405],[0.19479166666666667,0.42407407407407405],[0.19479166666666667,0.42407407407407405],[0.19479166666666667,0.42407407407407405],[0.19479166666666667,0.42407407407407405],[0.19479166666666667,0.42407407407407405],[0.19479166666666667,0.42407407407407405],[0.19479166666666667,0.42407407407407405],[0.19479166666666667,0.42407407407407405],[0.19479166666666667,0.42407407407407405],[0.19479166666666667,0.42407407407407405],[0.19479166666666667,0.42407407407407405],[0.19479166666666667,0.42407407407407405],[0.19479166666666667,0.42407407407407405],[0.19479166666666667,0.42407407407407405],[0.19479166666666667,0.42407407407407405],[0.19479166666666667,0.42407407407407405],[0.19479166666666667,0.42407407407407405],[0.19479166666666667,0.42407407407407405],[0.19479166666666667,0.42407407407407405],[0.19479166666666667,0.42407407407407405],[0.19479166666666667,0.42407407407407405],[0.19479166666666667,0.42407407407407405],[0.19479166666666667,0.42407407407407405],[0.19479166666666667,0.42407407407407405],[0.19479166666666667,0.42407407407407405],[0.19479166666666667,0.42407407407407405],[0.19479166666666667,0.42407407407407405],[0.19479166666666667,0.42407407407407405],[0.19479166666666667,0.42407407407407405],[0.19479166666666667,0.42407407407407405],[0.19479166666666667,0.42407407407407405],[0.19479166666666667,0.42407407407407405],[0.19479166666666667,0.42407407407407405],[0.19479166666666667,0.42407407407407405],[0.19479166666666667,0.42407407407407405],[0.19479166666666667,0.42407407407407405],[0.19479166666666667,0.42407407407407405],[0.19479166666666667,0.42407407407407405],[0.19479166666666667,0.42407407407407405],[0.19479166666666667,0.42407407407407405],[0.19479166666666667,0.42407407407407405],[0.19479166666666667,0.42407407407407405],[0.19479166666666667,0.42407407407407405],[0.19479166666666667,0.42407407407407405],[0.19479166666666667,0.42407407407407405],[0.19479166666666667,0.42407407407407405],[0.19479166666666667,0.42407407407407405],[0.19479166666666667,0.42407407407407405],[0.19479166666666667,0.42407407407407405],[0.19479166666666667,0.42407407407407405],[0.19479166666666667,0.42407407407407405],[0.19479166666666667,0.42407407407407405],[0.19479166666666667,0.42407407407407405],[0.19479166666666667,0.42407407407407405],[0.19479166666666667,0.42407407407407405],[0.19479166666666667,0.42407407407407405],[0.19479166666666667,0.42407407407407405],[0.19479166666666667,0.42407407407407405],[0.19479166666666667,0.42407407407407405],[0.19479166666666667,0.42407407407407405],[0.19479166666666667,0.42407407407407405]]","[[0.024270833333333287,0.3550000000000001],[0.024270833333333287,0.3550000000000001],[0.017083333333333308,0.36444444444444435],[0.016354166666666715,0.36129629629629634],[0.02177083333333331,0.2975925925925927],[0.025625000000000023,0.26851851851851855],[0.026979166666666644,0.2544444444444444],[0.02677083333333338,0.25870370370370377],[0.026145833333333358,0.2661111111111112],[0.024791666666666618,0.2646296296296296],[0.026041666666666668,0.29000000000000004],[0.024166666666666715,0.27611111111111114],[0.03270833333333331,0.2957407407407408],[0.049374999999999974,0.27759259259259256],[0.059895833333333336,0.3199999999999999],[0.07208333333333337,0.3396296296296296],[0.08135416666666657,0.31592592592592594],[0.08979166666666671,0.2851851851851852],[0.09864583333333338,0.2512962962962964],[0.0853125000000001,0.22629629629629638],[0.0853125000000001,0.22629629629629638],[0.08624999999999995,0.17074074074074083],[0.07552083333333333,0.11425925925925934],[0.06541666666666662,0.07462962962962955],[0.03927083333333338,0.06796296296296304],[0.013125000000000024,0.06129629629629634],[-0.009375,0.05981481481481473],[-0.03291666666666669,0.07537037037037045],[-0.03291666666666669,0.07537037037037045],[-0.03916666666666669,0.08870370370370366],[-0.06958333333333329,0.11870370370370374],[-0.05510416666666664,0.14222222222222214],[-0.057500000000000044,0.16944444444444445],[-0.03999999999999997,0.1359259259259259],[-0.04593750000000003,0.21574074074074073],[-0.057500000000000044,0.3066666666666667],[-0.06906249999999996,0.39759259259259266],[-0.07072916666666665,0.4522222222222223],[-0.06520833333333335,0.4711111111111111],[-0.058854166666666666,0.5068518518518519],[-0.02833333333333338,0.5259259259259259],[-0.07010416666666662,0.5170370370370371],[-0.08135416666666669,0.5203703703703704],[-0.12281249999999998,0.5831481481481481],[-0.11270833333333338,0.5437037037037038],[-0.1297916666666667,0.49074074074074076],[-0.11468750000000003,0.3998148148148148],[-0.13145833333333337,0.3714814814814815],[-0.1616666666666667,0.33611111111111114],[-0.21031249999999999,0.330925925925926],[-0.2358333333333333,0.27981481481481485],[-0.20385416666666673,0.24944444444444452],[-0.21916666666666665,0.2535185185185185],[-0.2048958333333334,0.26425925925925936],[-0.21989583333333335,0.25703703703703695],[-0.21989583333333335,0.25703703703703695],[-0.17770833333333336,0.2524074074074073],[-0.165625,0.29259259259259257],[-0.1515625,0.24166666666666667],[-0.12385416666666664,0.22351851851851862],[-0.09500000000000004,0.1675925925925926],[-0.09125000000000003,0.20870370370370378],[-0.0889583333333333,0.21222222222222226],[-0.025,0.1609259259259259],[0.002916666666666619,0.13666666666666658],[-0.06927083333333334,0.0588888888888888],[-0.06927083333333334,0.0588888888888888],[-0.17124999999999999,-0.003888888888888931],[-0.21875,-0.07592592592592592],[-0.14937499999999998,-0.1190740740740741],[-0.08635416666666665,-0.16925925925925922],[-0.050937499999999976,-0.1712962962962963],[-0.013541666666666667,-0.22444444444444442],[-0.024374999999999977,-0.2388888888888889],[-0.05614583333333331,-0.2257407407407407],[-0.051874999999999956,-0.23962962962962958],[0.04781249999999997,-0.18555555555555553],[0.13354166666666673,-0.13870370370370366],[0.15520833333333334,-0.052962962962963],[0.09968750000000005,0.046296296296296294],[0.05552083333333328,0.12851851851851848],[0.027604166666666666,0.17962962962962964],[-0.02333333333333331,0.2111111111111111],[-0.034791666666666644,0.21870370370370373],[-0.05020833333333338,0.20888888888888882],[-0.06062500000000005,0.1983333333333334],[-0.06583333333333338,0.1633333333333334],[-0.04916666666666671,0.13055555555555556],[-0.04010416666666667,0.04814814814814815],[-0.05135416666666662,-0.018888888888888972],[-0.07999999999999995,-0.029259259259259176],[-0.08718750000000004,-0.07962962962962963],[-0.04874999999999995,-0.0824074074074074],[-0.014479166666666644,-0.10759259259259263],[-0.0002083333333333807,-0.13481481481481483],[-0.01395833333333331,-0.1403703703703704],[-0.027708333333333356,-0.14592592592592596],[-0.043958333333333384,-0.16166666666666668],[-0.014791666666666713,-0.19240740740740736],[0.003125,-0.1712962962962963],[0.0032291666666666905,-0.1581481481481481],[0.0034374999999999527,-0.14018518518518516],[0.0034374999999999527,-0.14018518518518516],[-0.005312500000000024,-0.18333333333333332],[-0.030729166666666665,-0.1940740740740741],[-0.05614583333333331,-0.20481481481481487],[-0.058749999999999976,-0.17888888888888893],[-0.06895833333333339,-0.1507407407407407],[-0.07916666666666666,-0.12259259259259257],[-0.11166666666666672,-0.028888888888888933],[-0.1345833333333334,0.031111111111111027],[-0.13791666666666663,0.024629629629629547],[-0.15406249999999996,0.06388888888888888],[-0.1814583333333334,0.09722222222222222],[-0.1857291666666666,0.14814814814814814],[-0.1779166666666666,0.17555555555555546],[-0.16989583333333336,0.14537037037037037],[-0.15354166666666663,0.16740740740740737],[-0.11937500000000002,0.147037037037037],[-0.08447916666666669,0.07796296296296301],[-0.049583333333333354,0.008888888888888804],[-0.019166666666666644,-0.012407407407407492],[0.008749999999999977,-0.05333333333333336],[0.03427083333333331,-0.055185185185185205],[0.07218749999999995,-0.03685185185185181],[0.10260416666666666,-0.011111111111111112],[0.1330208333333334,0.014629629629629588],[0.1330208333333334,0.014629629629629588],[0.15458333333333343,0.0003703703703704546],[0.15833333333333333,0.028518518518518478],[0.13531250000000009,0.06444444444444436],[0.13562500000000005,0.07888888888888893],[0.14677083333333343,0.08907407407407411],[0.16885416666666658,0.07925925925925917],[0.16885416666666658,0.07925925925925917],[0.1814583333333334,0.10166666666666663],[0.18645833333333334,0.04740740740740745],[0.1898958333333333,0.009814814814814731],[0.17864583333333334,0.01777777777777782],[0.1877083333333334,-0.02092592592592584],[0.19677083333333342,-0.05962962962962961],[0.20614583333333342,-0.08759259259259261],[0.2046875,-0.09722222222222222],[0.1818749999999999,-0.10092592592592593],[0.15322916666666658,-0.09259259259259259],[0.13406250000000006,-0.11648148148148144],[0.11729166666666657,-0.07388888888888885],[0.0974999999999999,-0.03185185185185194],[0.09083333333333338,-0.041666666666666664],[0.07916666666666666,-0.016666666666666666],[0.07916666666666666,-0.016666666666666666],[0.07229166666666677,0.04092592592592597],[0.05343749999999995,0.05759259259259263],[0.05343749999999995,0.05759259259259263],[0.04104166666666664,0.047037037037036995],[0.036354166666666646,0.075],[0.036354166666666646,0.075],[0.03229166666666667,0.09962962962962954],[0.00927083333333331,0.12148148148148152],[-0.005937500000000048,0.1287037037037037],[-0.021145833333333287,0.1359259259259259],[-0.06510416666666667,0.15092592592592594],[-0.12208333333333338,0.1983333333333334],[-0.17572916666666671,0.1883333333333334],[-0.19968750000000005,0.21203703703703702],[-0.19968750000000005,0.21203703703703702],[-0.21802083333333327,0.21500000000000005],[-0.21520833333333336,0.1557407407407408],[-0.20541666666666672,0.08555555555555563],[-0.20541666666666672,0.08555555555555563],[-0.1736458333333334,0.07333333333333338],[-0.15791666666666668,0.0742592592592593],[-0.13374999999999998,0.09740740740740746],[-0.0765625,0.08481481481481473],[-0.013541666666666667,0.03722222222222227],[-0.013541666666666667,0.03722222222222227],[0.03177083333333333,0.023148148148148147],[0.09156250000000009,-0.03981481481481482],[0.1267708333333334,-0.051666666666666625],[0.14333333333333323,-0.024814814814814772],[0.15812499999999996,-0.02092592592592584],[0.17020833333333343,-0.06666666666666667],[0.1772916666666667,-0.10833333333333334],[0.1694791666666667,-0.15185185185185185],[0.17260416666666673,-0.1609259259259259],[0.1834374999999999,-0.19314814814814818],[0.20385416666666673,-0.23407407407407405],[0.20385416666666673,-0.23407407407407405],[0.20812499999999995,-0.24611111111111106],[0.21437499999999995,-0.2331481481481481],[0.2296875,-0.24981481481481477],[0.2296875,-0.24981481481481477],[0.23385416666666667,-0.23037037037037034],[0.22583333333333327,-0.2116666666666667],[0.17020833333333343,-0.2094444444444445],[0.0900000000000001,-0.16259259259259262],[0.019895833333333356,-0.16796296296296295],[-0.07291666666666667,-0.1366666666666667],[-0.16458333333333333,-0.11259259259259262],[-0.2514583333333333,-0.05555555555555555],[-0.2514583333333333,-0.05555555555555555],[-0.34041666666666665,-0.025],[-0.43468749999999995,-0.01574074074074074],[-0.5117708333333334,0.04055555555555551],[-0.5880208333333333,0.09944444444444453],[-0.5530208333333333,0.12981481481481486],[-0.47427083333333336,0.07314814814814814],[-0.48833333333333334,0.05018518518518523],[-0.48708333333333337,0.003888888888888931],[-0.5058333333333334,-0.025370370370370456],[-0.5058333333333334,-0.025370370370370456],[-0.5277083333333333,-0.04407407407407399],[-0.49322916666666666,-0.062407407407407384],[-0.40083333333333326,-0.07296296296296292],[-0.35916666666666663,-0.10685185185185184],[-0.2730208333333334,-0.08499999999999996],[-0.24427083333333333,-0.030555555555555555],[-0.22822916666666668,0.04592592592592584],[-0.17385416666666664,0.13537037037037042],[-0.11687500000000005,0.22962962962962963],[-0.030520833333333285,0.2892592592592593],[0.05489583333333338,0.3396296296296296],[0.0821875000000001,0.3933333333333333],[0.0821875000000001,0.3933333333333333],[0.08114583333333343,0.45388888888888895],[0.12364583333333339,0.49148148148148146],[0.13270833333333343,0.46592592592592597],[0.11510416666666666,0.45111111111111113],[0.0974999999999999,0.43629629629629635],[0.0974999999999999,0.43629629629629635],[0.1321875000000001,0.32981481481481484],[0.1321875000000001,0.32981481481481484],[0.16291666666666677,0.25277777777777777],[0.18427083333333344,0.17925925925925917],[0.20656249999999995,0.09148148148148144],[0.20656249999999995,0.09148148148148144],[0.23552083333333323,0.01055555555555564],[0.21749999999999994,-0.01055555555555564],[0.20322916666666657,-0.07370370370370373],[0.16010416666666671,-0.05814814814814811],[0.14343750000000005,-0.052962962962963],[0.1267708333333334,-0.0477777777777777],[0.10291666666666661,0.04685185185185177],[0.08010416666666677,0.11703703703703712],[0.05531250000000002,0.19685185185185178],[0.030520833333333285,0.2766666666666666],[0.03125,0.3303703703703703],[0.05614583333333331,0.34074074074074073],[0.06375000000000004,0.4212962962962963],[0.10020833333333339,0.42314814814814816],[0.12354166666666658,0.3453703703703704],[0.1502083333333334,0.3031481481481482],[0.1625,0.26851851851851855],[0.18156249999999996,0.20407407407407416],[0.20145833333333343,0.15129629629629637],[0.21552083333333344,0.07777777777777778],[0.19927083333333329,0.021296296296296296],[0.19385416666666658,-0.03777777777777774],[0.19729166666666675,-0.12462962962962965],[0.21572916666666658,-0.18722222222222226],[0.24375,-0.18425925925925926],[0.2513541666666666,-0.2264814814814815],[0.25927083333333345,-0.2777777777777778],[0.2552083333333333,-0.325],[0.25499999999999995,-0.39537037037037037],[0.26062500000000005,-0.445],[0.24770833333333328,-0.42314814814814816],[0.24614583333333329,-0.4346296296296296],[0.2573958333333332,-0.4601851851851852],[0.25364583333333335,-0.51],[0.25364583333333335,-0.51],[0.2384375000000001,-0.5724074074074075],[0.2334374999999999,-0.5675925925925925],[0.228125,-0.5537037037037037],[0.22364583333333338,-0.5001851851851852],[0.21520833333333325,-0.4153703703703704],[0.21572916666666658,-0.33777777777777773],[0.23937499999999995,-0.3725925925925926],[0.21947916666666673,-0.3477777777777778],[0.20166666666666658,-0.29018518518518516],[0.18197916666666672,-0.25833333333333336],[0.18302083333333338,-0.2212962962962963],[0.18427083333333344,-0.2477777777777778],[0.2033333333333334,-0.27555555555555555],[0.21677083333333325,-0.3066666666666667],[0.2334374999999999,-0.36925925925925923],[0.24812500000000004,-0.4438888888888889],[0.24322916666666666,-0.3990740740740741],[0.25416666666666665,-0.4788888888888889],[0.24697916666666658,-0.5253703703703704],[0.24718749999999995,-0.5401851851851852],[0.24166666666666667,-0.534074074074074],[0.24166666666666667,-0.534074074074074],[0.2587500000000001,-0.4661111111111111],[0.2462500000000001,-0.4274074074074074],[0.24375,-0.3992592592592593],[0.22666666666666657,-0.3296296296296296],[0.19427083333333334,-0.25685185185185183],[0.1943749999999999,-0.23962962962962958],[0.1943749999999999,-0.23962962962962958],[0.2022916666666667,-0.12981481481481486],[0.21531250000000005,-0.0868518518518518],[0.2228125000000001,-0.04981481481481477],[0.21885416666666657,-0.08907407407407411],[0.19895833333333332,-0.18425925925925926],[0.18854166666666666,-0.1705555555555556],[0.19166666666666668,-0.19037037037037038],[0.1929166666666667,-0.19685185185185186],[0.20385416666666673,-0.19037037037037038],[0.18104166666666663,-0.2324074074074074],[0.17354166666666657,-0.3368518518518518],[0.17354166666666657,-0.3368518518518518],[0.14562499999999995,-0.3314814814814815],[0.14562499999999995,-0.3314814814814815],[0.11031250000000009,-0.3031481481481481],[0.05145833333333331,-0.23148148148148148],[-0.04031250000000005,-0.22444444444444442],[-0.14114583333333333,-0.2875925925925926],[-0.18239583333333337,-0.267037037037037],[-0.15052083333333333,-0.27],[-0.12000000000000005,-0.2698148148148148],[-0.12000000000000005,-0.2698148148148148],[-0.08468749999999996,-0.2155555555555555],[-0.08531249999999997,-0.09240740740740737],[-0.06739583333333338,-0.06425925925925924]]","[[0.024270833333333287,0.3550000000000001,0.0004000000059605213],[0.024270833333333287,0.3550000000000001,0.055200000002976424],[0.017083333333333308,0.36444444444444435,0.07130000001191661],[0.016354166666666715,0.36129629629629634,0.08799999999999386],[0.02177083333333331,0.2975925925925927,0.1047000000029783],[0.025625000000000023,0.26851851851851855,0.12130000001192087],[0.026979166666666644,0.2544444444444444,0.13799999999999812],[0.02677083333333338,0.25870370370370377,0.15510000000893598],[0.026145833333333358,0.2661111111111112,0.17130000001191803],[0.024791666666666618,0.2646296296296296,0.18799999999999528],[0.026041666666666668,0.29000000000000004,0.20530000001191695],[0.024166666666666715,0.27611111111111114,0.22280000001191524],[0.03270833333333331,0.2957407407407408,0.23799999999999955],[0.049374999999999974,0.27759259259259256,0.2572000000029746],[0.059895833333333336,0.3199999999999999,0.27270000000297756],[0.07208333333333337,0.3396296296296296,0.2903000000119178],[0.08135416666666657,0.31592592592592594,0.3087000000029789],[0.08979166666666671,0.2851851851851852,0.3244000000059586],[0.09864583333333338,0.2512962962962964,0.33870000000298006],[0.0853125000000001,0.22629629629629638,0.35460000000893643],[0.0853125000000001,0.22629629629629638,0.37130000001192087],[0.08624999999999995,0.17074074074074083,0.3879999999999981],[0.07552083333333333,0.11425925925925934,0.4046000000089407],[0.06541666666666662,0.07462962962962955,0.4214000000059599],[0.03927083333333338,0.06796296296296304,0.4379999999999953],[0.013125000000000024,0.06129629629629634,0.4562000000029798],[-0.009375,0.05981481481481473,0.4743000000119153],[-0.03291666666666669,0.07537037037037045,0.48840000000596007],[-0.03291666666666669,0.07537037037037045,0.5107000000029771],[-0.03916666666666669,0.08870370370370366,0.5252000000029753],[-0.06958333333333329,0.11870370370370374,0.5409999999999968],[-0.05510416666666664,0.14222222222222214,0.557900000005958],[-0.057500000000000044,0.16944444444444445,0.5722000000029794],[-0.03999999999999997,0.1359259259259259,0.5906000000089406],[-0.04593750000000003,0.21574074074074073,0.604900000005955],[-0.057500000000000044,0.3066666666666667,0.6216000000089394],[-0.06906249999999996,0.39759259259259266,0.6382000000029748],[-0.07072916666666665,0.4522222222222223,0.656600000008936],[-0.06520833333333335,0.4711111111111111,0.6719000000059552],[-0.058854166666666666,0.5068518518518519,0.6886000000089396],[-0.02833333333333338,0.5259259259259259,0.7048000000119146],[-0.07010416666666662,0.5170370370370371,0.7233000000119176],[-0.08135416666666669,0.5203703703703704,0.7383000000119182],[-0.12281249999999998,0.5831481481481481,0.7549999999999955],[-0.11270833333333338,0.5437037037037038,0.771600000008938],[-0.1297916666666667,0.49074074074074076,0.7914000000059573],[-0.11468750000000003,0.3998148148148148,0.804800000011916],[-0.13145833333333337,0.3714814814814815,0.8214999999999932],[-0.1616666666666667,0.33611111111111114,0.8382000000029777],[-0.21031249999999999,0.330925925925926,0.8569000000059575],[-0.2358333333333333,0.27981481481481485,0.8716000000089394],[-0.20385416666666673,0.24944444444444452,0.8883000000119168],[-0.21916666666666665,0.2535185185185185,0.9049000000059593],[-0.2048958333333334,0.26425925925925936,0.9256000000089344],[-0.21989583333333335,0.25703703703703695,0.9424000000059607],[-0.21989583333333335,0.25703703703703695,0.9548000000119146],[-0.17770833333333336,0.2524074074074073,0.9714999999999989],[-0.165625,0.29259259259259257,0.992200000002974],[-0.1515625,0.24166666666666667,1.006200000002977],[-0.12385416666666664,0.22351851851851862,1.0213000000119195],[-0.09500000000000004,0.1675925925925926,1.0379999999999967],[-0.09125000000000003,0.20870370370370378,1.054700000002974],[-0.0889583333333333,0.21222222222222226,1.0714000000059585],[-0.025,0.1609259259259259,1.0879999999999939],[0.002916666666666619,0.13666666666666658,1.1083000000119156],[-0.06927083333333334,0.0588888888888888,1.1247000000029743],[-0.06927083333333334,0.0588888888888888,1.1382000000029748],[-0.17124999999999999,-0.003888888888888931,1.1548000000119174],[-0.21875,-0.07592592592592592,1.171300000011918],[-0.14937499999999998,-0.1190740740740741,1.1879999999999953],[-0.08635416666666665,-0.16925925925925922,1.208300000011917],[-0.050937499999999976,-0.1712962962962963,1.221499999999999],[-0.013541666666666667,-0.22444444444444442,1.2402000000029787],[-0.024374999999999977,-0.2388888888888889,1.2549000000059607],[-0.05614583333333331,-0.2257407407407407,1.271600000008938],[-0.051874999999999956,-0.23962962962962958,1.2904999999999944],[0.04781249999999997,-0.18555555555555553,1.3051000000089346],[0.13354166666666673,-0.13870370370370366,1.3216000000089352],[0.15520833333333334,-0.052962962962963,1.3398000000119197],[0.09968750000000005,0.046296296296296294,1.3546000000089364],[0.05552083333333328,0.12851851851851848,1.3714999999999975],[0.027604166666666666,0.17962962962962964,1.3879999999999981],[-0.02333333333333331,0.2111111111111111,1.4047000000029755],[-0.034791666666666644,0.21870370370370373,1.4242000000029762],[-0.05020833333333338,0.20888888888888882,1.4379999999999953],[-0.06062500000000005,0.1983333333333334,1.4546000000089379],[-0.06583333333333338,0.1633333333333334,1.4713000000119152],[-0.04916666666666671,0.13055555555555556,1.4902000000029787],[-0.04010416666666667,0.04814814814814815,1.5049999999999955],[-0.05135416666666662,-0.018888888888888972,1.52170000000298],[-0.07999999999999995,-0.029259259259259176,1.5418000000119179],[-0.08718750000000004,-0.07962962962962963,1.5569000000059603],[-0.04874999999999995,-0.0824074074074074,1.5716000000089352],[-0.014479166666666644,-0.10759259259259263,1.5882000000029777],[-0.0002083333333333807,-0.13481481481481483,1.6077000000029784],[-0.01395833333333331,-0.1403703703703704,1.6217000000029742],[-0.027708333333333356,-0.14592592592592596,1.6382000000029748],[-0.043958333333333384,-0.16166666666666668,1.6548000000119174],[-0.014791666666666713,-0.19240740740740736,1.6742000000029762],[0.003125,-0.1712962962962963,1.6901000000089397],[0.0032291666666666905,-0.1581481481481481,1.7049000000059564],[0.0034374999999999527,-0.14018518518518516,1.7239999999999966],[0.0034374999999999527,-0.14018518518518516,1.739200000002974],[-0.005312500000000024,-0.18333333333333332,1.7548000000119188],[-0.030729166666666665,-0.1940740740740741,1.771499999999996],[-0.05614583333333331,-0.20481481481481487,1.7912000000029735],[-0.058749999999999976,-0.17888888888888893,1.8073000000119208],[-0.06895833333333339,-0.1507407407407407,1.8214999999999932],[-0.07916666666666666,-0.12259259259259257,1.8379999999999939],[-0.11166666666666672,-0.028888888888888933,1.8574999999999946],[-0.1345833333333334,0.031111111111111027,1.8716000000089394],[-0.13791666666666663,0.024629629629629547,1.8879999999999981],[-0.15406249999999996,0.06388888888888888,1.9061000000089408],[-0.1814583333333334,0.09722222222222222,1.92140000000596],[-0.1857291666666666,0.14814814814814814,1.9381000000089372],[-0.1779166666666666,0.17555555555555546,1.957600000008938],[-0.16989583333333336,0.14537037037037037,1.9717000000029756],[-0.15354166666666663,0.16740740740740737,1.9916000000089369],[-0.11937500000000002,0.147037037037037,2.0082000000029794],[-0.08447916666666669,0.07796296296296301,2.0228000000119195],[-0.049583333333333354,0.008888888888888804,2.041700000002976],[-0.019166666666666644,-0.012407407407407492,2.058499999999995],[0.008749999999999977,-0.05333333333333336,2.0751000000089377],[0.03427083333333331,-0.055185185185185205,2.0919999999999987],[0.07218749999999995,-0.03685185185185181,2.1101000000089343],[0.10260416666666666,-0.011111111111111112,2.125100000008935],[0.1330208333333334,0.014629629629629588,2.14520000000298],[0.1330208333333334,0.014629629629629588,2.1548000000119174],[0.15458333333333343,0.0003703703703704546,2.1714999999999947],[0.15833333333333333,0.028518518518518478,2.1881000000089372],[0.13531250000000009,0.06444444444444436,2.209100000008938],[0.13562500000000005,0.07888888888888893,2.224600000008941],[0.14677083333333343,0.08907407407407411,2.2411000000089345],[0.16885416666666658,0.07925925925925917,2.262999999999998],[0.16885416666666658,0.07925925925925917,2.271600000008938],[0.1814583333333334,0.10166666666666663,2.2883000000119154],[0.18645833333333334,0.04740740740740745,2.3049999999999997],[0.1898958333333333,0.009814814814814731,2.3244000000059586],[0.17864583333333334,0.01777777777777782,2.3393000000119173],[0.1877083333333334,-0.02092592592592584,2.3559999999999945],[0.19677083333333342,-0.05962962962962961,2.375],[0.20614583333333342,-0.08759259259259261,2.3884999999999934],[0.2046875,-0.09722222222222222,2.4046000000089407],[0.1818749999999999,-0.10092592592592593,2.4223000000119157],[0.15322916666666658,-0.09259259259259259,2.4386000000089396],[0.13406250000000006,-0.11648148148148144,2.4579000000059565],[0.11729166666666657,-0.07388888888888885,2.4748000000119177],[0.0974999999999999,-0.03185185185185194,2.4894999999999996],[0.09083333333333338,-0.041666666666666664,2.5079999999999956],[0.07916666666666666,-0.016666666666666666,2.5241000000089358],[0.07916666666666666,-0.016666666666666666,2.5382000000029805],[0.07229166666666677,0.04092592592592597,2.5581000000089347],[0.05343749999999995,0.05759259259259263,2.5753000000119144],[0.05343749999999995,0.05759259259259263,2.5882000000029777],[0.04104166666666664,0.047037037037036995,2.604999999999997],[0.036354166666666646,0.075,2.625700000002979],[0.036354166666666646,0.075,2.638200000002975],[0.03229166666666667,0.09962962962962954,2.6549000000059593],[0.00927083333333331,0.12148148148148152,2.6757000000029763],[-0.005937500000000048,0.1287037037037037,2.691400000005956],[-0.021145833333333287,0.1359259259259259,2.7063000000119146],[-0.06510416666666667,0.15092592592592594,2.721300000011915],[-0.12208333333333338,0.1983333333333334,2.7426000000089346],[-0.17572916666666671,0.1883333333333334,2.758400000005956],[-0.19968750000000005,0.21203703703703702,2.776100000008938],[-0.19968750000000005,0.21203703703703702,2.7881000000089387],[-0.21802083333333327,0.21500000000000005,2.804800000011916],[-0.21520833333333336,0.1557407407407408,2.8214999999999932],[-0.20541666666666672,0.08555555555555563,2.8444999999999965],[-0.20541666666666672,0.08555555555555563,2.8548000000119202],[-0.1736458333333334,0.07333333333333338,2.871700000002974],[-0.15791666666666668,0.0742592592592593,2.8884000000059586],[-0.13374999999999998,0.09740740740740746,2.910400000005957],[-0.0765625,0.08481481481481473,2.925100000008939],[-0.013541666666666667,0.03722222222222227,2.9441000000089375],[-0.013541666666666667,0.03722222222222227,2.9548000000119146],[0.03177083333333333,0.023148148148148147,2.9749000000059596],[0.09156250000000009,-0.03981481481481482,2.9912000000029764],[0.1267708333333334,-0.051666666666666625,3.0082000000029794],[0.14333333333333323,-0.024814814814814772,3.025499999999994],[0.15812499999999996,-0.02092592592592584,3.042600000008939],[0.17020833333333343,-0.06666666666666667,3.0581000000089347],[0.1772916666666667,-0.10833333333333334,3.0714999999999932],[0.1694791666666667,-0.15185185185185185,3.087999999999994],[0.17260416666666673,-0.1609259259259259,3.1061000000089365],[0.1834374999999999,-0.19314814814814818,3.1229000000059557],[0.20385416666666673,-0.23407407407407405,3.1499000000059567],[0.20385416666666673,-0.23407407407407405,3.157999999999994],[0.20812499999999995,-0.24611111111111106,3.171300000011918],[0.21437499999999995,-0.2331481481481481,3.1881000000089372],[0.2296875,-0.24981481481481477,3.2101000000089357],[0.2296875,-0.24981481481481477,3.221400000005957],[0.23385416666666667,-0.23037037037037034,3.2381000000089344],[0.22583333333333327,-0.2116666666666667,3.254600000008935],[0.17020833333333343,-0.2094444444444445,3.2721000000089404],[0.0900000000000001,-0.16259259259259262,3.2879999999999967],[0.019895833333333356,-0.16796296296296295,3.307800000011916],[-0.07291666666666667,-0.1366666666666667,3.3244000000059586],[-0.16458333333333333,-0.11259259259259262,3.338600000008938],[-0.2514583333333333,-0.05555555555555555,3.3546000000089364],[-0.2514583333333333,-0.05555555555555555,3.3714000000059556],[-0.34041666666666665,-0.025,3.38810000000894],[-0.43468749999999995,-0.01574074074074074,3.4049000000059593],[-0.5117708333333334,0.04055555555555551,3.422800000011918],[-0.5880208333333333,0.09944444444444453,3.441499999999998],[-0.5530208333333333,0.12981481481481486,3.456900000005959],[-0.47427083333333336,0.07314814814814814,3.474600000008941],[-0.48833333333333334,0.05018518518518523,3.4918000000119207],[-0.48708333333333337,0.003888888888888931,3.507700000002977],[-0.5058333333333334,-0.025370370370370456,3.52770000000298],[-0.5058333333333334,-0.025370370370370456,3.5379999999999967],[-0.5277083333333333,-0.04407407407407399,3.5546000000089393],[-0.49322916666666666,-0.062407407407407384,3.5713000000119166],[-0.40083333333333326,-0.07296296296296292,3.5884000000059544],[-0.35916666666666663,-0.10685185185185184,3.6046000000089364],[-0.2730208333333334,-0.08499999999999996,3.621300000011921],[-0.24427083333333333,-0.030555555555555555,3.6407000000029797],[-0.22822916666666668,0.04592592592592584,3.6572000000029803],[-0.17385416666666664,0.13537037037037042,3.67140000000596],[-0.11687500000000005,0.22962962962962963,3.692],[-0.030520833333333285,0.2892592592592593,3.7063000000119146],[0.05489583333333338,0.3396296296296296,3.721300000011915],[0.0821875000000001,0.3933333333333333,3.7434999999999974],[0.0821875000000001,0.3933333333333333,3.754700000002977],[0.08114583333333343,0.45388888888888895,3.771400000005954],[0.12364583333333339,0.49148148148148146,3.790900000005955],[0.13270833333333343,0.46592592592592597,3.8061000000089393],[0.11510416666666666,0.45111111111111113,3.8214000000059585],[0.0974999999999999,0.43629629629629635,3.844100000008936],[0.0974999999999999,0.43629629629629635,3.8548000000119202],[0.1321875000000001,0.32981481481481484,3.8769000000059606],[0.1321875000000001,0.32981481481481484,3.887999999999998],[0.16291666666666677,0.25277777777777777,3.9047000000029755],[0.18427083333333344,0.17925925925925917,3.921300000011918],[0.20656249999999995,0.09148148148148144,3.9379999999999953],[0.20656249999999995,0.09148148148148144,3.9547000000029797],[0.23552083333333323,0.01055555555555564,3.971300000011915],[0.21749999999999994,-0.01055555555555564,3.9879999999999995],[0.20322916666666657,-0.07370370370370373,4.004700000002977],[0.16010416666666671,-0.05814814814814811,4.0213000000119195],[0.14343750000000005,-0.052962962962963,4.037999999999997],[0.1267708333333334,-0.0477777777777777,4.054600000008939],[0.10291666666666661,0.04685185185185177,4.071200000002975],[0.08010416666666677,0.11703703703703712,4.087900000005959],[0.05531250000000002,0.19685185185185178,4.104700000002978],[0.030520833333333285,0.2766666666666666,4.121200000002979],[0.03125,0.3303703703703703,4.13810000000894],[0.05614583333333331,0.34074074074074073,4.154600000008941],[0.06375000000000004,0.4212962962962963,4.171300000011918],[0.10020833333333339,0.42314814814814816,4.187999999999995],[0.12354166666666658,0.3453703703703704,4.20470000000298],[0.1502083333333334,0.3031481481481482,4.22120000000298],[0.1625,0.26851851851851855,4.237900000005958],[0.18156249999999996,0.20407407407407416,4.254700000002977],[0.20145833333333343,0.15129629629629637,4.276400000005957],[0.21552083333333344,0.07777777777777778,4.290600000008936],[0.19927083333333329,0.021296296296296296,4.3065],[0.19385416666666658,-0.03777777777777774,4.321600000008935],[0.19729166666666675,-0.12462962962962965,4.337900000005959],[0.21572916666666658,-0.18722222222222226,4.354600000008936],[0.24375,-0.18425925925925926,4.371400000005956],[0.2513541666666666,-0.2264814814814815,4.387900000005956],[0.25927083333333345,-0.2777777777777778,4.404600000008941],[0.2552083333333333,-0.325,4.421300000011918],[0.25499999999999995,-0.39537037037037037,4.4379000000059605],[0.26062500000000005,-0.445,4.454600000008938],[0.24770833333333328,-0.42314814814814816,4.471300000011915],[0.24614583333333329,-0.4346296296296296,4.4879999999999995],[0.2573958333333332,-0.4601851851851852,4.504600000008935],[0.25364583333333335,-0.51,4.521400000005954],[0.25364583333333335,-0.51,4.5412000000029735],[0.2384375000000001,-0.5724074074074075,4.554600000008939],[0.2334374999999999,-0.5675925925925925,4.571200000002975],[0.228125,-0.5537037037037037,4.587900000005959],[0.22364583333333338,-0.5001851851851852,4.604600000008936],[0.21520833333333325,-0.4153703703703704,4.621200000002979],[0.21572916666666658,-0.33777777777777773,4.637900000005956],[0.23937499999999995,-0.3725925925925926,4.6563000000119175],[0.21947916666666673,-0.3477777777777778,4.671300000011918],[0.20166666666666658,-0.29018518518518516,4.687999999999995],[0.18197916666666672,-0.25833333333333336,4.70470000000298],[0.18302083333333338,-0.2212962962962963,4.721300000011915],[0.18427083333333344,-0.2477777777777778,4.7379999999999995],[0.2033333333333334,-0.27555555555555555,4.755300000011921],[0.21677083333333325,-0.3066666666666667,4.7713000000119195],[0.2334374999999999,-0.36925925925925923,4.787900000005955],[0.24812500000000004,-0.4438888888888889,4.804600000008939],[0.24322916666666666,-0.3990740740740741,4.821300000011917],[0.25416666666666665,-0.4788888888888889,4.837900000005959],[0.24697916666666658,-0.5253703703703704,4.854600000008936],[0.24718749999999995,-0.5401851851851852,4.871400000005956],[0.24166666666666667,-0.534074074074074,4.887999999999998],[0.24166666666666667,-0.534074074074074,4.904800000011917],[0.2587500000000001,-0.4661111111111111,4.921300000011918],[0.2462500000000001,-0.4274074074074074,4.9379000000059605],[0.24375,-0.3992592592592593,4.954600000008938],[0.22666666666666657,-0.3296296296296296,4.971300000011915],[0.19427083333333334,-0.25685185185185183,4.987900000005958],[0.1943749999999999,-0.23962962962962958,5.005499999999998],[0.1943749999999999,-0.23962962962962958,5.021400000005954],[0.2022916666666667,-0.12981481481481486,5.037999999999997],[0.21531250000000005,-0.0868518518518518,5.054700000002974],[0.2228125000000001,-0.04981481481481477,5.071300000011917],[0.21885416666666657,-0.08907407407407411,5.087900000005959],[0.19895833333333332,-0.18425925925925926,5.104700000002978],[0.18854166666666666,-0.1705555555555556,5.121300000011921],[0.19166666666666668,-0.19037037037037038,5.137999999999998],[0.1929166666666667,-0.19685185185185186,5.154600000008941],[0.20385416666666673,-0.19037037037037038,5.174100000008934],[0.18104166666666663,-0.2324074074074074,5.1879000000059605],[0.17354166666666657,-0.3368518518518518,5.20470000000298],[0.17354166666666657,-0.3368518518518518,5.221499999999999],[0.14562499999999995,-0.3314814814814815,5.238100000008934],[0.14562499999999995,-0.3314814814814815,5.254800000011919],[0.11031250000000009,-0.3031481481481481,5.271400000005954],[0.05145833333333331,-0.23148148148148148,5.287999999999997],[-0.04031250000000005,-0.22444444444444442,5.304700000002974],[-0.14114583333333333,-0.2875925925925926,5.324999999999996],[-0.18239583333333337,-0.267037037037037,5.340300000011915],[-0.15052083333333333,-0.27,5.354600000008936],[-0.12000000000000005,-0.2698148148148148,5.371300000011921],[-0.12000000000000005,-0.2698148148148148,5.387999999999998],[-0.08468749999999996,-0.2155555555555555,5.404700000002983],[-0.08531249999999997,-0.09240740740740737,5.421300000011918],[-0.06739583333333338,-0.06425925925925924,5.439700000002979]]","[0.0004000000059605213,0.055200000002976424,0.07130000001191661,0.08799999999999386,0.1047000000029783,0.12130000001192087,0.13799999999999812,0.15510000000893598,0.17130000001191803,0.18799999999999528,0.20530000001191695,0.22280000001191524,0.23799999999999955,0.2572000000029746,0.27270000000297756,0.2903000000119178,0.3087000000029789,0.3244000000059586,0.33870000000298006,0.35460000000893643,0.37130000001192087,0.3879999999999981,0.4046000000089407,0.4214000000059599,0.4379999999999953,0.4562000000029798,0.4743000000119153,0.48840000000596007,0.5107000000029771,0.5252000000029753,0.5409999999999968,0.557900000005958,0.5722000000029794,0.5906000000089406,0.604900000005955,0.6216000000089394,0.6382000000029748,0.656600000008936,0.6719000000059552,0.6886000000089396,0.7048000000119146,0.7233000000119176,0.7383000000119182,0.7549999999999955,0.771600000008938,0.7914000000059573,0.804800000011916,0.8214999999999932,0.8382000000029777,0.8569000000059575,0.8716000000089394,0.8883000000119168,0.9049000000059593,0.9256000000089344,0.9424000000059607,0.9548000000119146,0.9714999999999989,0.992200000002974,1.006200000002977,1.0213000000119195,1.0379999999999967,1.054700000002974,1.0714000000059585,1.0879999999999939,1.1083000000119156,1.1247000000029743,1.1382000000029748,1.1548000000119174,1.171300000011918,1.1879999999999953,1.208300000011917,1.221499999999999,1.2402000000029787,1.2549000000059607,1.271600000008938,1.2904999999999944,1.3051000000089346,1.3216000000089352,1.3398000000119197,1.3546000000089364,1.3714999999999975,1.3879999999999981,1.4047000000029755,1.4242000000029762,1.4379999999999953,1.4546000000089379,1.4713000000119152,1.4902000000029787,1.5049999999999955,1.52170000000298,1.5418000000119179,1.5569000000059603,1.5716000000089352,1.5882000000029777,1.6077000000029784,1.6217000000029742,1.6382000000029748,1.6548000000119174,1.6742000000029762,1.6901000000089397,1.7049000000059564,1.7239999999999966,1.739200000002974,1.7548000000119188,1.771499999999996,1.7912000000029735,1.8073000000119208,1.8214999999999932,1.8379999999999939,1.8574999999999946,1.8716000000089394,1.8879999999999981,1.9061000000089408,1.92140000000596,1.9381000000089372,1.957600000008938,1.9717000000029756,1.9916000000089369,2.0082000000029794,2.0228000000119195,2.041700000002976,2.058499999999995,2.0751000000089377,2.0919999999999987,2.1101000000089343,2.125100000008935,2.14520000000298,2.1548000000119174,2.1714999999999947,2.1881000000089372,2.209100000008938,2.224600000008941,2.2411000000089345,2.262999999999998,2.271600000008938,2.2883000000119154,2.3049999999999997,2.3244000000059586,2.3393000000119173,2.3559999999999945,2.375,2.3884999999999934,2.4046000000089407,2.4223000000119157,2.4386000000089396,2.4579000000059565,2.4748000000119177,2.4894999999999996,2.5079999999999956,2.5241000000089358,2.5382000000029805,2.5581000000089347,2.5753000000119144,2.5882000000029777,2.604999999999997,2.625700000002979,2.638200000002975,2.6549000000059593,2.6757000000029763,2.691400000005956,2.7063000000119146,2.721300000011915,2.7426000000089346,2.758400000005956,2.776100000008938,2.7881000000089387,2.804800000011916,2.8214999999999932,2.8444999999999965,2.8548000000119202,2.871700000002974,2.8884000000059586,2.910400000005957,2.925100000008939,2.9441000000089375,2.9548000000119146,2.9749000000059596,2.9912000000029764,3.0082000000029794,3.025499999999994,3.042600000008939,3.0581000000089347,3.0714999999999932,3.087999999999994,3.1061000000089365,3.1229000000059557,3.1499000000059567,3.157999999999994,3.171300000011918,3.1881000000089372,3.2101000000089357,3.221400000005957,3.2381000000089344,3.254600000008935,3.2721000000089404,3.2879999999999967,3.307800000011916,3.3244000000059586,3.338600000008938,3.3546000000089364,3.3714000000059556,3.38810000000894,3.4049000000059593,3.422800000011918,3.441499999999998,3.456900000005959,3.474600000008941,3.4918000000119207,3.507700000002977,3.52770000000298,3.5379999999999967,3.5546000000089393,3.5713000000119166,3.5884000000059544,3.6046000000089364,3.621300000011921,3.6407000000029797,3.6572000000029803,3.67140000000596,3.692,3.7063000000119146,3.721300000011915,3.7434999999999974,3.754700000002977,3.771400000005954,3.790900000005955,3.8061000000089393,3.8214000000059585,3.844100000008936,3.8548000000119202,3.8769000000059606,3.887999999999998,3.9047000000029755,3.921300000011918,3.9379999999999953,3.9547000000029797,3.971300000011915,3.9879999999999995,4.004700000002977,4.0213000000119195,4.037999999999997,4.054600000008939,4.071200000002975,4.087900000005959,4.104700000002978,4.121200000002979,4.13810000000894,4.154600000008941,4.171300000011918,4.187999999999995,4.20470000000298,4.22120000000298,4.237900000005958,4.254700000002977,4.276400000005957,4.290600000008936,4.3065,4.321600000008935,4.337900000005959,4.354600000008936,4.371400000005956,4.387900000005956,4.404600000008941,4.421300000011918,4.4379000000059605,4.454600000008938,4.471300000011915,4.4879999999999995,4.504600000008935,4.521400000005954,4.5412000000029735,4.554600000008939,4.571200000002975,4.587900000005959,4.604600000008936,4.621200000002979,4.637900000005956,4.6563000000119175,4.671300000011918,4.687999999999995,4.70470000000298,4.721300000011915,4.7379999999999995,4.755300000011921,4.7713000000119195,4.787900000005955,4.804600000008939,4.821300000011917,4.837900000005959,4.854600000008936,4.871400000005956,4.887999999999998,4.904800000011917,4.921300000011918,4.9379000000059605,4.954600000008938,4.971300000011915,4.987900000005958,5.005499999999998,5.021400000005954,5.037999999999997,5.054700000002974,5.071300000011917,5.087900000005959,5.104700000002978,5.121300000011921,5.137999999999998,5.154600000008941,5.174100000008934,5.1879000000059605,5.20470000000298,5.221499999999999,5.238100000008934,5.254800000011919,5.271400000005954,5.287999999999997,5.304700000002974,5.324999999999996,5.340300000011915,5.354600000008936,5.371300000011921,5.387999999999998,5.404700000002983,5.421300000011918,5.439700000002979]","[1732510601915,1732510601960,1732510601976,1732510601992,1732510602009,1732510602026,1732510602043,1732510602060,1732510602076,1732510602092,1732510602110,1732510602127,1732510602142,1732510602162,1732510602177,1732510602195,1732510602213,1732510602229,1732510602243,1732510602259,1732510602276,1732510602292,1732510602309,1732510602326,1732510602342,1732510602361,1732510602379,1732510602393,1732510602415,1732510602430,1732510602445,1732510602462,1732510602477,1732510602495,1732510602509,1732510602526,1732510602543,1732510602561,1732510602576,1732510602593,1732510602609,1732510602628,1732510602643,1732510602659,1732510602676,1732510602696,1732510602709,1732510602726,1732510602743,1732510602761,1732510602776,1732510602793,1732510602809,1732510602830,1732510602847,1732510602859,1732510602876,1732510602897,1732510602911,1732510602926,1732510602942,1732510602959,1732510602976,1732510602993,1732510603013,1732510603029,1732510603043,1732510603059,1732510603076,1732510603093,1732510603113,1732510603126,1732510603145,1732510603159,1732510603176,1732510603195,1732510603210,1732510603226,1732510603244,1732510603259,1732510603276,1732510603292,1732510603309,1732510603329,1732510603342,1732510603359,1732510603376,1732510603395,1732510603409,1732510603426,1732510603446,1732510603461,1732510603476,1732510603493,1732510603512,1732510603526,1732510603543,1732510603559,1732510603579,1732510603595,1732510603609,1732510603629,1732510603644,1732510603659,1732510603676,1732510603696,1732510603712,1732510603726,1732510603742,1732510603762,1732510603776,1732510603793,1732510603811,1732510603826,1732510603843,1732510603862,1732510603876,1732510603896,1732510603913,1732510603927,1732510603946,1732510603963,1732510603980,1732510603996,1732510604015,1732510604030,1732510604050,1732510604059,1732510604076,1732510604093,1732510604114,1732510604129,1732510604146,1732510604168,1732510604176,1732510604193,1732510604210,1732510604229,1732510604244,1732510604260,1732510604279,1732510604293,1732510604309,1732510604327,1732510604343,1732510604362,1732510604379,1732510604394,1732510604412,1732510604429,1732510604443,1732510604463,1732510604480,1732510604493,1732510604509,1732510604530,1732510604543,1732510604559,1732510604580,1732510604596,1732510604611,1732510604626,1732510604647,1732510604663,1732510604681,1732510604693,1732510604709,1732510604726,1732510604749,1732510604759,1732510604776,1732510604793,1732510604815,1732510604830,1732510604849,1732510604859,1732510604879,1732510604896,1732510604913,1732510604930,1732510604947,1732510604963,1732510604976,1732510604992,1732510605011,1732510605027,1732510605054,1732510605062,1732510605076,1732510605093,1732510605115,1732510605126,1732510605143,1732510605159,1732510605177,1732510605192,1732510605212,1732510605229,1732510605243,1732510605259,1732510605276,1732510605293,1732510605309,1732510605327,1732510605346,1732510605361,1732510605379,1732510605396,1732510605412,1732510605432,1732510605442,1732510605459,1732510605476,1732510605493,1732510605509,1732510605526,1732510605545,1732510605562,1732510605576,1732510605597,1732510605611,1732510605626,1732510605648,1732510605659,1732510605676,1732510605695,1732510605711,1732510605726,1732510605749,1732510605759,1732510605781,1732510605792,1732510605809,1732510605826,1732510605842,1732510605859,1732510605876,1732510605892,1732510605909,1732510605926,1732510605942,1732510605959,1732510605976,1732510605992,1732510606009,1732510606026,1732510606042,1732510606059,1732510606076,1732510606092,1732510606109,1732510606126,1732510606142,1732510606159,1732510606181,1732510606195,1732510606211,1732510606226,1732510606242,1732510606259,1732510606276,1732510606292,1732510606309,1732510606326,1732510606342,1732510606359,1732510606376,1732510606392,1732510606409,1732510606426,1732510606446,1732510606459,1732510606476,1732510606492,1732510606509,1732510606526,1732510606542,1732510606561,1732510606576,1732510606593,1732510606609,1732510606626,1732510606642,1732510606660,1732510606676,1732510606692,1732510606709,1732510606726,1732510606742,1732510606759,1732510606776,1732510606792,1732510606809,1732510606826,1732510606842,1732510606859,1732510606876,1732510606892,1732510606910,1732510606926,1732510606942,1732510606959,1732510606976,1732510606992,1732510607009,1732510607026,1732510607042,1732510607059,1732510607078,1732510607092,1732510607109,1732510607126,1732510607143,1732510607159,1732510607176,1732510607192,1732510607209,1732510607229,1732510607245,1732510607259,1732510607276,1732510607292,1732510607309,1732510607326,1732510607344]","[[983.3,731.7],[983.3,731.7],[976.4,736.8],[975.7,735.1],[980.9,700.7],[984.6,685],[985.9,677.4],[985.7,679.7],[985.1,683.7],[983.8,682.9],[985,696.6],[983.2,689.1],[991.4,699.7],[1007.4,689.9],[1017.5,712.8],[1029.2,723.4],[1038.1,710.6],[1046.2,694],[1054.7,675.7],[1041.9,662.2],[1041.9,662.2],[1042.8,632.2],[1032.5,601.7],[1022.8,580.3],[997.7,576.7],[972.6,573.1],[951,572.3],[928.4,580.7],[928.4,580.7],[922.4,587.9],[893.2,604.1],[907.1,616.8],[904.8,631.5],[921.6,613.4],[915.9,656.5],[904.8,705.6],[893.7,754.7],[892.1,784.2],[897.4,794.4],[903.5,813.7],[932.8,824],[892.7,819.2],[881.9,821],[842.1,854.9],[851.8,833.6],[835.4,805],[849.9,755.9],[833.8,740.6],[804.8,721.5],[758.1,718.7],[733.6,691.1],[764.3,674.7],[749.6,676.9],[763.3,682.7],[748.9,678.8],[748.9,678.8],[789.4,676.3],[801,698],[814.5,670.5],[841.1,660.7],[868.8,630.5],[872.4,652.7],[874.6,654.6],[936,626.9],[962.8,613.8],[893.5,571.8],[893.5,571.8],[795.6,537.9],[750,499],[816.6,475.7],[877.1,448.6],[911.1,447.5],[947,418.8],[936.6,411],[906.1,418.1],[910.2,410.6],[1005.9,439.8],[1088.2,465.1],[1109,511.4],[1055.7,565],[1013.3,609.4],[986.5,637],[937.6,654],[926.6,658.1],[911.8,652.8],[901.8,647.1],[896.8,628.2],[912.8,610.5],[921.5,566],[910.7,529.8],[883.2,524.2],[876.3,497],[913.2,495.5],[946.1,481.9],[959.8,467.2],[946.6,464.2],[933.4,461.2],[917.8,452.7],[945.8,436.1],[963,447.5],[963.1,454.6],[963.3,464.3],[963.3,464.3],[954.9,441],[930.5,435.2],[906.1,429.4],[903.6,443.4],[893.8,458.6],[884,473.8],[852.8,524.4],[830.8,556.8],[827.6,553.3],[812.1,574.5],[785.8,592.5],[781.7,620],[789.2,634.8],[796.9,618.5],[812.6,630.4],[845.4,619.4],[878.9,582.1],[912.4,544.8],[941.6,533.3],[968.4,511.2],[992.9,510.2],[1029.3,520.1],[1058.5,534],[1087.7,547.9],[1087.7,547.9],[1108.4,540.2],[1112,555.4],[1089.9,574.8],[1090.2,582.6],[1100.9,588.1],[1122.1,582.8],[1122.1,582.8],[1134.2,594.9],[1139,565.6],[1142.3,545.3],[1131.5,549.6],[1140.2,528.7],[1148.9,507.8],[1157.9,492.7],[1156.5,487.5],[1134.6,485.5],[1107.1,490],[1088.7,477.1],[1072.6,500.1],[1053.6,522.8],[1047.2,517.5],[1036,531],[1036,531],[1029.4,562.1],[1011.3,571.1],[1011.3,571.1],[999.4,565.4],[994.9,580.5],[994.9,580.5],[991,593.8],[968.9,605.6],[954.3,609.5],[939.7,613.4],[897.5,621.5],[842.8,647.1],[791.3,641.7],[768.3,654.5],[768.3,654.5],[750.7,656.1],[753.4,624.1],[762.8,586.2],[762.8,586.2],[793.3,579.6],[808.4,580.1],[831.6,592.6],[886.5,585.8],[947,560.1],[947,560.1],[990.5,552.5],[1047.9,518.5],[1081.7,512.1],[1097.6,526.6],[1111.8,528.7],[1123.4,504],[1130.2,481.5],[1122.7,458],[1125.7,453.1],[1136.1,435.7],[1155.7,413.6],[1155.7,413.6],[1159.8,407.1],[1165.8,414.1],[1180.5,405.1],[1180.5,405.1],[1184.5,415.6],[1176.8,425.7],[1123.4,426.9],[1046.4,452.2],[979.1,449.3],[890,466.2],[802,479.2],[718.6,510],[718.6,510],[633.2,526.5],[542.7,531.5],[468.7,561.9],[395.5,593.7],[429.1,610.1],[504.7,579.5],[491.2,567.1],[492.4,542.1],[474.4,526.3],[474.4,526.3],[453.4,516.2],[486.5,506.3],[575.2,500.6],[615.2,482.3],[697.9,494.1],[725.5,523.5],[740.9,564.8],[793.1,613.1],[847.8,664],[930.7,696.2],[1012.7,723.4],[1038.9,752.4],[1038.9,752.4],[1037.9,785.1],[1078.7,805.4],[1087.4,791.6],[1070.5,783.6],[1053.6,775.6],[1053.6,775.6],[1086.9,718.1],[1086.9,718.1],[1116.4,676.5],[1136.9,636.8],[1158.3,589.4],[1158.3,589.4],[1186.1,545.7],[1168.8,534.3],[1155.1,500.2],[1113.7,508.6],[1097.7,511.4],[1081.7,514.2],[1058.8,565.3],[1036.9,603.2],[1013.1,646.3],[989.3,689.4],[990,718.4],[1013.9,724],[1021.2,767.5],[1056.2,768.5],[1078.6,726.5],[1104.2,703.7],[1116,685],[1134.3,650.2],[1153.4,621.7],[1166.9,582],[1151.3,551.5],[1146.1,519.6],[1149.4,472.7],[1167.1,438.9],[1194,440.5],[1201.3,417.7],[1208.9,390],[1205,364.5],[1204.8,326.5],[1210.2,299.7],[1197.8,311.5],[1196.3,305.3],[1207.1,291.5],[1203.5,264.6],[1203.5,264.6],[1188.9,230.9],[1184.1,233.5],[1179,241],[1174.7,269.9],[1166.6,315.7],[1167.1,357.6],[1189.8,338.8],[1170.7,352.2],[1153.6,383.3],[1134.7,400.5],[1135.7,420.5],[1136.9,406.2],[1155.2,391.2],[1168.1,374.4],[1184.1,340.6],[1198.2,300.3],[1193.5,324.5],[1204,281.4],[1197.1,256.3],[1197.3,248.3],[1192,251.6],[1192,251.6],[1208.4,288.3],[1196.4,309.2],[1194,324.4],[1177.6,362],[1146.5,401.3],[1146.6,410.6],[1146.6,410.6],[1154.2,469.9],[1166.7,493.1],[1173.9,513.1],[1170.1,491.9],[1151,440.5],[1141,447.9],[1144,437.2],[1145.2,433.7],[1155.7,437.2],[1133.8,414.5],[1126.6,358.1],[1126.6,358.1],[1099.8,361],[1099.8,361],[1065.9,376.3],[1009.4,415],[921.3,418.8],[824.5,384.7],[784.9,395.8],[815.5,394.2],[844.8,394.3],[844.8,394.3],[878.7,423.6],[878.1,490.1],[895.3,505.3]]","[-0.142,0.42599999999999993]","[0.142,0.42599999999999993]","[0.42599999999999993,0.42599999999999993]","[-0.42599999999999993,-0.42599999999999993]","[-0.42599999999999993,-0.142]","[-0.42599999999999993,0.142]","[-0.142,-0.42599999999999993]","[0.142,-0.42599999999999993]","[0.42599999999999993,-0.42599999999999993]","[-0.142,-0.142]","[0.142,-0.142]","[0.42599999999999993,-0.142]","[-0.142,0.142]","[0.142,0.142]","[0.42599999999999993,0.142]",0,0,0,0,1,3,Laptop,25,40,9,1,50,4,1,60,5
