inst1_resp.keys,inst1_resp.rt,calibrationMouse.x,calibrationMouse.y,calibrationMouse.leftButton,calibrationMouse.midButton,calibrationMouse.rightButton,calibrationClick.x,calibrationClick.y,calibrationClick.leftButton,calibrationClick.midButton,calibrationClick.rightButton,trialsc.thisRepN,trialsc.thisTrialN,trialsc.thisN,trialsc.thisIndex,trialsc.ran,calibration_x,calibration_y,participant,session,date,expName,psychopyVersion,OS,frameRate,calibrationClick.clicked_name,ScreenRes_pixels,Camera_pixels,mouse_2.x,mouse_2.y,mouse_2.leftButton,mouse_2.midButton,mouse_2.rightButton,mouse_2.time,mouse_2.clicked_name,mouse.x,mouse.y,mouse.leftButton,mouse.midButton,mouse.rightButton,mouse.time,mouse.clicked_name,Choice,Trial,TrialDuration,MOUSE_GAZE,ET_GAZE,ET_GAZE_x_T,time,unixTime,ET_GAZE_NF,Loc_Bus_label,Loc_Metro_label,Loc_RH_label,Loc_Cost_label,Loc_Travel_label,Loc_Comfort_label,Loc_Bus_cost,Loc_Metro_cost,Loc_RH_cost,Loc_Bus_travel,Loc_Metro_travel,Loc_RH_travel,Loc_Bus_comfort,Loc_Metro_comfort,Loc_RH_comfort,trials.thisRepN,trials.thisTrialN,trials.thisN,trials.thisIndex,trials.ran,Block,Device,RH_cost,RH_travel_time,RH_Comfort,metro_cost,metro_travel_time,metro_Comfort,Bus_cost,Bus_travel_time,Bus_Comfort
space,2.7177,0.388541667,-0.337037037,1,0,0,-0.682291667,-0.348148148,1,0,0,0,0,0,1,1,-0.67,-0.33,13,001,2024-11-21_10h37.57.345,Attention_exp_legacy,2023.1.0,Win32,59.88023952,,,,,,,,,,,,,,,,,,,,,,,,,,,,,,,,,,,,,,,,,,,,,,,,,,,,,,,,,
,,,,,,,0.660416667,0.685185185,1,0,0,0,1,1,19,1,0.67,0.67,13,001,2024-11-21_10h37.57.345,Attention_exp_legacy,2023.1.0,Win32,59.88023952,,,,,,,,,,,,,,,,,,,,,,,,,,,,,,,,,,,,,,,,,,,,,,,,,,,,,,,,,
,,,,,,,-0.659375,-0.025925926,1,0,0,0,2,2,2,1,-0.67,0,13,001,2024-11-21_10h37.57.345,Attention_exp_legacy,2023.1.0,Win32,59.88023952,,,,,,,,,,,,,,,,,,,,,,,,,,,,,,,,,,,,,,,,,,,,,,,,,,,,,,,,,
,,,,,,,-0.677083333,0.324074074,1,0,0,0,3,3,3,1,-0.67,0.33,13,001,2024-11-21_10h37.57.345,Attention_exp_legacy,2023.1.0,Win32,59.88023952,calibration_square,,,,,,,,,,,,,,,,,,,,,,,,,,,,,,,,,,,,,,,,,,,,,,,,,,,,,,,,
,,,,,,,0.330208333,0.381481481,1,0,0,0,4,4,17,1,0.33,0.33,13,001,2024-11-21_10h37.57.345,Attention_exp_legacy,2023.1.0,Win32,59.88023952,,,,,,,,,,,,,,,,,,,,,,,,,,,,,,,,,,,,,,,,,,,,,,,,,,,,,,,,,
,,,,,,,0.678125,-0.664814815,1,0,0,0,5,5,20,1,0.67,-0.67,13,001,2024-11-21_10h37.57.345,Attention_exp_legacy,2023.1.0,Win32,59.88023952,calibration_square,,,,,,,,,,,,,,,,,,,,,,,,,,,,,,,,,,,,,,,,,,,,,,,,,,,,,,,,
,,,,,,,-0.326041667,-0.32962963,1,0,0,0,6,6,5,1,-0.33,-0.33,13,001,2024-11-21_10h37.57.345,Attention_exp_legacy,2023.1.0,Win32,59.88023952,calibration_square,,,,,,,,,,,,,,,,,,,,,,,,,,,,,,,,,,,,,,,,,,,,,,,,,,,,,,,,
,,,,,,,-0.338541667,0.337037037,1,0,0,0,7,7,7,1,-0.33,0.33,13,001,2024-11-21_10h37.57.345,Attention_exp_legacy,2023.1.0,Win32,59.88023952,calibration_square,,,,,,,,,,,,,,,,,,,,,,,,,,,,,,,,,,,,,,,,,,,,,,,,,,,,,,,,
,,,,,,,0.004166667,-0.014814815,1,0,0,0,8,8,11,1,0,0,13,001,2024-11-21_10h37.57.345,Attention_exp_legacy,2023.1.0,Win32,59.88023952,,,,,,,,,,,,,,,,,,,,,,,,,,,,,,,,,,,,,,,,,,,,,,,,,,,,,,,,,
,,,,,,,-0.335416667,0.644444444,1,0,0,0,9,9,8,1,-0.33,0.67,13,001,2024-11-21_10h37.57.345,Attention_exp_legacy,2023.1.0,Win32,59.88023952,,,,,,,,,,,,,,,,,,,,,,,,,,,,,,,,,,,,,,,,,,,,,,,,,,,,,,,,,
,,,,,,,-0.665625,-0.685185185,1,0,0,0,10,10,0,1,-0.67,-0.67,13,001,2024-11-21_10h37.57.345,Attention_exp_legacy,2023.1.0,Win32,59.88023952,,,,,,,,,,,,,,,,,,,,,,,,,,,,,,,,,,,,,,,,,,,,,,,,,,,,,,,,,
,,,,,,,0.330208333,-0.335185185,1,0,0,0,11,11,15,1,0.33,-0.33,13,001,2024-11-21_10h37.57.345,Attention_exp_legacy,2023.1.0,Win32,59.88023952,calibration_square,,,,,,,,,,,,,,,,,,,,,,,,,,,,,,,,,,,,,,,,,,,,,,,,,,,,,,,,
,,,,,,,0.004166667,0.685185185,1,0,0,0,12,12,13,1,0,0.67,13,001,2024-11-21_10h37.57.345,Attention_exp_legacy,2023.1.0,Win32,59.88023952,,,,,,,,,,,,,,,,,,,,,,,,,,,,,,,,,,,,,,,,,,,,,,,,,,,,,,,,,
,,,,,,,-0.008333333,-0.67037037,1,0,0,0,13,13,9,1,0,-0.67,13,001,2024-11-21_10h37.57.345,Attention_exp_legacy,2023.1.0,Win32,59.88023952,calibration_square,,,,,,,,,,,,,,,,,,,,,,,,,,,,,,,,,,,,,,,,,,,,,,,,,,,,,,,,
,,,,,,,-0.30625,0.022222222,1,0,0,0,14,14,6,1,-0.33,0,13,001,2024-11-21_10h37.57.345,Attention_exp_legacy,2023.1.0,Win32,59.88023952,,,,,,,,,,,,,,,,,,,,,,,,,,,,,,,,,,,,,,,,,,,,,,,,,,,,,,,,,
,,,,,,,0.007291667,0.338888889,1,0,0,0,15,15,12,1,0,0.33,13,001,2024-11-21_10h37.57.345,Attention_exp_legacy,2023.1.0,Win32,59.88023952,calibration_square,,,,,,,,,,,,,,,,,,,,,,,,,,,,,,,,,,,,,,,,,,,,,,,,,,,,,,,,
,,,,,,,-0.320833333,-0.67037037,1,0,0,0,16,16,4,1,-0.33,-0.67,13,001,2024-11-21_10h37.57.345,Attention_exp_legacy,2023.1.0,Win32,59.88023952,calibration_square,,,,,,,,,,,,,,,,,,,,,,,,,,,,,,,,,,,,,,,,,,,,,,,,,,,,,,,,
,,,,,,,0.328125,0.677777778,1,0,0,0,17,17,18,1,0.33,0.67,13,001,2024-11-21_10h37.57.345,Attention_exp_legacy,2023.1.0,Win32,59.88023952,calibration_square,,,,,,,,,,,,,,,,,,,,,,,,,,,,,,,,,,,,,,,,,,,,,,,,,,,,,,,,
,,,,,,,0.33125,-0.025925926,1,0,0,0,18,18,16,1,0.33,0,13,001,2024-11-21_10h37.57.345,Attention_exp_legacy,2023.1.0,Win32,59.88023952,,,,,,,,,,,,,,,,,,,,,,,,,,,,,,,,,,,,,,,,,,,,,,,,,,,,,,,,,
,,,,,,,0.334375,-0.677777778,1,0,0,0,19,19,14,1,0.33,-0.67,13,001,2024-11-21_10h37.57.345,Attention_exp_legacy,2023.1.0,Win32,59.88023952,calibration_square,,,,,,,,,,,,,,,,,,,,,,,,,,,,,,,,,,,,,,,,,,,,,,,,,,,,,,,,
,,,,,,,0.014583333,-0.338888889,1,0,0,0,20,20,10,1,0,-0.33,13,001,2024-11-21_10h37.57.345,Attention_exp_legacy,2023.1.0,Win32,59.88023952,,,,,,,,,,,,,,,,,,,,,,,,,,,,,,,,,,,,,,,,,,,,,,,,,,,,,,,,,
,,,,,,,,,,,,,,,,,,,13,001,2024-11-21_10h37.57.345,Attention_exp_legacy,2023.1.0,Win32,59.88023952,,"[1920,1080]","[640,480]",[0.052083333333333336],[-0.4777777777777778],[1],[0],[0],[1.5144999999999982],"[""StartButton""]",[0.06666666666666667],[0.17407407407407408],[1],[0],[0],[4.420599999904631],"[""Metro_label""]",Metro_label,1,5.443,"[[0.03854166666666667,-0.32407407407407407],[0.03854166666666667,-0.32407407407407407],[0.03854166666666667,-0.32407407407407407],[0.03854166666666667,-0.32407407407407407],[0.03854166666666667,-0.32407407407407407],[0.03854166666666667,-0.32407407407407407],[0.03854166666666667,-0.32407407407407407],[0.03854166666666667,-0.32407407407407407],[0.03854166666666667,-0.32407407407407407],[0.03854166666666667,-0.32407407407407407],[0.03854166666666667,-0.32407407407407407],[0.03854166666666667,-0.32407407407407407],[0.03854166666666667,-0.32407407407407407],[0.03854166666666667,-0.32407407407407407],[0.03854166666666667,-0.32407407407407407],[0.03854166666666667,-0.32407407407407407],[0.03854166666666667,-0.32407407407407407],[0.03854166666666667,-0.32407407407407407],[0.03854166666666667,-0.32407407407407407],[0.03854166666666667,-0.32407407407407407],[0.03854166666666667,-0.32407407407407407],[0.03854166666666667,-0.32407407407407407],[0.03854166666666667,-0.32407407407407407],[0.03854166666666667,-0.32407407407407407],[0.03854166666666667,-0.32407407407407407],[0.03854166666666667,-0.32407407407407407],[0.03854166666666667,-0.32407407407407407],[0.03854166666666667,-0.32407407407407407],[0.03854166666666667,-0.32407407407407407],[0.03854166666666667,-0.32407407407407407],[0.03854166666666667,-0.32407407407407407],[0.03854166666666667,-0.32407407407407407],[0.03854166666666667,-0.32407407407407407],[0.0375,-0.32037037037037036],[0.035416666666666666,-0.31666666666666665],[0.034375,-0.31296296296296294],[0.034375,-0.31296296296296294],[0.03333333333333333,-0.3111111111111111],[0.03333333333333333,-0.3111111111111111],[0.03333333333333333,-0.3111111111111111],[0.03333333333333333,-0.3111111111111111],[0.03333333333333333,-0.3111111111111111],[0.03333333333333333,-0.3111111111111111],[0.03333333333333333,-0.3111111111111111],[0.03333333333333333,-0.3111111111111111],[0.03333333333333333,-0.3111111111111111],[0.03333333333333333,-0.3111111111111111],[0.03333333333333333,-0.3111111111111111],[0.03333333333333333,-0.3111111111111111],[0.03333333333333333,-0.3111111111111111],[0.03333333333333333,-0.3111111111111111],[0.03229166666666667,-0.3055555555555556],[0.03229166666666667,-0.3037037037037037],[0.03125,-0.30185185185185187],[0.03125,-0.30185185185185187],[0.03125,-0.30185185185185187],[0.03125,-0.3],[0.03125,-0.3],[0.03125,-0.3],[0.030208333333333334,-0.2962962962962963],[0.030208333333333334,-0.2962962962962963],[0.030208333333333334,-0.29259259259259257],[0.030208333333333334,-0.29259259259259257],[0.030208333333333334,-0.28888888888888886],[0.029166666666666667,-0.28703703703703703],[0.029166666666666667,-0.2833333333333333],[0.029166666666666667,-0.2777777777777778],[0.027083333333333334,-0.2722222222222222],[0.027083333333333334,-0.26481481481481484],[0.027083333333333334,-0.25925925925925924],[0.027083333333333334,-0.25555555555555554],[0.027083333333333334,-0.24814814814814815],[0.027083333333333334,-0.2388888888888889],[0.027083333333333334,-0.23333333333333334],[0.026041666666666668,-0.22407407407407406],[0.026041666666666668,-0.21481481481481482],[0.026041666666666668,-0.2074074074074074],[0.026041666666666668,-0.2037037037037037],[0.026041666666666668,-0.1962962962962963],[0.026041666666666668,-0.1925925925925926],[0.026041666666666668,-0.18333333333333332],[0.026041666666666668,-0.17777777777777778],[0.028125,-0.17222222222222222],[0.030208333333333334,-0.1685185185185185],[0.03229166666666667,-0.16296296296296298],[0.035416666666666666,-0.15555555555555556],[0.036458333333333336,-0.15185185185185185],[0.03854166666666667,-0.15],[0.03854166666666667,-0.14814814814814814],[0.03958333333333333,-0.14814814814814814],[0.040625,-0.14444444444444443],[0.041666666666666664,-0.14444444444444443],[0.041666666666666664,-0.14444444444444443],[0.041666666666666664,-0.14444444444444443],[0.041666666666666664,-0.14444444444444443],[0.041666666666666664,-0.14444444444444443],[0.041666666666666664,-0.14444444444444443],[0.041666666666666664,-0.14444444444444443],[0.041666666666666664,-0.14444444444444443],[0.041666666666666664,-0.14444444444444443],[0.041666666666666664,-0.14444444444444443],[0.041666666666666664,-0.14444444444444443],[0.041666666666666664,-0.14444444444444443],[0.041666666666666664,-0.14444444444444443],[0.041666666666666664,-0.14444444444444443],[0.041666666666666664,-0.14444444444444443],[0.041666666666666664,-0.14444444444444443],[0.041666666666666664,-0.14444444444444443],[0.041666666666666664,-0.14444444444444443],[0.041666666666666664,-0.14444444444444443],[0.041666666666666664,-0.14444444444444443],[0.041666666666666664,-0.14444444444444443],[0.041666666666666664,-0.14444444444444443],[0.041666666666666664,-0.14444444444444443],[0.041666666666666664,-0.14444444444444443],[0.041666666666666664,-0.14444444444444443],[0.041666666666666664,-0.14444444444444443],[0.041666666666666664,-0.14444444444444443],[0.041666666666666664,-0.14444444444444443],[0.041666666666666664,-0.14444444444444443],[0.041666666666666664,-0.14444444444444443],[0.041666666666666664,-0.14444444444444443],[0.04583333333333333,-0.1388888888888889],[0.05416666666666667,-0.12962962962962962],[0.05625,-0.12962962962962962],[0.059375,-0.1259259259259259],[0.059375,-0.1259259259259259],[0.0625,-0.12407407407407407],[0.06354166666666666,-0.12407407407407407],[0.07291666666666667,-0.11666666666666667],[0.07604166666666666,-0.11296296296296296],[0.084375,-0.10555555555555556],[0.0875,-0.1],[0.09479166666666666,-0.08518518518518518],[0.09583333333333334,-0.07777777777777778],[0.1,-0.06111111111111111],[0.10104166666666667,-0.04814814814814815],[0.10104166666666667,-0.02962962962962963],[0.10104166666666667,-0.011111111111111112],[0.10104166666666667,0.012962962962962963],[0.10104166666666667,0.02962962962962963],[0.10104166666666667,0.04259259259259259],[0.1,0.05740740740740741],[0.09791666666666667,0.06851851851851852],[0.09583333333333334,0.08333333333333333],[0.09166666666666666,0.09814814814814815],[0.08958333333333333,0.10555555555555556],[0.0875,0.11296296296296296],[0.08541666666666667,0.11666666666666667],[0.08333333333333333,0.12222222222222222],[0.08229166666666667,0.12777777777777777],[0.07916666666666666,0.13333333333333333],[0.078125,0.13518518518518519],[0.075,0.14074074074074075],[0.071875,0.14629629629629629],[0.06875,0.1537037037037037],[0.06875,0.1537037037037037],[0.065625,0.1574074074074074],[0.065625,0.1574074074074074],[0.065625,0.15925925925925927],[0.06458333333333334,0.16111111111111112],[0.06458333333333334,0.16111111111111112],[0.06458333333333334,0.16296296296296298],[0.06354166666666666,0.16296296296296298],[0.06354166666666666,0.16296296296296298],[0.06354166666666666,0.16296296296296298],[0.06354166666666666,0.16296296296296298],[0.06354166666666666,0.16296296296296298],[0.06354166666666666,0.16296296296296298],[0.06354166666666666,0.16296296296296298],[0.06354166666666666,0.16296296296296298],[0.06354166666666666,0.16296296296296298],[0.06354166666666666,0.16296296296296298],[0.06354166666666666,0.16296296296296298],[0.06354166666666666,0.16296296296296298],[0.06354166666666666,0.16296296296296298],[0.06354166666666666,0.16296296296296298],[0.06354166666666666,0.16296296296296298],[0.06354166666666666,0.16296296296296298],[0.06354166666666666,0.1648148148148148],[0.06354166666666666,0.16666666666666666],[0.06354166666666666,0.17037037037037037],[0.06458333333333334,0.17037037037037037],[0.06458333333333334,0.17222222222222222],[0.06458333333333334,0.17222222222222222],[0.06458333333333334,0.17222222222222222],[0.06666666666666667,0.17222222222222222],[0.06666666666666667,0.17222222222222222],[0.06666666666666667,0.17407407407407408],[0.06666666666666667,0.17407407407407408],[0.06666666666666667,0.17407407407407408],[0.06666666666666667,0.17407407407407408],[0.06666666666666667,0.17407407407407408],[0.06666666666666667,0.17407407407407408],[0.06666666666666667,0.17407407407407408],[0.06666666666666667,0.17407407407407408],[0.06666666666666667,0.17407407407407408],[0.06666666666666667,0.17407407407407408],[0.06666666666666667,0.17407407407407408],[0.06666666666666667,0.17407407407407408],[0.06666666666666667,0.17407407407407408],[0.06666666666666667,0.17407407407407408],[0.06666666666666667,0.17407407407407408],[0.06666666666666667,0.17407407407407408],[0.06666666666666667,0.17407407407407408],[0.06666666666666667,0.17407407407407408],[0.06666666666666667,0.17407407407407408],[0.06666666666666667,0.17407407407407408],[0.06666666666666667,0.17407407407407408],[0.06666666666666667,0.17407407407407408],[0.06666666666666667,0.17407407407407408],[0.06666666666666667,0.17407407407407408],[0.06666666666666667,0.17407407407407408],[0.06666666666666667,0.17407407407407408],[0.06666666666666667,0.17407407407407408],[0.06666666666666667,0.17407407407407408],[0.06666666666666667,0.17407407407407408],[0.06666666666666667,0.17407407407407408],[0.06666666666666667,0.17407407407407408],[0.06666666666666667,0.17407407407407408],[0.06666666666666667,0.17407407407407408],[0.06666666666666667,0.17407407407407408],[0.06666666666666667,0.17407407407407408],[0.06666666666666667,0.17407407407407408],[0.06666666666666667,0.17407407407407408],[0.06666666666666667,0.17407407407407408],[0.06666666666666667,0.17407407407407408],[0.06666666666666667,0.17407407407407408],[0.06666666666666667,0.17407407407407408],[0.06666666666666667,0.17407407407407408],[0.06666666666666667,0.17407407407407408],[0.06666666666666667,0.17407407407407408],[0.06666666666666667,0.17407407407407408],[0.06666666666666667,0.17407407407407408],[0.06666666666666667,0.17407407407407408],[0.06666666666666667,0.17407407407407408],[0.06666666666666667,0.17407407407407408],[0.06666666666666667,0.17407407407407408],[0.06666666666666667,0.17407407407407408],[0.06666666666666667,0.17407407407407408],[0.06666666666666667,0.17407407407407408],[0.06666666666666667,0.17407407407407408],[0.06666666666666667,0.17407407407407408],[0.06666666666666667,0.17407407407407408],[0.06666666666666667,0.17407407407407408],[0.06666666666666667,0.17407407407407408],[0.06666666666666667,0.17407407407407408],[0.06666666666666667,0.17407407407407408],[0.06666666666666667,0.17407407407407408],[0.06666666666666667,0.17407407407407408],[0.06666666666666667,0.17407407407407408],[0.06666666666666667,0.17407407407407408],[0.06666666666666667,0.17407407407407408],[0.06666666666666667,0.17407407407407408],[0.06666666666666667,0.17407407407407408],[0.06666666666666667,0.17407407407407408],[0.06666666666666667,0.17407407407407408],[0.06666666666666667,0.17407407407407408],[0.06666666666666667,0.17407407407407408],[0.06666666666666667,0.17407407407407408],[0.06666666666666667,0.17407407407407408],[0.06666666666666667,0.17407407407407408],[0.06666666666666667,0.17407407407407408],[0.06666666666666667,0.17407407407407408],[0.06666666666666667,0.17407407407407408],[0.06666666666666667,0.17407407407407408],[0.06666666666666667,0.17407407407407408],[0.06666666666666667,0.17407407407407408],[0.06666666666666667,0.17407407407407408],[0.06666666666666667,0.17407407407407408],[0.06666666666666667,0.17407407407407408],[0.06666666666666667,0.17407407407407408],[0.06666666666666667,0.17407407407407408],[0.06666666666666667,0.17407407407407408],[0.06666666666666667,0.17407407407407408],[0.06666666666666667,0.17407407407407408],[0.06666666666666667,0.17407407407407408],[0.06666666666666667,0.17407407407407408],[0.06666666666666667,0.17407407407407408],[0.06666666666666667,0.17407407407407408],[0.06666666666666667,0.17407407407407408],[0.06666666666666667,0.17407407407407408],[0.06666666666666667,0.17407407407407408],[0.06666666666666667,0.17407407407407408],[0.06666666666666667,0.17407407407407408],[0.06666666666666667,0.17407407407407408],[0.06666666666666667,0.17407407407407408],[0.06666666666666667,0.17407407407407408],[0.06666666666666667,0.17407407407407408],[0.06666666666666667,0.17407407407407408],[0.06666666666666667,0.17407407407407408],[0.06666666666666667,0.17407407407407408],[0.06666666666666667,0.17407407407407408],[0.06666666666666667,0.17407407407407408],[0.06666666666666667,0.17407407407407408],[0.06666666666666667,0.17407407407407408],[0.06666666666666667,0.17407407407407408],[0.06666666666666667,0.17407407407407408],[0.06666666666666667,0.17407407407407408],[0.06666666666666667,0.17407407407407408],[0.06666666666666667,0.17407407407407408],[0.06666666666666667,0.17407407407407408],[0.06666666666666667,0.17407407407407408],[0.06666666666666667,0.17407407407407408],[0.06666666666666667,0.17407407407407408],[0.06666666666666667,0.17407407407407408],[0.06666666666666667,0.17407407407407408],[0.06666666666666667,0.17407407407407408],[0.06666666666666667,0.17407407407407408],[0.06666666666666667,0.17407407407407408],[0.06666666666666667,0.17407407407407408],[0.06666666666666667,0.17407407407407408],[0.06666666666666667,0.17407407407407408],[0.06666666666666667,0.17407407407407408],[0.06666666666666667,0.17407407407407408],[0.06666666666666667,0.17407407407407408],[0.06666666666666667,0.17407407407407408],[0.06666666666666667,0.17407407407407408],[0.06666666666666667,0.17407407407407408],[0.06666666666666667,0.17407407407407408],[0.06666666666666667,0.17407407407407408],[0.06666666666666667,0.17407407407407408],[0.06666666666666667,0.17407407407407408],[0.06666666666666667,0.17407407407407408]]","[[-0.019375000000000024,0.09462962962962967],[-0.019375000000000024,0.09462962962962967],[-0.0018749999999999527,0.12166666666666676],[-0.005208333333333333,0.11907407407407399],[0.025833333333333285,0.1346296296296297],[0.04468749999999998,0.1492592592592593],[0.07072916666666676,0.1574074074074074],[0.06812500000000009,0.15055555555555547],[0.08052083333333329,0.1492592592592593],[0.07270833333333329,0.144074074074074],[0.0962500000000001,0.14518518518518514],[0.11843750000000004,0.1418518518518519],[0.09885416666666676,0.15148148148148138],[0.09885416666666676,0.15148148148148138],[0.09468750000000009,0.15037037037037046],[0.08302083333333338,0.14222222222222214],[0.08916666666666657,0.1270370370370371],[0.08916666666666657,0.1270370370370371],[0.05489583333333338,0.10907407407407403],[0.03864583333333336,0.09648148148148153],[0.017916666666666713,0.08537037037037042],[0.036354166666666646,0.09870370370370361],[0.04812500000000005,0.11388888888888889],[0.03083333333333336,0.11444444444444436],[0.03083333333333336,0.11444444444444436],[0.05531250000000002,0.11259259259259251],[0.028645833333333332,0.13574074074074066],[0.035312499999999976,0.14222222222222214],[0.02166666666666662,0.1587037037037038],[0.05395833333333329,0.1668518518518519],[0.07864583333333333,0.17759259259259255],[0.10479166666666657,0.18555555555555564],[0.10041666666666677,0.1816666666666667],[0.0678124999999999,0.16314814814814818],[0.09614583333333329,0.1648148148148148],[0.09937500000000009,0.1655555555555555],[0.12458333333333324,0.16351851851851842],[0.1290625000000001,0.17981481481481484],[0.1234375,0.19092592592592597],[0.09385416666666657,0.21851851851851853],[0.09385416666666657,0.23648148148148157],[0.09385416666666657,0.23648148148148157],[0.07218749999999995,0.2403703703703703],[0.07270833333333329,0.2577777777777779],[0.09885416666666676,0.2737037037037036],[0.08083333333333324,0.28425925925925927],[0.08083333333333324,0.28425925925925927],[0.06281249999999995,0.2948148148148149],[0.06281249999999995,0.2948148148148149],[0.059375,0.2975925925925927],[0.059375,0.2975925925925927],[0.05791666666666669,0.30907407407407406],[0.05791666666666669,0.30907407407407406],[0.03197916666666671,0.31444444444444436],[0.03197916666666671,0.31444444444444436],[0.05281250000000005,0.32222222222222224],[0.05281250000000005,0.32222222222222224],[0.028541666666666642,0.30333333333333323],[0.04052083333333331,0.30333333333333323],[0.04052083333333331,0.30333333333333323],[0.025937499999999978,0.29888888888888887],[0.042916666666666714,0.2918518518518519],[0.04708333333333338,0.27870370370370373],[0.04708333333333338,0.27870370370370373],[0.03218749999999997,0.28425925925925927],[0.065625,0.27759259259259256],[0.04479166666666667,0.2598148148148147],[0.08989583333333329,0.23296296296296287],[0.07322916666666662,0.21592592592592597],[0.07322916666666662,0.21592592592592597],[0.07312500000000005,0.21870370370370373],[0.04895833333333333,0.2490740740740741],[0.051250000000000046,0.24666666666666676],[0.01572916666666669,0.25314814814814823],[-0.004479166666666619,0.2668518518518519],[0.013229166666666714,0.25555555555555554],[-0.0375,0.24722222222222223],[-0.016458333333333287,0.2572222222222222],[-0.023958333333333335,0.2774074074074073],[-0.023958333333333335,0.2774074074074073],[-0.006666666666666643,0.259074074074074],[0.0078125,0.2544444444444444],[0.0078125,0.2544444444444444],[0.03458333333333338,0.22925925925925916],[0.04010416666666667,0.22037037037037038],[0.06927083333333334,0.2014814814814814],[0.06927083333333334,0.2014814814814814],[0.0655208333333333,0.18259259259259264],[0.04208333333333331,0.1727777777777777],[0.04135416666666671,0.17185185185185176],[0.029166666666666667,0.1346296296296297],[0.012187500000000047,0.09666666666666675],[0.012187500000000047,0.09666666666666675],[0.009062500000000048,0.10444444444444441],[0.007604166666666619,0.10240740740740732],[0.007604166666666619,0.10240740740740732],[-0.004375000000000047,0.07074074074074083],[-0.0005208333333333333,0.05222222222222231],[-0.01729166666666669,0.03148148148148148],[0.004791666666666691,0.021851851851851768],[0.028437499999999952,0.008703703703703788],[0.028437499999999952,0.008703703703703788],[0.041875000000000044,-0.009814814814814731],[0.02020833333333331,0.002962962962963005],[0.02020833333333331,0.002962962962963005],[0.016562499999999977,0.02296296296296292],[0.001979166666666643,0.012962962962962963],[-0.021041666666666715,0.006111111111111027],[-0.030729166666666665,0.04666666666666675],[-0.057083333333333285,0.08148148148148149],[-0.08833333333333329,0.12481481481481477],[-0.08833333333333329,0.12481481481481477],[-0.12729166666666672,0.14351851851851852],[-0.1560416666666666,0.16777777777777783],[-0.1560416666666666,0.16777777777777783],[-0.14177083333333335,0.19814814814814816],[-0.1203125,0.22111111111111106],[-0.11937500000000002,0.2381481481481482],[-0.11083333333333331,0.26777777777777784],[-0.11052083333333336,0.31574074074074077],[-0.1252083333333334,0.32833333333333325],[-0.1252083333333334,0.32833333333333325],[-0.1252083333333334,0.32833333333333325],[-0.13416666666666663,0.3388888888888889],[-0.13416666666666663,0.3388888888888889],[-0.12562500000000001,0.33666666666666656],[-0.12562500000000001,0.33666666666666656],[-0.09885416666666665,0.34092592592592597],[-0.09885416666666665,0.34092592592592597],[-0.07708333333333334,0.3522222222222223],[-0.07708333333333334,0.3522222222222223],[-0.09458333333333328,0.3394444444444444],[-0.09458333333333328,0.3394444444444444],[-0.08812500000000002,0.3122222222222223],[-0.08812500000000002,0.3122222222222223],[-0.11864583333333331,0.3],[-0.14958333333333335,0.30351851851851847],[-0.11760416666666665,0.25166666666666665],[-0.07208333333333337,0.20166666666666663],[-0.07208333333333337,0.20166666666666663],[-0.04083333333333338,0.1425925925925926],[-0.04083333333333338,0.1425925925925926],[-0.011041666666666691,0.10851851851851856],[-0.011041666666666691,0.10851851851851856],[-0.009062500000000048,0.09740740740740746],[-0.009062500000000048,0.09740740740740746],[0.016770833333333356,0.07388888888888885],[0.057083333333333285,0.04388888888888897],[0.05437500000000005,0.03370370370370379],[0.09104166666666676,0.003888888888888931],[0.09104166666666676,0.003888888888888931],[0.15135416666666662,-0.037037037037037035],[0.1482291666666666,-0.04277777777777782],[0.13729166666666662,-0.06481481481481481],[0.1544791666666666,-0.07092592592592595],[0.14718749999999994,-0.07481481481481478],[0.15125000000000005,-0.09462962962962967],[0.12979166666666658,-0.1111111111111111],[0.1021874999999999,-0.09944444444444442],[0.10958333333333338,-0.10833333333333334],[0.11906249999999995,-0.11555555555555551],[0.10395833333333329,-0.10166666666666663],[0.09760416666666671,-0.08592592592592588],[0.1131249999999999,-0.06814814814814817],[0.1131249999999999,-0.06814814814814817],[0.08302083333333338,-0.044444444444444446],[0.08302083333333338,-0.044444444444444446],[0.08406250000000005,-0.03814814814814819],[0.08406250000000005,-0.03814814814814819],[0.07958333333333342,-0.010370370370370412],[0.07958333333333342,-0.010370370370370412],[0.09270833333333334,0.025370370370370456],[0.09270833333333334,0.025370370370370456],[0.10135416666666662,0.08851851851851844],[0.10864583333333329,0.13351851851851856],[0.10864583333333329,0.13351851851851856],[0.09885416666666676,0.16925925925925922],[0.11812500000000009,0.18222222222222217],[0.11812500000000009,0.1992592592592593],[0.10604166666666662,0.230925925925926],[0.1146874999999999,0.21092592592592588],[0.1146874999999999,0.21092592592592588],[0.11270833333333338,0.22833333333333325],[0.13093750000000004,0.19425925925925921],[0.11729166666666657,0.1455555555555556],[0.11520833333333323,0.07462962962962955],[0.11520833333333323,0.07462962962962955],[0.1,0.03611111111111111],[0.09156250000000009,-0.004074074074074159],[0.05541666666666671,-0.04722222222222222],[0.041770833333333354,-0.10629629629629625],[0.01854166666666662,-0.15685185185185183],[0.02020833333333331,-0.15777777777777777],[0.02645833333333331,-0.19185185185185188],[0.00916666666666662,-0.18055555555555555],[0.0037500000000000237,-0.1648148148148148],[-0.008749999999999977,-0.19129629629629633],[-0.007187499999999976,-0.2222222222222222],[0.00625,-0.2146296296296296],[0.02677083333333338,-0.2096296296296296],[0.02677083333333338,-0.2096296296296296],[0.02354166666666669,-0.16166666666666668],[0.02802083333333331,-0.12537037037037035],[0.022708333333333285,-0.11314814814814819],[-0.00604166666666662,-0.08888888888888889],[-0.022187499999999954,-0.06833333333333329],[-0.01072916666666662,-0.03814814814814819],[-0.0046875,0.03185185185185194],[-0.004791666666666691,0.10703703703703696],[-0.004791666666666691,0.10703703703703696],[-0.0014583333333333095,0.13648148148148156],[-0.016770833333333356,0.17296296296296293],[-0.012187500000000047,0.1801851851851851],[-0.007500000000000047,0.19148148148148145],[-0.005624999999999976,0.22518518518518524],[0.012395833333333309,0.23796296296296296],[0.016250000000000025,0.24370370370370376],[0.0018749999999999527,0.23592592592592587],[-0.016145833333333335,0.24962962962962953],[-0.03458333333333338,0.23166666666666672],[-0.058645833333333286,0.244074074074074],[-0.05260416666666667,0.25388888888888894],[-0.03875000000000005,0.247037037037037],[-0.030729166666666665,0.22444444444444453],[-0.043124999999999976,0.20555555555555555],[-0.05166666666666669,0.21870370370370373],[-0.0234375,0.21999999999999992],[-0.008229166666666643,0.2051851851851851],[0.022395833333333334,0.14888888888888885],[0.03781249999999995,0.16203703703703703],[0.03781249999999995,0.16203703703703703],[0.06114583333333338,0.16129629629629633],[0.06114583333333338,0.16129629629629633],[0.06666666666666667,0.1527777777777778],[0.06614583333333333,0.15611111111111103],[0.06135416666666664,0.16574074074074074],[0.07000000000000005,0.1646296296296296],[0.09322916666666667,0.13222222222222219],[0.08322916666666676,0.125],[0.075,0.13722222222222227],[0.058437500000000024,0.15981481481481474],[0.05354166666666664,0.14944444444444452],[0.06895833333333339,0.12388888888888884],[0.08364583333333328,0.10425925925925918],[0.07937500000000004,0.08962962962962959],[0.08520833333333329,0.08444444444444449],[0.12947916666666662,0.07092592592592584],[0.13927083333333337,0.07629629629629638],[0.13927083333333337,0.07629629629629638],[0.17135416666666667,0.05907407407407403],[0.17395833333333333,0.044999999999999915],[0.17395833333333333,0.044999999999999915],[0.20760416666666662,0.04814814814814815],[0.2352083333333333,0.035740740740740656],[0.23302083333333337,0.05259259259259255],[0.23104166666666662,0.06944444444444445],[0.23333333333333334,0.08925925925925934],[0.2493750000000001,0.10407407407407415],[0.22697916666666676,0.12722222222222232],[0.22270833333333329,0.1388888888888889],[0.20302083333333343,0.1551851851851851],[0.21281249999999996,0.16833333333333328],[0.19343750000000004,0.1633333333333334],[0.19020833333333323,0.1638888888888889],[0.17520833333333338,0.1566666666666667],[0.17520833333333338,0.1566666666666667],[0.16687500000000005,0.144074074074074],[0.17218749999999997,0.13574074074074066],[0.15677083333333333,0.1359259259259259],[0.15677083333333333,0.1359259259259259],[0.13624999999999995,0.13222222222222219],[0.13624999999999995,0.13222222222222219],[0.12833333333333338,0.130925925925926],[0.12927083333333325,0.13333333333333333],[0.13020833333333334,0.13574074074074066],[0.1267708333333334,0.15555555555555556],[0.12447916666666667,0.172037037037037],[0.12447916666666667,0.172037037037037],[0.14166666666666666,0.18333333333333332],[0.14166666666666666,0.18333333333333332],[0.11583333333333339,0.19907407407407407],[0.11583333333333339,0.19907407407407407],[0.11010416666666671,0.19611111111111107],[0.11010416666666671,0.19611111111111107],[0.08354166666666671,0.19240740740740736],[0.08354166666666671,0.19240740740740736],[0.08270833333333343,0.18351851851851855],[0.08270833333333343,0.18351851851851855],[0.10208333333333333,0.17851851851851847],[0.10208333333333333,0.17851851851851847],[0.10208333333333333,0.17851851851851847],[0.0818749999999999,0.17407407407407408],[0.0818749999999999,0.17407407407407408],[0.03083333333333336,0.19462962962962968],[0.03083333333333336,0.19462962962962968],[0.04572916666666664,0.18574074074074065],[0.01885416666666669,0.19314814814814807],[0.028750000000000022,0.17518518518518522],[0.009791666666666643,0.19759259259259268],[0.03708333333333336,0.19666666666666674],[0.05447916666666662,0.2101851851851852],[0.08260416666666662,0.22777777777777777],[0.050833333333333286,0.2412962962962962],[0.0765625,0.23407407407407405],[0.0765625,0.23407407407407405],[0.11260416666666657,0.22111111111111106],[0.11635416666666672,0.17592592592592593],[0.11635416666666672,0.17592592592592593],[0.13562500000000005,0.11925925925925922],[0.1267708333333334,0.11185185185185181],[0.1267708333333334,0.11185185185185181],[0.1640625,0.05592592592592601],[0.15374999999999991,0.035740740740740656],[0.18875000000000006,-0.008148148148148106],[0.14697916666666658,-0.010370370370370412],[0.18520833333333328,-0.03370370370370379],[0.19302083333333328,-0.035740740740740656],[0.18895833333333342,-0.05759259259259263],[0.17156250000000003,-0.016851851851851896],[0.17312500000000006,0.0014814814814813973],[0.1243750000000001,0.026481481481481398],[0.1423958333333334,0.026481481481481398],[0.1423958333333334,0.026481481481481398],[0.12312500000000005,0.039074074074074115]]","[[-0.019375000000000024,0.09462962962962967,0.00019999980926854732],[-0.019375000000000024,0.09462962962962967,0.04859999990463848],[-0.0018749999999999527,0.12166666666666676,0.05959999990463416],[-0.005208333333333333,0.11907407407407399,0.07629999971390333],[0.025833333333333285,0.1346296296296297,0.09290000009536925],[0.04468749999999998,0.1492592592592593,0.1100999999046337],[0.07072916666666676,0.1574074074074074,0.12619999980926622],[0.06812500000000009,0.15055555555555547,0.14300000000000068],[0.08052083333333329,0.1492592592592593,0.15959999990463558],[0.07270833333333329,0.144074074074074,0.17940000009537016],[0.0962500000000001,0.14518518518518514,0.19350000000000023],[0.11843750000000004,0.1418518518518519,0.2110999999046328],[0.09885416666666676,0.15148148148148138,0.22790000009536726],[0.09885416666666676,0.15148148148148138,0.2430000000000021],[0.09468750000000009,0.15037037037037046,0.259599999904637],[0.08302083333333338,0.14222222222222214,0.27640000009537147],[0.08916666666666657,0.1270370370370371,0.3094000000953727],[0.08916666666666657,0.1270370370370371,0.3180999999046321],[0.05489583333333338,0.10907407407407403,0.32629999971390333],[0.03864583333333336,0.09648148148148153,0.3430000000000035],[0.017916666666666713,0.08537037037037042,0.3629000000953724],[0.036354166666666646,0.09870370370370361,0.37869999980927105],[0.04812500000000005,0.11388888888888889,0.3937999997138988],[0.03083333333333336,0.11444444444444436,0.4125999999046357],[0.03083333333333336,0.11444444444444436,0.42629999971389765],[0.05531250000000002,0.11259259259259251,0.44300000000000495],[0.028645833333333332,0.13574074074074066,0.4610999999046328],[0.035312499999999976,0.14222222222222214,0.47619999980926764],[0.02166666666666662,0.1587037037037038,0.49290000009536783],[0.05395833333333329,0.1668518518518519,0.509599999904637],[0.07864583333333333,0.17759259259259255,0.5261999998092648],[0.10479166666666657,0.18555555555555564,0.5429000000953721],[0.10041666666666677,0.1816666666666667,0.560299999713898],[0.0678124999999999,0.16314814814814818,0.5791999998092692],[0.09614583333333329,0.1648148148148148,0.5940000000000012],[0.09937500000000009,0.1655555555555555,0.6099000000953723],[0.12458333333333324,0.16351851851851842,0.6262999997139005],[0.1290625000000001,0.17981481481481484,0.6455000000000055],[0.1234375,0.19092592592592597,0.661599999904638],[0.09385416666666657,0.21851851851851853,0.67640000009537],[0.09385416666666657,0.23648148148148157,0.7009000000953733],[0.09385416666666657,0.23648148148148157,0.7095999999046327],[0.07218749999999995,0.2403703703703703,0.7262999997139019],[0.07270833333333329,0.2577777777777779,0.7456999998092684],[0.09885416666666676,0.2737037037037036,0.7645999999046325],[0.08083333333333324,0.28425925925925927,0.7815000000000012],[0.08083333333333324,0.28425925925925927,0.7929000000953721],[0.06281249999999995,0.2948148148148149,0.8095999999046342],[0.06281249999999995,0.2948148148148149,0.8262999997139033],[0.059375,0.2975925925925927,0.8430000000000035],[0.059375,0.2975925925925927,0.8595000000000041],[0.05791666666666669,0.30907407407407406,0.8800999999046368],[0.05791666666666669,0.30907407407407406,0.893099999904635],[0.03197916666666671,0.31444444444444436,0.9099000000953694],[0.03197916666666671,0.31444444444444436,0.9262999997138976],[0.05281250000000005,0.32222222222222224,0.9429000000953707],[0.05281250000000005,0.32222222222222224,0.9635000000000034],[0.028541666666666642,0.30333333333333323,0.9761999998092676],[0.04052083333333331,0.30333333333333323,0.9927999997139025],[0.04052083333333331,0.30333333333333323,1.0122999997139033],[0.025937499999999978,0.29888888888888887,1.0261999998092648],[0.042916666666666714,0.2918518518518519,1.0435000000000016],[0.04708333333333338,0.27870370370370373,1.0610999999046342],[0.04708333333333338,0.27870370370370373,1.078799999713901],[0.03218749999999997,0.28425925925925927,1.0930000000000035],[0.065625,0.27759259259259256,1.1096999998092656],[0.04479166666666667,0.2598148148148147,1.1264000000953729],[0.08989583333333329,0.23296296296296287,1.148299999713899],[0.07322916666666662,0.21592592592592597,1.1710999999046336],[0.07322916666666662,0.21592592592592597,1.1792999997138978],[0.07312500000000005,0.21870370370370373,1.193000000000005],[0.04895833333333333,0.2490740740740741,1.213400000095369],[0.051250000000000046,0.24666666666666676,1.2297999997138973],[0.01572916666666669,0.25314814814814823,1.2471999998092684],[-0.004479166666666619,0.2668518518518519,1.2649000000953663],[0.013229166666666714,0.25555555555555554,1.280699999809265],[-0.0375,0.24722222222222223,1.2957999997138998],[-0.016458333333333287,0.2572222222222222,1.3115000000000023],[-0.023958333333333335,0.2774074074074073,1.3344000000953713],[-0.023958333333333335,0.2774074074074073,1.343199999809265],[-0.006666666666666643,0.259074074074074,1.3597999997138999],[0.0078125,0.2544444444444444,1.380900000095373],[0.0078125,0.2544444444444444,1.3930000000000007],[0.03458333333333338,0.22925925925925916,1.4099000000953694],[0.04010416666666667,0.22037037037037038,1.4266999998092658],[0.06927083333333334,0.2014814814814814,1.4510000000000005],[0.06927083333333334,0.2014814814814814,1.459699999809267],[0.0655208333333333,0.18259259259259264,1.47669999980927],[0.04208333333333331,0.1727777777777777,1.493000000000002],[0.04135416666666671,0.17185185185185176,1.5146999998092667],[0.029166666666666667,0.1346296296296297,1.531099999904633],[0.012187500000000047,0.09666666666666675,1.5492999997139023],[0.012187500000000047,0.09666666666666675,1.5595999999046342],[0.009062500000000048,0.10444444444444441,1.576199999809269],[0.007604166666666619,0.10240740740740732,1.5936999998092674],[0.007604166666666619,0.10240740740740732,1.6095999999046384],[-0.004375000000000047,0.07074074074074083,1.6261999998092662],[-0.0005208333333333333,0.05222222222222231,1.6432999997139035],[-0.01729166666666669,0.03148148148148148,1.6625999999046357],[0.004791666666666691,0.021851851851851768,1.6784999999999997],[0.028437499999999952,0.008703703703703788,1.6929000000953707],[0.028437499999999952,0.008703703703703788,1.7095000000000056],[0.041875000000000044,-0.009814814814814731,1.726299999713902],[0.02020833333333331,0.002962962962963005,1.7464000000953703],[0.02020833333333331,0.002962962962963005,1.759599999904637],[0.016562499999999977,0.02296296296296292,1.7761999998092648],[0.001979166666666643,0.012962962962962963,1.7954000000953698],[-0.021041666666666715,0.006111111111111027,1.813199999809271],[-0.030729166666666665,0.04666666666666675,1.8297999997138987],[-0.057083333333333285,0.08148148148148149,1.846499999999999],[-0.08833333333333329,0.12481481481481477,1.8625000000000043],[-0.08833333333333329,0.12481481481481477,1.8761999998092662],[-0.12729166666666672,0.14351851851851852,1.8929000000953664],[-0.1560416666666666,0.16777777777777783,1.9149999999999991],[-0.1560416666666666,0.16777777777777783,1.9277999997138977],[-0.14177083333333335,0.19814814814814816,1.9429000000953707],[-0.1203125,0.22111111111111106,1.9620000000000033],[-0.11937500000000002,0.2381481481481482,1.9785999999046382],[-0.11083333333333331,0.26777777777777784,1.9930999999046364],[-0.11052083333333336,0.31574074074074077,2.009599999904637],[-0.1252083333333334,0.32833333333333325,2.0260999999046376],[-0.1252083333333334,0.32833333333333325,2.0435000000000016],[-0.1252083333333334,0.32833333333333325,2.076900000095371],[-0.13416666666666663,0.3388888888888889,2.095400000095367],[-0.13416666666666663,0.3388888888888889,2.1021999998092653],[-0.12562500000000001,0.33666666666666656,2.1306999998092664],[-0.12562500000000001,0.33666666666666656,2.1374000000953686],[-0.09885416666666665,0.34092592592592597,2.162400000095367],[-0.09885416666666665,0.34092592592592597,2.1706999998092655],[-0.07708333333333334,0.3522222222222223,2.198599999904637],[-0.07708333333333334,0.3522222222222223,2.206299999713899],[-0.09458333333333328,0.3394444444444444,2.22969999980927],[-0.09458333333333328,0.3394444444444444,2.2612999997138985],[-0.08812500000000002,0.3122222222222223,2.2680000000000007],[-0.08812500000000002,0.3122222222222223,2.276299999713899],[-0.11864583333333331,0.3,2.2929999999999993],[-0.14958333333333335,0.30351851851851847,2.3126999998092685],[-0.11760416666666665,0.25166666666666665,2.3264000000953686],[-0.07208333333333337,0.20166666666666663,2.343199999809265],[-0.07208333333333337,0.20166666666666663,2.3596999998092656],[-0.04083333333333338,0.1425925925925926,2.3810000000000002],[-0.04083333333333338,0.1425925925925926,2.393099999904635],[-0.011041666666666691,0.10851851851851856,2.4099000000953694],[-0.011041666666666691,0.10851851851851856,2.42640000009537],[-0.009062500000000048,0.09740740740740746,2.4472999997138984],[-0.009062500000000048,0.09740740740740746,2.4595999999046327],[0.016770833333333356,0.07388888888888885,2.4765999999046358],[0.057083333333333285,0.04388888888888897,2.4956999998092684],[0.05437500000000005,0.03370370370370379,2.5119000000953733],[0.09104166666666676,0.003888888888888931,2.5270999999046353],[0.09104166666666676,0.003888888888888931,2.543199999809268],[0.15135416666666662,-0.037037037037037035,2.5625],[0.1482291666666666,-0.04277777777777782,2.576900000095371],[0.13729166666666662,-0.06481481481481481,2.593099999904638],[0.1544791666666666,-0.07092592592592595,2.6134000000953677],[0.14718749999999994,-0.07481481481481478,2.6280999999046344],[0.15125000000000005,-0.09462962962962967,2.6432999997139035],[0.12979166666666658,-0.1111111111111111,2.663400000095372],[0.1021874999999999,-0.09944444444444442,2.6780000000000044],[0.10958333333333338,-0.10833333333333334,2.6970000000000027],[0.11906249999999995,-0.11555555555555551,2.713699999809265],[0.10395833333333329,-0.10166666666666663,2.728999999999999],[0.09760416666666671,-0.08592592592592588,2.7446999998092707],[0.1131249999999999,-0.06814814814814817,2.7660999999046325],[0.1131249999999999,-0.06814814814814817,2.776299999713899],[0.08302083333333338,-0.044444444444444446,2.792900000095372],[0.08302083333333338,-0.044444444444444446,2.809599999904634],[0.08406250000000005,-0.03814814814814819,2.826199999809269],[0.08406250000000005,-0.03814814814814819,2.8429000000953693],[0.07958333333333342,-0.010370370370370412,2.859500000000004],[0.07958333333333342,-0.010370370370370412,2.8762999997139005],[0.09270833333333334,0.025370370370370456,2.8929000000953664],[0.09270833333333334,0.025370370370370456,2.90969999980927],[0.10135416666666662,0.08851851851851844,2.9262999997138976],[0.10864583333333329,0.13351851851851856,2.9509000000953733],[0.10864583333333329,0.13351851851851856,2.9601999998092694],[0.09885416666666676,0.16925925925925922,2.9761999998092676],[0.11812500000000009,0.18222222222222217,2.992900000095368],[0.11812500000000009,0.1992592592592593,3.0101999998092666],[0.10604166666666662,0.230925925925926,3.0301999998092697],[0.1146874999999999,0.21092592592592588,3.0489999999999995],[0.1146874999999999,0.21092592592592588,3.0607999997139004],[0.11270833333333338,0.22833333333333325,3.0764000000953686],[0.13093750000000004,0.19425925925925921,3.095400000095367],[0.11729166666666657,0.1455555555555556,3.110199999809268],[0.11520833333333323,0.07462962962962955,3.126199999809266],[0.11520833333333323,0.07462962962962955,3.146799999713899],[0.1,0.03611111111111111,3.1595000000000013],[0.09156250000000009,-0.004074074074074159,3.1780000000000044],[0.05541666666666671,-0.04722222222222222,3.1970000000000027],[0.041770833333333354,-0.10629629629629625,3.2120000000000033],[0.01854166666666662,-0.15685185185185183,3.227000000000004],[0.02020833333333331,-0.15777777777777777,3.242900000095368],[0.02645833333333331,-0.19185185185185188,3.261000000000003],[0.00916666666666662,-0.18055555555555555,3.2779000000953715],[0.0037500000000000237,-0.1648148148148148,3.292900000095372],[-0.008749999999999977,-0.19129629629629633,3.3095],[-0.007187499999999976,-0.2222222222222222,3.326199999809269],[0.00625,-0.2146296296296296,3.346599999904633],[0.02677083333333338,-0.2096296296296296,3.369799999713898],[0.02677083333333338,-0.2096296296296296,3.3765],[0.02354166666666669,-0.16166666666666668,3.3930000000000007],[0.02802083333333331,-0.12537037037037035,3.410499999999999],[0.022708333333333285,-0.11314814814814819,3.42790000009537],[-0.00604166666666662,-0.08888888888888889,3.4447999997139007],[-0.022187499999999954,-0.06833333333333329,3.4616999998092695],[-0.01072916666666662,-0.03814814814814819,3.47669999980927],[-0.0046875,0.03185185185185194,3.4927999997139025],[-0.004791666666666691,0.10703703703703696,3.5137999997139033],[-0.004791666666666691,0.10703703703703696,3.526299999713899],[-0.0014583333333333095,0.13648148148148156,3.542900000095372],[-0.016770833333333356,0.17296296296296293,3.5600999999046365],[-0.012187500000000047,0.1801851851851851,3.576500000000003],[-0.007500000000000047,0.19148148148148145,3.592799999713897],[-0.005624999999999976,0.22518518518518524,3.6100999999046337],[0.012395833333333309,0.23796296296296296,3.627599999904632],[0.016250000000000025,0.24370370370370376,3.645699999809267],[0.0018749999999999527,0.23592592592592587,3.660799999713902],[-0.016145833333333335,0.24962962962962953,3.6765000000000043],[-0.03458333333333338,0.23166666666666672,3.6929000000953707],[-0.058645833333333286,0.244074074074074,3.7095000000000056],[-0.05260416666666667,0.25388888888888894,3.726299999713902],[-0.03875000000000005,0.247037037037037,3.742900000095368],[-0.030729166666666665,0.22444444444444453,3.762599999904637],[-0.043124999999999976,0.20555555555555555,3.7820000000000036],[-0.05166666666666669,0.21870370370370373,3.798500000000004],[-0.0234375,0.21999999999999992,3.813699999809266],[-0.008229166666666643,0.2051851851851851,3.8290000000000006],[0.022395833333333334,0.14888888888888885,3.846599999904633],[0.03781249999999995,0.16203703703703703,3.863199999809268],[0.03781249999999995,0.16203703703703703,3.8762999997139005],[0.06114583333333338,0.16129629629629633,3.8929000000953664],[0.06114583333333338,0.16129629629629633,3.9095999999046356],[0.06666666666666667,0.1527777777777778,3.9262999997138976],[0.06614583333333333,0.15611111111111103,3.947400000095371],[0.06135416666666664,0.16574074074074074,3.9625000000000057],[0.07000000000000005,0.1646296296296296,3.976400000095367],[0.09322916666666667,0.13222222222222219,3.992900000095368],[0.08322916666666676,0.125,4.009900000095371],[0.075,0.13722222222222227,4.026199999809265],[0.058437500000000024,0.15981481481481474,4.0441999998092655],[0.05354166666666664,0.14944444444444452,4.062900000095368],[0.06895833333333339,0.12388888888888884,4.079500000000003],[0.08364583333333328,0.10425925925925918,4.094599999904638],[0.07937500000000004,0.08962962962962959,4.111400000095372],[0.08520833333333329,0.08444444444444449,4.126099999904632],[0.12947916666666662,0.07092592592592584,4.145799999713901],[0.13927083333333337,0.07629629629629638,4.164500000000004],[0.13927083333333337,0.07629629629629638,4.176299999713898],[0.17135416666666667,0.05907407407407403,4.192799999713898],[0.17395833333333333,0.044999999999999915,4.209599999904633],[0.17395833333333333,0.044999999999999915,4.233099999904638],[0.20760416666666662,0.04814814814814815,4.243000000000002],[0.2352083333333333,0.035740740740740656,4.262199999809269],[0.23302083333333337,0.05259259259259255,4.277799999713899],[0.23104166666666662,0.06944444444444445,4.295299999713897],[0.23333333333333334,0.08925925925925934,4.309699999809268],[0.2493750000000001,0.10407407407407415,4.326400000095369],[0.22697916666666676,0.12722222222222232,4.342900000095369],[0.22270833333333329,0.1388888888888889,4.359999999999999],[0.20302083333333343,0.1551851851851851,4.376599999904634],[0.21281249999999996,0.16833333333333328,4.395599999904633],[0.19343750000000004,0.1633333333333334,4.411500000000004],[0.19020833333333323,0.1638888888888889,4.429699999809266],[0.17520833333333338,0.1566666666666667,4.448099999904635],[0.17520833333333338,0.1566666666666667,4.459599999904633],[0.16687500000000005,0.144074074074074,4.476299999713902],[0.17218749999999997,0.13574074074074066,4.49490000009537],[0.15677083333333333,0.1359259259259259,4.515000000000001],[0.15677083333333333,0.1359259259259259,4.526299999713899],[0.13624999999999995,0.13222222222222219,4.542900000095372],[0.13624999999999995,0.13222222222222219,4.559599999904634],[0.12833333333333338,0.130925925925926,4.576299999713903],[0.12927083333333325,0.13333333333333333,4.597500000000004],[0.13020833333333334,0.13574074074074066,4.614699999809261],[0.1267708333333334,0.15555555555555556,4.630299999713898],[0.12447916666666667,0.172037037037037,4.653199999809274],[0.12447916666666667,0.172037037037037,4.660299999713899],[0.14166666666666666,0.18333333333333332,4.6954000000953755],[0.14166666666666666,0.18333333333333332,4.702400000095366],[0.11583333333333339,0.19907407407407407,4.7290999999046335],[0.11583333333333339,0.19907407407407407,4.736199999809273],[0.11010416666666671,0.19611111111111107,4.765299999713903],[0.11010416666666671,0.19611111111111107,4.771699999809272],[0.08354166666666671,0.19240740740740736,4.79840000009537],[0.08354166666666671,0.19240740740740736,4.805000000000007],[0.08270833333333343,0.18351851851851855,4.832000000000008],[0.08270833333333343,0.18351851851851855,4.839500000000001],[0.10208333333333333,0.17851851851851847,4.865199999809263],[0.10208333333333333,0.17851851851851847,4.874900000095366],[0.10208333333333333,0.17851851851851847,4.882500000000007],[0.0818749999999999,0.17407407407407408,4.917599999904638],[0.0818749999999999,0.17407407407407408,4.926900000095372],[0.03083333333333336,0.19462962962962968,4.942900000095364],[0.03083333333333336,0.19462962962962968,4.959500000000006],[0.04572916666666664,0.18574074074074065,4.976199999809268],[0.01885416666666669,0.19314814814814807,4.992799999713895],[0.028750000000000022,0.17518518518518522,5.009599999904637],[0.009791666666666643,0.19759259259259268,5.029299999713899],[0.03708333333333336,0.19666666666666674,5.044599999904634],[0.05447916666666662,0.2101851851851852,5.061699999809264],[0.08260416666666662,0.22777777777777777,5.0789000000953735],[0.050833333333333286,0.2412962962962962,5.095799999713904],[0.0765625,0.23407407407407405,5.109900000095365],[0.0765625,0.23407407407407405,5.126299999713893],[0.11260416666666657,0.22111111111111106,5.142900000095366],[0.11635416666666672,0.17592592592592593,5.1625000000000085],[0.11635416666666672,0.17592592592592593,5.1761999998092705],[0.13562500000000005,0.11925925925925922,5.192900000095364],[0.1267708333333334,0.11185185185185181,5.210000000000008],[0.1267708333333334,0.11185185185185181,5.226199999809268],[0.1640625,0.05592592592592601,5.242900000095375],[0.15374999999999991,0.035740740740740656,5.263000000000005],[0.18875000000000006,-0.008148148148148106,5.279199999809265],[0.14697916666666658,-0.010370370370370412,5.297099999904631],[0.18520833333333328,-0.03370370370370379,5.312599999904634],[0.19302083333333328,-0.035740740740740656,5.32859999990464],[0.18895833333333342,-0.05759259259259263,5.342900000095369],[0.17156250000000003,-0.016851851851851896,5.362499999999997],[0.17312500000000006,0.0014814814814813973,5.378],[0.1243750000000001,0.026481481481481398,5.394999999999996],[0.1423958333333334,0.026481481481481398,5.415799999713897],[0.1423958333333334,0.026481481481481398,5.426299999713905],[0.12312500000000005,0.039074074074074115,5.442999999999998]]","[0.00019999980926854732,0.04859999990463848,0.05959999990463416,0.07629999971390333,0.09290000009536925,0.1100999999046337,0.12619999980926622,0.14300000000000068,0.15959999990463558,0.17940000009537016,0.19350000000000023,0.2110999999046328,0.22790000009536726,0.2430000000000021,0.259599999904637,0.27640000009537147,0.3094000000953727,0.3180999999046321,0.32629999971390333,0.3430000000000035,0.3629000000953724,0.37869999980927105,0.3937999997138988,0.4125999999046357,0.42629999971389765,0.44300000000000495,0.4610999999046328,0.47619999980926764,0.49290000009536783,0.509599999904637,0.5261999998092648,0.5429000000953721,0.560299999713898,0.5791999998092692,0.5940000000000012,0.6099000000953723,0.6262999997139005,0.6455000000000055,0.661599999904638,0.67640000009537,0.7009000000953733,0.7095999999046327,0.7262999997139019,0.7456999998092684,0.7645999999046325,0.7815000000000012,0.7929000000953721,0.8095999999046342,0.8262999997139033,0.8430000000000035,0.8595000000000041,0.8800999999046368,0.893099999904635,0.9099000000953694,0.9262999997138976,0.9429000000953707,0.9635000000000034,0.9761999998092676,0.9927999997139025,1.0122999997139033,1.0261999998092648,1.0435000000000016,1.0610999999046342,1.078799999713901,1.0930000000000035,1.1096999998092656,1.1264000000953729,1.148299999713899,1.1710999999046336,1.1792999997138978,1.193000000000005,1.213400000095369,1.2297999997138973,1.2471999998092684,1.2649000000953663,1.280699999809265,1.2957999997138998,1.3115000000000023,1.3344000000953713,1.343199999809265,1.3597999997138999,1.380900000095373,1.3930000000000007,1.4099000000953694,1.4266999998092658,1.4510000000000005,1.459699999809267,1.47669999980927,1.493000000000002,1.5146999998092667,1.531099999904633,1.5492999997139023,1.5595999999046342,1.576199999809269,1.5936999998092674,1.6095999999046384,1.6261999998092662,1.6432999997139035,1.6625999999046357,1.6784999999999997,1.6929000000953707,1.7095000000000056,1.726299999713902,1.7464000000953703,1.759599999904637,1.7761999998092648,1.7954000000953698,1.813199999809271,1.8297999997138987,1.846499999999999,1.8625000000000043,1.8761999998092662,1.8929000000953664,1.9149999999999991,1.9277999997138977,1.9429000000953707,1.9620000000000033,1.9785999999046382,1.9930999999046364,2.009599999904637,2.0260999999046376,2.0435000000000016,2.076900000095371,2.095400000095367,2.1021999998092653,2.1306999998092664,2.1374000000953686,2.162400000095367,2.1706999998092655,2.198599999904637,2.206299999713899,2.22969999980927,2.2612999997138985,2.2680000000000007,2.276299999713899,2.2929999999999993,2.3126999998092685,2.3264000000953686,2.343199999809265,2.3596999998092656,2.3810000000000002,2.393099999904635,2.4099000000953694,2.42640000009537,2.4472999997138984,2.4595999999046327,2.4765999999046358,2.4956999998092684,2.5119000000953733,2.5270999999046353,2.543199999809268,2.5625,2.576900000095371,2.593099999904638,2.6134000000953677,2.6280999999046344,2.6432999997139035,2.663400000095372,2.6780000000000044,2.6970000000000027,2.713699999809265,2.728999999999999,2.7446999998092707,2.7660999999046325,2.776299999713899,2.792900000095372,2.809599999904634,2.826199999809269,2.8429000000953693,2.859500000000004,2.8762999997139005,2.8929000000953664,2.90969999980927,2.9262999997138976,2.9509000000953733,2.9601999998092694,2.9761999998092676,2.992900000095368,3.0101999998092666,3.0301999998092697,3.0489999999999995,3.0607999997139004,3.0764000000953686,3.095400000095367,3.110199999809268,3.126199999809266,3.146799999713899,3.1595000000000013,3.1780000000000044,3.1970000000000027,3.2120000000000033,3.227000000000004,3.242900000095368,3.261000000000003,3.2779000000953715,3.292900000095372,3.3095,3.326199999809269,3.346599999904633,3.369799999713898,3.3765,3.3930000000000007,3.410499999999999,3.42790000009537,3.4447999997139007,3.4616999998092695,3.47669999980927,3.4927999997139025,3.5137999997139033,3.526299999713899,3.542900000095372,3.5600999999046365,3.576500000000003,3.592799999713897,3.6100999999046337,3.627599999904632,3.645699999809267,3.660799999713902,3.6765000000000043,3.6929000000953707,3.7095000000000056,3.726299999713902,3.742900000095368,3.762599999904637,3.7820000000000036,3.798500000000004,3.813699999809266,3.8290000000000006,3.846599999904633,3.863199999809268,3.8762999997139005,3.8929000000953664,3.9095999999046356,3.9262999997138976,3.947400000095371,3.9625000000000057,3.976400000095367,3.992900000095368,4.009900000095371,4.026199999809265,4.0441999998092655,4.062900000095368,4.079500000000003,4.094599999904638,4.111400000095372,4.126099999904632,4.145799999713901,4.164500000000004,4.176299999713898,4.192799999713898,4.209599999904633,4.233099999904638,4.243000000000002,4.262199999809269,4.277799999713899,4.295299999713897,4.309699999809268,4.326400000095369,4.342900000095369,4.359999999999999,4.376599999904634,4.395599999904633,4.411500000000004,4.429699999809266,4.448099999904635,4.459599999904633,4.476299999713902,4.49490000009537,4.515000000000001,4.526299999713899,4.542900000095372,4.559599999904634,4.576299999713903,4.597500000000004,4.614699999809261,4.630299999713898,4.653199999809274,4.660299999713899,4.6954000000953755,4.702400000095366,4.7290999999046335,4.736199999809273,4.765299999713903,4.771699999809272,4.79840000009537,4.805000000000007,4.832000000000008,4.839500000000001,4.865199999809263,4.874900000095366,4.882500000000007,4.917599999904638,4.926900000095372,4.942900000095364,4.959500000000006,4.976199999809268,4.992799999713895,5.009599999904637,5.029299999713899,5.044599999904634,5.061699999809264,5.0789000000953735,5.095799999713904,5.109900000095365,5.126299999713893,5.142900000095366,5.1625000000000085,5.1761999998092705,5.192900000095364,5.210000000000008,5.226199999809268,5.242900000095375,5.263000000000005,5.279199999809265,5.297099999904631,5.312599999904634,5.32859999990464,5.342900000095369,5.362499999999997,5.378,5.394999999999996,5.415799999713897,5.426299999713905,5.442999999999998]","[1732156726563,1732156726602,1732156726613,1732156726630,1732156726647,1732156726664,1732156726680,1732156726697,1732156726713,1732156726733,1732156726747,1732156726765,1732156726782,1732156726797,1732156726813,1732156726830,1732156726863,1732156726872,1732156726880,1732156726897,1732156726917,1732156726932,1732156726948,1732156726966,1732156726980,1732156726997,1732156727015,1732156727030,1732156727047,1732156727063,1732156727080,1732156727097,1732156727114,1732156727133,1732156727148,1732156727164,1732156727180,1732156727199,1732156727215,1732156727230,1732156727255,1732156727263,1732156727280,1732156727299,1732156727318,1732156727335,1732156727347,1732156727363,1732156727380,1732156727397,1732156727413,1732156727434,1732156727447,1732156727464,1732156727480,1732156727497,1732156727517,1732156727530,1732156727547,1732156727566,1732156727580,1732156727597,1732156727615,1732156727633,1732156727647,1732156727663,1732156727680,1732156727702,1732156727725,1732156727733,1732156727747,1732156727767,1732156727784,1732156727801,1732156727819,1732156727834,1732156727850,1732156727865,1732156727888,1732156727897,1732156727914,1732156727935,1732156727947,1732156727964,1732156727980,1732156728005,1732156728013,1732156728030,1732156728047,1732156728068,1732156728085,1732156728103,1732156728113,1732156728130,1732156728147,1732156728163,1732156728180,1732156728197,1732156728216,1732156728232,1732156728247,1732156728263,1732156728280,1732156728300,1732156728313,1732156728330,1732156728349,1732156728367,1732156728384,1732156728400,1732156728416,1732156728430,1732156728447,1732156728469,1732156728482,1732156728497,1732156728516,1732156728532,1732156728547,1732156728563,1732156728580,1732156728597,1732156728631,1732156728649,1732156728656,1732156728684,1732156728691,1732156728716,1732156728724,1732156728752,1732156728760,1732156728783,1732156728815,1732156728822,1732156728830,1732156728847,1732156728867,1732156728880,1732156728897,1732156728913,1732156728935,1732156728947,1732156728964,1732156728980,1732156729001,1732156729013,1732156729030,1732156729049,1732156729066,1732156729081,1732156729097,1732156729116,1732156729131,1732156729147,1732156729167,1732156729182,1732156729197,1732156729217,1732156729232,1732156729251,1732156729268,1732156729283,1732156729299,1732156729320,1732156729330,1732156729347,1732156729363,1732156729380,1732156729397,1732156729413,1732156729430,1732156729447,1732156729463,1732156729480,1732156729505,1732156729514,1732156729530,1732156729547,1732156729564,1732156729584,1732156729603,1732156729615,1732156729630,1732156729649,1732156729664,1732156729680,1732156729701,1732156729713,1732156729732,1732156729751,1732156729766,1732156729781,1732156729797,1732156729815,1732156729832,1732156729847,1732156729863,1732156729880,1732156729900,1732156729924,1732156729930,1732156729947,1732156729964,1732156729982,1732156729998,1732156730015,1732156730030,1732156730047,1732156730068,1732156730080,1732156730097,1732156730114,1732156730130,1732156730147,1732156730164,1732156730181,1732156730200,1732156730215,1732156730230,1732156730247,1732156730263,1732156730280,1732156730297,1732156730316,1732156730336,1732156730352,1732156730367,1732156730383,1732156730400,1732156730417,1732156730430,1732156730447,1732156730463,1732156730480,1732156730501,1732156730516,1732156730530,1732156730547,1732156730564,1732156730580,1732156730598,1732156730617,1732156730633,1732156730648,1732156730665,1732156730680,1732156730700,1732156730718,1732156730730,1732156730747,1732156730763,1732156730787,1732156730797,1732156730816,1732156730832,1732156730849,1732156730864,1732156730880,1732156730897,1732156730914,1732156730930,1732156730949,1732156730965,1732156730984,1732156731002,1732156731013,1732156731030,1732156731049,1732156731069,1732156731080,1732156731097,1732156731113,1732156731130,1732156731151,1732156731169,1732156731184,1732156731207,1732156731214,1732156731249,1732156731256,1732156731283,1732156731290,1732156731319,1732156731325,1732156731352,1732156731359,1732156731386,1732156731393,1732156731419,1732156731429,1732156731436,1732156731471,1732156731481,1732156731497,1732156731513,1732156731530,1732156731547,1732156731563,1732156731583,1732156731598,1732156731615,1732156731633,1732156731650,1732156731664,1732156731680,1732156731697,1732156731716,1732156731730,1732156731747,1732156731764,1732156731780,1732156731797,1732156731817,1732156731833,1732156731851,1732156731866,1732156731882,1732156731897,1732156731916,1732156731932,1732156731949,1732156731970,1732156731980,1732156731997]","[[941.4,591.1],[941.4,591.1],[958.2,605.7],[955,604.3],[984.8,612.7],[1002.9,620.6],[1027.9,625],[1025.4,621.3],[1037.3,620.6],[1029.8,617.8],[1052.4,618.4],[1073.7,616.6],[1054.9,621.8],[1054.9,621.8],[1050.9,621.2],[1039.7,616.8],[1045.6,608.6],[1045.6,608.6],[1012.7,598.9],[997.1,592.1],[977.2,586.1],[994.9,593.3],[1006.2,601.5],[989.6,601.8],[989.6,601.8],[1013.1,600.8],[987.5,613.3],[993.9,616.8],[980.8,625.7],[1011.8,630.1],[1035.5,635.9],[1060.6,640.2],[1056.4,638.1],[1025.1,628.1],[1052.3,629],[1055.4,629.4],[1079.6,628.3],[1083.9,637.1],[1078.5,643.1],[1050.1,658],[1050.1,667.7],[1050.1,667.7],[1029.3,669.8],[1029.8,679.2],[1054.9,687.8],[1037.6,693.5],[1037.6,693.5],[1020.3,699.2],[1020.3,699.2],[1017,700.7],[1017,700.7],[1015.6,706.9],[1015.6,706.9],[990.7,709.8],[990.7,709.8],[1010.7,714],[1010.7,714],[987.4,703.8],[998.9,703.8],[998.9,703.8],[984.9,701.4],[1001.2,697.6],[1005.2,690.5],[1005.2,690.5],[990.9,693.5],[1023,689.9],[1003,680.3],[1046.3,665.8],[1030.3,656.6],[1030.3,656.6],[1030.2,658.1],[1007,674.5],[1009.2,673.2],[975.1,676.7],[955.7,684.1],[972.7,678],[924,673.5],[944.2,678.9],[937,689.8],[937,689.8],[953.6,679.9],[967.5,677.4],[967.5,677.4],[993.2,663.8],[998.5,659],[1026.5,648.8],[1026.5,648.8],[1022.9,638.6],[1000.4,633.3],[999.7,632.8],[988,612.7],[971.7,592.2],[971.7,592.2],[968.7,596.4],[967.3,595.3],[967.3,595.3],[955.8,578.2],[959.5,568.2],[943.4,557],[964.6,551.8],[987.3,544.7],[987.3,544.7],[1000.2,534.7],[979.4,541.6],[979.4,541.6],[975.9,552.4],[961.9,547],[939.8,543.3],[930.5,565.2],[905.2,584],[875.2,607.4],[875.2,607.4],[837.8,617.5],[810.2,630.6],[810.2,630.6],[823.9,647],[844.5,659.4],[845.4,668.6],[853.6,684.6],[853.9,710.5],[839.8,717.3],[839.8,717.3],[839.8,717.3],[831.2,723],[831.2,723],[839.4,721.8],[839.4,721.8],[865.1,724.1],[865.1,724.1],[886,730.2],[886,730.2],[869.2,723.3],[869.2,723.3],[875.4,708.6],[875.4,708.6],[846.1,702],[816.4,703.9],[847.1,675.9],[890.8,648.9],[890.8,648.9],[920.8,617],[920.8,617],[949.4,598.6],[949.4,598.6],[951.3,592.6],[951.3,592.6],[976.1,579.9],[1014.8,563.7],[1012.2,558.2],[1047.4,542.1],[1047.4,542.1],[1105.3,520],[1102.3,516.9],[1091.8,505],[1108.3,501.7],[1101.3,499.6],[1105.2,488.9],[1084.6,480],[1058.1,486.3],[1065.2,481.5],[1074.3,477.6],[1059.8,485.1],[1053.7,493.6],[1068.6,503.2],[1068.6,503.2],[1039.7,516],[1039.7,516],[1040.7,519.4],[1040.7,519.4],[1036.4,534.4],[1036.4,534.4],[1049,553.7],[1049,553.7],[1057.3,587.8],[1064.3,612.1],[1064.3,612.1],[1054.9,631.4],[1073.4,638.4],[1073.4,647.6],[1061.8,664.7],[1070.1,653.9],[1070.1,653.9],[1068.2,663.3],[1085.7,644.9],[1072.6,618.6],[1070.6,580.3],[1070.6,580.3],[1056,559.5],[1047.9,537.8],[1013.2,514.5],[1000.1,482.6],[977.8,455.3],[979.4,454.8],[985.4,436.4],[968.8,442.5],[963.6,451],[951.6,436.7],[953.1,420],[966,424.1],[985.7,426.8],[985.7,426.8],[982.6,452.7],[986.9,472.3],[981.8,478.9],[954.2,492],[938.7,503.1],[949.7,519.4],[955.5,557.2],[955.4,597.8],[955.4,597.8],[958.6,613.7],[943.9,633.4],[948.3,637.3],[952.8,643.4],[954.6,661.6],[971.9,668.5],[975.6,671.6],[961.8,667.4],[944.5,674.8],[926.8,665.1],[903.7,671.8],[909.5,677.1],[922.8,673.4],[930.5,661.2],[918.6,651],[910.4,658.1],[937.5,658.8],[952.1,650.8],[981.5,620.4],[996.3,627.5],[996.3,627.5],[1018.7,627.1],[1018.7,627.1],[1024,622.5],[1023.5,624.3],[1018.9,629.5],[1027.2,628.9],[1049.5,611.4],[1039.9,607.5],[1032,614.1],[1016.1,626.3],[1011.4,620.7],[1026.2,606.9],[1040.3,596.3],[1036.2,588.4],[1041.8,585.6],[1084.3,578.3],[1093.7,581.2],[1093.7,581.2],[1124.5,571.9],[1127,564.3],[1127,564.3],[1159.3,566],[1185.8,559.3],[1183.7,568.4],[1181.8,577.5],[1184,588.2],[1199.4,596.2],[1177.9,608.7],[1173.8,615],[1154.9,623.8],[1164.3,630.9],[1145.7,628.2],[1142.6,628.5],[1128.2,624.6],[1128.2,624.6],[1120.2,617.8],[1125.3,613.3],[1110.5,613.4],[1110.5,613.4],[1090.8,611.4],[1090.8,611.4],[1083.2,610.7],[1084.1,612],[1085,613.3],[1081.7,624],[1079.5,632.9],[1079.5,632.9],[1096,639],[1096,639],[1071.2,647.5],[1071.2,647.5],[1065.7,645.9],[1065.7,645.9],[1040.2,643.9],[1040.2,643.9],[1039.4,639.1],[1039.4,639.1],[1058,636.4],[1058,636.4],[1058,636.4],[1038.6,634],[1038.6,634],[989.6,645.1],[989.6,645.1],[1003.9,640.3],[978.1,644.3],[987.6,634.6],[969.4,646.7],[995.6,646.2],[1012.3,653.5],[1039.3,663],[1008.8,670.3],[1033.5,666.4],[1033.5,666.4],[1068.1,659.4],[1071.7,635],[1071.7,635],[1090.2,604.4],[1081.7,600.4],[1081.7,600.4],[1117.5,570.2],[1107.6,559.3],[1141.2,535.6],[1101.1,534.4],[1137.8,521.8],[1145.3,520.7],[1141.4,508.9],[1124.7,530.9],[1126.2,540.8],[1079.4,554.3],[1096.7,554.3],[1096.7,554.3],[1078.2,561.1]]","[-0.056692,0.170076]","[0.056692,0.170076]","[0.170076,0.170076]","[-0.170076,-0.170076]","[-0.170076,-0.056692]","[-0.170076,0.056692]","[-0.056692,-0.170076]","[0.056692,-0.170076]","[0.170076,-0.170076]","[-0.056692,-0.056692]","[0.056692,-0.056692]","[0.170076,-0.056692]","[-0.056692,0.056692]","[0.056692,0.056692]","[0.170076,0.056692]",0,0,0,0,1,1,Smartphone,20,20,7,2,70,4,2,70,4
