inst1_resp.keys,inst1_resp.rt,calibrationMouse.x,calibrationMouse.y,calibrationMouse.leftButton,calibrationMouse.midButton,calibrationMouse.rightButton,calibrationClick.x,calibrationClick.y,calibrationClick.leftButton,calibrationClick.midButton,calibrationClick.rightButton,trialsc.thisRepN,trialsc.thisTrialN,trialsc.thisN,trialsc.thisIndex,trialsc.ran,calibration_x,calibration_y,participant,session,date,expName,psychopyVersion,OS,frameRate,ScreenRes_pixels,mouse_2.x,mouse_2.y,mouse_2.leftButton,mouse_2.midButton,mouse_2.rightButton,mouse_2.time,mouse_2.clicked_name,Camera_pixels,mouse.x,mouse.y,mouse.leftButton,mouse.midButton,mouse.rightButton,mouse.time,mouse.clicked_name,Choice,Trial,TrialDuration,MOUSE_GAZE,ET_GAZE,ET_GAZE_x_T,time,unixTime,ET_GAZE_NF,Loc_Bus_label,Loc_Metro_label,Loc_RH_label,Loc_Cost_label,Loc_Travel_label,Loc_Comfort_label,Loc_Bus_cost,Loc_Metro_cost,Loc_RH_cost,Loc_Bus_travel,Loc_Metro_travel,Loc_RH_travel,Loc_Bus_comfort,Loc_Metro_comfort,Loc_RH_comfort,trials.thisRepN,trials.thisTrialN,trials.thisN,trials.thisIndex,trials.ran,Block,Device,RH_cost,RH_travel_time,RH_Comfort,metro_cost,metro_travel_time,metro_Comfort,Bus_cost,Bus_travel_time,Bus_Comfort
space,3.8909,0.283333333,-0.135185185,1,0,0,0.3375,0.35,1,0,0,0,0,0,17,1,0.33,0.33,10,001,2024-11-25_13h15.20.627,Attention_exp_legacy,2023.1.0,Win32,60.24096386,,,,,,,,,,,,,,,,,,,,,,,,,,,,,,,,,,,,,,,,,,,,,,,,,,,,,,,,
,,,,,,,-0.325,0.285185185,1,0,0,0,1,1,7,1,-0.33,0.33,10,001,2024-11-25_13h15.20.627,Attention_exp_legacy,2023.1.0,Win32,60.24096386,,,,,,,,,,,,,,,,,,,,,,,,,,,,,,,,,,,,,,,,,,,,,,,,,,,,,,,,
,,,,,,,-0.697916667,0.307407407,1,0,0,0,2,2,3,1,-0.67,0.33,10,001,2024-11-25_13h15.20.627,Attention_exp_legacy,2023.1.0,Win32,60.24096386,,,,,,,,,,,,,,,,,,,,,,,,,,,,,,,,,,,,,,,,,,,,,,,,,,,,,,,,
,,,,,,,0.689583333,0.627777778,1,0,0,0,3,3,19,1,0.67,0.67,10,001,2024-11-25_13h15.20.627,Attention_exp_legacy,2023.1.0,Win32,60.24096386,,,,,,,,,,,,,,,,,,,,,,,,,,,,,,,,,,,,,,,,,,,,,,,,,,,,,,,,
,,,,,,,-0.336458333,0.685185185,1,0,0,0,4,4,8,1,-0.33,0.67,10,001,2024-11-25_13h15.20.627,Attention_exp_legacy,2023.1.0,Win32,60.24096386,,,,,,,,,,,,,,,,,,,,,,,,,,,,,,,,,,,,,,,,,,,,,,,,,,,,,,,,
,,,,,,,-0.233333333,-0.664814815,1,0,0,0,5,5,9,1,0,-0.67,10,001,2024-11-25_13h15.20.627,Attention_exp_legacy,2023.1.0,Win32,60.24096386,,,,,,,,,,,,,,,,,,,,,,,,,,,,,,,,,,,,,,,,,,,,,,,,,,,,,,,,
,,,,,,,-0.004166667,0.701851852,1,0,0,0,6,6,13,1,0,0.67,10,001,2024-11-25_13h15.20.627,Attention_exp_legacy,2023.1.0,Win32,60.24096386,,,,,,,,,,,,,,,,,,,,,,,,,,,,,,,,,,,,,,,,,,,,,,,,,,,,,,,,
,,,,,,,-0.661458333,-0.031481481,1,0,0,0,7,7,2,1,-0.67,0,10,001,2024-11-25_13h15.20.627,Attention_exp_legacy,2023.1.0,Win32,60.24096386,,,,,,,,,,,,,,,,,,,,,,,,,,,,,,,,,,,,,,,,,,,,,,,,,,,,,,,,
,,,,,,,0.345833333,0.02037037,1,0,0,0,8,8,16,1,0.33,0,10,001,2024-11-25_13h15.20.627,Attention_exp_legacy,2023.1.0,Win32,60.24096386,,,,,,,,,,,,,,,,,,,,,,,,,,,,,,,,,,,,,,,,,,,,,,,,,,,,,,,,
,,,,,,,-0.008333333,-0.277777778,1,0,0,0,9,9,10,1,0,-0.33,10,001,2024-11-25_13h15.20.627,Attention_exp_legacy,2023.1.0,Win32,60.24096386,,,,,,,,,,,,,,,,,,,,,,,,,,,,,,,,,,,,,,,,,,,,,,,,,,,,,,,,
,,,,,,,-0.370833333,-0.325925926,1,0,0,0,10,10,5,1,-0.33,-0.33,10,001,2024-11-25_13h15.20.627,Attention_exp_legacy,2023.1.0,Win32,60.24096386,,,,,,,,,,,,,,,,,,,,,,,,,,,,,,,,,,,,,,,,,,,,,,,,,,,,,,,,
,,,,,,,-0.283333333,0.074074074,1,0,0,0,11,11,6,1,-0.33,0,10,001,2024-11-25_13h15.20.627,Attention_exp_legacy,2023.1.0,Win32,60.24096386,,,,,,,,,,,,,,,,,,,,,,,,,,,,,,,,,,,,,,,,,,,,,,,,,,,,,,,,
,,,,,,,0.264583333,-0.612962963,1,0,0,0,12,12,14,1,0.33,-0.67,10,001,2024-11-25_13h15.20.627,Attention_exp_legacy,2023.1.0,Win32,60.24096386,,,,,,,,,,,,,,,,,,,,,,,,,,,,,,,,,,,,,,,,,,,,,,,,,,,,,,,,
,,,,,,,-0.029166667,0.235185185,1,0,0,0,13,13,12,1,0,0.33,10,001,2024-11-25_13h15.20.627,Attention_exp_legacy,2023.1.0,Win32,60.24096386,,,,,,,,,,,,,,,,,,,,,,,,,,,,,,,,,,,,,,,,,,,,,,,,,,,,,,,,
,,,,,,,-0.60625,-0.377777778,1,0,0,0,14,14,1,1,-0.67,-0.33,10,001,2024-11-25_13h15.20.627,Attention_exp_legacy,2023.1.0,Win32,60.24096386,,,,,,,,,,,,,,,,,,,,,,,,,,,,,,,,,,,,,,,,,,,,,,,,,,,,,,,,
,,,,,,,-0.382291667,-0.716666667,1,0,0,0,15,15,4,1,-0.33,-0.67,10,001,2024-11-25_13h15.20.627,Attention_exp_legacy,2023.1.0,Win32,60.24096386,,,,,,,,,,,,,,,,,,,,,,,,,,,,,,,,,,,,,,,,,,,,,,,,,,,,,,,,
,,,,,,,0.566666667,-0.601851852,1,0,0,0,16,16,20,1,0.67,-0.67,10,001,2024-11-25_13h15.20.627,Attention_exp_legacy,2023.1.0,Win32,60.24096386,,,,,,,,,,,,,,,,,,,,,,,,,,,,,,,,,,,,,,,,,,,,,,,,,,,,,,,,
,,,,,,,0.329166667,0.603703704,1,0,0,0,17,17,18,1,0.33,0.67,10,001,2024-11-25_13h15.20.627,Attention_exp_legacy,2023.1.0,Win32,60.24096386,,,,,,,,,,,,,,,,,,,,,,,,,,,,,,,,,,,,,,,,,,,,,,,,,,,,,,,,
,,,,,,,-0.629166667,-0.67037037,1,0,0,0,18,18,0,1,-0.67,-0.67,10,001,2024-11-25_13h15.20.627,Attention_exp_legacy,2023.1.0,Win32,60.24096386,,,,,,,,,,,,,,,,,,,,,,,,,,,,,,,,,,,,,,,,,,,,,,,,,,,,,,,,
,,,,,,,0.215625,-0.325925926,1,0,0,0,19,19,15,1,0.33,-0.33,10,001,2024-11-25_13h15.20.627,Attention_exp_legacy,2023.1.0,Win32,60.24096386,,,,,,,,,,,,,,,,,,,,,,,,,,,,,,,,,,,,,,,,,,,,,,,,,,,,,,,,
,,,,,,,0.077083333,0.007407407,1,0,0,0,20,20,11,1,0,0,10,001,2024-11-25_13h15.20.627,Attention_exp_legacy,2023.1.0,Win32,60.24096386,,,,,,,,,,,,,,,,,,,,,,,,,,,,,,,,,,,,,,,,,,,,,,,,,,,,,,,,
,,,,,,,,,,,,,,,,,,,10,001,2024-11-25_13h15.20.627,Attention_exp_legacy,2023.1.0,Win32,60.24096386,"[1920,1080]",[0.009375],[-0.49074074074074076],[1],[0],[0],[0.8800000000000026],"[""StartButton""]","[640,480]",[0.06979166666666667],[0.16666666666666666],[1],[0],[0],[5.300100000008939],"[""Metro_label""]",Metro_label,1,6.3216,"[[0.007291666666666667,-0.4703703703703704],[0.007291666666666667,-0.4703703703703704],[0.007291666666666667,-0.4703703703703704],[0.009375,-0.45185185185185184],[0.009375,-0.4425925925925926],[0.010416666666666666,-0.42962962962962964],[0.0125,-0.412962962962963],[0.0125,-0.40555555555555556],[0.0125,-0.39814814814814814],[0.0125,-0.3925925925925926],[0.0125,-0.3888888888888889],[0.0125,-0.387037037037037],[0.0125,-0.37592592592592594],[0.0125,-0.37037037037037035],[0.0125,-0.35555555555555557],[0.0125,-0.3351851851851852],[0.0125,-0.29074074074074074],[0.0125,-0.24814814814814815],[0.0125,-0.2074074074074074],[0.0125,-0.1685185185185185],[0.0125,-0.12407407407407407],[0.0125,-0.08333333333333333],[0.0125,-0.05],[0.0125,-0.014814814814814815],[0.0125,0.009259259259259259],[0.0125,0.027777777777777776],[0.0125,0.04259259259259259],[0.0125,0.05185185185185185],[0.0125,0.06851851851851852],[0.0125,0.07777777777777778],[0.0125,0.08333333333333333],[0.0125,0.08518518518518518],[0.0125,0.09074074074074075],[0.011458333333333333,0.09444444444444444],[0.009375,0.0962962962962963],[0.008333333333333333,0.1],[0.00625,0.1037037037037037],[0.005208333333333333,0.10740740740740741],[0.0020833333333333333,0.11481481481481481],[-0.003125,0.12222222222222222],[-0.007291666666666667,0.12222222222222222],[-0.0125,0.12407407407407407],[-0.016666666666666666,0.12777777777777777],[-0.01875,0.12777777777777777],[-0.021875,0.12777777777777777],[-0.025,0.12777777777777777],[-0.029166666666666667,0.12777777777777777],[-0.03229166666666667,0.1259259259259259],[-0.034375,0.1259259259259259],[-0.035416666666666666,0.1259259259259259],[-0.036458333333333336,0.1259259259259259],[-0.0375,0.1259259259259259],[-0.0375,0.1259259259259259],[-0.03958333333333333,0.12777777777777777],[-0.041666666666666664,0.13333333333333333],[-0.042708333333333334,0.1388888888888889],[-0.04479166666666667,0.1425925925925926],[-0.04479166666666667,0.14814814814814814],[-0.046875,0.15555555555555556],[-0.04791666666666667,0.16111111111111112],[-0.04895833333333333,0.1648148148148148],[-0.04895833333333333,0.16666666666666666],[-0.04895833333333333,0.1685185185185185],[-0.04895833333333333,0.17037037037037037],[-0.04895833333333333,0.17037037037037037],[-0.04895833333333333,0.17037037037037037],[-0.04895833333333333,0.17222222222222222],[-0.04895833333333333,0.17222222222222222],[-0.04895833333333333,0.17592592592592593],[-0.04895833333333333,0.17592592592592593],[-0.04895833333333333,0.17962962962962964],[-0.04895833333333333,0.1814814814814815],[-0.04895833333333333,0.1814814814814815],[-0.04895833333333333,0.1814814814814815],[-0.04895833333333333,0.1814814814814815],[-0.04895833333333333,0.18703703703703703],[-0.04895833333333333,0.18703703703703703],[-0.04791666666666667,0.19444444444444445],[-0.04791666666666667,0.1962962962962963],[-0.04791666666666667,0.19814814814814816],[-0.04791666666666667,0.19814814814814816],[-0.046875,0.2],[-0.046875,0.2],[-0.046875,0.2],[-0.046875,0.2],[-0.04583333333333333,0.20185185185185187],[-0.04375,0.2037037037037037],[-0.042708333333333334,0.2037037037037037],[-0.041666666666666664,0.2037037037037037],[-0.040625,0.2037037037037037],[-0.03958333333333333,0.2037037037037037],[-0.03958333333333333,0.2037037037037037],[-0.03958333333333333,0.2037037037037037],[-0.03958333333333333,0.2037037037037037],[-0.03958333333333333,0.2037037037037037],[-0.03854166666666667,0.2037037037037037],[-0.036458333333333336,0.2037037037037037],[-0.034375,0.2037037037037037],[-0.030208333333333334,0.19814814814814816],[-0.025,0.1962962962962963],[-0.007291666666666667,0.1814814814814815],[0.007291666666666667,0.17037037037037037],[0.022916666666666665,0.15925925925925927],[0.041666666666666664,0.14814814814814814],[0.0625,0.1388888888888889],[0.08854166666666667,0.13148148148148148],[0.11770833333333333,0.1259259259259259],[0.16041666666666668,0.1259259259259259],[0.1875,0.13148148148148148],[0.20104166666666667,0.13703703703703704],[0.23229166666666667,0.15555555555555556],[0.265625,0.17592592592592593],[0.296875,0.2],[0.30833333333333335,0.20925925925925926],[0.3145833333333333,0.21481481481481482],[0.31666666666666665,0.21851851851851853],[0.32083333333333336,0.22037037037037038],[0.32083333333333336,0.2222222222222222],[0.32083333333333336,0.2222222222222222],[0.32083333333333336,0.2222222222222222],[0.32083333333333336,0.2222222222222222],[0.32083333333333336,0.2222222222222222],[0.32083333333333336,0.2222222222222222],[0.32083333333333336,0.2222222222222222],[0.31666666666666665,0.22407407407407406],[0.30416666666666664,0.22962962962962963],[0.284375,0.24074074074074073],[0.2635416666666667,0.2518518518518518],[0.24895833333333334,0.26296296296296295],[0.24479166666666666,0.27037037037037037],[0.24166666666666667,0.2777777777777778],[0.2375,0.2833333333333333],[0.23229166666666667,0.29259259259259257],[0.22916666666666666,0.29259259259259257],[0.228125,0.29444444444444445],[0.22604166666666667,0.29444444444444445],[0.221875,0.29444444444444445],[0.21666666666666667,0.29444444444444445],[0.21041666666666667,0.29444444444444445],[0.20104166666666667,0.28888888888888886],[0.19479166666666667,0.2814814814814815],[0.18854166666666666,0.2759259259259259],[0.18020833333333333,0.26851851851851855],[0.17083333333333334,0.2611111111111111],[0.16145833333333334,0.2574074074074074],[0.15208333333333332,0.2574074074074074],[0.15,0.2574074074074074],[0.14583333333333334,0.2574074074074074],[0.1375,0.2574074074074074],[0.13229166666666667,0.2574074074074074],[0.12916666666666668,0.2574074074074074],[0.121875,0.2537037037037037],[0.1125,0.24074074074074073],[0.11041666666666666,0.23703703703703705],[0.109375,0.23703703703703705],[0.10833333333333334,0.23703703703703705],[0.10833333333333334,0.23703703703703705],[0.10520833333333333,0.2351851851851852],[0.1,0.2351851851851852],[0.09270833333333334,0.22962962962962963],[0.08020833333333334,0.21851851851851853],[0.071875,0.2074074074074074],[0.065625,0.2],[0.06145833333333333,0.19444444444444445],[0.057291666666666664,0.18888888888888888],[0.05520833333333333,0.18703703703703703],[0.05520833333333333,0.18703703703703703],[0.05520833333333333,0.18703703703703703],[0.05520833333333333,0.18703703703703703],[0.05520833333333333,0.18703703703703703],[0.05520833333333333,0.18703703703703703],[0.05520833333333333,0.18703703703703703],[0.05520833333333333,0.18703703703703703],[0.05520833333333333,0.18703703703703703],[0.05416666666666667,0.18518518518518517],[0.053125,0.18333333333333332],[0.052083333333333336,0.18333333333333332],[0.052083333333333336,0.18333333333333332],[0.051041666666666666,0.17962962962962964],[0.051041666666666666,0.17962962962962964],[0.051041666666666666,0.17962962962962964],[0.051041666666666666,0.17777777777777778],[0.051041666666666666,0.17777777777777778],[0.051041666666666666,0.17777777777777778],[0.051041666666666666,0.17407407407407408],[0.051041666666666666,0.17407407407407408],[0.051041666666666666,0.17407407407407408],[0.051041666666666666,0.17407407407407408],[0.051041666666666666,0.17407407407407408],[0.051041666666666666,0.17407407407407408],[0.051041666666666666,0.17407407407407408],[0.051041666666666666,0.17407407407407408],[0.051041666666666666,0.17407407407407408],[0.051041666666666666,0.17407407407407408],[0.051041666666666666,0.17407407407407408],[0.051041666666666666,0.17407407407407408],[0.051041666666666666,0.17407407407407408],[0.051041666666666666,0.17222222222222222],[0.051041666666666666,0.17222222222222222],[0.05416666666666667,0.17222222222222222],[0.05520833333333333,0.17222222222222222],[0.057291666666666664,0.17222222222222222],[0.058333333333333334,0.17407407407407408],[0.0625,0.17592592592592593],[0.06875,0.17777777777777778],[0.07708333333333334,0.17962962962962964],[0.103125,0.1814814814814815],[0.13333333333333333,0.1814814814814815],[0.17291666666666666,0.1814814814814815],[0.20520833333333333,0.1814814814814815],[0.228125,0.17592592592592593],[0.24375,0.1685185185185185],[0.253125,0.16111111111111112],[0.25729166666666664,0.15925925925925927],[0.259375,0.15925925925925927],[0.259375,0.15925925925925927],[0.259375,0.15925925925925927],[0.259375,0.1574074074074074],[0.259375,0.1574074074074074],[0.259375,0.1537037037037037],[0.259375,0.15],[0.25833333333333336,0.14629629629629629],[0.25625,0.1425925925925926],[0.2552083333333333,0.1388888888888889],[0.2520833333333333,0.12777777777777777],[0.24895833333333334,0.11851851851851852],[0.24895833333333334,0.11666666666666667],[0.24895833333333334,0.11666666666666667],[0.24895833333333334,0.11666666666666667],[0.24895833333333334,0.11666666666666667],[0.24895833333333334,0.11666666666666667],[0.24583333333333332,0.11666666666666667],[0.24270833333333333,0.12407407407407407],[0.23958333333333334,0.12962962962962962],[0.23229166666666667,0.13703703703703704],[0.225,0.14074074074074075],[0.21145833333333333,0.14629629629629629],[0.19479166666666667,0.15],[0.17291666666666666,0.1537037037037037],[0.15104166666666666,0.1574074074074074],[0.12291666666666666,0.16296296296296298],[0.1125,0.1648148148148148],[0.09270833333333334,0.17222222222222222],[0.08645833333333333,0.17222222222222222],[0.07083333333333333,0.17777777777777778],[0.059375,0.18333333333333332],[0.04895833333333333,0.18703703703703703],[0.03958333333333333,0.19444444444444445],[0.030208333333333334,0.19814814814814816],[0.023958333333333335,0.20185185185185187],[0.020833333333333332,0.20185185185185187],[0.016666666666666666,0.20555555555555555],[0.015625,0.20555555555555555],[0.014583333333333334,0.20555555555555555],[0.014583333333333334,0.20555555555555555],[0.014583333333333334,0.20555555555555555],[0.014583333333333334,0.20555555555555555],[0.014583333333333334,0.20555555555555555],[0.014583333333333334,0.20555555555555555],[0.014583333333333334,0.20555555555555555],[0.014583333333333334,0.20555555555555555],[0.014583333333333334,0.20555555555555555],[0.014583333333333334,0.20555555555555555],[0.014583333333333334,0.20555555555555555],[0.014583333333333334,0.20555555555555555],[0.014583333333333334,0.20555555555555555],[0.014583333333333334,0.20555555555555555],[0.014583333333333334,0.20555555555555555],[0.016666666666666666,0.20555555555555555],[0.027083333333333334,0.2037037037037037],[0.04583333333333333,0.19444444444444445],[0.06770833333333333,0.18703703703703703],[0.0875,0.18333333333333332],[0.10520833333333333,0.17777777777777778],[0.11458333333333333,0.17592592592592593],[0.12083333333333333,0.17407407407407408],[0.125,0.17037037037037037],[0.12604166666666666,0.17037037037037037],[0.12604166666666666,0.17037037037037037],[0.12604166666666666,0.17037037037037037],[0.12604166666666666,0.17037037037037037],[0.12604166666666666,0.17037037037037037],[0.12604166666666666,0.17037037037037037],[0.12604166666666666,0.1685185185185185],[0.12604166666666666,0.1685185185185185],[0.12604166666666666,0.1648148148148148],[0.12604166666666666,0.16111111111111112],[0.121875,0.1574074074074074],[0.11770833333333333,0.15555555555555556],[0.11458333333333333,0.15185185185185185],[0.11041666666666666,0.15185185185185185],[0.10833333333333334,0.15],[0.10520833333333333,0.15],[0.10520833333333333,0.15],[0.103125,0.15],[0.10208333333333333,0.15],[0.10104166666666667,0.15],[0.10104166666666667,0.15],[0.1,0.15185185185185185],[0.1,0.15185185185185185],[0.09895833333333333,0.15185185185185185],[0.09791666666666667,0.1537037037037037],[0.096875,0.1537037037037037],[0.09270833333333334,0.1537037037037037],[0.08958333333333333,0.1574074074074074],[0.08541666666666667,0.15925925925925927],[0.08125,0.16111111111111112],[0.07708333333333334,0.16296296296296298],[0.07395833333333333,0.1648148148148148],[0.071875,0.1648148148148148],[0.07083333333333333,0.16666666666666666],[0.07083333333333333,0.16666666666666666],[0.06979166666666667,0.16666666666666666],[0.06979166666666667,0.16666666666666666],[0.06979166666666667,0.16666666666666666],[0.06979166666666667,0.16666666666666666],[0.06979166666666667,0.16666666666666666],[0.06979166666666667,0.16666666666666666],[0.06979166666666667,0.16666666666666666],[0.06979166666666667,0.1685185185185185],[0.06979166666666667,0.1685185185185185],[0.06979166666666667,0.1685185185185185],[0.06979166666666667,0.1685185185185185],[0.06979166666666667,0.1685185185185185],[0.06979166666666667,0.1685185185185185],[0.06979166666666667,0.1685185185185185],[0.06979166666666667,0.1685185185185185],[0.06979166666666667,0.1685185185185185],[0.06875,0.1685185185185185],[0.06770833333333333,0.1685185185185185],[0.06666666666666667,0.1685185185185185],[0.06666666666666667,0.1685185185185185],[0.06666666666666667,0.1685185185185185],[0.06666666666666667,0.1685185185185185],[0.06666666666666667,0.1685185185185185],[0.06666666666666667,0.1685185185185185],[0.06666666666666667,0.1685185185185185],[0.06666666666666667,0.1685185185185185],[0.06666666666666667,0.1685185185185185],[0.06666666666666667,0.1685185185185185],[0.06666666666666667,0.1685185185185185],[0.06666666666666667,0.1685185185185185],[0.06666666666666667,0.1685185185185185],[0.06666666666666667,0.1685185185185185],[0.06666666666666667,0.1685185185185185],[0.06666666666666667,0.1685185185185185],[0.06666666666666667,0.1685185185185185],[0.06666666666666667,0.1685185185185185],[0.06666666666666667,0.1685185185185185],[0.06666666666666667,0.1685185185185185],[0.06666666666666667,0.1685185185185185],[0.06666666666666667,0.1685185185185185],[0.06666666666666667,0.1685185185185185],[0.06666666666666667,0.1685185185185185],[0.06666666666666667,0.1685185185185185],[0.06666666666666667,0.1685185185185185],[0.06666666666666667,0.1685185185185185],[0.06666666666666667,0.1685185185185185],[0.06666666666666667,0.1685185185185185],[0.06666666666666667,0.1685185185185185],[0.06666666666666667,0.1685185185185185],[0.06666666666666667,0.1685185185185185],[0.06666666666666667,0.1685185185185185],[0.06666666666666667,0.1685185185185185],[0.06666666666666667,0.1685185185185185],[0.06666666666666667,0.1685185185185185],[0.06666666666666667,0.1685185185185185],[0.06666666666666667,0.1685185185185185],[0.06666666666666667,0.1685185185185185],[0.06666666666666667,0.1685185185185185],[0.06666666666666667,0.1685185185185185],[0.06666666666666667,0.1685185185185185],[0.06666666666666667,0.1685185185185185],[0.06666666666666667,0.1685185185185185],[0.06666666666666667,0.1685185185185185],[0.06666666666666667,0.1685185185185185],[0.06666666666666667,0.1685185185185185],[0.06666666666666667,0.1685185185185185],[0.06666666666666667,0.1685185185185185]]","[[0.6160416666666667,-0.22370370370370374],[0.6160416666666667,-0.22370370370370374],[0.6332291666666667,-0.16370370370370366],[0.6436458333333335,-0.16370370370370366],[0.6436458333333335,-0.16370370370370366],[0.5769791666666667,-0.08907407407407411],[0.5769791666666667,-0.08907407407407411],[0.4883333333333333,-0.04222222222222214],[0.42552083333333335,0.012592592592592508],[0.42552083333333335,0.012592592592592508],[0.3841666666666666,0.026666666666666623],[0.32750000000000007,0.11703703703703712],[0.2875,0.2125925925925925],[0.23041666666666671,0.325],[0.1478125000000001,0.3683333333333333],[0.08708333333333323,0.39759259259259266],[-0.002812500000000047,0.4022222222222223],[-0.02020833333333331,0.4118518518518518],[-0.0009374999999999763,0.3651851851851853],[-0.01572916666666669,0.3774074074074073],[-0.024270833333333287,0.38796296296296295],[-0.026979166666666644,0.3394444444444444],[-0.035625000000000046,0.27037037037037037],[-0.04864583333333338,0.21722222222222215],[-0.043020833333333286,0.22759259259259254],[-0.034375,0.17851851851851847],[-0.03093750000000005,0.18777777777777774],[-0.04104166666666664,0.15685185185185194],[-0.03854166666666667,0.18777777777777774],[-0.03781249999999995,0.11925925925925922],[-0.04874999999999995,0.08666666666666659],[-0.05645833333333338,0.144074074074074],[-0.03125,0.13759259259259252],[-0.02833333333333338,0.11037037037037041],[-0.004270833333333357,0.06074074074074066],[0.026145833333333358,0.075],[0.07927083333333323,0.08074074074074078],[0.11708333333333343,0.08555555555555563],[0.11666666666666667,0.11277777777777774],[0.18114583333333342,0.14518518518518514],[0.21416666666666656,0.1772222222222223],[0.2882291666666667,0.18037037037037032],[0.2672916666666666,0.14574074074074084],[0.23104166666666662,0.14685185185185176],[0.18364583333333329,0.0705555555555556],[0.13208333333333327,0.005555555555555556],[0.044375000000000026,-0.0824074074074074],[0.044375000000000026,-0.0824074074074074],[-0.019166666666666644,-0.13296296296296298],[-0.05239583333333329,-0.2366666666666667],[-0.14635416666666667,-0.27629629629629626],[-0.19802083333333337,-0.33259259259259266],[-0.2846874999999999,-0.4398148148148148],[-0.3115625,-0.4581481481481481],[-0.2768749999999999,-0.4837037037037037],[-0.22760416666666666,-0.42296296296296293],[-0.19927083333333329,-0.40425925925925926],[-0.13489583333333333,-0.37166666666666665],[-0.06927083333333334,-0.3727777777777778],[-0.0171875,-0.32814814814814813],[-0.0171875,-0.32814814814814813],[0.03947916666666664,-0.30833333333333335],[0.07885416666666671,-0.2783333333333334],[0.07885416666666671,-0.2783333333333334],[0.09041666666666662,-0.2494444444444444],[0.13468749999999996,-0.18351851851851855],[0.06739583333333338,-0.14777777777777779],[0.04624999999999998,-0.13851851851851854],[0.04739583333333333,-0.10740740740740741],[0.04864583333333338,-0.059814814814814835],[0.01572916666666669,-0.04351851851851852],[-0.006562499999999953,-0.04592592592592584],[-0.04802083333333336,-0.04277777777777782],[-0.07864583333333333,-0.03314814814814811],[-0.07895833333333328,-0.023148148148148147],[-0.0875,-0.05240740740740743],[-0.04791666666666667,-0.05499999999999998],[-0.02000000000000005,-0.01648148148148144],[-0.03697916666666667,-0.02833333333333325],[-0.03697916666666667,-0.02833333333333325],[-0.05427083333333336,-0.07481481481481478],[-0.01270833333333338,-0.07999999999999997],[-0.0203125,-0.1081481481481481],[-0.016666666666666666,-0.1081481481481481],[-0.019895833333333356,-0.14166666666666666],[-0.03145833333333338,-0.1574074074074074],[-0.08229166666666667,-0.18888888888888888],[-0.08229166666666667,-0.18888888888888888],[-0.07906249999999998,-0.2190740740740741],[-0.11270833333333338,-0.2898148148148148],[-0.11104166666666669,-0.3244444444444444],[-0.09260416666666664,-0.3338888888888889],[-0.10916666666666662,-0.35462962962962963],[-0.103125,-0.34629629629629627],[-0.11927083333333334,-0.36018518518518516],[-0.12854166666666664,-0.3405555555555555],[-0.11343749999999998,-0.36925925925925923],[-0.11364583333333336,-0.3811111111111111],[-0.11083333333333331,-0.365925925925926],[-0.075,-0.3242592592592593],[-0.07729166666666672,-0.3122222222222223],[-0.1414583333333333,-0.33111111111111113],[-0.18843749999999998,-0.357962962962963],[-0.2373958333333333,-0.3574074074074074],[-0.22229166666666664,-0.3846296296296296],[-0.20718749999999997,-0.4118518518518518],[-0.21062500000000003,-0.4172222222222222],[-0.16760416666666664,-0.3718518518518519],[-0.1648958333333333,-0.3642592592592592],[-0.18875000000000006,-0.36944444444444446],[-0.18875000000000006,-0.36944444444444446],[-0.19145833333333329,-0.34314814814814815],[-0.10552083333333329,-0.2861111111111111],[-0.036562500000000026,-0.22259259259259256],[0.05291666666666662,-0.18796296296296297],[0.07999999999999995,-0.1646296296296296],[0.10697916666666671,-0.1542592592592593],[0.10697916666666671,-0.1542592592592593],[0.13729166666666662,-0.1418518518518519],[0.18104166666666663,-0.1301851851851852],[0.22458333333333325,-0.15],[0.26979166666666665,-0.14888888888888885],[0.3178124999999999,-0.1383333333333333],[0.3576041666666666,-0.14814814814814814],[0.36739583333333337,-0.1514814814814815],[0.3844791666666666,-0.23555555555555555],[0.41468749999999993,-0.26537037037037037],[0.41520833333333323,-0.2718518518518519],[0.43291666666666656,-0.2270370370370371],[0.43291666666666656,-0.2270370370370371],[0.4179166666666667,-0.2627777777777777],[0.42302083333333323,-0.2705555555555556],[0.4001041666666666,-0.2927777777777778],[0.3793750000000001,-0.3274074074074074],[0.3233333333333334,-0.36574074074074076],[0.3233333333333334,-0.36574074074074076],[0.30885416666666665,-0.39592592592592596],[0.30885416666666665,-0.39592592592592596],[0.28072916666666664,-0.32629629629629625],[0.25145833333333345,-0.2918518518518519],[0.25322916666666656,-0.28185185185185185],[0.23104166666666662,-0.32222222222222224],[0.23104166666666662,-0.32222222222222224],[0.2196875000000001,-0.31555555555555553],[0.20260416666666667,-0.28703703703703703],[0.21208333333333323,-0.2707407407407407],[0.21208333333333323,-0.2707407407407407],[0.1962500000000001,-0.255],[0.1857291666666666,-0.22907407407407404],[0.1857291666666666,-0.22907407407407404],[0.178125,-0.25333333333333335],[0.2037499999999999,-0.30351851851851847],[0.19802083333333323,-0.3383333333333333],[0.17958333333333343,-0.3592592592592593],[0.16687500000000005,-0.3592592592592593],[0.14854166666666657,-0.37296296296296294],[0.1196875000000001,-0.41203703703703703],[0.09572916666666677,-0.44055555555555553],[0.08927083333333338,-0.4762962962962963],[0.10020833333333339,-0.49018518518518517],[0.06645833333333329,-0.4885185185185185],[0.04552083333333338,-0.44296296296296295],[0.050625000000000024,-0.4388888888888889],[0.04729166666666664,-0.4190740740740741],[0.035312499999999976,-0.43203703703703705],[0.035312499999999976,-0.43203703703703705],[0.02322916666666662,-0.4212962962962963],[0.02322916666666662,-0.4212962962962963],[0.02635416666666662,-0.4257407407407407],[0.02010416666666662,-0.4148148148148148],[0.030729166666666665,-0.40685185185185185],[0.019479166666666714,-0.3933333333333333],[0.021249999999999977,-0.40185185185185185],[-0.028854166666666715,-0.4564814814814815],[-0.07895833333333328,-0.4601851851851852],[-0.07916666666666666,-0.46222222222222226],[-0.09541666666666669,-0.4759259259259259],[-0.08406250000000005,-0.4948148148148148],[-0.06156250000000003,-0.5075925925925926],[-0.07593749999999998,-0.5048148148148148],[-0.08552083333333335,-0.48055555555555557],[-0.07927083333333336,-0.45629629629629626],[-0.08177083333333333,-0.42592592592592593],[-0.06385416666666661,-0.37],[-0.03156249999999995,-0.32833333333333337],[-0.01593749999999995,-0.29611111111111105],[-0.000833333333333286,-0.2698148148148148],[0.00604166666666662,-0.25166666666666665],[-0.016979166666666618,-0.22148148148148153],[-0.0007291666666667141,-0.21944444444444444],[-0.00947916666666669,-0.2572222222222222],[-0.0140625,-0.29314814814814816],[0.008958333333333356,-0.29314814814814816],[0.029791666666666692,-0.3081481481481481],[0.03093750000000005,-0.3418518518518519],[0.025312499999999953,-0.3685185185185185],[0.050833333333333286,-0.35851851851851857],[0.0484375,-0.3638888888888889],[0.05927083333333331,-0.3381481481481482],[0.06802083333333328,-0.3177777777777778],[0.06802083333333328,-0.3177777777777778],[0.06593749999999995,-0.3087037037037037],[0.04833333333333331,-0.32888888888888895],[0.049374999999999974,-0.33370370370370367],[0.04635416666666667,-0.35185185185185186],[0.042812500000000024,-0.3198148148148148],[0.016770833333333356,-0.33185185185185184],[0.0009374999999999763,-0.3303703703703703],[-0.021458333333333357,-0.3388888888888889],[-0.03114583333333331,-0.3320370370370371],[-0.01895833333333338,-0.33666666666666667],[0.015208333333333357,-0.30092592592592593],[0.010520833333333358,-0.28055555555555556],[-0.014479166666666644,-0.27555555555555555],[-0.016354166666666715,-0.24888888888888885],[0.02666666666666669,-0.27981481481481485],[0.06635416666666671,-0.2855555555555555],[0.0740624999999999,-0.30388888888888893],[0.07937500000000004,-0.26777777777777784],[0.09427083333333333,-0.26351851851851854],[0.1015625,-0.2640740740740741],[0.1015625,-0.2640740740740741],[0.11124999999999995,-0.2983333333333334],[0.12885416666666671,-0.29203703703703704],[0.14645833333333325,-0.28574074074074074],[0.15875000000000009,-0.3007407407407407],[0.1146874999999999,-0.25981481481481483],[0.09104166666666676,-0.24000000000000005],[0.08197916666666671,-0.1955555555555556],[0.08781249999999995,-0.18648148148148147],[0.08854166666666667,-0.18074074074074079],[0.07374999999999995,-0.16592592592592598],[0.0655208333333333,-0.125],[0.08677083333333328,-0.1264814814814815],[0.10989583333333333,-0.1],[0.11197916666666667,-0.09888888888888885],[0.12281250000000009,-0.09222222222222225],[0.12281250000000009,-0.09222222222222225],[0.13250000000000003,-0.060370370370370414],[0.13802083333333334,-0.072037037037037],[0.1466666666666666,-0.06277777777777774],[0.1443749999999999,-0.09203703703703701],[0.16822916666666668,-0.09944444444444442],[0.16822916666666668,-0.09944444444444442],[0.17114583333333327,-0.1022222222222222],[0.17916666666666667,-0.12296296296296293],[0.17520833333333338,-0.1425925925925926],[0.1834374999999999,-0.11444444444444446],[0.20104166666666667,-0.11833333333333329],[0.19729166666666675,-0.1418518518518519],[0.23104166666666662,-0.11666666666666667],[0.25666666666666677,-0.1022222222222222],[0.2760416666666667,-0.059814814814814835],[0.27291666666666664,-0.027407407407407325],[0.24895833333333334,-0.036666666666666584],[0.2413541666666667,-0.007407407407407408],[0.2259375000000001,-0.03759259259259251],[0.21729166666666658,-0.06314814814814819],[0.19416666666666677,-0.1007407407407407],[0.19239583333333338,-0.11870370370370374],[0.16927083333333334,-0.15462962962962962],[0.12166666666666662,-0.19462962962962968],[0.08979166666666671,-0.22666666666666663],[0.05427083333333336,-0.2705555555555556],[0.04083333333333338,-0.2959259259259259],[0.03187500000000002,-0.30333333333333334],[0.023958333333333335,-0.27629629629629626],[0.0014583333333333095,-0.28481481481481485],[-0.006562499999999953,-0.28129629629629627],[-0.006562499999999953,-0.2662962962962963],[-0.022395833333333334,-0.2588888888888889],[0.01229166666666662,-0.25092592592592594],[0.029270833333333357,-0.23037037037037034],[0.03812500000000003,-0.225],[0.07385416666666676,-0.1853703703703704],[0.08510416666666672,-0.167037037037037],[0.09697916666666657,-0.17296296296296293],[0.10364583333333334,-0.16407407407407412],[0.11687500000000005,-0.13333333333333333],[0.12208333333333338,-0.11407407407407412],[0.11416666666666657,-0.11925925925925922],[0.10510416666666676,-0.12129629629629629],[0.08958333333333333,-0.14296296296296293],[0.09156250000000009,-0.14759259259259258],[0.09156250000000009,-0.14759259259259258],[0.06666666666666667,-0.16148148148148145],[0.059583333333333384,-0.1983333333333334],[0.0640625,-0.16574074074074074],[0.08989583333333329,-0.10999999999999996],[0.10916666666666662,-0.07611111111111116],[0.07906250000000009,-0.10240740740740743],[0.07906250000000009,-0.10240740740740743],[0.06489583333333329,-0.11018518518518519],[0.06177083333333329,-0.1374074074074074],[0.07583333333333328,-0.15796296296296297],[0.07625000000000005,-0.1412962962962963],[0.0834374999999999,-0.11500000000000005],[0.05343749999999995,-0.07814814814814813],[0.04479166666666667,-0.0824074074074074],[0.01395833333333331,-0.1190740740740741],[0.01395833333333331,-0.1190740740740741],[-0.0296875,-0.1764814814814815],[-0.025833333333333285,-0.1933333333333333],[-0.017812500000000023,-0.1787037037037037],[-0.03822916666666672,-0.15722222222222218],[-0.05802083333333338,-0.13481481481481483],[-0.06364583333333336,-0.1287037037037037],[-0.06364583333333336,-0.13629629629629633],[-0.030104166666666644,-0.1301851851851852],[-0.013229166666666714,-0.13222222222222219],[-0.013229166666666714,-0.13222222222222219],[-0.009062500000000048,-0.14203703703703702],[-0.003541666666666643,-0.14611111111111108],[0.011458333333333333,-0.15259259259259256],[0.015312500000000047,-0.12666666666666662],[0.016666666666666666,-0.09796296296296292],[0.016666666666666666,-0.09796296296296292],[0.018020833333333285,-0.06925925925925921],[0.008958333333333356,-0.09370370370370375],[0.00916666666666662,-0.09981481481481477],[-0.004791666666666691,-0.10722222222222218],[-0.041562499999999974,-0.14370370370370375],[-0.041562499999999974,-0.14370370370370375],[-0.035104166666666714,-0.14388888888888887],[-0.0171875,-0.12907407407407406],[-0.02052083333333338,-0.0940740740740741],[-0.004166666666666667,-0.13296296296296298],[-0.001145833333333357,-0.17407407407407408],[0.01072916666666662,-0.19296296296296295],[0.02312500000000005,-0.1814814814814815],[0.01895833333333338,-0.2044444444444444],[0.02177083333333331,-0.21425925925925923],[0.03802083333333333,-0.19518518518518516],[0.03802083333333333,-0.19518518518518516],[0.024583333333333356,-0.19537037037037036],[0.024583333333333356,-0.19537037037037036],[0.036458333333333336,-0.1977777777777778],[0.06197916666666667,-0.1983333333333334],[0.06197916666666667,-0.19000000000000003],[0.07291666666666667,-0.1868518518518518],[0.07739583333333329,-0.1985185185185185],[0.08562500000000005,-0.20037037037037034],[0.09947916666666666,-0.1809259259259259],[0.08822916666666672,-0.19092592592592597],[0.08677083333333328,-0.202962962962963],[0.08312499999999995,-0.22296296296296292],[0.0740624999999999,-0.20611111111111113],[0.04666666666666662,-0.23074074074074077],[0.04666666666666662,-0.23074074074074077],[0.03125,-0.227962962962963],[0.01583333333333338,-0.21740740740740735],[-0.001979166666666643,-0.21425925925925923],[-0.019687499999999976,-0.2207407407407407],[-0.03239583333333336,-0.24018518518518517],[-0.01854166666666662,-0.23166666666666672],[-0.015625,-0.205],[-0.005729166666666666,-0.17481481481481478],[-0.01572916666666669,-0.17925925925925928],[0.022083333333333382,-0.13777777777777775],[0.06427083333333337,-0.1205555555555556],[0.09395833333333338,-0.12296296296296293],[0.12364583333333339,-0.12537037037037035],[0.1462500000000001,-0.12740740740740744],[0.15916666666666662,-0.11962962962962967],[0.16364583333333324,-0.1235185185185185],[0.19916666666666671,-0.1242592592592593],[0.23645833333333333,-0.10925925925925926],[0.24770833333333328,-0.11481481481481481],[0.2547916666666666,-0.12018518518518514],[0.2490624999999999,-0.11796296296296294],[0.24791666666666667,-0.10703703703703706],[0.23822916666666671,-0.09759259259259258],[0.22552083333333334,-0.08444444444444449],[0.22291666666666668,-0.05851851851851856],[0.21145833333333333,-0.04092592592592597],[0.1875,-0.04518518518518514],[0.17708333333333334,-0.03981481481481482],[0.175,-0.027222222222222307],[0.15031249999999996,-0.03944444444444436]]","[[0.6160416666666667,-0.22370370370370374,0.00020000000297670795],[0.6160416666666667,-0.22370370370370374,0.04309999999404113],[0.6332291666666667,-0.16370370370370366,0.05529999999701829],[0.6436458333333335,-0.16370370370370366,0.07570000000298194],[0.6436458333333335,-0.16370370370370366,0.08849999999999625],[0.5769791666666667,-0.08907407407407411,0.10520000000298069],[0.5769791666666667,-0.08907407407407411,0.12189999999105794],[0.4883333333333333,-0.04222222222222214,0.1408999999910563],[0.42552083333333335,0.012592592592592508,0.15520000000297784],[0.42552083333333335,0.012592592592592508,0.1718999999910551],[0.3841666666666666,0.026666666666666623,0.19109999999403726],[0.32750000000000007,0.11703703703703712,0.20589999999106112],[0.2875,0.2125925925925925,0.2245999999940409],[0.23041666666666671,0.325,0.24039999999105532],[0.1478125000000001,0.3683333333333333,0.25520000000297927],[0.08708333333333323,0.39759259259259266,0.27209999999404033],[-0.002812500000000047,0.4022222222222223,0.28839999999105714],[-0.02020833333333331,0.4118518518518518,0.3068999999910602],[-0.0009374999999999763,0.3651851851851853,0.3218999999910608],[-0.01572916666666669,0.3774074074074073,0.3385999999940381],[-0.024270833333333287,0.38796296296296295,0.3577999999970203],[-0.026979166666666644,0.3394444444444444,0.3744999999999976],[-0.035625000000000046,0.27037037037037037,0.3887999999970191],[-0.04864583333333338,0.21722222222222215,0.4050999999940359],[-0.043020833333333286,0.22759259259259254,0.42520000000298097],[-0.034375,0.17851851851851847,0.4390999999940419],[-0.03093750000000005,0.18777777777777774,0.45529999999701687],[-0.04104166666666664,0.15685185185185194,0.47370000000297807],[-0.03854166666666667,0.18777777777777774,0.4885999999940367],[-0.03781249999999995,0.11925925925925922,0.5050999999940373],[-0.04874999999999995,0.08666666666666659,0.5218999999910565],[-0.05645833333333338,0.144074074074074,0.5418999999910596],[-0.03125,0.13759259259259252,0.5580999999940417],[-0.02833333333333338,0.11037037037037041,0.5730000000000004],[-0.004270833333333357,0.06074074074074066,0.5887000000029801],[0.026145833333333358,0.075,0.6069999999999993],[0.07927083333333323,0.08074074074074078,0.6217999999970161],[0.11708333333333343,0.08555555555555563,0.6385000000000005],[0.11666666666666667,0.11277777777777774,0.6582999999970198],[0.18114583333333342,0.14518518518518514,0.6723999999910575],[0.21416666666666656,0.1772222222222223,0.6890000000000001],[0.2882291666666667,0.18037037037037032,0.7072000000029774],[0.2672916666666666,0.14574074074074084,0.7217999999970175],[0.23104166666666662,0.14685185185185176,0.7387000000029786],[0.18364583333333329,0.0705555555555556,0.7552000000029793],[0.13208333333333327,0.005555555555555556,0.7752999999970172],[0.044375000000000026,-0.0824074074074074,0.7902999999970177],[0.044375000000000026,-0.0824074074074074,0.8052000000029764],[-0.019166666666666644,-0.13296296296296298,0.8218999999910608],[-0.05239583333333329,-0.2366666666666667,0.8404999999999987],[-0.14635416666666667,-0.27629629629629626,0.8554999999999993],[-0.19802083333333337,-0.33259259259259266,0.8718999999910579],[-0.2846874999999999,-0.4398148148148148,0.8882999999970167],[-0.3115625,-0.4581481481481481,0.9080000000000013],[-0.2768749999999999,-0.4837037037037037,0.9230000000000018],[-0.22760416666666666,-0.42296296296296293,0.9384999999999977],[-0.19927083333333329,-0.40425925925925926,0.9598999999910589],[-0.13489583333333333,-0.37166666666666665,0.974499999999999],[-0.06927083333333334,-0.3727777777777778,0.9897000000029763],[-0.0171875,-0.32814814814814813,1.0097000000029794],[-0.0171875,-0.32814814814814813,1.0218999999910565],[0.03947916666666664,-0.30833333333333335,1.038499999999999],[0.07885416666666671,-0.2783333333333334,1.060200000002979],[0.07885416666666671,-0.2783333333333334,1.071799999997019],[0.09041666666666662,-0.2494444444444444,1.0883999999910614],[0.13468749999999996,-0.18351851851851855,1.104899999991055],[0.06739583333333338,-0.14777777777777779,1.1237999999970185],[0.04624999999999998,-0.13851851851851854,1.1382999999970167],[0.04739583333333333,-0.10740740740740741,1.1553999999910616],[0.04864583333333338,-0.059814814814814835,1.1747999999970204],[0.01572916666666669,-0.04351851851851852,1.1913999999910558],[-0.006562499999999953,-0.04592592592592584,1.2050999999940402],[-0.04802083333333336,-0.04277777777777782,1.2215999999940408],[-0.07864583333333333,-0.03314814814814811,1.2382999999970181],[-0.07895833333333328,-0.023148148148148147,1.2550999999940373],[-0.0875,-0.05240740740740743,1.27470000000298],[-0.04791666666666667,-0.05499999999999998,1.2897000000029806],[-0.02000000000000005,-0.01648148148148144,1.3052999999970183],[-0.03697916666666667,-0.02833333333333325,1.3262000000029772],[-0.03697916666666667,-0.02833333333333325,1.3383999999910614],[-0.05427083333333336,-0.07481481481481478,1.3550999999940387],[-0.01270833333333338,-0.07999999999999997,1.375799999997021],[-0.0203125,-0.1081481481481481,1.3915999999940354],[-0.016666666666666666,-0.1081481481481481,1.4048999999910592],[-0.019895833333333356,-0.14166666666666666,1.4215999999940365],[-0.03145833333333338,-0.1574074074074074,1.4407000000029768],[-0.08229166666666667,-0.18888888888888888,1.4568999999910588],[-0.08229166666666667,-0.18888888888888888,1.4724999999999966],[-0.07906249999999998,-0.2190740740740741,1.49139999999106],[-0.11270833333333338,-0.2898148148148148,1.5057999999970164],[-0.11104166666666669,-0.3244444444444444,1.5217999999970218],[-0.09260416666666664,-0.3338888888888889,1.5382999999970153],[-0.10916666666666662,-0.35462962962962963,1.5549999999999997],[-0.103125,-0.34629629629629627,1.571700000002977],[-0.11927083333333334,-0.36018518518518516,1.5882999999970195],[-0.12854166666666664,-0.3405555555555555,1.6070999999940412],[-0.11343749999999998,-0.36925925925925923,1.621799999997016],[-0.11364583333333336,-0.3811111111111111,1.6385999999940353],[-0.11083333333333331,-0.365925925925926,1.6552999999970197],[-0.075,-0.3242592592592593,1.673599999994039],[-0.07729166666666672,-0.3122222222222223,1.6884999999999977],[-0.1414583333333333,-0.33111111111111113,1.7053999999910587],[-0.18843749999999998,-0.357962962962963,1.7217999999970175],[-0.2373958333333333,-0.3574074074074074,1.741500000000002],[-0.22229166666666664,-0.3846296296296296,1.7597999999970213],[-0.20718749999999997,-0.4118518518518518,1.7748999999910566],[-0.21062500000000003,-0.4172222222222222,1.7913999999910573],[-0.16760416666666664,-0.3718518518518519,1.809299999997016],[-0.1648958333333333,-0.3642592592592592,1.824799999997019],[-0.18875000000000006,-0.36944444444444446,1.8414999999999964],[-0.18875000000000006,-0.36944444444444446,1.8550999999940387],[-0.19145833333333329,-0.34314814814814815,1.871899999991058],[-0.10552083333333329,-0.2861111111111111,1.8885000000000005],[-0.036562500000000026,-0.22259259259259256,1.9087000000029803],[0.05291666666666662,-0.18796296296296297,1.92439999999106],[0.07999999999999995,-0.1646296296296296,1.9384999999999977],[0.10697916666666671,-0.1542592592592593,1.9602999999970194],[0.10697916666666671,-0.1542592592592593,1.9718999999910594],[0.13729166666666662,-0.1418518518518519,1.9882999999970181],[0.18104166666666663,-0.1301851851851852,2.0055999999940397],[0.22458333333333325,-0.15,2.021499999999996],[0.26979166666666665,-0.14888888888888885,2.0382000000029805],[0.3178124999999999,-0.1383333333333333,2.0552999999970183],[0.3576041666666666,-0.14814814814814814,2.0734999999999957],[0.36739583333333337,-0.1514814814814815,2.090899999991059],[0.3844791666666666,-0.23555555555555555,2.1054999999999993],[0.41468749999999993,-0.26537037037037037,2.1237999999970185],[0.41520833333333323,-0.2718518518518519,2.1383999999910586],[0.43291666666666656,-0.2270370370370371,2.15829999999702],[0.43291666666666656,-0.2270370370370371,2.1717999999970203],[0.4179166666666667,-0.2627777777777777,2.1884999999999977],[0.42302083333333323,-0.2705555555555556,2.2087999999970194],[0.4001041666666666,-0.2927777777777778,2.22679999999702],[0.3793750000000001,-0.3274074074074074,2.24139999999106],[0.3233333333333334,-0.36574074074074076,2.260899999991061],[0.3233333333333334,-0.36574074074074076,2.2719999999999985],[0.30885416666666665,-0.39592592592592596,2.2929999999999993],[0.30885416666666665,-0.39592592592592596,2.3049999999999997],[0.28072916666666664,-0.32629629629629625,2.324799999997019],[0.25145833333333345,-0.2918518518518519,2.338599999994038],[0.25322916666666656,-0.28185185185185185,2.3552999999970154],[0.23104166666666662,-0.32222222222222224,2.371799999997016],[0.23104166666666662,-0.32222222222222224,2.3900000000000006],[0.2196875000000001,-0.31555555555555553,2.405099999994036],[0.20260416666666667,-0.28703703703703703,2.421899999991055],[0.21208333333333323,-0.2707407407407407,2.4439999999999955],[0.21208333333333323,-0.2707407407407407,2.455200000002982],[0.1962500000000001,-0.255,2.4720000000000013],[0.1857291666666666,-0.22907407407407404,2.493700000002981],[0.1857291666666666,-0.22907407407407404,2.5049999999999955],[0.178125,-0.25333333333333335,2.5218999999910565],[0.2037499999999999,-0.30351851851851847,2.538399999991057],[0.19802083333333323,-0.3383333333333333,2.5573999999910555],[0.17958333333333343,-0.3592592592592593,2.571799999997019],[0.16687500000000005,-0.3592592592592593,2.58870000000298],[0.14854166666666657,-0.37296296296296294,2.6050999999940387],[0.1196875000000001,-0.41203703703703703,2.6217000000029813],[0.09572916666666677,-0.44055555555555553,2.6422000000029797],[0.08927083333333338,-0.4762962962962963,2.6577000000029827],[0.10020833333333339,-0.49018518518518517,2.671999999999997],[0.06645833333333329,-0.4885185185185185,2.6883999999910557],[0.04552083333333338,-0.44296296296296295,2.7077999999970217],[0.050625000000000024,-0.4388888888888889,2.7233999999910594],[0.04729166666666664,-0.4190740740740741,2.7395999999940415],[0.035312499999999976,-0.43203703703703705,2.7610999999940375],[0.035312499999999976,-0.43203703703703705,2.7718999999910565],[0.02322916666666662,-0.4212962962962963,2.788399999991057],[0.02322916666666662,-0.4212962962962963,2.8049999999999997],[0.02635416666666662,-0.4257407407407407,2.821599999994035],[0.02010416666666662,-0.4148148148148148,2.8382999999970195],[0.030729166666666665,-0.40685185185185185,2.854999999999997],[0.019479166666666714,-0.3933333333333333,2.871899999991058],[0.021249999999999977,-0.40185185185185185,2.8882999999970167],[-0.028854166666666715,-0.4564814814814815,2.905000000000001],[-0.07895833333333328,-0.4601851851851852,2.9232000000029785],[-0.07916666666666666,-0.46222222222222226,2.9383999999910557],[-0.09541666666666669,-0.4759259259259259,2.957599999994038],[-0.08406250000000005,-0.4948148148148148,2.974399999991057],[-0.06156250000000003,-0.5075925925925926,2.9902999999970206],[-0.07593749999999998,-0.5048148148148148,3.0048999999910606],[-0.08552083333333335,-0.48055555555555557,3.021599999994038],[-0.07927083333333336,-0.45629629629629626,3.038399999991057],[-0.08177083333333333,-0.42592592592592593,3.0549999999999997],[-0.06385416666666661,-0.37,3.071599999994035],[-0.03156249999999995,-0.32833333333333337,3.0912999999970197],[-0.01593749999999995,-0.29611111111111105,3.10479999999702],[-0.000833333333333286,-0.2698148148148148,3.1214999999999975],[0.00604166666666662,-0.25166666666666665,3.1382999999970167],[-0.016979166666666618,-0.22148148148148153,3.155000000000001],[-0.0007291666666667141,-0.21944444444444444,3.1715999999940365],[-0.00947916666666669,-0.2572222222222222,3.188200000002979],[-0.0140625,-0.29314814814814816,3.2048999999910563],[0.008958333333333356,-0.29314814814814816,3.221599999994041],[0.029791666666666692,-0.3081481481481481,3.238299999997018],[0.03093750000000005,-0.3418518518518519,3.2548999999910606],[0.025312499999999953,-0.3685185185185185,3.271599999994038],[0.050833333333333286,-0.35851851851851857,3.2882000000029805],[0.0484375,-0.3638888888888889,3.307099999994037],[0.05927083333333331,-0.3381481481481482,3.321599999994035],[0.06802083333333328,-0.3177777777777778,3.3455000000000013],[0.06802083333333328,-0.3177777777777778,3.3582999999970156],[0.06593749999999995,-0.3087037037037037,3.371799999997016],[0.04833333333333331,-0.32888888888888895,3.3883999999910586],[0.049374999999999974,-0.33370370370370367,3.405000000000001],[0.04635416666666667,-0.35185185185185186,3.42439999999106],[0.042812500000000024,-0.3198148148148148,3.4395000000000024],[0.016770833333333356,-0.33185185185185184,3.4580999999940403],[0.0009374999999999763,-0.3303703703703703,3.4757999999970153],[-0.021458333333333357,-0.3388888888888889,3.4908999999910577],[-0.03114583333333331,-0.3320370370370371,3.505499999999998],[-0.01895833333333338,-0.33666666666666667,3.52170000000298],[0.015208333333333357,-0.30092592592592593,3.541799999997018],[0.010520833333333358,-0.28055555555555556,3.5574999999999974],[-0.014479166666666644,-0.27555555555555555,3.5737000000029795],[-0.016354166666666715,-0.24888888888888885,3.5930999999940383],[0.02666666666666669,-0.27981481481481485,3.608200000002981],[0.06635416666666671,-0.2855555555555555,3.621899999991058],[0.0740624999999999,-0.30388888888888893,3.6385999999940353],[0.07937500000000004,-0.26777777777777784,3.655000000000001],[0.09427083333333333,-0.26351851851851854,3.6747000000029786],[0.1015625,-0.2640740740740741,3.689599999994037],[0.1015625,-0.2640740740740741,3.70509999999404],[0.11124999999999995,-0.2983333333333334,3.7248999999910595],[0.12885416666666671,-0.29203703703703704,3.7387000000029786],[0.14645833333333325,-0.28574074074074074,3.7552000000029793],[0.15875000000000009,-0.3007407407407407,3.77170000000298],[0.1146874999999999,-0.25981481481481483,3.7910999999940387],[0.09104166666666676,-0.24000000000000005,3.8067999999970183],[0.08197916666666671,-0.1955555555555556,3.823299999997019],[0.08781249999999995,-0.18648148148148147,3.8382000000029777],[0.08854166666666667,-0.18074074074074079,3.8550999999940387],[0.07374999999999995,-0.16592592592592598,3.875599999994037],[0.0655208333333333,-0.125,3.890499999999996],[0.08677083333333328,-0.1264814814814815,3.9062999999970174],[0.10989583333333333,-0.1,3.9253999999910576],[0.11197916666666667,-0.09888888888888885,3.939],[0.12281250000000009,-0.09222222222222225,3.958999999999996],[0.12281250000000009,-0.09222222222222225,3.9717000000029827],[0.13250000000000003,-0.060370370370370414,3.9919999999999973],[0.13802083333333334,-0.072037037037037,4.007399999991058],[0.1466666666666666,-0.06277777777777774,4.0242999999970195],[0.1443749999999999,-0.09203703703703701,4.041799999997018],[0.16822916666666668,-0.09944444444444442,4.057799999997016],[0.16822916666666668,-0.09944444444444442,4.071899999991061],[0.17114583333333327,-0.1022222222222222,4.088499999999996],[0.17916666666666667,-0.12296296296296293,4.107999999999997],[0.17520833333333338,-0.1425925925925926,4.124200000002979],[0.1834374999999999,-0.11444444444444446,4.139499999999998],[0.20104166666666667,-0.11833333333333329,4.158200000002978],[0.19729166666666675,-0.1418518518518519,4.175200000002981],[0.23104166666666662,-0.11666666666666667,4.191799999997016],[0.25666666666666677,-0.1022222222222222,4.208799999997019],[0.2760416666666667,-0.059814814814814835,4.2248999999910595],[0.27291666666666664,-0.027407407407407325,4.242299999997016],[0.24895833333333334,-0.036666666666666584,4.257399999991058],[0.2413541666666667,-0.007407407407407408,4.2734999999999985],[0.2259375000000001,-0.03759259259259251,4.291599999994041],[0.21729166666666658,-0.06314814814814819,4.305299999997018],[0.19416666666666677,-0.1007407407407407,4.321599999994035],[0.19239583333333338,-0.11870370370370374,4.338200000002978],[0.16927083333333334,-0.15462962962962962,4.354999999999997],[0.12166666666666662,-0.19462962962962968,4.371899999991058],[0.08979166666666671,-0.22666666666666663,4.388399999991059],[0.05427083333333336,-0.2705555555555556,4.404899999991059],[0.04083333333333338,-0.2959259259259259,4.4215999999940365],[0.03187500000000002,-0.30333333333333334,4.441399999991056],[0.023958333333333335,-0.27629629629629626,4.460099999994036],[0.0014583333333333095,-0.28481481481481485,4.475399999991055],[-0.006562499999999953,-0.28129629629629627,4.494299999997018],[-0.006562499999999953,-0.2662962962962963,4.508299999997021],[-0.022395833333333334,-0.2588888888888889,4.522500000000001],[0.01229166666666662,-0.25092592592592594,4.538499999999999],[0.029270833333333357,-0.23037037037037034,4.558299999997018],[0.03812500000000003,-0.225,4.574200000002982],[0.07385416666666676,-0.1853703703703704,4.588899999991057],[0.08510416666666672,-0.167037037037037,4.608700000002976],[0.09697916666666657,-0.17296296296296293,4.623599999994042],[0.10364583333333334,-0.16407407407407412,4.638599999994035],[0.11687500000000005,-0.13333333333333333,4.65529999999702],[0.12208333333333338,-0.11407407407407412,4.672299999997016],[0.11416666666666657,-0.11925925925925922,4.688299999997021],[0.10510416666666676,-0.12129629629629629,4.705799999997019],[0.08958333333333333,-0.14296296296296293,4.721599999994041],[0.09156250000000009,-0.14759259259259258,4.740700000002981],[0.09156250000000009,-0.14759259259259258,4.7549999999999955],[0.06666666666666667,-0.16148148148148145,4.771799999997022],[0.059583333333333384,-0.1983333333333334,4.79189999999106],[0.0640625,-0.16574074074074074,4.809399999991058],[0.08989583333333329,-0.10999999999999996,4.82559999999404],[0.10916666666666662,-0.07611111111111116,4.842899999991062],[0.07906250000000009,-0.10240740740740743,4.861799999997018],[0.07906250000000009,-0.10240740740740743,4.871799999997016],[0.06489583333333329,-0.11018518518518519,4.888399999991059],[0.06177083333333329,-0.1374074074074074,4.905000000000001],[0.07583333333333328,-0.15796296296296297,4.9270999999940415],[0.07625000000000005,-0.1412962962962963,4.941399999991056],[0.0834374999999999,-0.11500000000000005,4.958399999991059],[0.05343749999999995,-0.07814814814814813,4.9748999999910595],[0.04479166666666667,-0.0824074074074074,4.992700000002976],[0.01395833333333331,-0.1190740740740741,5.007200000002982],[0.01395833333333331,-0.1190740740740741,5.021799999997022],[-0.0296875,-0.1764814814814815,5.038399999991057],[-0.025833333333333285,-0.1933333333333333,5.058599999994037],[-0.017812500000000023,-0.1787037037037037,5.076200000002977],[-0.03822916666666672,-0.15722222222222218,5.091499999999996],[-0.05802083333333338,-0.13481481481481483,5.104999999999997],[-0.06364583333333336,-0.1287037037037037,5.125899999991056],[-0.06364583333333336,-0.13629629629629633,5.141299999997017],[-0.030104166666666644,-0.1301851851851852,5.15720000000298],[-0.013229166666666714,-0.13222222222222219,5.179200000002979],[-0.013229166666666714,-0.13222222222222219,5.188799999997016],[-0.009062500000000048,-0.14203703703703702,5.204999999999998],[-0.003541666666666643,-0.14611111111111108,5.2217999999970175],[0.011458333333333333,-0.15259259259259256,5.238299999997018],[0.015312500000000047,-0.12666666666666662,5.254899999991061],[0.016666666666666666,-0.09796296296296292,5.271599999994038],[0.016666666666666666,-0.09796296296296292,5.288399999991057],[0.018020833333333285,-0.06925925925925921,5.304899999991058],[0.008958333333333356,-0.09370370370370375,5.321599999994035],[0.00916666666666662,-0.09981481481481477,5.34129999999702],[-0.004791666666666691,-0.10722222222222218,5.357999999999997],[-0.041562499999999974,-0.14370370370370375,5.374499999999998],[-0.041562499999999974,-0.14370370370370375,5.388299999997017],[-0.035104166666666714,-0.14388888888888887,5.405000000000001],[-0.0171875,-0.12907407407407406,5.4215999999940365],[-0.02052083333333338,-0.0940740740740741,5.438299999997021],[-0.004166666666666667,-0.13296296296296298,5.460200000002978],[-0.001145833333333357,-0.17407407407407408,5.474799999997018],[0.01072916666666662,-0.19296296296296295,5.491200000002976],[0.02312500000000005,-0.1814814814814815,5.506399999991061],[0.01895833333333338,-0.2044444444444444,5.525299999997017],[0.02177083333333331,-0.21425925925925923,5.540599999994036],[0.03802083333333333,-0.19518518518518516,5.560099999994037],[0.03802083333333333,-0.19518518518518516,5.5843999999910565],[0.024583333333333356,-0.19537037037037036,5.599700000002976],[0.024583333333333356,-0.19537037037037036,5.609399999991055],[0.036458333333333336,-0.1977777777777778,5.621599999994039],[0.06197916666666667,-0.1983333333333334,5.638200000002982],[0.06197916666666667,-0.19000000000000003,5.658899999991057],[0.07291666666666667,-0.1868518518518518,5.6715999999940365],[0.07739583333333329,-0.1985185185185185,5.688200000002979],[0.08562500000000005,-0.20037037037037034,5.708899999991061],[0.09947916666666666,-0.1809259259259259,5.722799999997022],[0.08822916666666672,-0.19092592592592597,5.738299999997018],[0.08677083333333328,-0.202962962962963,5.7549999999999955],[0.08312499999999995,-0.22296296296296292,5.774000000000001],[0.0740624999999999,-0.20611111111111113,5.788700000002976],[0.04666666666666662,-0.23074074074074077,5.805],[0.04666666666666662,-0.23074074074074077,5.821599999994035],[0.03125,-0.227962962962963,5.838200000002978],[0.01583333333333338,-0.21740740740740735,5.855099999994039],[-0.001979166666666643,-0.21425925925925923,5.8714999999999975],[-0.019687499999999976,-0.2207407407407407,5.888200000002982],[-0.03239583333333336,-0.24018518518518517,5.904899999991059],[-0.01854166666666662,-0.23166666666666672,5.924200000002976],[-0.015625,-0.205,5.938200000002979],[-0.005729166666666666,-0.17481481481481478,5.954999999999998],[-0.01572916666666669,-0.17925925925925928,5.971599999994041],[0.022083333333333382,-0.13777777777777775,5.988200000002976],[0.06427083333333337,-0.1205555555555556,6.004899999991061],[0.09395833333333338,-0.12296296296296293,6.021599999994038],[0.12364583333333339,-0.12537037037037035,6.0382000000029805],[0.1462500000000001,-0.12740740740740744,6.054899999991058],[0.15916666666666662,-0.11962962962962967,6.071599999994035],[0.16364583333333324,-0.1235185185185185,6.088200000002978],[0.19916666666666671,-0.1242592592592593,6.10479999999702],[0.23645833333333333,-0.10925925925925926,6.121599999994039],[0.24770833333333328,-0.11481481481481481,6.138700000002977],[0.2547916666666666,-0.12018518518518514,6.155000000000001],[0.2490624999999999,-0.11796296296296294,6.1715999999940365],[0.24791666666666667,-0.10703703703703706,6.188200000002979],[0.23822916666666671,-0.09759259259259258,6.204999999999998],[0.22552083333333334,-0.08444444444444449,6.221599999994041],[0.22291666666666668,-0.05851851851851856,6.238299999997018],[0.21145833333333333,-0.04092592592592597,6.254899999991061],[0.1875,-0.04518518518518514,6.271599999994038],[0.17708333333333334,-0.03981481481481482,6.2888999999910595],[0.175,-0.027222222222222307,6.304899999991058],[0.15031249999999996,-0.03944444444444436,6.321599999994035]]","[0.00020000000297670795,0.04309999999404113,0.05529999999701829,0.07570000000298194,0.08849999999999625,0.10520000000298069,0.12189999999105794,0.1408999999910563,0.15520000000297784,0.1718999999910551,0.19109999999403726,0.20589999999106112,0.2245999999940409,0.24039999999105532,0.25520000000297927,0.27209999999404033,0.28839999999105714,0.3068999999910602,0.3218999999910608,0.3385999999940381,0.3577999999970203,0.3744999999999976,0.3887999999970191,0.4050999999940359,0.42520000000298097,0.4390999999940419,0.45529999999701687,0.47370000000297807,0.4885999999940367,0.5050999999940373,0.5218999999910565,0.5418999999910596,0.5580999999940417,0.5730000000000004,0.5887000000029801,0.6069999999999993,0.6217999999970161,0.6385000000000005,0.6582999999970198,0.6723999999910575,0.6890000000000001,0.7072000000029774,0.7217999999970175,0.7387000000029786,0.7552000000029793,0.7752999999970172,0.7902999999970177,0.8052000000029764,0.8218999999910608,0.8404999999999987,0.8554999999999993,0.8718999999910579,0.8882999999970167,0.9080000000000013,0.9230000000000018,0.9384999999999977,0.9598999999910589,0.974499999999999,0.9897000000029763,1.0097000000029794,1.0218999999910565,1.038499999999999,1.060200000002979,1.071799999997019,1.0883999999910614,1.104899999991055,1.1237999999970185,1.1382999999970167,1.1553999999910616,1.1747999999970204,1.1913999999910558,1.2050999999940402,1.2215999999940408,1.2382999999970181,1.2550999999940373,1.27470000000298,1.2897000000029806,1.3052999999970183,1.3262000000029772,1.3383999999910614,1.3550999999940387,1.375799999997021,1.3915999999940354,1.4048999999910592,1.4215999999940365,1.4407000000029768,1.4568999999910588,1.4724999999999966,1.49139999999106,1.5057999999970164,1.5217999999970218,1.5382999999970153,1.5549999999999997,1.571700000002977,1.5882999999970195,1.6070999999940412,1.621799999997016,1.6385999999940353,1.6552999999970197,1.673599999994039,1.6884999999999977,1.7053999999910587,1.7217999999970175,1.741500000000002,1.7597999999970213,1.7748999999910566,1.7913999999910573,1.809299999997016,1.824799999997019,1.8414999999999964,1.8550999999940387,1.871899999991058,1.8885000000000005,1.9087000000029803,1.92439999999106,1.9384999999999977,1.9602999999970194,1.9718999999910594,1.9882999999970181,2.0055999999940397,2.021499999999996,2.0382000000029805,2.0552999999970183,2.0734999999999957,2.090899999991059,2.1054999999999993,2.1237999999970185,2.1383999999910586,2.15829999999702,2.1717999999970203,2.1884999999999977,2.2087999999970194,2.22679999999702,2.24139999999106,2.260899999991061,2.2719999999999985,2.2929999999999993,2.3049999999999997,2.324799999997019,2.338599999994038,2.3552999999970154,2.371799999997016,2.3900000000000006,2.405099999994036,2.421899999991055,2.4439999999999955,2.455200000002982,2.4720000000000013,2.493700000002981,2.5049999999999955,2.5218999999910565,2.538399999991057,2.5573999999910555,2.571799999997019,2.58870000000298,2.6050999999940387,2.6217000000029813,2.6422000000029797,2.6577000000029827,2.671999999999997,2.6883999999910557,2.7077999999970217,2.7233999999910594,2.7395999999940415,2.7610999999940375,2.7718999999910565,2.788399999991057,2.8049999999999997,2.821599999994035,2.8382999999970195,2.854999999999997,2.871899999991058,2.8882999999970167,2.905000000000001,2.9232000000029785,2.9383999999910557,2.957599999994038,2.974399999991057,2.9902999999970206,3.0048999999910606,3.021599999994038,3.038399999991057,3.0549999999999997,3.071599999994035,3.0912999999970197,3.10479999999702,3.1214999999999975,3.1382999999970167,3.155000000000001,3.1715999999940365,3.188200000002979,3.2048999999910563,3.221599999994041,3.238299999997018,3.2548999999910606,3.271599999994038,3.2882000000029805,3.307099999994037,3.321599999994035,3.3455000000000013,3.3582999999970156,3.371799999997016,3.3883999999910586,3.405000000000001,3.42439999999106,3.4395000000000024,3.4580999999940403,3.4757999999970153,3.4908999999910577,3.505499999999998,3.52170000000298,3.541799999997018,3.5574999999999974,3.5737000000029795,3.5930999999940383,3.608200000002981,3.621899999991058,3.6385999999940353,3.655000000000001,3.6747000000029786,3.689599999994037,3.70509999999404,3.7248999999910595,3.7387000000029786,3.7552000000029793,3.77170000000298,3.7910999999940387,3.8067999999970183,3.823299999997019,3.8382000000029777,3.8550999999940387,3.875599999994037,3.890499999999996,3.9062999999970174,3.9253999999910576,3.939,3.958999999999996,3.9717000000029827,3.9919999999999973,4.007399999991058,4.0242999999970195,4.041799999997018,4.057799999997016,4.071899999991061,4.088499999999996,4.107999999999997,4.124200000002979,4.139499999999998,4.158200000002978,4.175200000002981,4.191799999997016,4.208799999997019,4.2248999999910595,4.242299999997016,4.257399999991058,4.2734999999999985,4.291599999994041,4.305299999997018,4.321599999994035,4.338200000002978,4.354999999999997,4.371899999991058,4.388399999991059,4.404899999991059,4.4215999999940365,4.441399999991056,4.460099999994036,4.475399999991055,4.494299999997018,4.508299999997021,4.522500000000001,4.538499999999999,4.558299999997018,4.574200000002982,4.588899999991057,4.608700000002976,4.623599999994042,4.638599999994035,4.65529999999702,4.672299999997016,4.688299999997021,4.705799999997019,4.721599999994041,4.740700000002981,4.7549999999999955,4.771799999997022,4.79189999999106,4.809399999991058,4.82559999999404,4.842899999991062,4.861799999997018,4.871799999997016,4.888399999991059,4.905000000000001,4.9270999999940415,4.941399999991056,4.958399999991059,4.9748999999910595,4.992700000002976,5.007200000002982,5.021799999997022,5.038399999991057,5.058599999994037,5.076200000002977,5.091499999999996,5.104999999999997,5.125899999991056,5.141299999997017,5.15720000000298,5.179200000002979,5.188799999997016,5.204999999999998,5.2217999999970175,5.238299999997018,5.254899999991061,5.271599999994038,5.288399999991057,5.304899999991058,5.321599999994035,5.34129999999702,5.357999999999997,5.374499999999998,5.388299999997017,5.405000000000001,5.4215999999940365,5.438299999997021,5.460200000002978,5.474799999997018,5.491200000002976,5.506399999991061,5.525299999997017,5.540599999994036,5.560099999994037,5.5843999999910565,5.599700000002976,5.609399999991055,5.621599999994039,5.638200000002982,5.658899999991057,5.6715999999940365,5.688200000002979,5.708899999991061,5.722799999997022,5.738299999997018,5.7549999999999955,5.774000000000001,5.788700000002976,5.805,5.821599999994035,5.838200000002978,5.855099999994039,5.8714999999999975,5.888200000002982,5.904899999991059,5.924200000002976,5.938200000002979,5.954999999999998,5.971599999994041,5.988200000002976,6.004899999991061,6.021599999994038,6.0382000000029805,6.054899999991058,6.071599999994035,6.088200000002978,6.10479999999702,6.121599999994039,6.138700000002977,6.155000000000001,6.1715999999940365,6.188200000002979,6.204999999999998,6.221599999994041,6.238299999997018,6.254899999991061,6.271599999994038,6.2888999999910595,6.304899999991058,6.321599999994035]","[1732511757771,1732511757809,1732511757822,1732511757842,1732511757854,1732511757871,1732511757888,1732511757907,1732511757921,1732511757938,1732511757957,1732511757972,1732511757991,1732511758006,1732511758021,1732511758038,1732511758054,1732511758073,1732511758088,1732511758105,1732511758124,1732511758140,1732511758155,1732511758171,1732511758191,1732511758205,1732511758221,1732511758240,1732511758255,1732511758271,1732511758288,1732511758308,1732511758324,1732511758339,1732511758355,1732511758373,1732511758388,1732511758405,1732511758424,1732511758438,1732511758455,1732511758473,1732511758488,1732511758505,1732511758521,1732511758541,1732511758556,1732511758571,1732511758588,1732511758606,1732511758622,1732511758638,1732511758654,1732511758674,1732511758689,1732511758704,1732511758726,1732511758741,1732511758756,1732511758776,1732511758788,1732511758805,1732511758826,1732511758838,1732511758854,1732511758871,1732511758890,1732511758904,1732511758921,1732511758941,1732511758957,1732511758971,1732511758988,1732511759004,1732511759021,1732511759041,1732511759056,1732511759071,1732511759092,1732511759104,1732511759121,1732511759142,1732511759158,1732511759171,1732511759188,1732511759207,1732511759223,1732511759238,1732511759257,1732511759272,1732511759288,1732511759304,1732511759321,1732511759338,1732511759354,1732511759373,1732511759388,1732511759405,1732511759421,1732511759440,1732511759454,1732511759471,1732511759488,1732511759507,1732511759526,1732511759541,1732511759557,1732511759575,1732511759591,1732511759607,1732511759621,1732511759638,1732511759654,1732511759675,1732511759690,1732511759704,1732511759726,1732511759738,1732511759754,1732511759772,1732511759788,1732511759804,1732511759821,1732511759839,1732511759857,1732511759871,1732511759890,1732511759904,1732511759924,1732511759938,1732511759955,1732511759975,1732511759993,1732511760007,1732511760027,1732511760038,1732511760059,1732511760071,1732511760091,1732511760105,1732511760121,1732511760138,1732511760157,1732511760172,1732511760188,1732511760211,1732511760222,1732511760238,1732511760260,1732511760272,1732511760288,1732511760305,1732511760324,1732511760338,1732511760355,1732511760372,1732511760388,1732511760409,1732511760424,1732511760439,1732511760455,1732511760474,1732511760490,1732511760506,1732511760528,1732511760538,1732511760555,1732511760571,1732511760588,1732511760605,1732511760622,1732511760639,1732511760655,1732511760672,1732511760690,1732511760705,1732511760724,1732511760741,1732511760757,1732511760771,1732511760788,1732511760805,1732511760821,1732511760838,1732511760858,1732511760871,1732511760888,1732511760905,1732511760922,1732511760938,1732511760955,1732511760971,1732511760988,1732511761005,1732511761021,1732511761038,1732511761055,1732511761074,1732511761088,1732511761112,1732511761125,1732511761138,1732511761155,1732511761172,1732511761191,1732511761206,1732511761225,1732511761242,1732511761257,1732511761272,1732511761288,1732511761308,1732511761324,1732511761340,1732511761360,1732511761375,1732511761388,1732511761405,1732511761421,1732511761441,1732511761456,1732511761472,1732511761491,1732511761505,1732511761522,1732511761538,1732511761558,1732511761573,1732511761590,1732511761605,1732511761622,1732511761642,1732511761657,1732511761673,1732511761692,1732511761705,1732511761726,1732511761738,1732511761759,1732511761774,1732511761791,1732511761808,1732511761824,1732511761838,1732511761855,1732511761875,1732511761891,1732511761906,1732511761925,1732511761942,1732511761958,1732511761975,1732511761991,1732511762009,1732511762024,1732511762040,1732511762058,1732511762072,1732511762088,1732511762105,1732511762121,1732511762138,1732511762155,1732511762171,1732511762188,1732511762208,1732511762227,1732511762242,1732511762261,1732511762275,1732511762289,1732511762305,1732511762325,1732511762341,1732511762355,1732511762375,1732511762390,1732511762405,1732511762422,1732511762439,1732511762455,1732511762472,1732511762488,1732511762507,1732511762522,1732511762538,1732511762558,1732511762576,1732511762592,1732511762609,1732511762628,1732511762638,1732511762655,1732511762671,1732511762694,1732511762708,1732511762725,1732511762741,1732511762759,1732511762774,1732511762788,1732511762805,1732511762825,1732511762843,1732511762858,1732511762872,1732511762892,1732511762908,1732511762924,1732511762946,1732511762955,1732511762971,1732511762988,1732511763005,1732511763021,1732511763038,1732511763055,1732511763072,1732511763088,1732511763108,1732511763125,1732511763141,1732511763155,1732511763171,1732511763188,1732511763205,1732511763227,1732511763241,1732511763258,1732511763273,1732511763292,1732511763307,1732511763327,1732511763351,1732511763366,1732511763376,1732511763388,1732511763405,1732511763425,1732511763438,1732511763455,1732511763475,1732511763489,1732511763505,1732511763521,1732511763541,1732511763555,1732511763571,1732511763588,1732511763605,1732511763622,1732511763638,1732511763655,1732511763671,1732511763691,1732511763705,1732511763722,1732511763738,1732511763755,1732511763771,1732511763788,1732511763805,1732511763821,1732511763838,1732511763855,1732511763871,1732511763888,1732511763905,1732511763921,1732511763938,1732511763955,1732511763971,1732511763988,1732511764005,1732511764021,1732511764038,1732511764055,1732511764071,1732511764088]","[[1551.4,419.2],[1551.4,419.2],[1567.9,451.6],[1577.9,451.6],[1577.9,451.6],[1513.9,491.9],[1513.9,491.9],[1428.8,517.2],[1368.5,546.8],[1368.5,546.8],[1328.8,554.4],[1274.4,603.2],[1236,654.8],[1181.2,715.5],[1101.9,738.9],[1043.6,754.7],[957.3,757.2],[940.6,762.4],[959.1,737.2],[944.9,743.8],[936.7,749.5],[934.1,723.3],[925.8,686],[913.3,657.3],[918.7,662.9],[927,636.4],[930.3,641.4],[920.6,624.7],[923,641.4],[923.7,604.4],[913.2,586.8],[905.8,617.8],[930,614.3],[932.8,599.6],[955.9,572.8],[985.1,580.5],[1036.1,583.6],[1072.4,586.2],[1072,600.9],[1133.9,618.4],[1165.6,635.7],[1236.7,637.4],[1216.6,618.7],[1181.8,619.3],[1136.3,578.1],[1086.8,543],[1002.6,495.5],[1002.6,495.5],[941.6,468.2],[909.7,412.2],[819.5,390.8],[769.9,360.4],[686.7,302.5],[660.9,292.6],[694.2,278.8],[741.5,311.6],[768.7,321.7],[830.5,339.3],[893.5,338.7],[943.5,362.8],[943.5,362.8],[997.9,373.5],[1035.7,389.7],[1035.7,389.7],[1046.8,405.3],[1089.3,440.9],[1024.7,460.2],[1004.4,465.2],[1005.5,482],[1006.7,507.7],[975.1,516.5],[953.7,515.2],[913.9,516.9],[884.5,522.1],[884.2,527.5],[876,511.7],[914,510.3],[940.8,531.1],[924.5,524.7],[924.5,524.7],[907.9,499.6],[947.8,496.8],[940.5,481.6],[944,481.6],[940.9,463.5],[929.8,455],[881,438],[881,438],[884.1,421.7],[851.8,383.5],[853.4,364.8],[871.1,359.7],[855.2,348.5],[861,353],[845.5,345.5],[836.6,356.1],[851.1,340.6],[850.9,334.2],[853.6,342.4],[888,364.9],[885.8,371.4],[824.2,361.2],[779.1,346.7],[732.1,347],[746.6,332.3],[761.1,317.6],[757.8,314.7],[799.1,339.2],[801.7,343.3],[778.8,340.5],[778.8,340.5],[776.2,354.7],[858.7,385.5],[924.9,419.8],[1010.8,438.5],[1036.8,451.1],[1062.7,456.7],[1062.7,456.7],[1091.8,463.4],[1133.8,469.7],[1175.6,459],[1219,459.6],[1265.1,465.3],[1303.3,460],[1312.7,458.2],[1329.1,412.8],[1358.1,396.7],[1358.6,393.2],[1375.6,417.4],[1375.6,417.4],[1361.2,398.1],[1366.1,393.9],[1344.1,381.9],[1324.2,363.2],[1270.4,342.5],[1270.4,342.5],[1256.5,326.2],[1256.5,326.2],[1229.5,363.8],[1201.4,382.4],[1203.1,387.8],[1181.8,366],[1181.8,366],[1170.9,369.6],[1154.5,385],[1163.6,393.8],[1163.6,393.8],[1148.4,402.3],[1138.3,416.3],[1138.3,416.3],[1131,403.2],[1155.6,376.1],[1150.1,357.3],[1132.4,346],[1120.2,346],[1102.6,338.6],[1074.9,317.5],[1051.9,302.1],[1045.7,282.8],[1056.2,275.3],[1023.8,276.2],[1003.7,300.8],[1008.6,303],[1005.4,313.7],[993.9,306.7],[993.9,306.7],[982.3,312.5],[982.3,312.5],[985.3,310.1],[979.3,316],[989.5,320.3],[978.7,327.6],[980.4,323],[932.3,293.5],[884.2,291.5],[884,290.4],[868.4,283],[879.3,272.8],[900.9,265.9],[887.1,267.4],[877.9,280.5],[883.9,293.6],[881.5,310],[898.7,340.2],[929.7,362.7],[944.7,380.1],[959.2,394.3],[965.8,404.1],[943.7,420.4],[959.3,421.5],[950.9,401.1],[946.5,381.7],[968.6,381.7],[988.6,373.6],[989.7,355.4],[984.3,341],[1008.8,346.4],[1006.5,343.5],[1016.9,357.4],[1025.3,368.4],[1025.3,368.4],[1023.3,373.3],[1006.4,362.4],[1007.4,359.8],[1004.5,350],[1001.1,367.3],[976.1,360.8],[960.9,361.6],[939.4,357],[930.1,360.7],[941.8,358.2],[974.6,377.5],[970.1,388.5],[946.1,391.2],[944.3,405.6],[985.6,388.9],[1023.7,385.8],[1031.1,375.9],[1036.2,395.4],[1050.5,397.7],[1057.5,397.4],[1057.5,397.4],[1066.8,378.9],[1083.7,382.3],[1100.6,385.7],[1112.4,377.6],[1070.1,399.7],[1047.4,410.4],[1038.7,434.4],[1044.3,439.3],[1045,442.4],[1030.8,450.4],[1022.9,472.5],[1043.3,471.7],[1065.5,486],[1067.5,486.6],[1077.9,490.2],[1077.9,490.2],[1087.2,507.4],[1092.5,501.1],[1100.8,506.1],[1098.6,490.3],[1121.5,486.3],[1121.5,486.3],[1124.3,484.8],[1132,473.6],[1128.2,463],[1136.1,478.2],[1153,476.1],[1149.4,463.4],[1181.8,477],[1206.4,484.8],[1225,507.7],[1222,525.2],[1199,520.2],[1191.7,536],[1176.9,519.7],[1168.6,505.9],[1146.4,485.6],[1144.7,475.9],[1122.5,456.5],[1076.8,434.9],[1046.2,417.6],[1012.1,393.9],[999.2,380.2],[990.6,376.2],[983,390.8],[961.4,386.2],[953.7,388.1],[953.7,396.2],[938.5,400.2],[971.8,404.5],[988.1,415.6],[996.6,418.5],[1030.9,439.9],[1041.7,449.8],[1053.1,446.6],[1059.5,451.4],[1072.2,468],[1077.2,478.4],[1069.6,475.6],[1060.9,474.5],[1046,462.8],[1047.9,460.3],[1047.9,460.3],[1024,452.8],[1017.2,432.9],[1021.5,450.5],[1046.3,480.6],[1064.8,498.9],[1035.9,484.7],[1035.9,484.7],[1022.3,480.5],[1019.3,465.8],[1032.8,454.7],[1033.2,463.7],[1040.1,477.9],[1011.3,497.8],[1003,495.5],[973.4,475.7],[973.4,475.7],[931.5,444.7],[935.2,435.6],[942.9,443.5],[923.3,455.1],[904.3,467.2],[898.9,470.5],[898.9,466.4],[931.1,469.7],[947.3,468.6],[947.3,468.6],[951.3,463.3],[956.6,461.1],[971,457.6],[974.7,471.6],[976,487.1],[976,487.1],[977.3,502.6],[968.6,489.4],[968.8,486.1],[955.4,482.1],[920.1,462.4],[920.1,462.4],[926.3,462.3],[943.5,470.3],[940.3,489.2],[956,468.2],[958.9,446],[970.3,435.8],[982.2,442],[978.2,429.6],[980.9,424.3],[996.5,434.6],[996.5,434.6],[983.6,434.5],[983.6,434.5],[995,433.2],[1019.5,432.9],[1019.5,437.4],[1030,439.1],[1034.3,432.8],[1042.2,431.8],[1055.5,442.3],[1044.7,436.9],[1043.3,430.4],[1039.8,419.6],[1031.1,428.7],[1004.8,415.4],[1004.8,415.4],[990,416.9],[975.2,422.6],[958.1,424.3],[941.1,420.8],[928.9,410.3],[942.2,414.9],[945,429.3],[954.5,445.6],[944.9,443.2],[981.2,465.6],[1021.7,474.9],[1050.2,473.6],[1078.7,472.3],[1100.4,471.2],[1112.8,475.4],[1117.1,473.3],[1151.2,472.9],[1187,481],[1197.8,478],[1204.6,475.1],[1199.1,476.3],[1198,482.2],[1188.7,487.3],[1176.5,494.4],[1174,508.4],[1163,517.9],[1140,515.6],[1130,518.5],[1128,525.3],[1104.3,518.7]]","[-0.056692,0.170076]","[0.056692,0.170076]","[0.170076,0.170076]","[-0.170076,-0.056692]","[-0.170076,0.056692]","[-0.170076,-0.170076]","[-0.056692,-0.056692]","[0.056692,-0.056692]","[0.170076,-0.056692]","[-0.056692,0.056692]","[0.056692,0.056692]","[0.170076,0.056692]","[-0.056692,-0.170076]","[0.056692,-0.170076]","[0.170076,-0.170076]",0,0,0,0,1,4,Smartphone,25,20,8,1,60,4,1,60,3
