inst1_resp.keys,inst1_resp.rt,calibrationMouse.x,calibrationMouse.y,calibrationMouse.leftButton,calibrationMouse.midButton,calibrationMouse.rightButton,calibrationClick.x,calibrationClick.y,calibrationClick.leftButton,calibrationClick.midButton,calibrationClick.rightButton,calibrationClick.clicked_name,trialsc.thisRepN,trialsc.thisTrialN,trialsc.thisN,trialsc.thisIndex,trialsc.ran,calibration_x,calibration_y,participant,session,date,expName,psychopyVersion,OS,frameRate,ScreenRes_pixels,Camera_pixels,mouse_2.x,mouse_2.y,mouse_2.leftButton,mouse_2.midButton,mouse_2.rightButton,mouse_2.time,mouse_2.clicked_name,mouse.x,mouse.y,mouse.leftButton,mouse.midButton,mouse.rightButton,mouse.time,mouse.clicked_name,Choice,Trial,TrialDuration,MOUSE_GAZE,ET_GAZE,ET_GAZE_x_T,time,unixTime,ET_GAZE_NF,Loc_Bus_label,Loc_Metro_label,Loc_RH_label,Loc_Cost_label,Loc_Travel_label,Loc_Comfort_label,Loc_Bus_cost,Loc_Metro_cost,Loc_RH_cost,Loc_Bus_travel,Loc_Metro_travel,Loc_RH_travel,Loc_Bus_comfort,Loc_Metro_comfort,Loc_RH_comfort,trials.thisRepN,trials.thisTrialN,trials.thisN,trials.thisIndex,trials.ran,Block,Device,RH_cost,RH_travel_time,RH_Comfort,metro_cost,metro_travel_time,metro_Comfort,Bus_cost,Bus_travel_time,Bus_Comfort
space,2.1817,0.053125,-0.064814815,1,0,0,0.66875,-0.662962963,1,0,0,calibration_square,0,0,0,20,1,0.67,-0.67,42,001,2024-11-26_10h17.34.038,Attention_exp_legacy,2023.1.0,Win32,60.24096386,,,,,,,,,,,,,,,,,,,,,,,,,,,,,,,,,,,,,,,,,,,,,,,,,,,,,,,,
,,,,,,,0.673958333,0.687037037,1,0,0,,0,1,1,19,1,0.67,0.67,42,001,2024-11-26_10h17.34.038,Attention_exp_legacy,2023.1.0,Win32,60.24096386,,,,,,,,,,,,,,,,,,,,,,,,,,,,,,,,,,,,,,,,,,,,,,,,,,,,,,,,
,,,,,,,-0.670833333,-0.335185185,1,0,0,calibration_square,0,2,2,1,1,-0.67,-0.33,42,001,2024-11-26_10h17.34.038,Attention_exp_legacy,2023.1.0,Win32,60.24096386,,,,,,,,,,,,,,,,,,,,,,,,,,,,,,,,,,,,,,,,,,,,,,,,,,,,,,,,
,,,,,,,-0.015625,0.333333333,1,0,0,,0,3,3,12,1,0,0.33,42,001,2024-11-26_10h17.34.038,Attention_exp_legacy,2023.1.0,Win32,60.24096386,,,,,,,,,,,,,,,,,,,,,,,,,,,,,,,,,,,,,,,,,,,,,,,,,,,,,,,,
,,,,,,,0.328125,0.662962963,1,0,0,calibration_square,0,4,4,18,1,0.33,0.67,42,001,2024-11-26_10h17.34.038,Attention_exp_legacy,2023.1.0,Win32,60.24096386,,,,,,,,,,,,,,,,,,,,,,,,,,,,,,,,,,,,,,,,,,,,,,,,,,,,,,,,
,,,,,,,-0.005208333,0.683333333,1,0,0,,0,5,5,13,1,0,0.67,42,001,2024-11-26_10h17.34.038,Attention_exp_legacy,2023.1.0,Win32,60.24096386,,,,,,,,,,,,,,,,,,,,,,,,,,,,,,,,,,,,,,,,,,,,,,,,,,,,,,,,
,,,,,,,0.008333333,0.011111111,1,0,0,,0,6,6,11,1,0,0,42,001,2024-11-26_10h17.34.038,Attention_exp_legacy,2023.1.0,Win32,60.24096386,,,,,,,,,,,,,,,,,,,,,,,,,,,,,,,,,,,,,,,,,,,,,,,,,,,,,,,,
,,,,,,,-0.329166667,-0.331481481,1,0,0,calibration_square,0,7,7,5,1,-0.33,-0.33,42,001,2024-11-26_10h17.34.038,Attention_exp_legacy,2023.1.0,Win32,60.24096386,,,,,,,,,,,,,,,,,,,,,,,,,,,,,,,,,,,,,,,,,,,,,,,,,,,,,,,,
,,,,,,,-0.677083333,-0.668518519,1,0,0,calibration_square,0,8,8,0,1,-0.67,-0.67,42,001,2024-11-26_10h17.34.038,Attention_exp_legacy,2023.1.0,Win32,60.24096386,,,,,,,,,,,,,,,,,,,,,,,,,,,,,,,,,,,,,,,,,,,,,,,,,,,,,,,,
,,,,,,,0.330208333,0.327777778,1,0,0,calibration_square,0,9,9,17,1,0.33,0.33,42,001,2024-11-26_10h17.34.038,Attention_exp_legacy,2023.1.0,Win32,60.24096386,,,,,,,,,,,,,,,,,,,,,,,,,,,,,,,,,,,,,,,,,,,,,,,,,,,,,,,,
,,,,,,,0.322916667,-0.325925926,1,0,0,calibration_square,0,10,10,15,1,0.33,-0.33,42,001,2024-11-26_10h17.34.038,Attention_exp_legacy,2023.1.0,Win32,60.24096386,,,,,,,,,,,,,,,,,,,,,,,,,,,,,,,,,,,,,,,,,,,,,,,,,,,,,,,,
,,,,,,,-0.330208333,-0.677777778,1,0,0,calibration_square,0,11,11,4,1,-0.33,-0.67,42,001,2024-11-26_10h17.34.038,Attention_exp_legacy,2023.1.0,Win32,60.24096386,,,,,,,,,,,,,,,,,,,,,,,,,,,,,,,,,,,,,,,,,,,,,,,,,,,,,,,,
,,,,,,,-0.328125,-0.001851852,1,0,0,calibration_square,0,12,12,6,1,-0.33,0,42,001,2024-11-26_10h17.34.038,Attention_exp_legacy,2023.1.0,Win32,60.24096386,,,,,,,,,,,,,,,,,,,,,,,,,,,,,,,,,,,,,,,,,,,,,,,,,,,,,,,,
,,,,,,,-0.327083333,0.685185185,1,0,0,,0,13,13,8,1,-0.33,0.67,42,001,2024-11-26_10h17.34.038,Attention_exp_legacy,2023.1.0,Win32,60.24096386,,,,,,,,,,,,,,,,,,,,,,,,,,,,,,,,,,,,,,,,,,,,,,,,,,,,,,,,
,,,,,,,-0.002083333,-0.666666667,1,0,0,calibration_square,0,14,14,9,1,0,-0.67,42,001,2024-11-26_10h17.34.038,Attention_exp_legacy,2023.1.0,Win32,60.24096386,,,,,,,,,,,,,,,,,,,,,,,,,,,,,,,,,,,,,,,,,,,,,,,,,,,,,,,,
,,,,,,,0.334375,-0.668518519,1,0,0,calibration_square,0,15,15,14,1,0.33,-0.67,42,001,2024-11-26_10h17.34.038,Attention_exp_legacy,2023.1.0,Win32,60.24096386,,,,,,,,,,,,,,,,,,,,,,,,,,,,,,,,,,,,,,,,,,,,,,,,,,,,,,,,
,,,,,,,-0.004166667,-0.316666667,1,0,0,,0,16,16,10,1,0,-0.33,42,001,2024-11-26_10h17.34.038,Attention_exp_legacy,2023.1.0,Win32,60.24096386,,,,,,,,,,,,,,,,,,,,,,,,,,,,,,,,,,,,,,,,,,,,,,,,,,,,,,,,
,,,,,,,0.333333333,0.005555556,1,0,0,calibration_square,0,17,17,16,1,0.33,0,42,001,2024-11-26_10h17.34.038,Attention_exp_legacy,2023.1.0,Win32,60.24096386,,,,,,,,,,,,,,,,,,,,,,,,,,,,,,,,,,,,,,,,,,,,,,,,,,,,,,,,
,,,,,,,-0.672916667,0.003703704,1,0,0,calibration_square,0,18,18,2,1,-0.67,0,42,001,2024-11-26_10h17.34.038,Attention_exp_legacy,2023.1.0,Win32,60.24096386,,,,,,,,,,,,,,,,,,,,,,,,,,,,,,,,,,,,,,,,,,,,,,,,,,,,,,,,
,,,,,,,-0.670833333,0.337037037,1,0,0,calibration_square,0,19,19,3,1,-0.67,0.33,42,001,2024-11-26_10h17.34.038,Attention_exp_legacy,2023.1.0,Win32,60.24096386,,,,,,,,,,,,,,,,,,,,,,,,,,,,,,,,,,,,,,,,,,,,,,,,,,,,,,,,
,,,,,,,-0.326041667,0.324074074,1,0,0,calibration_square,0,20,20,7,1,-0.33,0.33,42,001,2024-11-26_10h17.34.038,Attention_exp_legacy,2023.1.0,Win32,60.24096386,,,,,,,,,,,,,,,,,,,,,,,,,,,,,,,,,,,,,,,,,,,,,,,,,,,,,,,,
,,,,,,,,,,,,,,,,,,,,42,001,2024-11-26_10h17.34.038,Attention_exp_legacy,2023.1.0,Win32,60.24096386,"[1920,1080]","[640,480]",[-0.030208333333333334],[-0.48333333333333334],[1],[0],[0],[3.2308000000044714],"[""StartButton""]",[0.38333333333333336],[0.4962962962962963],[1],[0],[0],[5.632399999998512],"[""RH_label""]",RH_label,1,6.655,"[[-0.030208333333333334,-0.48333333333333334],[-0.030208333333333334,-0.48333333333333334],[-0.030208333333333334,-0.48333333333333334],[-0.030208333333333334,-0.48333333333333334],[-0.030208333333333334,-0.48333333333333334],[-0.030208333333333334,-0.48333333333333334],[-0.030208333333333334,-0.48333333333333334],[-0.030208333333333334,-0.48333333333333334],[-0.030208333333333334,-0.48333333333333334],[-0.030208333333333334,-0.48333333333333334],[-0.030208333333333334,-0.48333333333333334],[-0.030208333333333334,-0.48333333333333334],[-0.030208333333333334,-0.48333333333333334],[-0.030208333333333334,-0.48333333333333334],[-0.030208333333333334,-0.48333333333333334],[-0.030208333333333334,-0.48333333333333334],[-0.030208333333333334,-0.48333333333333334],[-0.030208333333333334,-0.48333333333333334],[-0.030208333333333334,-0.48333333333333334],[-0.030208333333333334,-0.48333333333333334],[-0.030208333333333334,-0.48333333333333334],[-0.030208333333333334,-0.48333333333333334],[-0.030208333333333334,-0.48333333333333334],[-0.030208333333333334,-0.48333333333333334],[-0.030208333333333334,-0.48333333333333334],[-0.030208333333333334,-0.48333333333333334],[-0.030208333333333334,-0.48333333333333334],[-0.030208333333333334,-0.48333333333333334],[-0.030208333333333334,-0.48333333333333334],[-0.030208333333333334,-0.48333333333333334],[-0.030208333333333334,-0.48333333333333334],[-0.030208333333333334,-0.48333333333333334],[-0.030208333333333334,-0.48333333333333334],[-0.030208333333333334,-0.48333333333333334],[-0.030208333333333334,-0.48333333333333334],[-0.030208333333333334,-0.48333333333333334],[-0.030208333333333334,-0.48333333333333334],[-0.030208333333333334,-0.48333333333333334],[-0.030208333333333334,-0.48333333333333334],[-0.030208333333333334,-0.48333333333333334],[-0.030208333333333334,-0.48333333333333334],[-0.030208333333333334,-0.48333333333333334],[-0.030208333333333334,-0.48333333333333334],[-0.030208333333333334,-0.48333333333333334],[-0.030208333333333334,-0.48333333333333334],[-0.030208333333333334,-0.48333333333333334],[-0.030208333333333334,-0.48333333333333334],[-0.030208333333333334,-0.48333333333333334],[-0.030208333333333334,-0.48333333333333334],[-0.030208333333333334,-0.48333333333333334],[-0.030208333333333334,-0.48333333333333334],[-0.030208333333333334,-0.48333333333333334],[-0.030208333333333334,-0.48333333333333334],[-0.030208333333333334,-0.48333333333333334],[-0.030208333333333334,-0.48333333333333334],[-0.030208333333333334,-0.48333333333333334],[-0.030208333333333334,-0.48333333333333334],[-0.030208333333333334,-0.48333333333333334],[-0.030208333333333334,-0.48333333333333334],[-0.030208333333333334,-0.48333333333333334],[-0.030208333333333334,-0.48333333333333334],[-0.030208333333333334,-0.48333333333333334],[-0.030208333333333334,-0.48333333333333334],[-0.030208333333333334,-0.48333333333333334],[-0.030208333333333334,-0.48333333333333334],[-0.030208333333333334,-0.48333333333333334],[-0.030208333333333334,-0.48333333333333334],[-0.030208333333333334,-0.48333333333333334],[-0.030208333333333334,-0.48333333333333334],[-0.030208333333333334,-0.48333333333333334],[-0.030208333333333334,-0.48333333333333334],[-0.030208333333333334,-0.48333333333333334],[-0.030208333333333334,-0.48333333333333334],[-0.030208333333333334,-0.48333333333333334],[-0.030208333333333334,-0.48333333333333334],[-0.030208333333333334,-0.48333333333333334],[-0.030208333333333334,-0.48333333333333334],[-0.030208333333333334,-0.48333333333333334],[-0.030208333333333334,-0.48333333333333334],[-0.030208333333333334,-0.48333333333333334],[-0.030208333333333334,-0.48333333333333334],[-0.030208333333333334,-0.48333333333333334],[-0.030208333333333334,-0.48333333333333334],[-0.030208333333333334,-0.48333333333333334],[-0.030208333333333334,-0.48333333333333334],[-0.030208333333333334,-0.48333333333333334],[-0.030208333333333334,-0.48333333333333334],[-0.030208333333333334,-0.48333333333333334],[-0.030208333333333334,-0.48333333333333334],[-0.030208333333333334,-0.48333333333333334],[-0.030208333333333334,-0.48333333333333334],[-0.030208333333333334,-0.48333333333333334],[-0.030208333333333334,-0.48333333333333334],[-0.030208333333333334,-0.48333333333333334],[-0.030208333333333334,-0.48333333333333334],[-0.030208333333333334,-0.48333333333333334],[-0.030208333333333334,-0.48333333333333334],[-0.030208333333333334,-0.48333333333333334],[-0.030208333333333334,-0.48333333333333334],[-0.030208333333333334,-0.48333333333333334],[-0.030208333333333334,-0.48333333333333334],[-0.030208333333333334,-0.48333333333333334],[-0.030208333333333334,-0.48333333333333334],[-0.030208333333333334,-0.48333333333333334],[-0.030208333333333334,-0.48333333333333334],[-0.030208333333333334,-0.48333333333333334],[-0.030208333333333334,-0.48333333333333334],[-0.030208333333333334,-0.48333333333333334],[-0.030208333333333334,-0.48333333333333334],[-0.030208333333333334,-0.48333333333333334],[-0.030208333333333334,-0.48333333333333334],[-0.030208333333333334,-0.48333333333333334],[-0.030208333333333334,-0.48333333333333334],[-0.030208333333333334,-0.48333333333333334],[-0.030208333333333334,-0.48333333333333334],[-0.030208333333333334,-0.48333333333333334],[-0.030208333333333334,-0.48333333333333334],[-0.030208333333333334,-0.48333333333333334],[-0.030208333333333334,-0.48333333333333334],[-0.030208333333333334,-0.48333333333333334],[-0.030208333333333334,-0.48333333333333334],[-0.030208333333333334,-0.48333333333333334],[-0.030208333333333334,-0.48333333333333334],[-0.030208333333333334,-0.48333333333333334],[-0.030208333333333334,-0.48333333333333334],[-0.030208333333333334,-0.48333333333333334],[-0.030208333333333334,-0.48333333333333334],[-0.030208333333333334,-0.48333333333333334],[-0.030208333333333334,-0.48333333333333334],[-0.030208333333333334,-0.48333333333333334],[-0.030208333333333334,-0.48333333333333334],[-0.030208333333333334,-0.48333333333333334],[-0.030208333333333334,-0.48333333333333334],[-0.030208333333333334,-0.48333333333333334],[-0.030208333333333334,-0.48333333333333334],[-0.030208333333333334,-0.48333333333333334],[-0.030208333333333334,-0.48333333333333334],[-0.030208333333333334,-0.48333333333333334],[-0.030208333333333334,-0.48333333333333334],[-0.030208333333333334,-0.48333333333333334],[-0.030208333333333334,-0.48333333333333334],[-0.030208333333333334,-0.48333333333333334],[-0.030208333333333334,-0.48333333333333334],[-0.030208333333333334,-0.48333333333333334],[-0.030208333333333334,-0.48333333333333334],[-0.030208333333333334,-0.48333333333333334],[-0.030208333333333334,-0.48333333333333334],[-0.030208333333333334,-0.48333333333333334],[-0.030208333333333334,-0.48333333333333334],[-0.030208333333333334,-0.48333333333333334],[-0.030208333333333334,-0.48333333333333334],[-0.030208333333333334,-0.48333333333333334],[-0.030208333333333334,-0.48333333333333334],[-0.030208333333333334,-0.48333333333333334],[-0.030208333333333334,-0.48333333333333334],[-0.030208333333333334,-0.48333333333333334],[-0.030208333333333334,-0.48333333333333334],[-0.030208333333333334,-0.48333333333333334],[-0.030208333333333334,-0.48333333333333334],[-0.030208333333333334,-0.48333333333333334],[-0.030208333333333334,-0.48333333333333334],[-0.030208333333333334,-0.48333333333333334],[-0.030208333333333334,-0.48333333333333334],[-0.030208333333333334,-0.48333333333333334],[-0.030208333333333334,-0.48333333333333334],[-0.030208333333333334,-0.48333333333333334],[-0.030208333333333334,-0.48333333333333334],[-0.030208333333333334,-0.48333333333333334],[-0.030208333333333334,-0.48333333333333334],[-0.030208333333333334,-0.48333333333333334],[-0.030208333333333334,-0.48333333333333334],[-0.030208333333333334,-0.48333333333333334],[-0.030208333333333334,-0.48333333333333334],[-0.030208333333333334,-0.48333333333333334],[-0.030208333333333334,-0.48333333333333334],[-0.030208333333333334,-0.48333333333333334],[-0.030208333333333334,-0.48333333333333334],[-0.030208333333333334,-0.48333333333333334],[-0.030208333333333334,-0.48333333333333334],[-0.030208333333333334,-0.48333333333333334],[-0.030208333333333334,-0.48333333333333334],[-0.030208333333333334,-0.48333333333333334],[-0.030208333333333334,-0.48333333333333334],[-0.030208333333333334,-0.48333333333333334],[-0.030208333333333334,-0.48333333333333334],[-0.030208333333333334,-0.48333333333333334],[-0.030208333333333334,-0.48333333333333334],[-0.030208333333333334,-0.48333333333333334],[-0.030208333333333334,-0.48333333333333334],[-0.030208333333333334,-0.48333333333333334],[-0.030208333333333334,-0.48333333333333334],[-0.030208333333333334,-0.48333333333333334],[-0.030208333333333334,-0.48333333333333334],[-0.030208333333333334,-0.48333333333333334],[-0.030208333333333334,-0.48333333333333334],[-0.030208333333333334,-0.48333333333333334],[-0.030208333333333334,-0.48333333333333334],[-0.030208333333333334,-0.48333333333333334],[-0.030208333333333334,-0.48333333333333334],[-0.030208333333333334,-0.48333333333333334],[-0.030208333333333334,-0.48333333333333334],[-0.030208333333333334,-0.48333333333333334],[-0.030208333333333334,-0.48333333333333334],[-0.030208333333333334,-0.48333333333333334],[-0.030208333333333334,-0.48333333333333334],[-0.030208333333333334,-0.48333333333333334],[-0.030208333333333334,-0.48333333333333334],[-0.030208333333333334,-0.48333333333333334],[-0.030208333333333334,-0.48333333333333334],[-0.030208333333333334,-0.48333333333333334],[-0.030208333333333334,-0.48333333333333334],[-0.030208333333333334,-0.48333333333333334],[-0.030208333333333334,-0.48333333333333334],[-0.030208333333333334,-0.48333333333333334],[-0.030208333333333334,-0.48333333333333334],[-0.030208333333333334,-0.48333333333333334],[-0.030208333333333334,-0.48333333333333334],[-0.030208333333333334,-0.48333333333333334],[-0.030208333333333334,-0.48333333333333334],[-0.030208333333333334,-0.48333333333333334],[-0.030208333333333334,-0.48333333333333334],[-0.030208333333333334,-0.48333333333333334],[-0.030208333333333334,-0.48333333333333334],[-0.030208333333333334,-0.48333333333333334],[-0.030208333333333334,-0.48333333333333334],[-0.030208333333333334,-0.48333333333333334],[-0.030208333333333334,-0.48333333333333334],[-0.030208333333333334,-0.48333333333333334],[-0.030208333333333334,-0.48333333333333334],[-0.030208333333333334,-0.48333333333333334],[-0.030208333333333334,-0.48333333333333334],[-0.030208333333333334,-0.48333333333333334],[-0.030208333333333334,-0.48333333333333334],[-0.030208333333333334,-0.48333333333333334],[-0.030208333333333334,-0.48333333333333334],[-0.030208333333333334,-0.48333333333333334],[-0.030208333333333334,-0.48333333333333334],[-0.030208333333333334,-0.48333333333333334],[-0.030208333333333334,-0.48333333333333334],[-0.030208333333333334,-0.48333333333333334],[-0.030208333333333334,-0.48333333333333334],[-0.030208333333333334,-0.48333333333333334],[-0.030208333333333334,-0.48333333333333334],[-0.030208333333333334,-0.48333333333333334],[-0.030208333333333334,-0.48333333333333334],[-0.030208333333333334,-0.48333333333333334],[-0.030208333333333334,-0.48333333333333334],[-0.030208333333333334,-0.48333333333333334],[-0.030208333333333334,-0.48333333333333334],[-0.030208333333333334,-0.48333333333333334],[-0.03229166666666667,-0.48333333333333334],[-0.03958333333333333,-0.48333333333333334],[-0.04479166666666667,-0.48333333333333334],[-0.04895833333333333,-0.48333333333333334],[-0.05416666666666667,-0.48333333333333334],[-0.059375,-0.48333333333333334],[-0.06354166666666666,-0.48333333333333334],[-0.06875,-0.48333333333333334],[-0.071875,-0.48333333333333334],[-0.07604166666666666,-0.48333333333333334],[-0.07708333333333334,-0.48333333333333334],[-0.07916666666666666,-0.48333333333333334],[-0.08020833333333334,-0.48333333333333334],[-0.08229166666666667,-0.48333333333333334],[-0.08229166666666667,-0.48333333333333334],[-0.08229166666666667,-0.48333333333333334],[-0.08229166666666667,-0.48333333333333334],[-0.08229166666666667,-0.48333333333333334],[-0.08229166666666667,-0.48333333333333334],[-0.08333333333333333,-0.48333333333333334],[-0.08229166666666667,-0.48333333333333334],[-0.058333333333333334,-0.47962962962962963],[0.003125,-0.4685185185185185],[0.09895833333333333,-0.4462962962962963],[0.19791666666666666,-0.4222222222222222],[0.3,-0.39814814814814814],[0.38333333333333336,-0.387037037037037],[0.446875,-0.37777777777777777],[0.475,-0.37777777777777777],[0.484375,-0.37592592592592594],[0.484375,-0.37592592592592594],[0.484375,-0.37592592592592594],[0.484375,-0.37592592592592594],[0.484375,-0.37592592592592594],[0.484375,-0.37592592592592594],[0.484375,-0.37592592592592594],[0.484375,-0.37592592592592594],[0.484375,-0.37592592592592594],[0.484375,-0.37592592592592594],[0.484375,-0.37592592592592594],[0.484375,-0.37592592592592594],[0.484375,-0.37592592592592594],[0.48333333333333334,-0.37592592592592594],[0.475,-0.37592592592592594],[0.4666666666666667,-0.37407407407407406],[0.46041666666666664,-0.37407407407407406],[0.45729166666666665,-0.37407407407407406],[0.45625,-0.37407407407407406],[0.4552083333333333,-0.37407407407407406],[0.4552083333333333,-0.37222222222222223],[0.4510416666666667,-0.35185185185185186],[0.4479166666666667,-0.34074074074074073],[0.440625,-0.29259259259259257],[0.43020833333333336,-0.14814814814814814],[0.421875,-0.04259259259259259],[0.415625,0.053703703703703705],[0.41458333333333336,0.14629629629629629],[0.403125,0.21296296296296297],[0.39791666666666664,0.2518518518518518],[0.3958333333333333,0.2833333333333333],[0.39375,0.3074074074074074],[0.39166666666666666,0.3333333333333333],[0.39166666666666666,0.362962962962963],[0.390625,0.4],[0.3885416666666667,0.4425925925925926],[0.38229166666666664,0.5],[0.38229166666666664,0.5351851851851852],[0.38229166666666664,0.5666666666666667],[0.38229166666666664,0.5888888888888889],[0.38229166666666664,0.6],[0.38229166666666664,0.6],[0.38229166666666664,0.6],[0.38229166666666664,0.6],[0.38229166666666664,0.6],[0.38229166666666664,0.6],[0.38229166666666664,0.6],[0.38229166666666664,0.5981481481481481],[0.38229166666666664,0.5833333333333334],[0.38229166666666664,0.5537037037037037],[0.38229166666666664,0.5333333333333333],[0.38229166666666664,0.5203703703703704],[0.38229166666666664,0.5111111111111111],[0.38229166666666664,0.5037037037037037],[0.38229166666666664,0.4981481481481482],[0.38229166666666664,0.4981481481481482],[0.38333333333333336,0.4962962962962963],[0.38333333333333336,0.4962962962962963],[0.38333333333333336,0.4962962962962963],[0.38333333333333336,0.4962962962962963],[0.38333333333333336,0.4962962962962963],[0.38333333333333336,0.4962962962962963],[0.38333333333333336,0.4962962962962963],[0.38333333333333336,0.4962962962962963],[0.38333333333333336,0.49444444444444446],[0.38333333333333336,0.49444444444444446],[0.38333333333333336,0.49444444444444446],[0.38333333333333336,0.49444444444444446],[0.38333333333333336,0.49444444444444446],[0.38333333333333336,0.49444444444444446],[0.38333333333333336,0.49444444444444446],[0.38333333333333336,0.49444444444444446],[0.38333333333333336,0.49444444444444446],[0.38333333333333336,0.49444444444444446],[0.38333333333333336,0.49444444444444446],[0.38333333333333336,0.49444444444444446],[0.38333333333333336,0.49444444444444446],[0.38333333333333336,0.49444444444444446],[0.38333333333333336,0.49444444444444446],[0.38229166666666664,0.49444444444444446],[0.38229166666666664,0.4888888888888889],[0.38125,0.48148148148148145],[0.38125,0.4759259259259259],[0.378125,0.4685185185185185],[0.378125,0.45740740740740743],[0.378125,0.4462962962962963],[0.37604166666666666,0.4351851851851852],[0.37604166666666666,0.43333333333333335],[0.37604166666666666,0.42777777777777776],[0.375,0.42777777777777776],[0.375,0.42777777777777776],[0.375,0.42777777777777776],[0.375,0.42777777777777776],[0.375,0.42777777777777776],[0.375,0.42777777777777776],[0.375,0.42777777777777776],[0.375,0.42777777777777776],[0.375,0.42777777777777776],[0.375,0.42777777777777776],[0.375,0.42777777777777776],[0.375,0.42777777777777776],[0.375,0.42777777777777776],[0.375,0.42777777777777776],[0.375,0.42777777777777776],[0.375,0.42777777777777776],[0.375,0.42777777777777776],[0.375,0.42777777777777776],[0.375,0.42777777777777776],[0.375,0.42777777777777776],[0.375,0.42777777777777776],[0.375,0.42777777777777776],[0.375,0.42777777777777776],[0.375,0.42777777777777776],[0.375,0.42777777777777776],[0.375,0.42777777777777776],[0.375,0.42777777777777776],[0.375,0.42777777777777776],[0.375,0.42777777777777776],[0.375,0.42777777777777776],[0.375,0.42777777777777776]]","[[-0.134375,-0.2972222222222222],[-0.134375,-0.2972222222222222],[-0.13177083333333334,-0.33370370370370367],[-0.12916666666666668,-0.3701851851851851],[-0.14031250000000003,-0.3755555555555556],[-0.15114583333333337,-0.38425925925925924],[-0.15895833333333337,-0.3866666666666667],[-0.1844791666666667,-0.40907407407407403],[-0.21156250000000001,-0.42685185185185187],[-0.2022916666666667,-0.3972222222222222],[-0.18468749999999995,-0.41277777777777774],[-0.18812500000000001,-0.4190740740740741],[-0.1866666666666667,-0.4038888888888889],[-0.19666666666666663,-0.377962962962963],[-0.21197916666666666,-0.3618518518518518],[-0.22145833333333337,-0.37462962962962965],[-0.2319791666666667,-0.3661111111111111],[-0.2319791666666667,-0.3661111111111111],[-0.22406250000000003,-0.36814814814814817],[-0.21666666666666667,-0.3672222222222222],[-0.20541666666666672,-0.3712962962962963],[-0.22322916666666662,-0.34222222222222226],[-0.24083333333333337,-0.3227777777777778],[-0.25364583333333335,-0.30777777777777776],[-0.24937499999999999,-0.3190740740740741],[-0.26447916666666665,-0.32407407407407407],[-0.27614583333333337,-0.3031481481481481],[-0.2984375,-0.2927777777777778],[-0.29624999999999996,-0.2851851851851852],[-0.3117708333333333,-0.3103703703703704],[-0.34833333333333333,-0.34092592592592597],[-0.36875,-0.3803703703703703],[-0.3767708333333334,-0.40685185185185185],[-0.39010416666666664,-0.4388888888888889],[-0.40906250000000005,-0.4553703703703703],[-0.4091666666666666,-0.48407407407407405],[-0.4188541666666667,-0.5064814814814815],[-0.4189583333333334,-0.5351851851851852],[-0.4452083333333333,-0.5424074074074073],[-0.4516666666666667,-0.5244444444444444],[-0.47,-0.504074074074074],[-0.49145833333333333,-0.48777777777777775],[-0.5104166666666666,-0.4940740740740741],[-0.5401041666666667,-0.4975925925925926],[-0.5684375,-0.5140740740740741],[-0.5864583333333333,-0.5277777777777778],[-0.5771875000000001,-0.5107407407407407],[-0.5795833333333333,-0.5051851851851852],[-0.5795833333333333,-0.5051851851851852],[-0.5611458333333333,-0.5098148148148148],[-0.5713541666666667,-0.5162962962962964],[-0.5627083333333334,-0.5353703703703704],[-0.5690624999999999,-0.5661111111111111],[-0.583125,-0.5790740740740741],[-0.5966666666666666,-0.6016666666666666],[-0.5872916666666667,-0.5805555555555556],[-0.5779166666666666,-0.5594444444444445],[-0.5779166666666666,-0.5594444444444445],[-0.5807291666666666,-0.5696296296296297],[-0.560625,-0.5822222222222222],[-0.560625,-0.5822222222222222],[-0.5836458333333333,-0.6040740740740741],[-0.5780208333333333,-0.6059259259259259],[-0.5793750000000001,-0.5975925925925926],[-0.5715625000000001,-0.5929629629629629],[-0.5585416666666667,-0.5835185185185185],[-0.540625,-0.571111111111111],[-0.5469791666666667,-0.5894444444444444],[-0.5363541666666667,-0.5862962962962963],[-0.5130208333333334,-0.5796296296296296],[-0.48031250000000003,-0.5692592592592592],[-0.42062499999999997,-0.5451851851851851],[-0.3711458333333333,-0.545],[-0.3154166666666666,-0.5370370370370371],[-0.24281250000000001,-0.49611111111111106],[-0.17020833333333332,-0.4551851851851852],[-0.12114583333333329,-0.4492592592592593],[-0.12114583333333329,-0.4492592592592593],[-0.07645833333333331,-0.42962962962962964],[-0.043020833333333286,-0.43925925925925924],[-0.03739583333333331,-0.45185185185185184],[-0.03125,-0.4433333333333333],[-0.024791666666666618,-0.4381481481481482],[0.016875000000000046,-0.41277777777777774],[0.052291666666666715,-0.39518518518518514],[0.07666666666666658,-0.39518518518518514],[0.0709374999999999,-0.415925925925926],[0.08833333333333329,-0.4053703703703703],[0.13666666666666671,-0.4022222222222222],[0.17927083333333324,-0.3912962962962963],[0.24260416666666676,-0.35648148148148145],[0.2587500000000001,-0.3516666666666666],[0.2931250000000001,-0.34370370370370373],[0.2930208333333333,-0.3677777777777778],[0.27489583333333345,-0.39148148148148143],[0.27489583333333345,-0.39148148148148143],[0.24791666666666667,-0.39592592592592596],[0.25104166666666666,-0.37962962962962965],[0.2618750000000001,-0.3346296296296296],[0.24614583333333329,-0.2959259259259259],[0.23708333333333323,-0.26740740740740737],[0.23572916666666663,-0.24574074074074073],[0.2381249999999999,-0.22981481481481486],[0.2007291666666667,-0.21500000000000005],[0.2007291666666667,-0.21500000000000005],[0.1728125000000001,-0.18259259259259264],[0.16979166666666667,-0.175],[0.19541666666666657,-0.16500000000000004],[0.19541666666666657,-0.16500000000000004],[0.2055208333333333,-0.15722222222222218],[0.21802083333333327,-0.19666666666666666],[0.24270833333333333,-0.2190740740740741],[0.21208333333333323,-0.21425925925925923],[0.15302083333333344,-0.2264814814814815],[0.11229166666666662,-0.2111111111111111],[0.10979166666666676,-0.21129629629629634],[0.09239583333333339,-0.19796296296296292],[0.09239583333333339,-0.19796296296296292],[0.08114583333333343,-0.15962962962962962],[0.08114583333333343,-0.15962962962962962],[0.02687499999999995,-0.15351851851851847],[-0.008854166666666666,-0.12370370370370372],[-0.030729166666666665,-0.06185185185185181],[-0.07177083333333331,-0.006481481481481481],[-0.06416666666666669,0.03185185185185194],[-0.05656249999999995,0.07018518518518514],[-0.042708333333333334,0.09499999999999992],[-0.03239583333333336,0.12611111111111115],[-0.007187499999999976,0.14370370370370375],[-0.012083333333333357,0.18555555555555564],[-0.010520833333333358,0.22166666666666676],[0.008333333333333333,0.2175925925925926],[0.0032291666666666905,0.2],[0.005104166666666643,0.17185185185185176],[-0.0009374999999999763,0.16537037037037028],[-0.0017708333333333807,0.1594444444444445],[-0.0005208333333333333,0.1648148148148148],[-0.0032291666666666905,0.17759259259259255],[-0.057604166666666616,0.1742592592592593],[-0.09489583333333336,0.14611111111111108],[-0.09781249999999998,0.1455555555555556],[-0.12104166666666671,0.16370370370370366],[-0.15843750000000004,0.1838888888888888],[-0.17843749999999994,0.20500000000000007],[-0.20031249999999995,0.19129629629629621],[-0.2273958333333333,0.17703703703703708],[-0.25239583333333326,0.14333333333333328],[-0.2865625,0.10944444444444448],[-0.2865625,0.10944444444444448],[-0.2677083333333333,0.08666666666666659],[-0.24156249999999999,0.08000000000000008],[-0.2694791666666667,0.069074074074074],[-0.29739583333333336,0.05814814814814811],[-0.2867708333333333,0.05018518518518523],[-0.29354166666666665,0.04129629629629621],[-0.31614583333333335,0.038703703703703664],[-0.33875000000000005,0.03611111111111111],[-0.36781250000000004,0.052407407407407326],[-0.3922916666666667,0.07407407407407407],[-0.41812499999999997,0.1007407407407407],[-0.44468749999999996,0.1257407407407407],[-0.43479166666666663,0.14370370370370375],[-0.43479166666666663,0.14370370370370375],[-0.41218750000000004,0.12962962962962962],[-0.40291666666666665,0.08203703703703695],[-0.3936458333333333,0.034444444444444486],[-0.3619791666666667,-0.01055555555555564],[-0.3619791666666667,-0.01055555555555564],[-0.3303125,-0.05555555555555555],[-0.3303125,-0.05555555555555555],[-0.2842708333333333,-0.08981481481481482],[-0.25760416666666663,-0.14203703703703702],[-0.23531249999999998,-0.1814814814814815],[-0.17979166666666668,-0.23481481481481484],[-0.15874999999999997,-0.26481481481481484],[-0.11291666666666664,-0.28592592592592586],[-0.13500000000000004,-0.20981481481481484],[-0.13208333333333327,-0.15703703703703706],[-0.12593749999999998,-0.1],[-0.11031249999999998,-0.06074074074074076],[-0.10906250000000005,-0.03222222222222218],[-0.09302083333333329,0.008888888888888804],[-0.058541666666666714,0.031111111111111027],[-0.06385416666666661,0.05277777777777778],[-0.044479166666666715,0.047037037037036995],[-0.05135416666666662,0.09018518518518527],[-0.005520833333333286,0.03981481481481482],[0.015312500000000047,0.012777777777777735],[0.015312500000000047,0.012777777777777735],[0.06854166666666663,0.009999999999999959],[0.12312500000000005,0.04018518518518527],[0.1578125,0.045740740740740825],[0.1578125,0.045740740740740825],[0.20833333333333334,0.08499999999999996],[0.2529166666666666,0.14518518518518514],[0.29749999999999993,0.20537037037037034],[0.3476041666666667,0.26222222222222225],[0.3476041666666667,0.26222222222222225],[0.3707291666666668,0.2631481481481482],[0.4014583333333334,0.2983333333333334],[0.4321875000000001,0.33351851851851855],[0.4353125000000001,0.33907407407407414],[0.4276041666666667,0.32944444444444443],[0.4248958333333334,0.34740740740740744],[0.4248958333333334,0.34740740740740744],[0.40635416666666657,0.32629629629629636],[0.3805208333333333,0.2831481481481481],[0.3805208333333333,0.2831481481481481],[0.3650000000000001,0.2442592592592592],[0.3498958333333334,0.2162962962962962],[0.3384375000000001,0.2222222222222222],[0.33322916666666674,0.23629629629629634],[0.3454166666666666,0.23037037037037034],[0.35281250000000003,0.22981481481481486],[0.36385416666666665,0.2535185185185185],[0.3897916666666667,0.2742592592592593],[0.38520833333333326,0.27925925925925915],[0.3797916666666666,0.29148148148148145],[0.3870833333333332,0.32444444444444454],[0.3870833333333332,0.32444444444444454],[0.3988541666666668,0.34037037037037027],[0.39791666666666664,0.33481481481481473],[0.3805208333333333,0.3122222222222223],[0.3555208333333333,0.2975925925925927],[0.33052083333333326,0.28296296296296286],[0.29802083333333323,0.256111111111111],[0.27541666666666675,0.22611111111111115],[0.27541666666666675,0.22611111111111115],[0.28885416666666663,0.21870370370370373],[0.28885416666666663,0.21870370370370373],[0.2833333333333333,0.21666666666666667],[0.2693749999999999,0.17759259259259255],[0.2273958333333333,0.15333333333333324],[0.21020833333333327,0.14685185185185176],[0.18270833333333342,0.13703703703703704],[0.15177083333333338,0.13351851851851856],[0.11708333333333343,0.1477777777777777],[0.07489583333333343,0.1316666666666667],[0.05625,0.12444444444444452],[0.030104166666666644,0.09444444444444444],[0.01604166666666664,0.1],[-0.0078125,0.1301851851851851],[-0.03145833333333338,0.14944444444444452],[-0.050625000000000024,0.1816666666666667],[-0.05333333333333338,0.19129629629629621],[-0.06239583333333331,0.20666666666666672],[-0.04781249999999997,0.20722222222222217],[-0.01072916666666662,0.23870370370370367],[-0.005937500000000048,0.25203703703703706],[-0.015312500000000047,0.28296296296296286],[-0.03447916666666669,0.2733333333333334],[-0.03447916666666669,0.2733333333333334],[-0.03760416666666669,0.2875925925925925],[-0.013541666666666667,0.3114814814814816],[0.002916666666666619,0.30629629629629623],[0.012812499999999952,0.3351851851851852],[0.04874999999999995,0.3772222222222223],[0.04874999999999995,0.3772222222222223],[0.051250000000000046,0.42018518518518516],[0.041875000000000044,0.4361111111111111],[0.0020833333333333333,0.4301851851851851],[-0.030104166666666644,0.4427777777777778],[0.013020833333333334,0.4711111111111111],[0.012395833333333309,0.46870370370370373],[-0.01114583333333338,0.4587037037037038],[-0.023958333333333335,0.455925925925926],[-0.00604166666666662,0.42296296296296293],[-0.009583333333333381,0.3985185185185186],[-0.001145833333333357,0.3477777777777777],[0.014895833333333285,0.3520370370370371],[0.036562500000000026,0.35555555555555557],[0.11218750000000005,0.347037037037037],[0.12916666666666668,0.3224074074074075],[0.13166666666666677,0.3042592592592592],[0.1638541666666666,0.2959259259259258],[0.20729166666666668,0.29296296296296304],[0.2271874999999999,0.3114814814814816],[0.24249999999999997,0.30833333333333335],[0.24802083333333325,0.34592592592592586],[0.24666666666666662,0.342962962962963],[0.3020833333333333,0.34074074074074073],[0.3011458333333332,0.3212962962962963],[0.3076041666666666,0.3207407407407408],[0.3297916666666666,0.27814814814814826],[0.34489583333333323,0.22351851851851862],[0.3411458333333333,0.17240740740740745],[0.346875,0.21074074074074065],[0.3676041666666668,0.22314814814814815],[0.38260416666666663,0.1955555555555556],[0.38260416666666663,0.1955555555555556],[0.4071875000000001,0.15],[0.39864583333333337,0.13870370370370366],[0.39958333333333323,0.11333333333333341],[0.3865624999999999,0.13333333333333333],[0.41458333333333336,0.16351851851851842],[0.41677083333333326,0.23592592592592587],[0.4335416666666667,0.27611111111111114],[0.3941666666666668,0.21222222222222226],[0.3880208333333333,0.16370370370370366],[0.3823958333333332,0.1874074074074075],[0.36520833333333325,0.22092592592592583],[0.3480208333333332,0.2544444444444444],[0.33875000000000005,0.2975925925925927],[0.3451041666666666,0.2844444444444445],[0.32364583333333335,0.32629629629629636],[0.32833333333333337,0.3357407407407407],[0.32833333333333337,0.3357407407407407],[0.32083333333333336,0.2975925925925927],[0.3779166666666666,0.297037037037037],[0.3572916666666667,0.2996296296296295],[0.3363541666666668,0.1992592592592593],[0.3507291666666667,0.14166666666666666],[0.3507291666666667,0.14166666666666666],[0.3632291666666667,0.08833333333333342],[0.3610416666666666,0.05314814814814823],[0.3662499999999999,-0.004444444444444402],[0.3245833333333332,-0.12129629629629629],[0.3245833333333332,-0.12129629629629629],[0.34739583333333335,-0.19944444444444442],[0.3615624999999999,-0.1853703703703704],[0.3619791666666667,-0.24518518518518514],[0.36739583333333337,-0.28777777777777774],[0.3724999999999999,-0.2661111111111111],[0.3724999999999999,-0.2661111111111111],[0.3758333333333333,-0.2524074074074074],[0.38395833333333323,-0.267037037037037],[0.3625,-0.3242592592592593],[0.3625,-0.3242592592592593],[0.36770833333333336,-0.35833333333333334],[0.4148958333333333,-0.33055555555555555],[0.4028125000000001,-0.34814814814814815],[0.4028125000000001,-0.34814814814814815],[0.40479166666666655,-0.4172222222222222],[0.36604166666666677,-0.41740740740740734],[0.39520833333333344,-0.44296296296296295],[0.4415625000000001,-0.48037037037037034],[0.41302083333333334,-0.522962962962963],[0.4,-0.5596296296296296],[0.4259375000000001,-0.5488888888888889],[0.4019791666666668,-0.5348148148148149],[0.3915625000000001,-0.5594444444444445],[0.3915625000000001,-0.5594444444444445],[0.3689583333333334,-0.5937037037037037],[0.3522916666666667,-0.6122222222222222],[0.3993750000000001,-0.6525925925925925],[0.39208333333333345,-0.5925925925925926],[0.37604166666666666,-0.5985185185185184],[0.37604166666666666,-0.5985185185185184],[0.3991666666666667,-0.582037037037037],[0.4131249999999999,-0.5903703703703704],[0.4122916666666666,-0.5674074074074074],[0.41677083333333326,-0.5533333333333333],[0.39874999999999994,-0.5311111111111111],[0.40947916666666656,-0.4933333333333333],[0.4318749999999999,-0.4583333333333333],[0.43385416666666665,-0.41574074074074074],[0.4400000000000001,-0.4729629629629629],[0.4495833333333332,-0.44222222222222224],[0.4404166666666666,-0.45314814814814813],[0.45510416666666675,-0.43407407407407406],[0.44854166666666656,-0.4637037037037037],[0.45250000000000007,-0.5211111111111111],[0.4736458333333334,-0.5718518518518518],[0.4773958333333333,-0.5992592592592593],[0.4557291666666667,-0.6005555555555556],[0.4352083333333333,-0.5962962962962963],[0.4039583333333333,-0.5737037037037037],[0.38937499999999997,-0.5701851851851851],[0.3977083333333333,-0.5688888888888889],[0.3489583333333333,-0.5672222222222223],[0.3454166666666666,-0.5364814814814814],[0.3466666666666666,-0.5166666666666667],[0.35302083333333345,-0.5109259259259259],[0.3549999999999999,-0.5312962962962963],[0.32395833333333335,-0.47444444444444445],[0.2946875000000001,-0.4957407407407407],[0.23697916666666666,-0.4977777777777778],[0.23697916666666666,-0.4977777777777778],[0.18822916666666673,-0.5070370370370371],[0.13239583333333324,-0.507962962962963],[0.11614583333333334,-0.4888888888888889],[0.0834374999999999,-0.4872222222222223],[0.020833333333333332,-0.46648148148148144],[-0.03927083333333338,-0.46055555555555555],[-0.07916666666666666,-0.4524074074074074],[-0.08999999999999998,-0.5325925925925926],[-0.11697916666666662,-0.5338888888888889],[-0.11697916666666662,-0.5338888888888889],[-0.14708333333333337,-0.5075925925925926],[-0.19541666666666668,-0.522037037037037],[-0.20729166666666668,-0.5281481481481481],[-0.20833333333333334,-0.5314814814814814],[-0.20989583333333334,-0.5361111111111111],[-0.20989583333333334,-0.5361111111111111],[-0.1872916666666666,-0.5351851851851852],[-0.17354166666666668,-0.5444444444444444],[-0.17854166666666665,-0.5511111111111111],[-0.17958333333333332,-0.5466666666666666],[-0.18718750000000003,-0.5196296296296297]]","[[-0.134375,-0.2972222222222222,0.000399999998506928],[-0.134375,-0.2972222222222222,0.04800000000000182],[-0.13177083333333334,-0.33370370370370367,0.05510000000148807],[-0.12916666666666668,-0.3701851851851851,0.07179999999701892],[-0.14031250000000003,-0.3755555555555556,0.08870000000298006],[-0.15114583333333337,-0.38425925925925924,0.10779999999702028],[-0.15895833333333337,-0.3866666666666667,0.12170000000298131],[-0.1844791666666667,-0.40907407407407403,0.13839999999851216],[-0.21156250000000001,-0.42685185185185187,0.15500000000000114],[-0.2022916666666667,-0.3972222222222222,0.17170000000297847],[-0.18468749999999995,-0.41277777777777774,0.19129999999702108],[-0.18812500000000001,-0.4190740740740741,0.20599999999999596],[-0.1866666666666667,-0.4038888888888889,0.2217999999970175],[-0.19666666666666663,-0.377962962962963,0.23839999999850647],[-0.21197916666666666,-0.3618518518518518,0.25500000000000256],[-0.22145833333333337,-0.37462962962962965,0.2744999999999962],[-0.2319791666666667,-0.3661111111111111,0.28949999999999676],[-0.2319791666666667,-0.3661111111111111,0.30510000000148807],[-0.22406250000000003,-0.36814814814814817,0.32170000000297705],[-0.21666666666666667,-0.3672222222222222,0.3383999999985079],[-0.20541666666666672,-0.3712962962962963,0.3577000000029784],[-0.22322916666666662,-0.34222222222222226,0.3717000000029813],[-0.24083333333333337,-0.3227777777777778,0.3885000000000005],[-0.25364583333333335,-0.30777777777777776,0.4052999999970197],[-0.24937499999999999,-0.3190740740740741,0.42170000000297847],[-0.26447916666666665,-0.32407407407407407,0.44110000000149086],[-0.27614583333333337,-0.3031481481481481,0.4549999999999983],[-0.2984375,-0.2927777777777778,0.47170000000298273],[-0.29624999999999996,-0.2851851851851852,0.48850000000000193],[-0.3117708333333333,-0.3103703703703704,0.5063999999985072],[-0.34833333333333333,-0.34092592592592597,0.5244999999999962],[-0.36875,-0.3803703703703703,0.5407000000029782],[-0.3767708333333334,-0.40685185185185185,0.5552999999970183],[-0.39010416666666664,-0.4388888888888889,0.571700000002977],[-0.40906250000000005,-0.4553703703703703,0.5883999999985079],[-0.4091666666666666,-0.48407407407407405,0.6077999999970203],[-0.4188541666666667,-0.5064814814814815,0.6217000000029813],[-0.4189583333333334,-0.5351851851851852,0.6383999999985122],[-0.4452083333333333,-0.5424074074074073,0.6550000000000011],[-0.4516666666666667,-0.5244444444444444,0.6717999999970203],[-0.47,-0.504074074074074,0.6912999999970211],[-0.49145833333333333,-0.48777777777777775,0.7057000000029774],[-0.5104166666666666,-0.4940740740740741,0.7217999999970175],[-0.5401041666666667,-0.4975925925925926,0.7386000000014903],[-0.5684375,-0.5140740740740741,0.7550000000000026],[-0.5864583333333333,-0.5277777777777778,0.7743999999985078],[-0.5771875000000001,-0.5107407407407407,0.7886000000014874],[-0.5795833333333333,-0.5051851851851852,0.8115000000000023],[-0.5795833333333333,-0.5051851851851852,0.821700000002977],[-0.5611458333333333,-0.5098148148148148,0.8384999999999962],[-0.5713541666666667,-0.5162962962962964,0.858399999998511],[-0.5627083333333334,-0.5353703703703704,0.8722000000029766],[-0.5690624999999999,-0.5661111111111111,0.8883999999985122],[-0.583125,-0.5790740740740741,0.9052000000029778],[-0.5966666666666666,-0.6016666666666666,0.9217000000029785],[-0.5872916666666667,-0.5805555555555556,0.9417999999970164],[-0.5779166666666666,-0.5594444444444445,0.9572999999970193],[-0.5779166666666666,-0.5594444444444445,0.9717999999970175],[-0.5807291666666666,-0.5696296296296297,0.9883999999985065],[-0.560625,-0.5822222222222222,1.005100000001491],[-0.560625,-0.5822222222222222,1.0217999999970218],[-0.5836458333333333,-0.6040740740740741,1.0383999999985107],[-0.5780208333333333,-0.6059259259259259,1.0549999999999997],[-0.5793750000000001,-0.5975925925925926,1.071799999997019],[-0.5715625000000001,-0.5929629629629629,1.0886000000014917],[-0.5585416666666667,-0.5835185185185185,1.107999999999997],[-0.540625,-0.571111111111111,1.1218999999985115],[-0.5469791666666667,-0.5894444444444444,1.1385000000000005],[-0.5363541666666667,-0.5862962962962963,1.1561000000014872],[-0.5130208333333334,-0.5796296296296296,1.1717000000029785],[-0.48031250000000003,-0.5692592592592592,1.1912000000029792],[-0.42062499999999997,-0.5451851851851851,1.2062000000029798],[-0.3711458333333333,-0.545,1.2217000000029827],[-0.3154166666666666,-0.5370370370370371,1.2383999999985065],[-0.24281250000000001,-0.49611111111111106,1.255100000001491],[-0.17020833333333332,-0.4551851851851852,1.2742000000029776],[-0.12114583333333329,-0.4492592592592593,1.2897999999970224],[-0.12114583333333329,-0.4492592592592593,1.3049999999999997],[-0.07645833333333331,-0.42962962962962964,1.321700000002977],[-0.043020833333333286,-0.43925925925925924,1.338399999998508],[-0.03739583333333331,-0.45185185185185184,1.357999999999997],[-0.03125,-0.4433333333333333,1.3722000000029766],[-0.024791666666666618,-0.4381481481481482,1.3885000000000005],[0.016875000000000046,-0.41277777777777774,1.4062000000029826],[0.052291666666666715,-0.39518518518518514,1.4217000000029785],[0.07666666666666658,-0.39518518518518514,1.4411000000014909],[0.0709374999999999,-0.415925925925926,1.4549999999999983],[0.08833333333333329,-0.4053703703703703,1.4717999999970175],[0.13666666666666671,-0.4022222222222222,1.4883999999985065],[0.17927083333333324,-0.3912962962962963,1.505100000001491],[0.24260416666666676,-0.35648148148148145,1.5243999999985078],[0.2587500000000001,-0.3516666666666666,1.5405000000000015],[0.2931250000000001,-0.34370370370370373,1.5549999999999997],[0.2930208333333333,-0.3677777777777778,1.5731000000014888],[0.27489583333333345,-0.39148148148148143,1.5943999999985081],[0.27489583333333345,-0.39148148148148143,1.6049999999999969],[0.24791666666666667,-0.39592592592592596,1.6217000000029813],[0.25104166666666666,-0.37962962962962965,1.6383999999985122],[0.2618750000000001,-0.3346296296296296,1.6550000000000011],[0.24614583333333329,-0.2959259259259259,1.6717000000029785],[0.23708333333333323,-0.26740740740740737,1.6920000000000002],[0.23572916666666663,-0.24574074074074073,1.7068999999985124],[0.2381249999999999,-0.22981481481481486,1.7217000000029827],[0.2007291666666667,-0.21500000000000005,1.7402000000029787],[0.2007291666666667,-0.21500000000000005,1.7565000000000026],[0.1728125000000001,-0.18259259259259264,1.77170000000298],[0.16979166666666667,-0.175,1.788700000002983],[0.19541666666666657,-0.16500000000000004,1.805100000001488],[0.19541666666666657,-0.16500000000000004,1.821799999997019],[0.2055208333333333,-0.15722222222222218,1.838399999998508],[0.21802083333333327,-0.19666666666666666,1.8578999999985086],[0.24270833333333333,-0.2190740740740741,1.8717000000029813],[0.21208333333333323,-0.21425925925925923,1.8885000000000005],[0.15302083333333344,-0.2264814814814815,1.9050000000000011],[0.11229166666666662,-0.2111111111111111,1.9217999999970203],[0.10979166666666676,-0.21129629629629634,1.940899999998507],[0.09239583333333339,-0.19796296296296292,1.955200000002982],[0.09239583333333339,-0.19796296296296292,1.9717000000029827],[0.08114583333333343,-0.15962962962962962,1.988500000000002],[0.08114583333333343,-0.15962962962962962,2.005100000001491],[0.02687499999999995,-0.15351851851851847,2.02170000000298],[-0.008854166666666666,-0.12370370370370372,2.0383999999985107],[-0.030729166666666665,-0.06185185185185181,2.0549999999999997],[-0.07177083333333331,-0.006481481481481481,2.0716000000014887],[-0.06416666666666669,0.03185185185185194,2.0884999999999962],[-0.05656249999999995,0.07018518518518514,2.10760000000149],[-0.042708333333333334,0.09499999999999992,2.1217000000029813],[-0.03239583333333336,0.12611111111111115,2.1385000000000005],[-0.007187499999999976,0.14370370370370375,2.155000000000001],[-0.012083333333333357,0.18555555555555564,2.1717000000029785],[-0.010520833333333358,0.22166666666666676,2.191499999999998],[0.008333333333333333,0.2175925925925926,2.2055000000000007],[0.0032291666666666905,0.2,2.2217000000029827],[0.005104166666666643,0.17185185185185176,2.2383999999985065],[-0.0009374999999999763,0.16537037037037028,2.2550000000000026],[-0.0017708333333333807,0.1594444444444445,2.2749999999999986],[-0.0005208333333333333,0.1648148148148148,2.289200000002978],[-0.0032291666666666905,0.17759259259259255,2.307399999998509],[-0.057604166666666616,0.1742592592592593,2.3222000000029794],[-0.09489583333333336,0.14611111111111108,2.3382999999970195],[-0.09781249999999998,0.1455555555555556,2.357299999997018],[-0.12104166666666671,0.16370370370370366,2.3717000000029813],[-0.15843750000000004,0.1838888888888888,2.388399999998512],[-0.17843749999999994,0.20500000000000007,2.4051000000014895],[-0.20031249999999995,0.19129629629629621,2.4217000000029785],[-0.2273958333333333,0.17703703703703708,2.440899999998507],[-0.25239583333333326,0.14333333333333328,2.455200000002982],[-0.2865625,0.10944444444444448,2.4717000000029827],[-0.2865625,0.10944444444444448,2.4886000000014903],[-0.2677083333333333,0.08666666666666659,2.5052000000029793],[-0.24156249999999999,0.08000000000000008,2.524499999999996],[-0.2694791666666667,0.069074074074074,2.53929999999702],[-0.29739583333333336,0.05814814814814811,2.5549999999999997],[-0.2867708333333333,0.05018518518518523,2.571700000002977],[-0.29354166666666665,0.04129629629629621,2.588399999998508],[-0.31614583333333335,0.038703703703703664,2.608200000002981],[-0.33875000000000005,0.03611111111111111,2.622799999997021],[-0.36781250000000004,0.052407407407407326,2.638399999998512],[-0.3922916666666667,0.07407407407407407,2.655000000000001],[-0.41812499999999997,0.1007407407407407,2.6717000000029785],[-0.44468749999999996,0.1257407407407407,2.6921000000014885],[-0.43479166666666663,0.14370370370370375,2.7077999999970217],[-0.43479166666666663,0.14370370370370375,2.7217000000029827],[-0.41218750000000004,0.12962962962962962,2.7383999999985065],[-0.40291666666666665,0.08203703703703695,2.7550000000000026],[-0.3936458333333333,0.034444444444444486,2.7742999999970195],[-0.3619791666666667,-0.01055555555555564,2.79060000000149],[-0.3619791666666667,-0.01055555555555564,2.8049999999999997],[-0.3303125,-0.05555555555555555,2.821799999997019],[-0.3303125,-0.05555555555555555,2.83870000000298],[-0.2842708333333333,-0.08981481481481482,2.854999999999997],[-0.25760416666666663,-0.14203703703703702,2.871600000001493],[-0.23531249999999998,-0.1814814814814815,2.888399999998512],[-0.17979166666666668,-0.23481481481481484,2.906899999998508],[-0.15874999999999997,-0.26481481481481484,2.922600000001488],[-0.11291666666666664,-0.28592592592592586,2.941600000001486],[-0.13500000000000004,-0.20981481481481484,2.95639999999851],[-0.13208333333333327,-0.15703703703703706,2.9717000000029827],[-0.12593749999999998,-0.1,2.9883999999985065],[-0.11031249999999998,-0.06074074074074076,3.0050000000000026],[-0.10906250000000005,-0.03222222222222218,3.024499999999996],[-0.09302083333333329,0.008888888888888804,3.0382999999970224],[-0.058541666666666714,0.031111111111111027,3.0549999999999997],[-0.06385416666666661,0.05277777777777778,3.0716000000014887],[-0.044479166666666715,0.047037037037036995,3.0884999999999962],[-0.05135416666666662,0.09018518518518527,3.1081000000014924],[-0.005520833333333286,0.03981481481481482,3.1222000000029766],[0.015312500000000047,0.012777777777777735,3.1417000000029773],[0.015312500000000047,0.012777777777777735,3.155000000000001],[0.06854166666666663,0.009999999999999959,3.1717000000029785],[0.12312500000000005,0.04018518518518527,3.191100000001491],[0.1578125,0.045740740740740825,3.2070000000000007],[0.1578125,0.045740740740740825,3.2217000000029827],[0.20833333333333334,0.08499999999999996,3.2383999999985065],[0.2529166666666666,0.14518518518518514,3.255100000001491],[0.29749999999999993,0.20537037037037034,3.274399999998508],[0.3476041666666667,0.26222222222222225,3.2883999999985107],[0.3476041666666667,0.26222222222222225,3.3049999999999997],[0.3707291666666668,0.2631481481481482,3.321700000002977],[0.4014583333333334,0.2983333333333334,3.3382999999970195],[0.4321875000000001,0.33351851851851855,3.3578999999985086],[0.4353125000000001,0.33907407407407414,3.3740000000000023],[0.4276041666666667,0.32944444444444443,3.39239999999851],[0.4248958333333334,0.34740740740740744,3.407899999998506],[0.4248958333333334,0.34740740740740744,3.4217000000029785],[0.40635416666666657,0.32629629629629636,3.438299999997021],[0.3805208333333333,0.2831481481481481,3.4557000000029845],[0.3805208333333333,0.2831481481481481,3.4716000000014944],[0.3650000000000001,0.2442592592592592,3.488499999999995],[0.3498958333333334,0.2162962962962962,3.505100000001484],[0.3384375000000001,0.2222222222222222,3.524499999999996],[0.33322916666666674,0.23629629629629634,3.540299999997025],[0.3454166666666666,0.23037037037037034,3.5552999999970254],[0.35281250000000003,0.22981481481481486,3.571700000002984],[0.36385416666666665,0.2535185185185185,3.588399999998508],[0.3897916666666667,0.2742592592592593,3.6078999999985157],[0.38520833333333326,0.27925925925925915,3.6226000000014906],[0.3797916666666666,0.29148148148148145,3.638399999998505],[0.3870833333333332,0.32444444444444454,3.654999999999994],[0.3870833333333332,0.32444444444444454,3.6717000000029785],[0.3988541666666668,0.34037037037037027,3.688399999998502],[0.39791666666666664,0.33481481481481473,3.7070000000000007],[0.3805208333333333,0.3122222222222223,3.7217999999970246],[0.3555208333333333,0.2975925925925927,3.739399999998504],[0.33052083333333326,0.28296296296296286,3.7550000000000026],[0.29802083333333323,0.256111111111111,3.7742999999970195],[0.27541666666666675,0.22611111111111115,3.7897000000029735],[0.27541666666666675,0.22611111111111115,3.805100000001495],[0.28885416666666663,0.21870370370370373,3.821799999997019],[0.28885416666666663,0.21870370370370373,3.838399999998508],[0.2833333333333333,0.21666666666666667,3.8551000000014923],[0.2693749999999999,0.17759259259259255,3.871600000001486],[0.2273958333333333,0.15333333333333324,3.8885000000000005],[0.21020833333333327,0.14685185185185176,3.9051000000014895],[0.18270833333333342,0.13703703703703704,3.9217000000029785],[0.15177083333333338,0.13351851851851856,3.941100000001491],[0.11708333333333343,0.1477777777777777,3.9550000000000054],[0.07489583333333343,0.1316666666666667,3.9716000000014944],[0.05625,0.12444444444444452,3.988299999997018],[0.030104166666666644,0.09444444444444444,4.005000000000003],[0.01604166666666664,0.1,4.024899999998503],[-0.0078125,0.1301851851851851,4.039499999999997],[-0.03145833333333338,0.14944444444444452,4.055],[-0.050625000000000024,0.1816666666666667,4.071700000002984],[-0.05333333333333338,0.19129629629629621,4.088500000000003],[-0.06239583333333331,0.20666666666666672,4.1077000000029855],[-0.04781249999999997,0.20722222222222217,4.122899999998516],[-0.01072916666666662,0.23870370370370367,4.138399999998505],[-0.005937500000000048,0.25203703703703706,4.154999999999994],[-0.015312500000000047,0.28296296296296286,4.1717000000029785],[-0.03447916666666669,0.2733333333333334,4.193100000001486],[-0.03447916666666669,0.2733333333333334,4.205200000002982],[-0.03760416666666669,0.2875925925925925,4.221899999998506],[-0.013541666666666667,0.3114814814814816,4.238499999999995],[0.002916666666666619,0.30629629629629623,4.259100000001489],[0.012812499999999952,0.3351851851851852,4.274499999999996],[0.04874999999999995,0.3772222222222223,4.289899999998504],[0.04874999999999995,0.3772222222222223,4.305200000002976],[0.051250000000000046,0.42018518518518516,4.323399999998507],[0.041875000000000044,0.4361111111111111,4.338500000000003],[0.0020833333333333333,0.4301851851851851,4.357399999998513],[-0.030104166666666644,0.4427777777777778,4.374999999999993],[0.013020833333333334,0.4711111111111111,4.391399999998505],[0.012395833333333309,0.46870370370370373,4.405899999998503],[-0.01114583333333338,0.4587037037037038,4.421600000001483],[-0.023958333333333335,0.455925925925926,4.440899999998514],[-0.00604166666666662,0.42296296296296293,4.455000000000005],[-0.009583333333333381,0.3985185185185186,4.471700000002976],[-0.001145833333333357,0.3477777777777777,4.488499999999995],[0.014895833333333285,0.3520370370370371,4.509600000001491],[0.036562500000000026,0.35555555555555557,4.524700000002973],[0.11218750000000005,0.347037037037037,4.538999999999994],[0.12916666666666668,0.3224074074074075,4.555399999998507],[0.13166666666666677,0.3042592592592592,4.573600000001484],[0.1638541666666666,0.2959259259259258,4.588600000001485],[0.20729166666666668,0.29296296296296304,4.608200000002974],[0.2271874999999999,0.3114814814814816,4.621799999997016],[0.24249999999999997,0.30833333333333335,4.640899999998503],[0.24802083333333325,0.34592592592592586,4.655499999999996],[0.24666666666666662,0.342962962962963,4.672000000000004],[0.3020833333333333,0.34074074074074073,4.691399999998502],[0.3011458333333332,0.3212962962962963,4.706399999998503],[0.3076041666666666,0.3207407407407408,4.721600000001494],[0.3297916666666666,0.27814814814814826,4.739799999997025],[0.34489583333333323,0.22351851851851862,4.755000000000003],[0.3411458333333333,0.17240740740740745,4.774399999998515],[0.346875,0.21074074074074065,4.789799999997022],[0.3676041666666668,0.22314814814814815,4.805],[0.38260416666666663,0.1955555555555556,4.825499999999998],[0.38260416666666663,0.1955555555555556,4.838299999997012],[0.4071875000000001,0.15,4.854999999999997],[0.39864583333333337,0.13870370370370366,4.871700000002981],[0.39958333333333323,0.11333333333333341,4.891799999997012],[0.3865624999999999,0.13333333333333333,4.907899999998513],[0.41458333333333336,0.16351851851851842,4.921799999997013],[0.41677083333333326,0.23592592592592587,4.943100000001486],[0.4335416666666667,0.27611111111111114,4.9572000000029774],[0.3941666666666668,0.21222222222222226,4.972399999998508],[0.3880208333333333,0.16370370370370366,4.989399999998504],[0.3823958333333332,0.1874074074074075,5.010200000002975],[0.36520833333333325,0.22092592592592583,5.024999999999999],[0.3480208333333332,0.2544444444444444,5.038899999998513],[0.33875000000000005,0.2975925925925927,5.057799999997023],[0.3451041666666666,0.2844444444444445,5.07389999999851],[0.32364583333333335,0.32629629629629636,5.089000000000006],[0.32833333333333337,0.3357407407407407,5.109799999997016],[0.32833333333333337,0.3357407407407407,5.1218999999985115],[0.32083333333333336,0.2975925925925927,5.1385000000000005],[0.3779166666666666,0.297037037037037,5.155200000002985],[0.3572916666666667,0.2996296296296295,5.175600000001488],[0.3363541666666668,0.1992592592592593,5.192],[0.3507291666666667,0.14166666666666666,5.207399999998508],[0.3507291666666667,0.14166666666666666,5.224299999997022],[0.3632291666666667,0.08833333333333342,5.238700000002986],[0.3610416666666666,0.05314814814814823,5.255200000002979],[0.3662499999999999,-0.004444444444444402,5.275600000001496],[0.3245833333333332,-0.12129629629629629,5.29210000000149],[0.3245833333333332,-0.12129629629629629,5.305200000002976],[0.34739583333333335,-0.19944444444444442,5.321899999998514],[0.3615624999999999,-0.1853703703703704,5.343499999999999],[0.3619791666666667,-0.24518518518518514,5.358399999998504],[0.36739583333333337,-0.28777777777777774,5.373799999997026],[0.3724999999999999,-0.2661111111111111,5.39239999999851],[0.3724999999999999,-0.2661111111111111,5.407899999998513],[0.3758333333333333,-0.2524074074074074,5.4217000000029785],[0.38395833333333323,-0.267037037037037,5.441100000001491],[0.3625,-0.3242592592592593,5.457100000001496],[0.3625,-0.3242592592592593,5.471799999997025],[0.36770833333333336,-0.35833333333333334,5.488999999999997],[0.4148958333333333,-0.33055555555555555,5.505100000001484],[0.4028125000000001,-0.34814814814814815,5.525799999997012],[0.4028125000000001,-0.34814814814814815,5.538399999998511],[0.40479166666666655,-0.4172222222222222,5.555100000001495],[0.36604166666666677,-0.41740740740740734,5.571899999998514],[0.39520833333333344,-0.44296296296296295,5.588399999998508],[0.4415625000000001,-0.48037037037037034,5.6092000000029785],[0.41302083333333334,-0.522962962962963,5.623600000001495],[0.4,-0.5596296296296296,5.638299999997024],[0.4259375000000001,-0.5488888888888889,5.657999999999994],[0.4019791666666668,-0.5348148148148149,5.676600000001493],[0.3915625000000001,-0.5594444444444445,5.693600000001489],[0.3915625000000001,-0.5594444444444445,5.705000000000005],[0.3689583333333334,-0.5937037037037037,5.721700000002976],[0.3522916666666667,-0.6122222222222222,5.7398999999985065],[0.3993750000000001,-0.6525925925925925,5.755000000000003],[0.39208333333333345,-0.5925925925925926,5.774399999998515],[0.37604166666666666,-0.5985185185185184,5.788500000000006],[0.37604166666666666,-0.5985185185185184,5.805],[0.3991666666666667,-0.582037037037037,5.821799999997019],[0.4131249999999999,-0.5903703703703704,5.838299999997012],[0.4122916666666666,-0.5674074074074074,5.8577000000029855],[0.41677083333333326,-0.5533333333333333,5.871700000002981],[0.39874999999999994,-0.5311111111111111,5.888399999998505],[0.40947916666666656,-0.4933333333333333,5.904999999999994],[0.4318749999999999,-0.4583333333333333,5.921600000001483],[0.43385416666666665,-0.41574074074074074,5.941299999997021],[0.4400000000000001,-0.4729629629629629,5.955100000001487],[0.4495833333333332,-0.44222222222222224,5.971600000001494],[0.4404166666666666,-0.45314814814814813,5.9909999999999926],[0.45510416666666675,-0.43407407407407406,6.0053999999985095],[0.44854166666666656,-0.4637037037037037,6.024799999997022],[0.45250000000000007,-0.5211111111111111,6.038500000000006],[0.4736458333333334,-0.5718518518518518,6.058],[0.4773958333333333,-0.5992592592592593,6.071899999998514],[0.4557291666666667,-0.6005555555555556,6.088799999997015],[0.4352083333333333,-0.5962962962962963,6.109100000001483],[0.4039583333333333,-0.5737037037037037,6.123299999997023],[0.38937499999999997,-0.5701851851851851,6.1385000000000005],[0.3977083333333333,-0.5688888888888889,6.155499999999996],[0.3489583333333333,-0.5672222222222223,6.171600000001483],[0.3454166666666666,-0.5364814814814814,6.191399999998502],[0.3466666666666666,-0.5166666666666667,6.2072000000029774],[0.35302083333333345,-0.5109259259259259,6.221600000001494],[0.3549999999999999,-0.5312962962962963,6.238299999997018],[0.32395833333333335,-0.47444444444444445,6.255000000000003],[0.2946875000000001,-0.4957407407407407,6.274799999997022],[0.23697916666666666,-0.4977777777777778,6.290399999998506],[0.23697916666666666,-0.4977777777777778,6.305],[0.18822916666666673,-0.5070370370370371,6.321700000002984],[0.13239583333333324,-0.507962962962963,6.338299999997012],[0.11614583333333334,-0.4888888888888889,6.357899999998516],[0.0834374999999999,-0.4872222222222223,6.371799999997016],[0.020833333333333332,-0.46648148148148144,6.388299999997024],[-0.03927083333333338,-0.46055555555555555,6.405200000002985],[-0.07916666666666666,-0.4524074074074074,6.4217000000029785],[-0.08999999999999998,-0.5325925925925926,6.441399999998502],[-0.11697916666666662,-0.5338888888888889,6.456899999998505],[-0.11697916666666662,-0.5338888888888889,6.471700000002976],[-0.14708333333333337,-0.5075925925925926,6.488399999998514],[-0.19541666666666668,-0.522037037037037,6.506100000001489],[-0.20729166666666668,-0.5281481481481481,6.525100000001494],[-0.20833333333333334,-0.5314814814814814,6.541500000000006],[-0.20989583333333334,-0.5361111111111111,6.558899999998509],[-0.20989583333333334,-0.5361111111111111,6.571700000002984],[-0.1872916666666666,-0.5351851851851852,6.588399999998508],[-0.17354166666666668,-0.5444444444444444,6.60779999999702],[-0.17854166666666665,-0.5511111111111111,6.622799999997021],[-0.17958333333333332,-0.5466666666666666,6.638299999997024],[-0.18718750000000003,-0.5196296296296297,6.654999999999994]]","[0.000399999998506928,0.04800000000000182,0.05510000000148807,0.07179999999701892,0.08870000000298006,0.10779999999702028,0.12170000000298131,0.13839999999851216,0.15500000000000114,0.17170000000297847,0.19129999999702108,0.20599999999999596,0.2217999999970175,0.23839999999850647,0.25500000000000256,0.2744999999999962,0.28949999999999676,0.30510000000148807,0.32170000000297705,0.3383999999985079,0.3577000000029784,0.3717000000029813,0.3885000000000005,0.4052999999970197,0.42170000000297847,0.44110000000149086,0.4549999999999983,0.47170000000298273,0.48850000000000193,0.5063999999985072,0.5244999999999962,0.5407000000029782,0.5552999999970183,0.571700000002977,0.5883999999985079,0.6077999999970203,0.6217000000029813,0.6383999999985122,0.6550000000000011,0.6717999999970203,0.6912999999970211,0.7057000000029774,0.7217999999970175,0.7386000000014903,0.7550000000000026,0.7743999999985078,0.7886000000014874,0.8115000000000023,0.821700000002977,0.8384999999999962,0.858399999998511,0.8722000000029766,0.8883999999985122,0.9052000000029778,0.9217000000029785,0.9417999999970164,0.9572999999970193,0.9717999999970175,0.9883999999985065,1.005100000001491,1.0217999999970218,1.0383999999985107,1.0549999999999997,1.071799999997019,1.0886000000014917,1.107999999999997,1.1218999999985115,1.1385000000000005,1.1561000000014872,1.1717000000029785,1.1912000000029792,1.2062000000029798,1.2217000000029827,1.2383999999985065,1.255100000001491,1.2742000000029776,1.2897999999970224,1.3049999999999997,1.321700000002977,1.338399999998508,1.357999999999997,1.3722000000029766,1.3885000000000005,1.4062000000029826,1.4217000000029785,1.4411000000014909,1.4549999999999983,1.4717999999970175,1.4883999999985065,1.505100000001491,1.5243999999985078,1.5405000000000015,1.5549999999999997,1.5731000000014888,1.5943999999985081,1.6049999999999969,1.6217000000029813,1.6383999999985122,1.6550000000000011,1.6717000000029785,1.6920000000000002,1.7068999999985124,1.7217000000029827,1.7402000000029787,1.7565000000000026,1.77170000000298,1.788700000002983,1.805100000001488,1.821799999997019,1.838399999998508,1.8578999999985086,1.8717000000029813,1.8885000000000005,1.9050000000000011,1.9217999999970203,1.940899999998507,1.955200000002982,1.9717000000029827,1.988500000000002,2.005100000001491,2.02170000000298,2.0383999999985107,2.0549999999999997,2.0716000000014887,2.0884999999999962,2.10760000000149,2.1217000000029813,2.1385000000000005,2.155000000000001,2.1717000000029785,2.191499999999998,2.2055000000000007,2.2217000000029827,2.2383999999985065,2.2550000000000026,2.2749999999999986,2.289200000002978,2.307399999998509,2.3222000000029794,2.3382999999970195,2.357299999997018,2.3717000000029813,2.388399999998512,2.4051000000014895,2.4217000000029785,2.440899999998507,2.455200000002982,2.4717000000029827,2.4886000000014903,2.5052000000029793,2.524499999999996,2.53929999999702,2.5549999999999997,2.571700000002977,2.588399999998508,2.608200000002981,2.622799999997021,2.638399999998512,2.655000000000001,2.6717000000029785,2.6921000000014885,2.7077999999970217,2.7217000000029827,2.7383999999985065,2.7550000000000026,2.7742999999970195,2.79060000000149,2.8049999999999997,2.821799999997019,2.83870000000298,2.854999999999997,2.871600000001493,2.888399999998512,2.906899999998508,2.922600000001488,2.941600000001486,2.95639999999851,2.9717000000029827,2.9883999999985065,3.0050000000000026,3.024499999999996,3.0382999999970224,3.0549999999999997,3.0716000000014887,3.0884999999999962,3.1081000000014924,3.1222000000029766,3.1417000000029773,3.155000000000001,3.1717000000029785,3.191100000001491,3.2070000000000007,3.2217000000029827,3.2383999999985065,3.255100000001491,3.274399999998508,3.2883999999985107,3.3049999999999997,3.321700000002977,3.3382999999970195,3.3578999999985086,3.3740000000000023,3.39239999999851,3.407899999998506,3.4217000000029785,3.438299999997021,3.4557000000029845,3.4716000000014944,3.488499999999995,3.505100000001484,3.524499999999996,3.540299999997025,3.5552999999970254,3.571700000002984,3.588399999998508,3.6078999999985157,3.6226000000014906,3.638399999998505,3.654999999999994,3.6717000000029785,3.688399999998502,3.7070000000000007,3.7217999999970246,3.739399999998504,3.7550000000000026,3.7742999999970195,3.7897000000029735,3.805100000001495,3.821799999997019,3.838399999998508,3.8551000000014923,3.871600000001486,3.8885000000000005,3.9051000000014895,3.9217000000029785,3.941100000001491,3.9550000000000054,3.9716000000014944,3.988299999997018,4.005000000000003,4.024899999998503,4.039499999999997,4.055,4.071700000002984,4.088500000000003,4.1077000000029855,4.122899999998516,4.138399999998505,4.154999999999994,4.1717000000029785,4.193100000001486,4.205200000002982,4.221899999998506,4.238499999999995,4.259100000001489,4.274499999999996,4.289899999998504,4.305200000002976,4.323399999998507,4.338500000000003,4.357399999998513,4.374999999999993,4.391399999998505,4.405899999998503,4.421600000001483,4.440899999998514,4.455000000000005,4.471700000002976,4.488499999999995,4.509600000001491,4.524700000002973,4.538999999999994,4.555399999998507,4.573600000001484,4.588600000001485,4.608200000002974,4.621799999997016,4.640899999998503,4.655499999999996,4.672000000000004,4.691399999998502,4.706399999998503,4.721600000001494,4.739799999997025,4.755000000000003,4.774399999998515,4.789799999997022,4.805,4.825499999999998,4.838299999997012,4.854999999999997,4.871700000002981,4.891799999997012,4.907899999998513,4.921799999997013,4.943100000001486,4.9572000000029774,4.972399999998508,4.989399999998504,5.010200000002975,5.024999999999999,5.038899999998513,5.057799999997023,5.07389999999851,5.089000000000006,5.109799999997016,5.1218999999985115,5.1385000000000005,5.155200000002985,5.175600000001488,5.192,5.207399999998508,5.224299999997022,5.238700000002986,5.255200000002979,5.275600000001496,5.29210000000149,5.305200000002976,5.321899999998514,5.343499999999999,5.358399999998504,5.373799999997026,5.39239999999851,5.407899999998513,5.4217000000029785,5.441100000001491,5.457100000001496,5.471799999997025,5.488999999999997,5.505100000001484,5.525799999997012,5.538399999998511,5.555100000001495,5.571899999998514,5.588399999998508,5.6092000000029785,5.623600000001495,5.638299999997024,5.657999999999994,5.676600000001493,5.693600000001489,5.705000000000005,5.721700000002976,5.7398999999985065,5.755000000000003,5.774399999998515,5.788500000000006,5.805,5.821799999997019,5.838299999997012,5.8577000000029855,5.871700000002981,5.888399999998505,5.904999999999994,5.921600000001483,5.941299999997021,5.955100000001487,5.971600000001494,5.9909999999999926,6.0053999999985095,6.024799999997022,6.038500000000006,6.058,6.071899999998514,6.088799999997015,6.109100000001483,6.123299999997023,6.1385000000000005,6.155499999999996,6.171600000001483,6.191399999998502,6.2072000000029774,6.221600000001494,6.238299999997018,6.255000000000003,6.274799999997022,6.290399999998506,6.305,6.321700000002984,6.338299999997012,6.357899999998516,6.371799999997016,6.388299999997024,6.405200000002985,6.4217000000029785,6.441399999998502,6.456899999998505,6.471700000002976,6.488399999998514,6.506100000001489,6.525100000001494,6.541500000000006,6.558899999998509,6.571700000002984,6.588399999998508,6.60779999999702,6.622799999997021,6.638299999997024,6.654999999999994]","[1732587504960,1732587504997,1732587505004,1732587505021,1732587505038,1732587505057,1732587505071,1732587505088,1732587505104,1732587505121,1732587505140,1732587505155,1732587505171,1732587505188,1732587505204,1732587505224,1732587505239,1732587505254,1732587505271,1732587505288,1732587505307,1732587505321,1732587505338,1732587505354,1732587505371,1732587505390,1732587505404,1732587505421,1732587505438,1732587505456,1732587505474,1732587505490,1732587505505,1732587505521,1732587505538,1732587505557,1732587505571,1732587505588,1732587505604,1732587505621,1732587505640,1732587505655,1732587505671,1732587505688,1732587505704,1732587505724,1732587505738,1732587505761,1732587505771,1732587505788,1732587505808,1732587505821,1732587505838,1732587505854,1732587505871,1732587505891,1732587505906,1732587505921,1732587505938,1732587505954,1732587505971,1732587505988,1732587506004,1732587506021,1732587506038,1732587506057,1732587506071,1732587506088,1732587506105,1732587506121,1732587506140,1732587506155,1732587506171,1732587506188,1732587506204,1732587506223,1732587506239,1732587506254,1732587506271,1732587506288,1732587506307,1732587506321,1732587506338,1732587506355,1732587506371,1732587506390,1732587506404,1732587506421,1732587506438,1732587506454,1732587506474,1732587506490,1732587506504,1732587506522,1732587506544,1732587506554,1732587506571,1732587506588,1732587506604,1732587506621,1732587506641,1732587506656,1732587506671,1732587506689,1732587506706,1732587506721,1732587506738,1732587506754,1732587506771,1732587506788,1732587506807,1732587506821,1732587506838,1732587506854,1732587506871,1732587506890,1732587506904,1732587506921,1732587506938,1732587506954,1732587506971,1732587506988,1732587507004,1732587507021,1732587507038,1732587507057,1732587507071,1732587507088,1732587507104,1732587507121,1732587507141,1732587507155,1732587507171,1732587507188,1732587507204,1732587507224,1732587507238,1732587507257,1732587507271,1732587507288,1732587507307,1732587507321,1732587507338,1732587507354,1732587507371,1732587507390,1732587507404,1732587507421,1732587507438,1732587507454,1732587507474,1732587507489,1732587507504,1732587507521,1732587507538,1732587507557,1732587507572,1732587507588,1732587507604,1732587507621,1732587507641,1732587507657,1732587507671,1732587507688,1732587507704,1732587507724,1732587507740,1732587507754,1732587507771,1732587507788,1732587507804,1732587507821,1732587507838,1732587507856,1732587507872,1732587507891,1732587507906,1732587507921,1732587507938,1732587507954,1732587507974,1732587507988,1732587508004,1732587508021,1732587508038,1732587508057,1732587508071,1732587508091,1732587508104,1732587508121,1732587508140,1732587508156,1732587508171,1732587508188,1732587508204,1732587508224,1732587508238,1732587508254,1732587508271,1732587508288,1732587508307,1732587508323,1732587508342,1732587508357,1732587508371,1732587508388,1732587508405,1732587508421,1732587508438,1732587508454,1732587508474,1732587508490,1732587508504,1732587508521,1732587508538,1732587508557,1732587508572,1732587508588,1732587508604,1732587508621,1732587508638,1732587508656,1732587508671,1732587508689,1732587508704,1732587508724,1732587508739,1732587508754,1732587508771,1732587508788,1732587508805,1732587508821,1732587508838,1732587508854,1732587508871,1732587508890,1732587508904,1732587508921,1732587508938,1732587508954,1732587508974,1732587508989,1732587509004,1732587509021,1732587509038,1732587509057,1732587509072,1732587509088,1732587509104,1732587509121,1732587509142,1732587509154,1732587509171,1732587509188,1732587509208,1732587509224,1732587509239,1732587509254,1732587509273,1732587509288,1732587509307,1732587509324,1732587509341,1732587509355,1732587509371,1732587509390,1732587509404,1732587509421,1732587509438,1732587509459,1732587509474,1732587509488,1732587509505,1732587509523,1732587509538,1732587509557,1732587509571,1732587509590,1732587509605,1732587509621,1732587509641,1732587509656,1732587509671,1732587509689,1732587509704,1732587509724,1732587509739,1732587509754,1732587509775,1732587509788,1732587509804,1732587509821,1732587509841,1732587509857,1732587509871,1732587509892,1732587509906,1732587509922,1732587509939,1732587509959,1732587509974,1732587509988,1732587510007,1732587510023,1732587510038,1732587510059,1732587510071,1732587510088,1732587510104,1732587510125,1732587510141,1732587510157,1732587510174,1732587510188,1732587510204,1732587510225,1732587510241,1732587510254,1732587510271,1732587510293,1732587510308,1732587510323,1732587510342,1732587510357,1732587510371,1732587510390,1732587510406,1732587510421,1732587510438,1732587510454,1732587510475,1732587510488,1732587510504,1732587510521,1732587510538,1732587510558,1732587510573,1732587510592,1732587510607,1732587510626,1732587510643,1732587510654,1732587510671,1732587510689,1732587510704,1732587510724,1732587510738,1732587510754,1732587510771,1732587510788,1732587510807,1732587510821,1732587510838,1732587510854,1732587510871,1732587510890,1732587510904,1732587510921,1732587510940,1732587510955,1732587510974,1732587510988,1732587511007,1732587511021,1732587511038,1732587511058,1732587511072,1732587511088,1732587511105,1732587511121,1732587511141,1732587511156,1732587511171,1732587511187,1732587511204,1732587511224,1732587511240,1732587511254,1732587511271,1732587511287,1732587511307,1732587511321,1732587511338,1732587511354,1732587511371,1732587511391,1732587511406,1732587511421,1732587511438,1732587511455,1732587511474,1732587511491,1732587511508,1732587511521,1732587511538,1732587511557,1732587511572,1732587511588,1732587511604]","[[831,379.5],[831,379.5],[833.5,359.8],[836,340.1],[825.3,337.2],[814.9,332.5],[807.4,331.2],[782.9,319.1],[756.9,309.5],[765.8,325.5],[782.7,317.1],[779.4,313.7],[780.8,321.9],[771.2,335.9],[756.5,344.6],[747.4,337.7],[737.3,342.3],[737.3,342.3],[744.9,341.2],[752,341.7],[762.8,339.5],[745.7,355.2],[728.8,365.7],[716.5,373.8],[720.6,367.7],[706.1,365],[694.9,376.3],[673.5,381.9],[675.6,386],[660.7,372.4],[625.6,355.9],[606,334.6],[598.3,320.3],[585.5,303],[567.3,294.1],[567.2,278.6],[557.9,266.5],[557.8,251],[532.6,247.1],[526.4,256.8],[508.8,267.8],[488.2,276.6],[470,273.2],[441.5,271.3],[414.3,262.4],[397,255],[405.9,264.2],[403.6,267.2],[403.6,267.2],[421.3,264.7],[411.5,261.2],[419.8,250.9],[413.7,234.3],[400.2,227.3],[387.2,215.1],[396.2,226.5],[405.2,237.9],[405.2,237.9],[402.5,232.4],[421.8,225.6],[421.8,225.6],[399.7,213.8],[405.1,212.8],[403.8,217.3],[411.3,219.8],[423.8,224.9],[441,231.6],[434.9,221.7],[445.1,223.4],[467.5,227],[498.9,232.6],[556.2,245.6],[603.7,245.7],[657.2,250],[726.9,272.1],[796.6,294.2],[843.7,297.4],[843.7,297.4],[886.6,308],[918.7,302.8],[924.1,296],[930,300.6],[936.2,303.4],[976.2,317.1],[1010.2,326.6],[1033.6,326.6],[1028.1,315.4],[1044.8,321.1],[1091.2,322.8],[1132.1,328.7],[1192.9,347.5],[1208.4,350.1],[1241.4,354.4],[1241.3,341.4],[1223.9,328.6],[1223.9,328.6],[1198,326.2],[1201,335],[1211.4,359.3],[1196.3,380.2],[1187.6,395.6],[1186.3,407.3],[1188.6,415.9],[1152.7,423.9],[1152.7,423.9],[1125.9,441.4],[1123,445.5],[1147.6,450.9],[1147.6,450.9],[1157.3,455.1],[1169.3,433.8],[1193,421.7],[1163.6,424.3],[1106.9,417.7],[1067.8,426],[1065.4,425.9],[1048.7,433.1],[1048.7,433.1],[1037.9,453.8],[1037.9,453.8],[985.8,457.1],[951.5,473.2],[930.5,506.6],[891.1,536.5],[898.4,557.2],[905.7,577.9],[919,591.3],[928.9,608.1],[953.1,617.6],[948.4,640.2],[949.9,659.7],[968,657.5],[963.1,648],[964.9,632.8],[959.1,629.3],[958.3,626.1],[959.5,629],[956.9,635.9],[904.7,634.1],[868.9,618.9],[866.1,618.6],[843.8,628.4],[807.9,639.3],[788.7,650.7],[767.7,643.3],[741.7,635.6],[717.7,617.4],[684.9,599.1],[684.9,599.1],[703,586.8],[728.1,583.2],[701.3,577.3],[674.5,571.4],[684.7,567.1],[678.2,562.3],[656.5,560.9],[634.8,559.5],[606.9,568.3],[583.4,580],[558.6,594.4],[533.1,607.9],[542.6,617.6],[542.6,617.6],[564.3,610],[573.2,584.3],[582.1,558.6],[612.5,534.3],[612.5,534.3],[642.9,510],[642.9,510],[687.1,491.5],[712.7,463.3],[734.1,442],[787.4,413.2],[807.6,397],[851.6,385.6],[830.4,426.7],[833.2,455.2],[839.1,486],[854.1,507.2],[855.3,522.6],[870.7,544.8],[903.8,556.8],[898.7,568.5],[917.3,565.4],[910.7,588.7],[954.7,561.5],[974.7,546.9],[974.7,546.9],[1025.8,545.4],[1078.2,561.7],[1111.5,564.7],[1111.5,564.7],[1160,585.9],[1202.8,618.4],[1245.6,650.9],[1293.7,681.6],[1293.7,681.6],[1315.9,682.1],[1345.4,701.1],[1374.9,720.1],[1377.9,723.1],[1370.5,717.9],[1367.9,727.6],[1367.9,727.6],[1350.1,716.2],[1325.3,692.9],[1325.3,692.9],[1310.4,671.9],[1295.9,656.8],[1284.9,660],[1279.9,667.6],[1291.6,664.4],[1298.7,664.1],[1309.3,676.9],[1334.2,688.1],[1329.8,690.8],[1324.6,697.4],[1331.6,715.2],[1331.6,715.2],[1342.9,723.8],[1342,720.8],[1325.3,708.6],[1301.3,700.7],[1277.3,692.8],[1246.1,678.3],[1224.4,662.1],[1224.4,662.1],[1237.3,658.1],[1237.3,658.1],[1232,657],[1218.6,635.9],[1178.3,622.8],[1161.8,619.3],[1135.4,614],[1105.7,612.1],[1072.4,619.8],[1031.9,611.1],[1014,607.2],[988.9,591],[975.4,594],[952.5,610.3],[929.8,620.7],[911.4,638.1],[908.8,643.3],[900.1,651.6],[914.1,651.9],[949.7,668.9],[954.3,676.1],[945.3,692.8],[926.9,687.6],[926.9,687.6],[923.9,695.3],[947,708.2],[962.8,705.4],[972.3,721],[1006.8,743.7],[1006.8,743.7],[1009.2,766.9],[1000.2,775.5],[962,772.3],[931.1,779.1],[972.5,794.4],[971.9,793.1],[949.3,787.7],[937,786.2],[954.2,768.4],[950.8,755.2],[958.9,727.8],[974.3,730.1],[995.1,732],[1067.7,727.4],[1084,714.1],[1086.4,704.3],[1117.3,699.8],[1159,698.2],[1178.1,708.2],[1192.8,706.5],[1198.1,726.8],[1196.8,725.2],[1250,724],[1249.1,713.5],[1255.3,713.2],[1276.6,690.2],[1291.1,660.7],[1287.5,633.1],[1293,653.8],[1312.9,660.5],[1327.3,645.6],[1327.3,645.6],[1350.9,621],[1342.7,614.9],[1343.6,601.2],[1331.1,612],[1358,628.3],[1360.1,667.4],[1376.2,689.1],[1338.4,654.6],[1332.5,628.4],[1327.1,641.2],[1310.6,659.3],[1294.1,677.4],[1285.2,700.7],[1291.3,693.6],[1270.7,716.2],[1275.2,721.3],[1275.2,721.3],[1268,700.7],[1322.8,700.4],[1303,701.8],[1282.9,647.6],[1296.7,616.5],[1296.7,616.5],[1308.7,587.7],[1306.6,568.7],[1311.6,537.6],[1271.6,474.5],[1271.6,474.5],[1293.5,432.3],[1307.1,439.9],[1307.5,407.6],[1312.7,384.6],[1317.6,396.3],[1317.6,396.3],[1320.8,403.7],[1328.6,395.8],[1308,364.9],[1308,364.9],[1313,346.5],[1358.3,361.5],[1346.7,352],[1346.7,352],[1348.6,314.7],[1311.4,314.6],[1339.4,300.8],[1383.9,280.6],[1356.5,257.6],[1344,237.8],[1368.9,243.6],[1345.9,251.2],[1335.9,237.9],[1335.9,237.9],[1314.2,219.4],[1298.2,209.4],[1343.4,187.6],[1336.4,220],[1321,216.8],[1321,216.8],[1343.2,225.7],[1356.6,221.2],[1355.8,233.6],[1360.1,241.2],[1342.8,253.2],[1353.1,273.6],[1374.6,292.5],[1376.5,315.5],[1382.4,284.6],[1391.6,301.2],[1382.8,295.3],[1396.9,305.6],[1390.6,289.6],[1394.4,258.6],[1414.7,231.2],[1418.3,216.4],[1397.5,215.7],[1377.8,218],[1347.8,230.2],[1333.8,232.1],[1341.8,232.8],[1295,233.7],[1291.6,250.3],[1292.8,261],[1298.9,264.1],[1300.8,253.1],[1271,283.8],[1242.9,272.3],[1187.5,271.2],[1187.5,271.2],[1140.7,266.2],[1087.1,265.7],[1071.5,276],[1040.1,276.9],[980,288.1],[922.3,291.3],[884,295.7],[873.6,252.4],[847.7,251.7],[847.7,251.7],[818.8,265.9],[772.4,258.1],[761,254.8],[760,253],[758.5,250.5],[758.5,250.5],[780.2,251],[793.4,246],[788.6,242.4],[787.6,244.8],[780.3,259.4]]","[-0.142,0.42599999999999993]","[0.142,0.42599999999999993]","[0.42599999999999993,0.42599999999999993]","[-0.42599999999999993,-0.142]","[-0.42599999999999993,-0.42599999999999993]","[-0.42599999999999993,0.142]","[-0.142,-0.142]","[0.142,-0.142]","[0.42599999999999993,-0.142]","[-0.142,-0.42599999999999993]","[0.142,-0.42599999999999993]","[0.42599999999999993,-0.42599999999999993]","[-0.142,0.142]","[0.142,0.142]","[0.42599999999999993,0.142]",0,0,0,0,1,4,Laptop,25,20,8,1,60,4,1,60,3
