inst1_resp.keys,inst1_resp.rt,calibrationMouse.x,calibrationMouse.y,calibrationMouse.leftButton,calibrationMouse.midButton,calibrationMouse.rightButton,calibrationClick.x,calibrationClick.y,calibrationClick.leftButton,calibrationClick.midButton,calibrationClick.rightButton,trialsc.thisRepN,trialsc.thisTrialN,trialsc.thisN,trialsc.thisIndex,trialsc.ran,calibration_x,calibration_y,participant,session,date,expName,psychopyVersion,OS,frameRate,calibrationClick.clicked_name,ScreenRes_pixels,Camera_pixels,mouse_2.x,mouse_2.y,mouse_2.leftButton,mouse_2.midButton,mouse_2.rightButton,mouse_2.time,mouse_2.clicked_name,mouse.x,mouse.y,mouse.leftButton,mouse.midButton,mouse.rightButton,mouse.time,mouse.clicked_name,Choice,Trial,TrialDuration,MOUSE_GAZE,ET_GAZE,ET_GAZE_x_T,time,unixTime,ET_GAZE_NF,Loc_Bus_label,Loc_Metro_label,Loc_RH_label,Loc_Cost_label,Loc_Travel_label,Loc_Comfort_label,Loc_Bus_cost,Loc_Metro_cost,Loc_RH_cost,Loc_Bus_travel,Loc_Metro_travel,Loc_RH_travel,Loc_Bus_comfort,Loc_Metro_comfort,Loc_RH_comfort,trials.thisRepN,trials.thisTrialN,trials.thisN,trials.thisIndex,trials.ran,Block,Device,RH_cost,RH_travel_time,RH_Comfort,metro_cost,metro_travel_time,metro_Comfort,Bus_cost,Bus_travel_time,Bus_Comfort
space,2.2457,0.03125,0.301851852,1,0,0,0.340625,0.342592593,1,0,0,0,0,0,17,1,0.33,0.33,21,001,2024-11-21_12h29.40.848,Attention_exp_legacy,2023.1.0,Win32,60.24096386,,,,,,,,,,,,,,,,,,,,,,,,,,,,,,,,,,,,,,,,,,,,,,,,,,,,,,,,,
,,,,,,,0.326041667,0.338888889,1,0,0,0,1,1,19,1,0.67,0.67,21,001,2024-11-21_12h29.40.848,Attention_exp_legacy,2023.1.0,Win32,60.24096386,,,,,,,,,,,,,,,,,,,,,,,,,,,,,,,,,,,,,,,,,,,,,,,,,,,,,,,,,
,,,,,,,0.332291667,-0.318518519,1,0,0,0,2,2,15,1,0.33,-0.33,21,001,2024-11-21_12h29.40.848,Attention_exp_legacy,2023.1.0,Win32,60.24096386,,,,,,,,,,,,,,,,,,,,,,,,,,,,,,,,,,,,,,,,,,,,,,,,,,,,,,,,,
,,,,,,,-0.323958333,-0.314814815,1,0,0,0,3,3,5,1,-0.33,-0.33,21,001,2024-11-21_12h29.40.848,Attention_exp_legacy,2023.1.0,Win32,60.24096386,,,,,,,,,,,,,,,,,,,,,,,,,,,,,,,,,,,,,,,,,,,,,,,,,,,,,,,,,
,,,,,,,0.323958333,-0.657407407,1,0,0,0,4,4,14,1,0.33,-0.67,21,001,2024-11-21_12h29.40.848,Attention_exp_legacy,2023.1.0,Win32,60.24096386,,,,,,,,,,,,,,,,,,,,,,,,,,,,,,,,,,,,,,,,,,,,,,,,,,,,,,,,,
,,,,,,,0.332291667,0.687037037,1,0,0,0,5,5,18,1,0.33,0.67,21,001,2024-11-21_12h29.40.848,Attention_exp_legacy,2023.1.0,Win32,60.24096386,,,,,,,,,,,,,,,,,,,,,,,,,,,,,,,,,,,,,,,,,,,,,,,,,,,,,,,,,
,,,,,,,-0.010416667,-0.331481481,1,0,0,0,6,6,10,1,0,-0.33,21,001,2024-11-21_12h29.40.848,Attention_exp_legacy,2023.1.0,Win32,60.24096386,,,,,,,,,,,,,,,,,,,,,,,,,,,,,,,,,,,,,,,,,,,,,,,,,,,,,,,,,
,,,,,,,0.002083333,0.675925926,1,0,0,0,7,7,13,1,0,0.67,21,001,2024-11-21_12h29.40.848,Attention_exp_legacy,2023.1.0,Win32,60.24096386,calibration_square,,,,,,,,,,,,,,,,,,,,,,,,,,,,,,,,,,,,,,,,,,,,,,,,,,,,,,,,
,,,,,,,-0.671875,-0.640740741,1,0,0,0,8,8,0,1,-0.67,-0.67,21,001,2024-11-21_12h29.40.848,Attention_exp_legacy,2023.1.0,Win32,60.24096386,,,,,,,,,,,,,,,,,,,,,,,,,,,,,,,,,,,,,,,,,,,,,,,,,,,,,,,,,
,,,,,,,0.644791667,-0.661111111,1,0,0,0,9,9,20,1,0.67,-0.67,21,001,2024-11-21_12h29.40.848,Attention_exp_legacy,2023.1.0,Win32,60.24096386,,,,,,,,,,,,,,,,,,,,,,,,,,,,,,,,,,,,,,,,,,,,,,,,,,,,,,,,,
,,,,,,,-0.327083333,0.35,1,0,0,0,10,10,7,1,-0.33,0.33,21,001,2024-11-21_12h29.40.848,Attention_exp_legacy,2023.1.0,Win32,60.24096386,,,,,,,,,,,,,,,,,,,,,,,,,,,,,,,,,,,,,,,,,,,,,,,,,,,,,,,,,
,,,,,,,-0.672916667,0.344444444,1,0,0,0,11,11,3,1,-0.67,0.33,21,001,2024-11-21_12h29.40.848,Attention_exp_legacy,2023.1.0,Win32,60.24096386,,,,,,,,,,,,,,,,,,,,,,,,,,,,,,,,,,,,,,,,,,,,,,,,,,,,,,,,,
,,,,,,,0.001041667,0.005555556,1,0,0,0,12,12,11,1,0,0,21,001,2024-11-21_12h29.40.848,Attention_exp_legacy,2023.1.0,Win32,60.24096386,calibration_square,,,,,,,,,,,,,,,,,,,,,,,,,,,,,,,,,,,,,,,,,,,,,,,,,,,,,,,,
,,,,,,,-0.325,0.688888889,1,0,0,0,13,13,8,1,-0.33,0.67,21,001,2024-11-21_12h29.40.848,Attention_exp_legacy,2023.1.0,Win32,60.24096386,,,,,,,,,,,,,,,,,,,,,,,,,,,,,,,,,,,,,,,,,,,,,,,,,,,,,,,,,
,,,,,,,-0.661458333,-0.327777778,1,0,0,0,14,14,1,1,-0.67,-0.33,21,001,2024-11-21_12h29.40.848,Attention_exp_legacy,2023.1.0,Win32,60.24096386,calibration_square,,,,,,,,,,,,,,,,,,,,,,,,,,,,,,,,,,,,,,,,,,,,,,,,,,,,,,,,
,,,,,,,0.003125,-0.666666667,1,0,0,0,15,15,9,1,0,-0.67,21,001,2024-11-21_12h29.40.848,Attention_exp_legacy,2023.1.0,Win32,60.24096386,calibration_square,,,,,,,,,,,,,,,,,,,,,,,,,,,,,,,,,,,,,,,,,,,,,,,,,,,,,,,,
,,,,,,,-0.670833333,0.005555556,1,0,0,0,16,16,2,1,-0.67,0,21,001,2024-11-21_12h29.40.848,Attention_exp_legacy,2023.1.0,Win32,60.24096386,calibration_square,,,,,,,,,,,,,,,,,,,,,,,,,,,,,,,,,,,,,,,,,,,,,,,,,,,,,,,,
,,,,,,,-0.004166667,0.340740741,1,0,0,0,17,17,12,1,0,0.33,21,001,2024-11-21_12h29.40.848,Attention_exp_legacy,2023.1.0,Win32,60.24096386,,,,,,,,,,,,,,,,,,,,,,,,,,,,,,,,,,,,,,,,,,,,,,,,,,,,,,,,,
,,,,,,,-0.323958333,0.009259259,1,0,0,0,18,18,6,1,-0.33,0,21,001,2024-11-21_12h29.40.848,Attention_exp_legacy,2023.1.0,Win32,60.24096386,calibration_square,,,,,,,,,,,,,,,,,,,,,,,,,,,,,,,,,,,,,,,,,,,,,,,,,,,,,,,,
,,,,,,,0.317708333,0.005555556,1,0,0,0,19,19,16,1,0.33,0,21,001,2024-11-21_12h29.40.848,Attention_exp_legacy,2023.1.0,Win32,60.24096386,,,,,,,,,,,,,,,,,,,,,,,,,,,,,,,,,,,,,,,,,,,,,,,,,,,,,,,,,
,,,,,,,-0.321875,-0.672222222,1,0,0,0,20,20,4,1,-0.33,-0.67,21,001,2024-11-21_12h29.40.848,Attention_exp_legacy,2023.1.0,Win32,60.24096386,calibration_square,,,,,,,,,,,,,,,,,,,,,,,,,,,,,,,,,,,,,,,,,,,,,,,,,,,,,,,,
,,,,,,,,,,,,,,,,,,,21,001,2024-11-21_12h29.40.848,Attention_exp_legacy,2023.1.0,Win32,60.24096386,,"[1920,1080]","[640,480]",[0.011458333333333333],[-0.4888888888888889],[1],[0],[0],[1.0733999996185304],"[""StartButton""]",[-0.0625],[0.39444444444444443],[1],[0],[0],[4.004700000286107],"[""Bus_label""]",Bus_label,1,5.0272,"[[0.01875,-0.3296296296296296],[0.01875,-0.3296296296296296],[0.01875,-0.3296296296296296],[0.01875,-0.3296296296296296],[0.01875,-0.3296296296296296],[0.01875,-0.3296296296296296],[0.01875,-0.3296296296296296],[0.01875,-0.3296296296296296],[0.01875,-0.3296296296296296],[0.01875,-0.3296296296296296],[0.01875,-0.3296296296296296],[0.01875,-0.3296296296296296],[0.01875,-0.3296296296296296],[0.01875,-0.3296296296296296],[0.01875,-0.3296296296296296],[0.01875,-0.3296296296296296],[0.01875,-0.3296296296296296],[0.01875,-0.3296296296296296],[0.01875,-0.3296296296296296],[0.01875,-0.3296296296296296],[0.01875,-0.3296296296296296],[0.01875,-0.3296296296296296],[0.01875,-0.3296296296296296],[0.01875,-0.3296296296296296],[0.01875,-0.3296296296296296],[0.01875,-0.3296296296296296],[0.01875,-0.3296296296296296],[0.01875,-0.3277777777777778],[0.019791666666666666,-0.32407407407407407],[0.019791666666666666,-0.32222222222222224],[0.019791666666666666,-0.31851851851851853],[0.019791666666666666,-0.31666666666666665],[0.020833333333333332,-0.3111111111111111],[0.020833333333333332,-0.3074074074074074],[0.021875,-0.2962962962962963],[0.025,-0.2814814814814815],[0.025,-0.2759259259259259],[0.025,-0.2722222222222222],[0.026041666666666668,-0.26481481481481484],[0.027083333333333334,-0.2537037037037037],[0.027083333333333334,-0.24444444444444444],[0.027083333333333334,-0.23703703703703705],[0.028125,-0.22592592592592592],[0.028125,-0.22037037037037038],[0.028125,-0.2111111111111111],[0.028125,-0.2037037037037037],[0.028125,-0.19814814814814816],[0.028125,-0.1925925925925926],[0.029166666666666667,-0.18703703703703703],[0.029166666666666667,-0.18333333333333332],[0.029166666666666667,-0.1814814814814815],[0.029166666666666667,-0.1814814814814815],[0.029166666666666667,-0.17777777777777778],[0.029166666666666667,-0.17777777777777778],[0.029166666666666667,-0.17592592592592593],[0.029166666666666667,-0.17592592592592593],[0.029166666666666667,-0.17407407407407408],[0.029166666666666667,-0.17407407407407408],[0.029166666666666667,-0.17407407407407408],[0.029166666666666667,-0.17407407407407408],[0.029166666666666667,-0.17407407407407408],[0.029166666666666667,-0.17407407407407408],[0.029166666666666667,-0.17407407407407408],[0.029166666666666667,-0.17407407407407408],[0.029166666666666667,-0.17407407407407408],[0.029166666666666667,-0.17407407407407408],[0.029166666666666667,-0.17407407407407408],[0.029166666666666667,-0.17407407407407408],[0.029166666666666667,-0.17407407407407408],[0.029166666666666667,-0.17407407407407408],[0.029166666666666667,-0.17407407407407408],[0.029166666666666667,-0.17407407407407408],[0.029166666666666667,-0.17407407407407408],[0.029166666666666667,-0.17407407407407408],[0.029166666666666667,-0.17407407407407408],[0.029166666666666667,-0.17407407407407408],[0.029166666666666667,-0.17407407407407408],[0.029166666666666667,-0.17407407407407408],[0.029166666666666667,-0.17407407407407408],[0.029166666666666667,-0.17407407407407408],[0.029166666666666667,-0.17407407407407408],[0.029166666666666667,-0.17407407407407408],[0.029166666666666667,-0.17407407407407408],[0.029166666666666667,-0.17407407407407408],[0.029166666666666667,-0.17407407407407408],[0.029166666666666667,-0.17407407407407408],[0.029166666666666667,-0.17407407407407408],[0.029166666666666667,-0.17407407407407408],[0.029166666666666667,-0.17407407407407408],[0.029166666666666667,-0.17407407407407408],[0.029166666666666667,-0.17407407407407408],[0.029166666666666667,-0.17407407407407408],[0.029166666666666667,-0.17407407407407408],[0.029166666666666667,-0.17407407407407408],[0.029166666666666667,-0.17407407407407408],[0.029166666666666667,-0.17407407407407408],[0.029166666666666667,-0.17407407407407408],[0.029166666666666667,-0.17407407407407408],[0.029166666666666667,-0.17407407407407408],[0.029166666666666667,-0.17407407407407408],[0.029166666666666667,-0.17407407407407408],[0.029166666666666667,-0.17407407407407408],[0.029166666666666667,-0.17407407407407408],[0.029166666666666667,-0.17407407407407408],[0.029166666666666667,-0.17407407407407408],[0.029166666666666667,-0.17407407407407408],[0.029166666666666667,-0.17407407407407408],[0.029166666666666667,-0.17407407407407408],[0.029166666666666667,-0.17407407407407408],[0.029166666666666667,-0.17407407407407408],[0.029166666666666667,-0.17407407407407408],[0.029166666666666667,-0.17407407407407408],[0.029166666666666667,-0.17407407407407408],[0.029166666666666667,-0.17407407407407408],[0.029166666666666667,-0.17407407407407408],[0.029166666666666667,-0.17407407407407408],[0.029166666666666667,-0.17407407407407408],[0.029166666666666667,-0.17407407407407408],[0.029166666666666667,-0.17407407407407408],[0.029166666666666667,-0.17407407407407408],[0.029166666666666667,-0.17037037037037037],[0.030208333333333334,-0.1685185185185185],[0.030208333333333334,-0.1685185185185185],[0.030208333333333334,-0.1648148148148148],[0.030208333333333334,-0.1648148148148148],[0.030208333333333334,-0.15925925925925927],[0.030208333333333334,-0.15925925925925927],[0.03229166666666667,-0.15555555555555556],[0.03229166666666667,-0.1537037037037037],[0.03229166666666667,-0.15185185185185185],[0.03229166666666667,-0.14814814814814814],[0.03229166666666667,-0.14629629629629629],[0.03229166666666667,-0.14444444444444443],[0.03229166666666667,-0.1425925925925926],[0.03229166666666667,-0.14074074074074075],[0.03229166666666667,-0.13703703703703704],[0.03229166666666667,-0.13518518518518519],[0.03229166666666667,-0.13148148148148148],[0.03229166666666667,-0.12962962962962962],[0.03229166666666667,-0.1259259259259259],[0.03229166666666667,-0.1259259259259259],[0.03229166666666667,-0.12407407407407407],[0.03229166666666667,-0.12037037037037036],[0.03229166666666667,-0.11851851851851852],[0.03229166666666667,-0.11851851851851852],[0.03229166666666667,-0.11481481481481481],[0.03229166666666667,-0.11296296296296296],[0.03229166666666667,-0.1111111111111111],[0.03229166666666667,-0.10925925925925926],[0.03229166666666667,-0.10740740740740741],[0.03229166666666667,-0.1037037037037037],[0.03229166666666667,-0.10185185185185185],[0.03229166666666667,-0.09814814814814815],[0.03229166666666667,-0.0962962962962963],[0.03229166666666667,-0.09259259259259259],[0.03229166666666667,-0.09259259259259259],[0.03229166666666667,-0.08703703703703704],[0.03229166666666667,-0.08703703703703704],[0.03229166666666667,-0.08148148148148149],[0.03125,-0.07962962962962963],[0.03125,-0.07777777777777778],[0.03125,-0.07592592592592592],[0.03125,-0.07592592592592592],[0.03125,-0.07222222222222222],[0.03125,-0.07037037037037037],[0.03125,-0.06666666666666667],[0.03125,-0.06481481481481481],[0.03125,-0.06296296296296296],[0.03125,-0.06111111111111111],[0.03125,-0.05925925925925926],[0.03125,-0.05740740740740741],[0.03125,-0.05555555555555555],[0.03125,-0.053703703703703705],[0.03125,-0.053703703703703705],[0.03125,-0.053703703703703705],[0.03125,-0.053703703703703705],[0.03125,-0.053703703703703705],[0.03125,-0.053703703703703705],[0.030208333333333334,-0.05185185185185185],[0.028125,-0.046296296296296294],[0.028125,-0.044444444444444446],[0.026041666666666668,-0.040740740740740744],[0.023958333333333335,-0.03518518518518519],[0.021875,-0.022222222222222223],[0.016666666666666666,-0.012962962962962963],[0.015625,-0.005555555555555556],[0.013541666666666667,0.003703703703703704],[0.005208333333333333,0.03333333333333333],[0.003125,0.04259259259259259],[-0.0010416666666666667,0.06111111111111111],[-0.00625,0.09259259259259259],[-0.010416666666666666,0.11481481481481481],[-0.011458333333333333,0.12962962962962962],[-0.0125,0.1388888888888889],[-0.0125,0.15185185185185185],[-0.0125,0.17222222222222222],[-0.0125,0.1814814814814815],[-0.0125,0.19074074074074074],[-0.0125,0.19814814814814816],[-0.009375,0.2074074074074074],[-0.007291666666666667,0.21481481481481482],[-0.003125,0.22407407407407406],[-0.0010416666666666667,0.23148148148148148],[0.003125,0.24074074074074073],[0.008333333333333333,0.2537037037037037],[0.010416666666666666,0.2611111111111111],[0.013541666666666667,0.26666666666666666],[0.017708333333333333,0.2759259259259259],[0.021875,0.2814814814814815],[0.027083333333333334,0.28703703703703703],[0.03333333333333333,0.29259259259259257],[0.036458333333333336,0.29814814814814816],[0.040625,0.3037037037037037],[0.04375,0.3074074074074074],[0.04375,0.3074074074074074],[0.04375,0.30925925925925923],[0.04375,0.3111111111111111],[0.04375,0.31296296296296294],[0.04375,0.3148148148148148],[0.03854166666666667,0.32037037037037036],[0.03125,0.32407407407407407],[0.021875,0.3314814814814815],[0.013541666666666667,0.3388888888888889],[0.0020833333333333333,0.34444444444444444],[-0.009375,0.3537037037037037],[-0.019791666666666666,0.3592592592592593],[-0.028125,0.36666666666666664],[-0.0375,0.37037037037037035],[-0.04375,0.37592592592592594],[-0.051041666666666666,0.3814814814814815],[-0.053125,0.3814814814814815],[-0.057291666666666664,0.387037037037037],[-0.059375,0.3907407407407407],[-0.06041666666666667,0.3925925925925926],[-0.06145833333333333,0.3925925925925926],[-0.0625,0.39444444444444443],[-0.0625,0.39444444444444443],[-0.0625,0.39444444444444443],[-0.0625,0.39444444444444443],[-0.0625,0.39444444444444443],[-0.0625,0.39444444444444443],[-0.0625,0.39444444444444443],[-0.0625,0.39444444444444443],[-0.0625,0.39444444444444443],[-0.0625,0.39444444444444443],[-0.0625,0.39444444444444443],[-0.0625,0.39444444444444443],[-0.0625,0.39444444444444443],[-0.0625,0.39444444444444443],[-0.0625,0.39444444444444443],[-0.0625,0.39444444444444443],[-0.0625,0.39444444444444443],[-0.0625,0.39444444444444443],[-0.0625,0.39444444444444443],[-0.0625,0.39444444444444443],[-0.0625,0.39444444444444443],[-0.0625,0.39444444444444443],[-0.0625,0.39444444444444443],[-0.0625,0.39444444444444443],[-0.0625,0.39444444444444443],[-0.0625,0.39444444444444443],[-0.0625,0.39444444444444443],[-0.0625,0.39444444444444443],[-0.0625,0.39444444444444443],[-0.0625,0.39444444444444443],[-0.0625,0.39444444444444443],[-0.0625,0.39444444444444443],[-0.0625,0.39444444444444443],[-0.0625,0.39444444444444443],[-0.0625,0.39444444444444443],[-0.0625,0.39444444444444443],[-0.0625,0.39444444444444443],[-0.0625,0.39444444444444443],[-0.0625,0.39444444444444443],[-0.0625,0.39444444444444443],[-0.0625,0.39444444444444443],[-0.0625,0.39444444444444443],[-0.0625,0.39444444444444443],[-0.0625,0.39444444444444443],[-0.0625,0.39444444444444443],[-0.0625,0.39444444444444443],[-0.0625,0.39444444444444443],[-0.0625,0.39444444444444443],[-0.0625,0.39444444444444443],[-0.0625,0.39444444444444443],[-0.0625,0.39444444444444443],[-0.0625,0.39444444444444443],[-0.0625,0.39444444444444443],[-0.0625,0.39444444444444443],[-0.0625,0.39444444444444443],[-0.0625,0.39444444444444443],[-0.0625,0.39444444444444443],[-0.0625,0.39444444444444443],[-0.0625,0.39444444444444443],[-0.0625,0.39444444444444443],[-0.0625,0.39444444444444443],[-0.0625,0.39444444444444443],[-0.0625,0.39444444444444443],[-0.0625,0.39444444444444443],[-0.0625,0.39444444444444443]]","[[0.33624999999999994,-0.08333333333333333],[0.33624999999999994,-0.08333333333333333],[0.3165625000000001,-0.14222222222222225],[0.31749999999999995,-0.19759259259259257],[0.31749999999999995,-0.19759259259259257],[0.30406250000000007,-0.22629629629629627],[0.2484375,-0.30333333333333334],[0.22125000000000009,-0.32703703703703707],[0.1337500000000001,-0.37333333333333335],[0.11364583333333324,-0.3857407407407408],[0.1131249999999999,-0.4183333333333333],[0.10718750000000009,-0.4227777777777778],[0.07989583333333337,-0.4457407407407407],[0.07145833333333323,-0.4551851851851852],[0.01875,-0.4888888888888889],[0.0013541666666666192,-0.49833333333333335],[0.030520833333333285,-0.482962962962963],[0.04697916666666669,-0.47388888888888886],[0.11708333333333343,-0.4711111111111111],[0.10895833333333324,-0.4479629629629629],[0.10854166666666672,-0.4477777777777778],[0.1087500000000001,-0.42240740740740745],[0.12406249999999991,-0.4096296296296296],[0.11604166666666677,-0.3983333333333334],[0.14343750000000005,-0.4083333333333333],[0.15041666666666675,-0.4388888888888889],[0.15125000000000005,-0.4498148148148148],[0.15125000000000005,-0.4498148148148148],[0.15125000000000005,-0.4498148148148148],[0.12145833333333324,-0.4498148148148148],[0.08427083333333343,-0.39592592592592596],[0.08427083333333343,-0.39592592592592596],[0.059375,-0.35703703703703704],[0.05645833333333338,-0.2887037037037037],[0.03291666666666669,-0.2766666666666666],[0.034895833333333334,-0.20629629629629626],[0.021145833333333287,-0.15796296296296297],[0.021145833333333287,-0.15796296296296297],[0.01229166666666662,-0.0735185185185185],[0.01229166666666662,-0.0735185185185185],[0.001979166666666643,0.008888888888888804],[-0.007604166666666619,0.06796296296296304],[-0.00458333333333331,0.11537037037037029],[-0.004479166666666619,0.13444444444444448],[-0.0016666666666666904,0.1270370370370371],[-0.0016666666666666904,0.1270370370370371],[-0.014374999999999952,0.15407407407407417],[-0.001145833333333357,0.20277777777777778],[0.010000000000000024,0.2574074074074074],[0.006979166666666714,0.26518518518518525],[0.006979166666666714,0.26518518518518525],[0.011666666666666714,0.2861111111111111],[0.011666666666666714,0.2861111111111111],[0.0013541666666666192,0.29240740740740734],[-0.010625000000000048,0.3331481481481481],[-0.027083333333333334,0.35759259259259263],[-0.024895833333333308,0.39444444444444443],[-0.024895833333333308,0.39444444444444443],[-0.01552083333333331,0.3668518518518519],[-0.02666666666666669,0.306111111111111],[-0.017708333333333333,0.22685185185185186],[-0.03229166666666667,0.18203703703703694],[-0.03229166666666667,0.18203703703703694],[-0.01229166666666662,0.19648148148148153],[-0.01229166666666662,0.19648148148148153],[0.008645833333333287,0.1735185185185186],[0.027708333333333356,0.16537037037037028],[0.027708333333333356,0.16537037037037028],[0.04093749999999995,0.12481481481481477],[0.04093749999999995,0.12481481481481477],[0.04791666666666667,0.08407407407407404],[0.04791666666666667,0.08407407407407404],[0.05166666666666669,0.057962962962962876],[0.05166666666666669,0.057962962962962876],[0.042604166666666644,0.08777777777777773],[0.04874999999999995,0.11166666666666658],[0.05375000000000003,0.14425925925925923],[0.06604166666666664,0.13870370370370366],[0.05791666666666669,0.12074074074074083],[0.05791666666666669,0.12074074074074083],[0.029062499999999977,0.1259259259259259],[-0.0048958333333333805,0.13722222222222227],[-0.030312500000000023,0.1737037037037036],[-0.02354166666666669,0.18425925925925926],[-0.02354166666666669,0.18425925925925926],[-0.035520833333333356,0.17851851851851847],[-0.034166666666666616,0.1985185185185186],[-0.03947916666666664,0.22833333333333325],[-0.04750000000000002,0.2905555555555555],[-0.04750000000000002,0.2905555555555555],[-0.030104166666666644,0.2983333333333334],[-0.036145833333333384,0.3122222222222223],[-0.020624999999999952,0.318888888888889],[-0.020624999999999952,0.318888888888889],[-0.02364583333333338,0.3081481481481481],[-0.0078125,0.302962962962963],[-0.019479166666666714,0.30481481481481487],[0.005104166666666643,0.3114814814814816],[-0.002499999999999976,0.2946296296296297],[-0.006666666666666643,0.2729629629629629],[-0.008437500000000023,0.1955555555555556],[-0.02385416666666664,0.15611111111111103],[-0.011979166666666667,0.1624074074074075],[-0.00791666666666669,0.15777777777777785],[0.03114583333333331,0.14370370370370375],[0.03114583333333331,0.14370370370370375],[0.019479166666666714,0.1479629629629629],[0.03812500000000003,0.1603703703703704],[0.05656249999999995,0.14037037037037028],[0.05656249999999995,0.14037037037037028],[0.10364583333333334,0.1257407407407407],[0.12041666666666657,0.1411111111111112],[0.1388541666666666,0.13722222222222227],[0.15666666666666676,0.17629629629629637],[0.17333333333333342,0.1574074074074074],[0.1865624999999999,0.14814814814814814],[0.19187500000000005,0.14685185185185176],[0.2234375,0.11129629629629634],[0.24104166666666677,0.09018518518518527],[0.24104166666666677,0.09018518518518527],[0.24104166666666677,0.08129629629629626],[0.24104166666666677,0.08129629629629626],[0.2169791666666666,0.08833333333333342],[0.23229166666666667,0.10851851851851856],[0.23229166666666667,0.10851851851851856],[0.21510416666666668,0.15592592592592602],[0.17583333333333329,0.1646296296296296],[0.1397916666666667,0.18981481481481483],[0.11500000000000009,0.21092592592592588],[0.0609375,0.23722222222222225],[0.021458333333333357,0.2598148148148147],[0.021458333333333357,0.2598148148148147],[0.0037500000000000237,0.2566666666666667],[-0.028645833333333332,0.26648148148148143],[-0.034166666666666616,0.2492592592592593],[-0.07093750000000003,0.22037037037037038],[-0.0829166666666667,0.20388888888888893],[-0.06708333333333331,0.1962962962962963],[-0.06083333333333331,0.17240740740740745],[-0.03447916666666669,0.16999999999999993],[-0.03270833333333331,0.14425925925925923],[-0.003541666666666643,0.14296296296296304],[-0.014999999999999977,0.12925925925925918],[-0.02666666666666669,0.13759259259259252],[-0.05416666666666667,0.14870370370370362],[-0.033854166666666664,0.15092592592592594],[-0.06489583333333329,0.1477777777777777],[-0.06333333333333328,0.11351851851851844],[-0.07739583333333329,0.12037037037037036],[-0.10416666666666667,0.0801851851851851],[-0.09239583333333339,0.040740740740740744],[-0.08937499999999995,0.014074074074074116],[-0.0703125,-0.001851851851851852],[-0.06572916666666669,-0.01777777777777782],[-0.028750000000000022,-0.00722222222222218],[-0.04822916666666662,-0.04018518518518527],[-0.02510416666666669,-0.07407407407407407],[-0.018124999999999978,-0.09037037037037039],[0.007500000000000047,-0.13555555555555554],[0.007500000000000047,-0.13555555555555554],[0.022395833333333334,-0.09740740740740746],[0.07531249999999995,-0.07796296296296301],[0.08072916666666667,-0.06518518518518517],[0.08093750000000005,-0.02833333333333325],[0.10864583333333329,-0.02907407407407416],[0.13135416666666658,-0.048333333333333374],[0.17072916666666677,-0.023333333333333376],[0.20750000000000005,-0.008888888888888804],[0.21416666666666656,0.014814814814814815],[0.22427083333333328,0.034999999999999955],[0.22427083333333328,0.034999999999999955],[0.2234375,0.02370370370370362],[0.19822916666666662,0.03740740740740749],[0.19093749999999995,0.020185185185185143],[0.18041666666666673,-0.022777777777777692],[0.18291666666666656,-0.04314814814814806],[0.1648958333333333,-0.07518518518518523],[0.12750000000000009,-0.11314814814814819],[0.11010416666666671,-0.13240740740740742],[0.11010416666666671,-0.13240740740740742],[0.11791666666666671,-0.15685185185185183],[0.11791666666666671,-0.15685185185185183],[0.09666666666666662,-0.16425925925925924],[0.09916666666666671,-0.19296296296296295],[0.09791666666666667,-0.22148148148148153],[0.09791666666666667,-0.22148148148148153],[0.10354166666666677,-0.2505555555555556],[0.10354166666666677,-0.2505555555555556],[0.08802083333333334,-0.24055555555555552],[0.06520833333333335,-0.2351851851851852],[0.06052083333333336,-0.25759259259259265],[0.0703125,-0.2711111111111111],[0.06510416666666667,-0.2801851851851852],[0.06510416666666667,-0.2801851851851852],[0.051770833333333384,-0.28351851851851856],[0.06458333333333334,-0.30333333333333334],[0.050625000000000024,-0.3116666666666667],[0.05562499999999997,-0.30629629629629623],[0.035520833333333356,-0.29314814814814816],[0.07291666666666667,-0.3162962962962963],[0.07291666666666667,-0.3162962962962963],[0.06437499999999995,-0.32388888888888884],[0.04458333333333329,-0.285],[0.027604166666666666,-0.2809259259259259],[0.025833333333333285,-0.2687037037037037],[0.008958333333333356,-0.25092592592592594],[-0.0078125,-0.23648148148148146],[-0.0078125,-0.23648148148148146],[0.007500000000000047,-0.247037037037037],[-0.016458333333333287,-0.2418518518518519],[-0.02020833333333331,-0.2294444444444444],[-0.051041666666666666,-0.22388888888888886],[-0.035416666666666666,-0.23259259259259263],[-0.021562500000000047,-0.24222222222222226],[-0.021562500000000047,-0.24222222222222226],[0.018229166666666668,-0.2390740740740741],[0.03802083333333333,-0.24277777777777781],[0.06239583333333331,-0.2574074074074074],[0.06364583333333336,-0.26648148148148143],[0.06364583333333336,-0.26648148148148143],[0.058437500000000024,-0.23870370370370367],[0.08125,-0.22629629629629627],[0.08541666666666667,-0.23407407407407405],[0.07000000000000005,-0.21351851851851855],[0.05604166666666662,-0.2161111111111111],[0.05604166666666662,-0.2161111111111111],[0.01739583333333338,-0.2161111111111111],[-0.013750000000000047,-0.19592592592592595],[-0.041979166666666616,-0.2022222222222222],[-0.0546875,-0.21370370370370367],[-0.0546875,-0.21370370370370367],[-0.044270833333333336,-0.23074074074074077],[-0.04375,-0.2338888888888889],[-0.07541666666666665,-0.272037037037037],[-0.07541666666666665,-0.272037037037037],[-0.08843749999999997,-0.29000000000000004],[-0.07770833333333335,-0.31611111111111106],[-0.1141666666666667,-0.31796296296296295],[-0.0703125,-0.3383333333333333],[-0.09416666666666665,-0.36129629629629634],[-0.07958333333333331,-0.36870370370370376],[-0.07958333333333331,-0.36870370370370376],[-0.12124999999999998,-0.3727777777777778],[-0.12124999999999998,-0.3727777777777778],[-0.109375,-0.3696296296296297],[-0.109375,-0.3696296296296297],[-0.14197916666666663,-0.4094444444444445],[-0.14197916666666663,-0.4094444444444445],[-0.10187499999999995,-0.3990740740740741],[-0.10187499999999995,-0.3990740740740741],[-0.10041666666666664,-0.3890740740740741],[-0.10041666666666664,-0.3890740740740741],[-0.05645833333333338,-0.3683333333333333],[-0.05645833333333338,-0.3683333333333333],[-0.026145833333333358,-0.3635185185185185],[-0.057083333333333285,-0.33777777777777773],[-0.01739583333333338,-0.3122222222222223],[-0.02166666666666662,-0.3490740740740741],[0.02833333333333338,-0.33722222222222226],[0.04083333333333338,-0.3675925925925926],[0.041562499999999974,-0.3768518518518518],[0.04239583333333338,-0.3846296296296296],[0.049374999999999974,-0.4359259259259259],[0.03239583333333336,-0.5001851851851852],[0.05656249999999995,-0.5112962962962964],[0.08375000000000009,-0.5687037037037037],[0.08395833333333323,-0.6374074074074074],[0.08552083333333324,-0.5881481481481482],[0.08552083333333324,-0.5881481481481482],[0.08947916666666676,-0.6131481481481482],[0.06354166666666666,-0.6022222222222222],[0.10354166666666677,-0.5881481481481482],[0.1099999999999999,-0.6003703703703703],[0.12927083333333325,-0.5790740740740741],[0.12333333333333343,-0.5592592592592592],[0.12229166666666676,-0.5861111111111111],[0.128125,-0.5703703703703704],[0.115625,-0.542962962962963],[0.12395833333333334,-0.5577777777777777],[0.12270833333333328,-0.5496296296296297],[0.14614583333333328,-0.5585185185185185],[0.14572916666666677,-0.5501851851851852],[0.13739583333333344,-0.5366666666666667],[0.13739583333333344,-0.5366666666666667],[0.15750000000000006,-0.5196296296296297],[0.16177083333333328,-0.5007407407407407],[0.1814583333333334,-0.5112962962962964],[0.18885416666666663,-0.4896296296296296],[0.1962500000000001,-0.4853703703703704],[0.21541666666666662,-0.4751851851851852],[0.209375,-0.4859259259259259],[0.2107291666666666,-0.43425925925925923],[0.21677083333333325,-0.4372222222222223],[0.17489583333333342,-0.40259259259259256],[0.17489583333333342,-0.40259259259259256],[0.1287499999999999,-0.3968518518518519],[0.10239583333333328,-0.35407407407407404],[0.0943749999999999,-0.31444444444444447],[0.06031249999999998,-0.29907407407407405],[0.06031249999999998,-0.29907407407407405]]","[[0.33624999999999994,-0.08333333333333333,0.00020000028609956644],[0.33624999999999994,-0.08333333333333333,0.0634000000953634],[0.3165625000000001,-0.14222222222222225,0.07730000019073202],[0.31749999999999995,-0.19759259259259257,0.0962000002861032],[0.31749999999999995,-0.19759259259259257,0.11070000028610139],[0.30406250000000007,-0.22629629629629627,0.12730000019072918],[0.2484375,-0.30333333333333334,0.14770000028610042],[0.22125000000000009,-0.32703703703703707,0.16490000009536487],[0.1337500000000001,-0.37333333333333335,0.18080000019073594],[0.11364583333333324,-0.3857407407407408,0.1980000000000004],[0.1131249999999999,-0.4183333333333333,0.21490000009536203],[0.10718750000000009,-0.4227777777777778,0.23149999999999693],[0.07989583333333337,-0.4457407407407407,0.24759999990462944],[0.07145833333333323,-0.4551851851851852,0.26149999999999807],[0.01875,-0.4888888888888889,0.2779000000953644],[0.0013541666666666192,-0.49833333333333335,0.2968000001907356],[0.030520833333333285,-0.482962962962963,0.31359999990463194],[0.04697916666666669,-0.47388888888888886,0.33020000028609786],[0.11708333333333343,-0.4711111111111111,0.3449000000953646],[0.10895833333333324,-0.4479629629629629,0.36120000028609667],[0.10854166666666672,-0.4477777777777778,0.3784000000953682],[0.1087500000000001,-0.42240740740740745,0.3984999999999985],[0.12406249999999991,-0.4096296296296296,0.4143000001907353],[0.11604166666666677,-0.3983333333333334,0.43199999999999505],[0.14343750000000005,-0.4083333333333333,0.44859999990462995],[0.15041666666666675,-0.4388888888888889,0.46490000009536203],[0.15125000000000005,-0.4498148148148148,0.48280000019073555],[0.15125000000000005,-0.4498148148148148,0.5099000000953637],[0.15125000000000005,-0.4498148148148148,0.5112000002861024],[0.12145833333333324,-0.4498148148148148,0.527400000095362],[0.08427083333333343,-0.39592592592592596,0.550300000190731],[0.08427083333333343,-0.39592592592592596,0.5607000002860971],[0.059375,-0.35703703703703704,0.5774000000953663],[0.05645833333333338,-0.2887037037037037,0.595400000095367],[0.03291666666666669,-0.2766666666666666,0.6153000001907358],[0.034895833333333334,-0.20629629629629626,0.6320999999046322],[0.021145833333333287,-0.15796296296296297,0.64830000019073],[0.021145833333333287,-0.15796296296296297,0.6609000000953671],[0.01229166666666662,-0.0735185185185185,0.6813000001907312],[0.01229166666666662,-0.0735185185185185,0.6940999999046298],[0.001979166666666643,0.008888888888888804,0.71080000019073],[-0.007604166666666619,0.06796296296296304,0.7312000002861012],[-0.00458333333333331,0.11537037037037029,0.7475999999046294],[-0.004479166666666619,0.13444444444444448,0.7652000002861001],[-0.0016666666666666904,0.1270370370370371,0.7849000000953623],[-0.0016666666666666904,0.1270370370370371,0.7942000002860965],[-0.014374999999999952,0.15407407407407417,0.8109000000953657],[-0.001145833333333357,0.20277777777777778,0.8274000000953663],[0.010000000000000024,0.2574074074074074,0.8479000000953647],[0.006979166666666714,0.26518518518518525,0.864300000190731],[0.006979166666666714,0.26518518518518525,0.8774000000953635],[0.011666666666666714,0.2861111111111111,0.8939000000953641],[0.011666666666666714,0.2861111111111111,0.9238000001907309],[0.0013541666666666192,0.29240740740740734,0.9279999999999973],[-0.010625000000000048,0.3331481481481481,0.9450999999046275],[-0.027083333333333334,0.35759259259259263,0.9649999999999963],[-0.024895833333333308,0.39444444444444443,0.985200000286099],[-0.024895833333333308,0.39444444444444443,0.9939999999999998],[-0.01552083333333331,0.3668518518518519,1.0105000000000004],[-0.02666666666666669,0.306111111111111,1.030700000286103],[-0.017708333333333333,0.22685185185185186,1.048099999904629],[-0.03229166666666667,0.18203703703703694,1.0654000000953658],[-0.03229166666666667,0.18203703703703694,1.077300000190732],[-0.01229166666666662,0.19648148148148153,1.0940000000000012],[-0.01229166666666662,0.19648148148148153,1.1104999999999947],[0.008645833333333287,0.1735185185185186,1.127200000286102],[0.027708333333333356,0.16537037037037028,1.1507000002861005],[0.027708333333333356,0.16537037037037028,1.1605999999046333],[0.04093749999999995,0.12481481481481477,1.1773000001907334],[0.04093749999999995,0.12481481481481477,1.1939999999999955],[0.04791666666666667,0.08407407407407404,1.2107000002861028],[0.04791666666666667,0.08407407407407404,1.2274999999999991],[0.05166666666666669,0.057962962962962876,1.2439000000953655],[0.05166666666666669,0.057962962962962876,1.2605999999046276],[0.042604166666666644,0.08777777777777773,1.2773000001907349],[0.04874999999999995,0.11166666666666658,1.2979000000953675],[0.05375000000000003,0.14425925925925923,1.3138000001907315],[0.06604166666666664,0.13870370370370366,1.3308000001907345],[0.05791666666666669,0.12074074074074083,1.3575999999046289],[0.05791666666666669,0.12074074074074083,1.3642000002860968],[0.029062499999999977,0.1259259259259259,1.377200000286102],[-0.0048958333333333805,0.13722222222222227,1.397200000286098],[-0.030312500000000023,0.1737037037037036,1.4139000000953672],[-0.02354166666666669,0.18425925925925926,1.430499999999995],[-0.02354166666666669,0.18425925925925926,1.443800000190734],[-0.035520833333333356,0.17851851851851847,1.4605999999046304],[-0.034166666666666616,0.1985185185185186,1.4779999999999944],[-0.03947916666666664,0.22833333333333325,1.4964000000953632],[-0.04750000000000002,0.2905555555555555,1.51409999990463],[-0.04750000000000002,0.2905555555555555,1.5342000002860985],[-0.030104166666666644,0.2983333333333334,1.5479000000953675],[-0.036145833333333384,0.3122222222222223,1.5629999999999953],[-0.020624999999999952,0.318888888888889,1.5774000000953663],[-0.020624999999999952,0.318888888888889,1.593900000095367],[-0.02364583333333338,0.3081481481481481,1.610599999904629],[-0.0078125,0.302962962962963,1.627200000286102],[-0.019479166666666714,0.30481481481481487,1.644999999999996],[0.005104166666666643,0.3114814814814816,1.6634000000953648],[-0.002499999999999976,0.2946296296296297,1.6774999999999949],[-0.006666666666666643,0.2729629629629629,1.6939999999999955],[-0.008437500000000023,0.1955555555555556,1.7105999999046304],[-0.02385416666666664,0.15611111111111103,1.727099999904631],[-0.011979166666666667,0.1624074074074075,1.7438000001907312],[-0.00791666666666669,0.15777777777777785,1.7605999999046276],[0.03114583333333331,0.14370370370370375,1.7834999999999965],[0.03114583333333331,0.14370370370370375,1.7942000002860965],[0.019479166666666714,0.1479629629629629,1.8105999999046318],[0.03812500000000003,0.1603703703703704,1.8272000002860977],[0.05656249999999995,0.14037037037037028,1.8440000000000012],[0.05656249999999995,0.14037037037037028,1.860599999904629],[0.10364583333333334,0.1257407407407407,1.8773000001907292],[0.12041666666666657,0.1411111111111112,1.893900000095364],[0.1388541666666666,0.13722222222222227,1.910499999999999],[0.15666666666666676,0.17629629629629637,1.9272000002860992],[0.17333333333333342,0.1574074074074074,1.9479000000953661],[0.1865624999999999,0.14814814814814814,1.961599999904628],[0.19187500000000005,0.14685185185185176,1.9779000000953673],[0.2234375,0.11129629629629634,1.9974999999999952],[0.24104166666666677,0.09018518518518527,2.013300000190732],[0.24104166666666677,0.09018518518518527,2.027400000095362],[0.24104166666666677,0.08129629629629626,2.0487000002860967],[0.24104166666666677,0.08129629629629626,2.0608000001907314],[0.2169791666666666,0.08833333333333342,2.0775000000000006],[0.23229166666666667,0.10851851851851856,2.1012000002860987],[0.23229166666666667,0.10851851851851856,2.110599999904629],[0.21510416666666668,0.15592592592592602,2.1274999999999977],[0.17583333333333329,0.1646296296296296,2.144599999904628],[0.1397916666666667,0.18981481481481483,2.1639999999999944],[0.11500000000000009,0.21092592592592588,2.1780999999046315],[0.0609375,0.23722222222222225,2.1960999999046322],[0.021458333333333357,0.2598148148148147,2.217400000095367],[0.021458333333333357,0.2598148148148147,2.227400000095365],[0.0037500000000000237,0.2566666666666667,2.244099999904627],[-0.028645833333333332,0.26648148148148143,2.2612000002861024],[-0.034166666666666616,0.2492592592592593,2.2812000002860984],[-0.07093750000000003,0.22037037037037038,2.296300000190733],[-0.0829166666666667,0.20388888888888893,2.310700000286097],[-0.06708333333333331,0.1962962962962963,2.3297000002861026],[-0.06083333333333331,0.17240740740740745,2.344000000000001],[-0.03447916666666669,0.16999999999999993,2.3607000002861014],[-0.03270833333333331,0.14425925925925923,2.3770999999046296],[-0.003541666666666643,0.14296296296296304,2.396400000095362],[-0.014999999999999977,0.12925925925925918,2.4110999999046285],[-0.02666666666666669,0.13759259259259252,2.427499999999995],[-0.05416666666666667,0.14870370370370362,2.443800000190734],[-0.033854166666666664,0.15092592592592594,2.4647000002861006],[-0.06489583333333329,0.1477777777777777,2.480800000190733],[-0.06333333333333328,0.11351851851851844,2.4968000001907313],[-0.07739583333333329,0.12037037037037036,2.5147000002860977],[-0.10416666666666667,0.0801851851851851,2.5294000000953645],[-0.09239583333333339,0.040740740740740744,2.543999999999997],[-0.08937499999999995,0.014074074074074116,2.5629999999999953],[-0.0703125,-0.001851851851851852,2.5778000001907344],[-0.06572916666666669,-0.01777777777777782,2.594000000000001],[-0.028750000000000022,-0.00722222222222218,2.614300000190731],[-0.04822916666666662,-0.04018518518518527,2.6274000000953635],[-0.02510416666666669,-0.07407407407407407,2.6440999999046326],[-0.018124999999999978,-0.09037037037037039,2.6605999999046333],[0.007500000000000047,-0.13555555555555554,2.6947000002860975],[0.007500000000000047,-0.13555555555555554,2.701900000095364],[0.022395833333333334,-0.09740740740740746,2.714099999904633],[0.07531249999999995,-0.07796296296296301,2.729700000286101],[0.08072916666666667,-0.06518518518518517,2.7447000002861017],[0.08093750000000005,-0.02833333333333325,2.764400000095364],[0.10864583333333329,-0.02907407407407416,2.780999999999999],[0.13135416666666658,-0.048333333333333374,2.7967000002861013],[0.17072916666666677,-0.023333333333333376,2.815800000190734],[0.20750000000000005,-0.008888888888888804,2.831700000286098],[0.21416666666666656,0.014814814814814815,2.8478000001907304],[0.22427083333333328,0.034999999999999955,2.8677000002860993],[0.22427083333333328,0.034999999999999955,2.8774999999999977],[0.2234375,0.02370370370370362,2.894200000286098],[0.19822916666666662,0.03740740740740749,2.9125999999046286],[0.19093749999999995,0.020185185185185143,2.927200000286099],[0.18041666666666673,-0.022777777777777692,2.9448000001907317],[0.18291666666666656,-0.04314814814814806,2.961099999904633],[0.1648958333333333,-0.07518518518518523,2.9777000002860987],[0.12750000000000009,-0.11314814814814819,2.9972000002860995],[0.11010416666666671,-0.13240740740740742,3.0179000000953664],[0.11010416666666671,-0.13240740740740742,3.0323000001907303],[0.11791666666666671,-0.15685185185185183,3.044099999904631],[0.11791666666666671,-0.15685185185185183,3.0608000001907314],[0.09666666666666662,-0.16425925925925924,3.0812000002861026],[0.09916666666666671,-0.19296296296296295,3.097999999999999],[0.09791666666666667,-0.22148148148148153,3.117900000095368],[0.09791666666666667,-0.22148148148148153,3.1325000000000003],[0.10354166666666677,-0.2505555555555556,3.1440999999046326],[0.10354166666666677,-0.2505555555555556,3.1662000002861035],[0.08802083333333334,-0.24055555555555552,3.1774000000953677],[0.06520833333333335,-0.2351851851851852,3.199300000190732],[0.06052083333333336,-0.25759259259259265,3.216000000000001],[0.0703125,-0.2711111111111111,3.231900000095365],[0.06510416666666667,-0.2801851851851852,3.250700000286102],[0.06510416666666667,-0.2801851851851852,3.2607000002861],[0.051770833333333384,-0.28351851851851856,3.2774999999999963],[0.06458333333333334,-0.30333333333333334,3.297300000190731],[0.050625000000000024,-0.3116666666666667,3.315400000095366],[0.05562499999999997,-0.30629629629629623,3.3319000000953665],[0.035520833333333356,-0.29314814814814816,3.348300000190733],[0.07291666666666667,-0.3162962962962963,3.3659999999999997],[0.07291666666666667,-0.3162962962962963,3.377300000190729],[0.06437499999999995,-0.32388888888888884,3.3940999999046326],[0.04458333333333329,-0.285,3.411300000190735],[0.027604166666666666,-0.2809259259259259,3.4317000002860993],[0.025833333333333285,-0.2687037037037037,3.4477000002860976],[0.008958333333333356,-0.25092592592592594,3.4647000002861006],[-0.0078125,-0.23648148148148146,3.4824000000953674],[-0.0078125,-0.23648148148148146,3.4943000001907336],[0.007500000000000047,-0.247037037037037,3.5107000002861],[-0.016458333333333287,-0.2418518518518519,3.527300000190735],[-0.02020833333333331,-0.2294444444444444,3.548800000190731],[-0.051041666666666666,-0.22388888888888886,3.565099999904632],[-0.035416666666666666,-0.23259259259259263,3.58130000019073],[-0.021562500000000047,-0.24222222222222226,3.613599999904629],[-0.021562500000000047,-0.24222222222222226,3.6205],[0.018229166666666668,-0.2390740740740741,3.627599999904632],[0.03802083333333333,-0.24277777777777781,3.6448000001907346],[0.06239583333333331,-0.2574074074074074,3.6663000001907307],[0.06364583333333336,-0.26648148148148143,3.682400000095363],[0.06364583333333336,-0.26648148148148143,3.6939999999999955],[0.058437500000000024,-0.23870370370370367,3.71080000019073],[0.08125,-0.22629629629629627,3.731499999999997],[0.08541666666666667,-0.23407407407407405,3.747700000286102],[0.07000000000000005,-0.21351851851851855,3.7637000002861],[0.05604166666666662,-0.2161111111111111,3.7828000001907327],[0.05604166666666662,-0.2161111111111111,3.793999999999997],[0.01739583333333338,-0.2161111111111111,3.810700000286097],[-0.013750000000000047,-0.19592592592592595,3.8274000000953663],[-0.041979166666666616,-0.2022222222222222,3.847300000190735],[-0.0546875,-0.21370370370370367,3.8680999999046293],[-0.0546875,-0.21370370370370367,3.8774000000953635],[-0.044270833333333336,-0.23074074074074077,3.894200000286098],[-0.04375,-0.2338888888888889,3.9163000001907307],[-0.07541666666666665,-0.272037037037037,3.9317000002860993],[-0.07541666666666665,-0.272037037037037,3.9439000000953683],[-0.08843749999999997,-0.29000000000000004,3.96080000019073],[-0.07770833333333335,-0.31611111111111106,3.9779999999999944],[-0.1141666666666667,-0.31796296296296295,3.997099999904627],[-0.0703125,-0.3383333333333333,4.013800000190734],[-0.09416666666666665,-0.36129629629629634,4.032599999904633],[-0.07958333333333331,-0.36870370370370376,4.056200000286097],[-0.07958333333333331,-0.36870370370370376,4.063499999999998],[-0.12124999999999998,-0.3727777777777778,4.077300000190732],[-0.12124999999999998,-0.3727777777777778,4.094000000000001],[-0.109375,-0.3696296296296297,4.1155999999046315],[-0.109375,-0.3696296296296297,4.12709999990463],[-0.14197916666666663,-0.4094444444444445,4.143900000095364],[-0.14197916666666663,-0.4094444444444445,4.165200000286099],[-0.10187499999999995,-0.3990740740740741,4.177099999904627],[-0.10187499999999995,-0.3990740740740741,4.1939999999999955],[-0.10041666666666664,-0.3890740740740741,4.21059999990463],[-0.10041666666666664,-0.3890740740740741,4.227200000286103],[-0.05645833333333338,-0.3683333333333333,4.2439000000953655],[-0.05645833333333338,-0.3683333333333333,4.2605],[-0.026145833333333358,-0.3635185185185185,4.277099999904628],[-0.057083333333333285,-0.33777777777777773,4.296300000190733],[-0.01739583333333338,-0.3122222222222223,4.314700000286102],[-0.02166666666666662,-0.3490740740740741,4.330500000000001],[0.02833333333333338,-0.33722222222222226,4.346999999999994],[0.04083333333333338,-0.3675925925925926,4.362400000095363],[0.041562499999999974,-0.3768518518518518,4.377200000286102],[0.04239583333333338,-0.3846296296296296,4.394099999904633],[0.049374999999999974,-0.4359259259259259,4.4118000001907305],[0.03239583333333336,-0.5001851851851852,4.429900000095365],[0.05656249999999995,-0.5112962962962964,4.448499999999996],[0.08375000000000009,-0.5687037037037037,4.46380000019073],[0.08395833333333323,-0.6374074074074074,4.479200000286099],[0.08552083333333324,-0.5881481481481482,4.501599999904627],[0.08552083333333324,-0.5881481481481482,4.5105],[0.08947916666666676,-0.6131481481481482,4.527099999904628],[0.06354166666666666,-0.6022222222222222,4.543999999999997],[0.10354166666666677,-0.5881481481481482,4.5625],[0.1099999999999999,-0.6003703703703703,4.5770999999046325],[0.12927083333333325,-0.5790740740740741,4.595800000190735],[0.12333333333333343,-0.5592592592592592,4.610599999904629],[0.12229166666666676,-0.5861111111111111,4.62709999990463],[0.128125,-0.5703703703703704,4.64380000019073],[0.115625,-0.542962962962963,4.6618000001907305],[0.12395833333333334,-0.5577777777777777,4.68],[0.12270833333333328,-0.5496296296296297,4.697499999999998],[0.14614583333333328,-0.5585185185185185,4.714900000095362],[0.14572916666666677,-0.5501851851851852,4.729999999999997],[0.13739583333333344,-0.5366666666666667,4.749900000095366],[0.13739583333333344,-0.5366666666666667,4.7668000001907345],[0.15750000000000006,-0.5196296296296297,4.780999999999999],[0.16177083333333328,-0.5007407407407407,4.797099999904631],[0.1814583333333334,-0.5112962962962964,4.810599999904632],[0.18885416666666663,-0.4896296296296296,4.827200000286098],[0.1962500000000001,-0.4853703703703704,4.843900000095367],[0.21541666666666662,-0.4751851851851852,4.860499999999995],[0.209375,-0.4859259259259259,4.877200000286102],[0.2107291666666666,-0.43425925925925923,4.89659999990463],[0.21677083333333325,-0.4372222222222223,4.9133000001907305],[0.17489583333333342,-0.40259259259259256,4.943099999904632],[0.17489583333333342,-0.40259259259259256,4.951400000095369],[0.1287499999999999,-0.3968518518518519,4.960499999999996],[0.10239583333333328,-0.35407407407407404,4.977200000286103],[0.0943749999999999,-0.31444444444444447,4.9939000000953655],[0.06031249999999998,-0.29907407407407405,5.010400000095366],[0.06031249999999998,-0.29907407407407405,5.027200000286101]]","[0.00020000028609956644,0.0634000000953634,0.07730000019073202,0.0962000002861032,0.11070000028610139,0.12730000019072918,0.14770000028610042,0.16490000009536487,0.18080000019073594,0.1980000000000004,0.21490000009536203,0.23149999999999693,0.24759999990462944,0.26149999999999807,0.2779000000953644,0.2968000001907356,0.31359999990463194,0.33020000028609786,0.3449000000953646,0.36120000028609667,0.3784000000953682,0.3984999999999985,0.4143000001907353,0.43199999999999505,0.44859999990462995,0.46490000009536203,0.48280000019073555,0.5099000000953637,0.5112000002861024,0.527400000095362,0.550300000190731,0.5607000002860971,0.5774000000953663,0.595400000095367,0.6153000001907358,0.6320999999046322,0.64830000019073,0.6609000000953671,0.6813000001907312,0.6940999999046298,0.71080000019073,0.7312000002861012,0.7475999999046294,0.7652000002861001,0.7849000000953623,0.7942000002860965,0.8109000000953657,0.8274000000953663,0.8479000000953647,0.864300000190731,0.8774000000953635,0.8939000000953641,0.9238000001907309,0.9279999999999973,0.9450999999046275,0.9649999999999963,0.985200000286099,0.9939999999999998,1.0105000000000004,1.030700000286103,1.048099999904629,1.0654000000953658,1.077300000190732,1.0940000000000012,1.1104999999999947,1.127200000286102,1.1507000002861005,1.1605999999046333,1.1773000001907334,1.1939999999999955,1.2107000002861028,1.2274999999999991,1.2439000000953655,1.2605999999046276,1.2773000001907349,1.2979000000953675,1.3138000001907315,1.3308000001907345,1.3575999999046289,1.3642000002860968,1.377200000286102,1.397200000286098,1.4139000000953672,1.430499999999995,1.443800000190734,1.4605999999046304,1.4779999999999944,1.4964000000953632,1.51409999990463,1.5342000002860985,1.5479000000953675,1.5629999999999953,1.5774000000953663,1.593900000095367,1.610599999904629,1.627200000286102,1.644999999999996,1.6634000000953648,1.6774999999999949,1.6939999999999955,1.7105999999046304,1.727099999904631,1.7438000001907312,1.7605999999046276,1.7834999999999965,1.7942000002860965,1.8105999999046318,1.8272000002860977,1.8440000000000012,1.860599999904629,1.8773000001907292,1.893900000095364,1.910499999999999,1.9272000002860992,1.9479000000953661,1.961599999904628,1.9779000000953673,1.9974999999999952,2.013300000190732,2.027400000095362,2.0487000002860967,2.0608000001907314,2.0775000000000006,2.1012000002860987,2.110599999904629,2.1274999999999977,2.144599999904628,2.1639999999999944,2.1780999999046315,2.1960999999046322,2.217400000095367,2.227400000095365,2.244099999904627,2.2612000002861024,2.2812000002860984,2.296300000190733,2.310700000286097,2.3297000002861026,2.344000000000001,2.3607000002861014,2.3770999999046296,2.396400000095362,2.4110999999046285,2.427499999999995,2.443800000190734,2.4647000002861006,2.480800000190733,2.4968000001907313,2.5147000002860977,2.5294000000953645,2.543999999999997,2.5629999999999953,2.5778000001907344,2.594000000000001,2.614300000190731,2.6274000000953635,2.6440999999046326,2.6605999999046333,2.6947000002860975,2.701900000095364,2.714099999904633,2.729700000286101,2.7447000002861017,2.764400000095364,2.780999999999999,2.7967000002861013,2.815800000190734,2.831700000286098,2.8478000001907304,2.8677000002860993,2.8774999999999977,2.894200000286098,2.9125999999046286,2.927200000286099,2.9448000001907317,2.961099999904633,2.9777000002860987,2.9972000002860995,3.0179000000953664,3.0323000001907303,3.044099999904631,3.0608000001907314,3.0812000002861026,3.097999999999999,3.117900000095368,3.1325000000000003,3.1440999999046326,3.1662000002861035,3.1774000000953677,3.199300000190732,3.216000000000001,3.231900000095365,3.250700000286102,3.2607000002861,3.2774999999999963,3.297300000190731,3.315400000095366,3.3319000000953665,3.348300000190733,3.3659999999999997,3.377300000190729,3.3940999999046326,3.411300000190735,3.4317000002860993,3.4477000002860976,3.4647000002861006,3.4824000000953674,3.4943000001907336,3.5107000002861,3.527300000190735,3.548800000190731,3.565099999904632,3.58130000019073,3.613599999904629,3.6205,3.627599999904632,3.6448000001907346,3.6663000001907307,3.682400000095363,3.6939999999999955,3.71080000019073,3.731499999999997,3.747700000286102,3.7637000002861,3.7828000001907327,3.793999999999997,3.810700000286097,3.8274000000953663,3.847300000190735,3.8680999999046293,3.8774000000953635,3.894200000286098,3.9163000001907307,3.9317000002860993,3.9439000000953683,3.96080000019073,3.9779999999999944,3.997099999904627,4.013800000190734,4.032599999904633,4.056200000286097,4.063499999999998,4.077300000190732,4.094000000000001,4.1155999999046315,4.12709999990463,4.143900000095364,4.165200000286099,4.177099999904627,4.1939999999999955,4.21059999990463,4.227200000286103,4.2439000000953655,4.2605,4.277099999904628,4.296300000190733,4.314700000286102,4.330500000000001,4.346999999999994,4.362400000095363,4.377200000286102,4.394099999904633,4.4118000001907305,4.429900000095365,4.448499999999996,4.46380000019073,4.479200000286099,4.501599999904627,4.5105,4.527099999904628,4.543999999999997,4.5625,4.5770999999046325,4.595800000190735,4.610599999904629,4.62709999990463,4.64380000019073,4.6618000001907305,4.68,4.697499999999998,4.714900000095362,4.729999999999997,4.749900000095366,4.7668000001907345,4.780999999999999,4.797099999904631,4.810599999904632,4.827200000286098,4.843900000095367,4.860499999999995,4.877200000286102,4.89659999990463,4.9133000001907305,4.943099999904632,4.951400000095369,4.960499999999996,4.977200000286103,4.9939000000953655,5.010400000095366,5.027200000286101]","[1732163422864,1732163422918,1732163422932,1732163422951,1732163422965,1732163422982,1732163423002,1732163423019,1732163423035,1732163423052,1732163423069,1732163423086,1732163423102,1732163423116,1732163423132,1732163423151,1732163423168,1732163423185,1732163423199,1732163423216,1732163423233,1732163423253,1732163423269,1732163423286,1732163423303,1732163423319,1732163423337,1732163423364,1732163423366,1732163423382,1732163423405,1732163423415,1732163423432,1732163423450,1732163423470,1732163423487,1732163423503,1732163423515,1732163423536,1732163423548,1732163423565,1732163423586,1732163423602,1732163423620,1732163423639,1732163423649,1732163423665,1732163423682,1732163423702,1732163423719,1732163423732,1732163423748,1732163423778,1732163423782,1732163423800,1732163423819,1732163423840,1732163423848,1732163423865,1732163423885,1732163423903,1732163423920,1732163423932,1732163423948,1732163423965,1732163423982,1732163424005,1732163424015,1732163424032,1732163424048,1732163424065,1732163424082,1732163424098,1732163424115,1732163424132,1732163424152,1732163424168,1732163424185,1732163424212,1732163424219,1732163424232,1732163424252,1732163424268,1732163424285,1732163424298,1732163424315,1732163424332,1732163424351,1732163424369,1732163424389,1732163424402,1732163424417,1732163424432,1732163424448,1732163424465,1732163424482,1732163424499,1732163424518,1732163424532,1732163424548,1732163424565,1732163424582,1732163424598,1732163424615,1732163424638,1732163424649,1732163424665,1732163424682,1732163424698,1732163424715,1732163424732,1732163424748,1732163424765,1732163424782,1732163424802,1732163424816,1732163424832,1732163424852,1732163424868,1732163424882,1732163424903,1732163424915,1732163424932,1732163424956,1732163424965,1732163424982,1732163424999,1732163425018,1732163425033,1732163425051,1732163425072,1732163425082,1732163425099,1732163425116,1732163425136,1732163425151,1732163425165,1732163425184,1732163425198,1732163425215,1732163425232,1732163425251,1732163425266,1732163425282,1732163425298,1732163425319,1732163425335,1732163425351,1732163425369,1732163425384,1732163425399,1732163425417,1732163425432,1732163425448,1732163425469,1732163425482,1732163425499,1732163425515,1732163425549,1732163425556,1732163425569,1732163425584,1732163425599,1732163425619,1732163425635,1732163425651,1732163425670,1732163425686,1732163425702,1732163425722,1732163425732,1732163425749,1732163425767,1732163425782,1732163425799,1732163425815,1732163425832,1732163425852,1732163425872,1732163425887,1732163425899,1732163425915,1732163425936,1732163425953,1732163425972,1732163425987,1732163425999,1732163426021,1732163426032,1732163426054,1732163426070,1732163426086,1732163426105,1732163426115,1732163426132,1732163426152,1732163426170,1732163426186,1732163426203,1732163426220,1732163426232,1732163426249,1732163426266,1732163426286,1732163426302,1732163426319,1732163426337,1732163426349,1732163426365,1732163426382,1732163426403,1732163426420,1732163426436,1732163426468,1732163426475,1732163426482,1732163426499,1732163426521,1732163426537,1732163426548,1732163426565,1732163426586,1732163426602,1732163426618,1732163426637,1732163426648,1732163426665,1732163426682,1732163426702,1732163426723,1732163426732,1732163426749,1732163426771,1732163426786,1732163426798,1732163426815,1732163426832,1732163426851,1732163426869,1732163426887,1732163426911,1732163426918,1732163426932,1732163426948,1732163426970,1732163426982,1732163426998,1732163427020,1732163427032,1732163427048,1732163427065,1732163427082,1732163427098,1732163427115,1732163427132,1732163427151,1732163427169,1732163427185,1732163427201,1732163427217,1732163427232,1732163427249,1732163427266,1732163427284,1732163427303,1732163427318,1732163427334,1732163427356,1732163427365,1732163427382,1732163427398,1732163427417,1732163427432,1732163427450,1732163427465,1732163427482,1732163427498,1732163427516,1732163427534,1732163427552,1732163427569,1732163427584,1732163427604,1732163427621,1732163427635,1732163427652,1732163427665,1732163427682,1732163427698,1732163427715,1732163427732,1732163427751,1732163427768,1732163427798,1732163427806,1732163427815,1732163427832,1732163427848,1732163427865,1732163427882]","[[1282.8,495],[1282.8,495],[1263.9,463.2],[1264.8,433.3],[1264.8,433.3],[1251.9,417.8],[1198.5,376.2],[1172.4,363.4],[1088.4,338.4],[1069.1,331.7],[1068.6,314.1],[1062.9,311.7],[1036.7,299.3],[1028.6,294.2],[978,276],[961.3,270.9],[989.3,279.2],[1005.1,284.1],[1072.4,285.6],[1064.6,298.1],[1064.2,298.2],[1064.4,311.9],[1079.1,318.8],[1071.4,324.9],[1097.7,319.5],[1104.4,303],[1105.2,297.1],[1105.2,297.1],[1105.2,297.1],[1076.6,297.1],[1040.9,326.2],[1040.9,326.2],[1017,347.2],[1014.2,384.1],[991.6,390.6],[993.5,428.6],[980.3,454.7],[980.3,454.7],[971.8,500.3],[971.8,500.3],[961.9,544.8],[952.7,576.7],[955.6,602.3],[955.7,612.6],[958.4,608.6],[958.4,608.6],[946.2,623.2],[958.9,649.5],[969.6,679],[966.7,683.2],[966.7,683.2],[971.2,694.5],[971.2,694.5],[961.3,697.9],[949.8,719.9],[934,733.1],[936.1,753],[936.1,753],[945.1,738.1],[934.4,705.3],[943,662.5],[929,638.3],[929,638.3],[948.2,646.1],[948.2,646.1],[968.3,633.7],[986.6,629.3],[986.6,629.3],[999.3,607.4],[999.3,607.4],[1006,585.4],[1006,585.4],[1009.6,571.3],[1009.6,571.3],[1000.9,587.4],[1006.8,600.3],[1011.6,617.9],[1023.4,614.9],[1015.6,605.2],[1015.6,605.2],[987.9,608],[955.3,614.1],[930.9,633.8],[937.4,639.5],[937.4,639.5],[925.9,636.4],[927.2,647.2],[922.1,663.3],[914.4,696.9],[914.4,696.9],[931.1,701.1],[925.3,708.6],[940.2,712.2],[940.2,712.2],[937.3,706.4],[952.5,703.6],[941.3,704.6],[964.9,708.2],[957.6,699.1],[953.6,687.4],[951.9,645.6],[937.1,624.3],[948.5,627.7],[952.4,625.2],[989.9,617.6],[989.9,617.6],[978.7,619.9],[996.6,626.6],[1014.3,615.8],[1014.3,615.8],[1059.5,607.9],[1075.6,616.2],[1093.3,614.1],[1110.4,635.2],[1126.4,625],[1139.1,620],[1144.2,619.3],[1174.5,600.1],[1191.4,588.7],[1191.4,588.7],[1191.4,583.9],[1191.4,583.9],[1168.3,587.7],[1183,598.6],[1183,598.6],[1166.5,624.2],[1128.8,628.9],[1094.2,642.5],[1070.4,653.9],[1018.5,668.1],[980.6,680.3],[980.6,680.3],[963.6,678.6],[932.5,683.9],[927.2,674.6],[891.9,659],[880.4,650.1],[895.6,646],[901.6,633.1],[926.9,631.8],[928.6,617.9],[956.6,617.2],[945.6,609.8],[934.4,614.3],[908,620.3],[927.5,621.5],[897.7,619.8],[899.2,601.3],[885.7,605],[860,583.3],[871.3,562],[874.2,547.6],[892.5,539],[896.9,530.4],[932.4,536.1],[913.7,518.3],[935.9,500],[942.6,491.2],[967.2,466.8],[967.2,466.8],[981.5,487.4],[1032.3,497.9],[1037.5,504.8],[1037.7,524.7],[1064.3,524.3],[1086.1,513.9],[1123.9,527.4],[1159.2,535.2],[1165.6,548],[1175.3,558.9],[1175.3,558.9],[1174.5,552.8],[1150.3,560.2],[1143.3,550.9],[1133.2,527.7],[1135.6,516.7],[1118.3,499.4],[1082.4,478.9],[1065.7,468.5],[1065.7,468.5],[1073.2,455.3],[1073.2,455.3],[1052.8,451.3],[1055.2,435.8],[1054,420.4],[1054,420.4],[1059.4,404.7],[1059.4,404.7],[1044.5,410.1],[1022.6,413],[1018.1,400.9],[1027.5,393.6],[1022.5,388.7],[1022.5,388.7],[1009.7,386.9],[1022,376.2],[1008.6,371.7],[1013.4,374.6],[994.1,381.7],[1030,369.2],[1030,369.2],[1021.8,365.1],[1002.8,386.1],[986.5,388.3],[984.8,394.9],[968.6,404.5],[952.5,412.3],[952.5,412.3],[967.2,406.6],[944.2,409.4],[940.6,416.1],[911,419.1],[926,414.4],[939.3,409.2],[939.3,409.2],[977.5,410.9],[996.5,408.9],[1019.9,401],[1021.1,396.1],[1021.1,396.1],[1016.1,411.1],[1038,417.8],[1042,413.6],[1027.2,424.7],[1013.8,423.3],[1013.8,423.3],[976.7,423.3],[946.8,434.2],[919.7,430.8],[907.5,424.6],[907.5,424.6],[917.5,415.4],[918,413.7],[887.6,393.1],[887.6,393.1],[875.1,383.4],[885.4,369.3],[850.4,368.3],[892.5,357.3],[869.6,344.9],[883.6,340.9],[883.6,340.9],[843.6,338.7],[843.6,338.7],[855,340.4],[855,340.4],[823.7,318.9],[823.7,318.9],[862.2,324.5],[862.2,324.5],[863.6,329.9],[863.6,329.9],[905.8,341.1],[905.8,341.1],[934.9,343.7],[905.2,357.6],[943.3,371.4],[939.2,351.5],[987.2,357.9],[999.2,341.5],[999.9,336.5],[1000.7,332.3],[1007.4,304.6],[991.1,269.9],[1014.3,263.9],[1040.4,232.9],[1040.6,195.8],[1042.1,222.4],[1042.1,222.4],[1045.9,208.9],[1021,214.8],[1059.4,222.4],[1065.6,215.8],[1084.1,227.3],[1078.4,238],[1077.4,223.5],[1083,232],[1071,246.8],[1079,238.8],[1077.8,243.2],[1100.3,238.4],[1099.9,242.9],[1091.9,250.2],[1091.9,250.2],[1111.2,259.4],[1115.3,269.6],[1134.2,263.9],[1141.3,275.6],[1148.4,277.9],[1166.8,283.4],[1161,277.6],[1162.3,305.5],[1168.1,303.9],[1127.9,322.6],[1127.9,322.6],[1083.6,325.7],[1058.3,348.8],[1050.6,370.2],[1017.9,378.5],[1017.9,378.5]]","[-0.132282,0.39684600000000003]","[0.132282,0.39684600000000003]","[0.39684600000000003,0.39684600000000003]","[-0.39684600000000003,-0.39684600000000003]","[-0.39684600000000003,-0.132282]","[-0.39684600000000003,0.132282]","[-0.132282,-0.39684600000000003]","[0.132282,-0.39684600000000003]","[0.39684600000000003,-0.39684600000000003]","[-0.132282,-0.132282]","[0.132282,-0.132282]","[0.39684600000000003,-0.132282]","[-0.132282,0.132282]","[0.132282,0.132282]","[0.39684600000000003,0.132282]",0,0,0,0,1,1,Tablet,20,20,7,2,70,4,2,70,4
